"trial_type","trial_index","time_elapsed","internal_node_id","PROLIFIC_PID","STUDY_ID","SESSION_ID","rt","stimulus","button_pressed","success","key_press","responses","isData","view_history","response_type","avg_frame_time","center_x","center_y","isSC","stim_side","trial_luminance","step_size","nReversal","correct","prev_ans","isThreshold","SC_threshold","final_threshold","isLuminance","FF_luminance","luminance","stimSide","ISInt","isFF","question_order","isSPQ","isCAPS","isAQ"
"pavlovia","0","10","0.0-0.0","5eb583347d2134426fce5fe7","609a8bf73b2ac84e2732f618","609d7b08ce0ddb4be6ec3f09","","","","","","","","","","","","","","","","","","","","","","","","","","","","","","","",""
"html-button-response","1","35089","0.0-1.0","5eb583347d2134426fce5fe7","609a8bf73b2ac84e2732f618","609d7b08ce0ddb4be6ec3f09","35073.21000000229","<div style='background-color: white; width:60%; margin: auto; padding: 50px; text-align: justify; text-justify: inter-word; margin-bottom: 20px;'><h1 style='text-align: center;'>Consent Form</h1><p>Please read this consent form carefully before deciding whether you would like to participate in this study. You have to be 18 years old or older to participate to this study.</p><p style='text-decoration: underline;'>Participation is voluntary:</p><p>It is your choice whether or not to participate in this research. If you choose to participate, you may change your mind and leave the study at any time. Refusal to participate or stopping your participation will involve no penalty or loss of benefits to which you are otherwise entitled.</p><p style='text-decoration: underline;'>Purpose of the Study:</p><p>To understand the mechanisms underlying human perception.</p><p style='text-decoration: underline;'>What you will do in this study:</p><p>You will be presented with a series of visual images and then you will press buttons on the keyboard of your computer to respond to simple questions about the images (e.g. Were one or two images presented?). In addition, you will be asked to complete a questionnaire concerning your beliefs and everyday mental and perceptual experiences.'</p><p style='text-decoration: underline;'> Time Required:</p><p>The study will take 40 minutes to complete. </p><p style='text-decoration: underline;'>Risks:</p><p>There are no anticipated risks associated with participating in this study that are beyond those experienced in everyday life. </p><p style='text-decoration: underline;'>Benefits:</p><p>There are no benefits to you in participating in the study. However, this study may lead to a better understanding of how different kinds of visual information are used.</p><p style='text-decoration: underline;'>Compensation:</p><p>You will be paid US$6.6/hour. </p><p style='text-decoration: underline;'>Privacy and Confidentiality:</p><p>Your participation in this study will be anonymous. No personal information about your name or identity will be asked or recorded. This anonymous data will be stored for several years and may be used for a variety of research purposes. The overall results of the study may be published, or the data files may be shared with other researchers, but your identity will not be revealed in any way. The online services we are using for this study may temporarily store your data, but this data will be downloaded and then promptly deleted from those services.Your data will not be permanently associated with your name, IP address, or any other identifiable information (e.g., your information will only be connected to your payment, not to any of your responses), though they may be temporarily stored together before we download and separate them. Even so, no guarantee of internet survey security can be given because, although unlikely, transmissions can be intercepted and IP addresses can be identified. The anonymous data may be shared publicly (for example, in conjunction with a resulting academic publication).</p><p style='text-decoration: underline;'>Participation and Withdrawal:</p><p>Your participation in this study is completely voluntary. You may stop responding to the stimuli or stop answering questions if you so choose and without penalty by exiting the full screen mode, closing this tab of your browser or redirecting it to a different website.</p><p style='text-decoration: underline;'>Contact Info of the Researcher: </p><p>If you have questions about this study, or if you would like to talk to the research team, please contact David Melcher (david.melcher@nyu.edu, md5050@nyu.edu) at the Perception and Active Cognition Laboratory, New York University Abu Dhabi, Computational Research Building, Saadiyat Island, Abu Dhabi, UAE.This research has been reviewed by the New York University Abu Dhabi Institutional Review Board (NYUAD IRB). To contact about your rights in this research, for questions, suggestions, or complaints that are not addressed by the researchers, please email IRBnyuad@nyu.edu, or call the NYUAD IRB at +971 2 628 4313. </p></div>","0","","","","","","","","","","","","","","","","","","","","","","","","","","","","",""
"fullscreen","2","37252","0.0-2.0","5eb583347d2134426fce5fe7","609a8bf73b2ac84e2732f618","609d7b08ce0ddb4be6ec3f09","","","","true","","","","","","","","","","","","","","","","","","","","","","","","","","","",""
"html-keyboard-response","3","82746","0.0-3.0","5eb583347d2134426fce5fe7","609a8bf73b2ac84e2732f618","609d7b08ce0ddb4be6ec3f09","45488.79499999748","<p>Welcome !</p><p>READ CAREFULLY THE FOLLOWING INDICATIONS:</p><p>From this moment you have ~40 minutes to complete the experiment.</p><p>During the experiment you will be prompted to take several breaks. Each break should not last longer than 2-3 minutes.</p><p>Make sure that your computer is plugged in and it's not running on battery power, even if the battery is already fully charged.</p><p>Turn off your phone and music, make sure that you are in a quiet room and that you will not be distracted for the next hour.</p><p>Failure to comply with the instructions and indications provided during the experiment will most likely result in the rejection of your data.<p>Press the spacebar to start.</p>","","","32","","","","","","","","","","","","","","","","","","","","","","","","","","",""
"survey-html-form","4","89046","0.0-4.0","5eb583347d2134426fce5fe7","609a8bf73b2ac84e2732f618","609d7b08ce0ddb4be6ec3f09","6296.040000001085","","","","","{""age"":""29"",""sex"":""F""}","true","","","","","","","","","","","","","","","","","","","","","","","","",""
"instructions","5","149121","0.0-5.0","5eb583347d2134426fce5fe7","609a8bf73b2ac84e2732f618","609d7b08ce0ddb4be6ec3f09","60073.004999998375","","","","","","","[{""page_index"":0,""viewing_time"":40591.15999999631},{""page_index"":1,""viewing_time"":11759.074999994482},{""page_index"":2,""viewing_time"":7722.395000004326}]","","","","","","","","","","","","","","","","","","","","","","","",""
"psychophysics","6","151302","0.0-6.0-0.0","5eb583347d2134426fce5fe7","609a8bf73b2ac84e2732f618","609d7b08ce0ddb4be6ec3f09","1172.7450000034878","","","","37","","","","key","16.670930769230697","678","348.5","true","1","180","30","0","1","","","","","","","","","","","","","",""
"psychophysics","7","152315","0.0-6.0-0.1","5eb583347d2134426fce5fe7","609a8bf73b2ac84e2732f618","609d7b08ce0ddb4be6ec3f09","11.660000003757887","","","","39","","","","key","16.666999999999824","678","348.5","true","1","210","30","0","-1","1","","","","","","","","","","","","",""
"psychophysics","8","156655","0.0-6.0-0.2","5eb583347d2134426fce5fe7","609a8bf73b2ac84e2732f618","609d7b08ce0ddb4be6ec3f09","3337.679999996908","","","","39","","","","key","16.666999999999987","678","348.5","true","1","210","24","1","-1","-1","","","","","","","","","","","","",""
"psychophysics","9","158273","0.0-6.0-0.3","5eb583347d2134426fce5fe7","609a8bf73b2ac84e2732f618","609d7b08ce0ddb4be6ec3f09","616.1050000082469","","","","37","","","","key","16.66700000000007","678","348.5","true","-1","186","24","1","-1","-1","","","","","","","","","","","","",""
"psychophysics","10","159635","0.0-6.0-0.4","5eb583347d2134426fce5fe7","609a8bf73b2ac84e2732f618","609d7b08ce0ddb4be6ec3f09","359.375","","","","37","","","","key","16.667000000000023","678","348.5","true","-1","186","24","1","-1","-1","","","","","","","","","","","","",""
"psychophysics","11","160691","0.0-6.0-0.5","5eb583347d2134426fce5fe7","609a8bf73b2ac84e2732f618","609d7b08ce0ddb4be6ec3f09","55.095000003348105","","","","37","","","","key","16.666999999999874","678","348.5","true","-1","162","24","1","-1","-1","","","","","","","","","","","","",""
"psychophysics","12","161909","0.0-6.0-0.6","5eb583347d2134426fce5fe7","609a8bf73b2ac84e2732f618","609d7b08ce0ddb4be6ec3f09","215.27500000956934","","","","39","","","","key","16.673555555555748","678","348.5","true","1","162","24","1","-1","-1","","","","","","","","","","","","",""
"psychophysics","13","163013","0.0-6.0-0.7","5eb583347d2134426fce5fe7","609a8bf73b2ac84e2732f618","609d7b08ce0ddb4be6ec3f09","102.08500000589993","","","","37","","","","key","16.66700000000016","678","348.5","true","-1","138","24","1","-1","-1","","","","","","","","","","","","",""
"psychophysics","14","164335","0.0-6.0-0.8","5eb583347d2134426fce5fe7","609a8bf73b2ac84e2732f618","609d7b08ce0ddb4be6ec3f09","319.7199999995064","","","","39","","","","key","16.66699999999999","678","348.5","true","1","138","24","1","-1","-1","","","","","","","","","","","","",""
"psychophysics","15","166438","0.0-6.0-0.9","5eb583347d2134426fce5fe7","609a8bf73b2ac84e2732f618","609d7b08ce0ddb4be6ec3f09","1101.2099999934435","","","","37","","","","key","16.667","678","348.5","true","1","129","19.2","2","1","-1","","","","","","","","","","","","",""
"psychophysics","16","167917","0.0-6.0-0.10","5eb583347d2134426fce5fe7","609a8bf73b2ac84e2732f618","609d7b08ce0ddb4be6ec3f09","470.1800000038929","","","","37","","","","key","16.66700000000029","678","348.5","true","-1","148.2","19.2","2","-1","1","","","","","","","","","","","","",""
"psychophysics","17","169187","0.0-6.0-0.11","5eb583347d2134426fce5fe7","609a8bf73b2ac84e2732f618","609d7b08ce0ddb4be6ec3f09","268.33999999507796","","","","39","","","","key","16.666999999999923","678","348.5","true","1","148.2","15.36","3","-1","-1","","","","","","","","","","","","",""
"psychophysics","18","170984","0.0-6.0-0.12","5eb583347d2134426fce5fe7","609a8bf73b2ac84e2732f618","609d7b08ce0ddb4be6ec3f09","794.0600000001723","","","","37","","","","key","16.671803738317774","678","348.5","true","-1","132.83999999999997","15.36","3","-1","-1","","","","","","","","","","","","",""
"psychophysics","19","172952","0.0-6.0-0.13","5eb583347d2134426fce5fe7","609a8bf73b2ac84e2732f618","609d7b08ce0ddb4be6ec3f09","966.4750000083586","","","","37","","","","key","16.666999999999913","678","348.5","true","1","132.83999999999997","12.287999999999998","4","1","-1","","","","","","","","","","","","",""
"psychophysics","20","174688","0.0-6.0-0.14","5eb583347d2134426fce5fe7","609a8bf73b2ac84e2732f618","609d7b08ce0ddb4be6ec3f09","734.0600000025006","","","","39","","","","key","16.66700000000001","678","348.5","true","1","145.128","12.287999999999998","4","-1","1","","","","","","","","","","","","",""
"psychophysics","21","176276","0.0-6.0-0.15","5eb583347d2134426fce5fe7","609a8bf73b2ac84e2732f618","609d7b08ce0ddb4be6ec3f09","586.6450000030454","","","","39","","","","key","16.66700000000004","678","348.5","true","1","145.128","9.8304","5","-1","-1","","","","","","","","","","","","",""
"psychophysics","22","177968","0.0-6.0-0.16","5eb583347d2134426fce5fe7","609a8bf73b2ac84e2732f618","609d7b08ce0ddb4be6ec3f09","689.6649999980582","","","","39","","","","key","16.666999999999984","678","348.5","true","1","135.2976","9.8304","5","-1","-1","","","","","","","","","","","","",""
"psychophysics","23","180250","0.0-6.0-0.17","5eb583347d2134426fce5fe7","609a8bf73b2ac84e2732f618","609d7b08ce0ddb4be6ec3f09","1279.709999987972","","","","39","","","","key","16.666999999999998","678","348.5","true","-1","135.2976","7.864319999999999","6","1","-1","","","","","","","","","","","","",""
"psychophysics","24","182038","0.0-6.0-0.18","5eb583347d2134426fce5fe7","609a8bf73b2ac84e2732f618","609d7b08ce0ddb4be6ec3f09","786.2450000102399","","","","39","","","","key","16.671405660377307","678","348.5","true","1","143.16191999999998","7.864319999999999","6","-1","1","","","","","","","","","","","","",""
"psychophysics","25","183693","0.0-6.0-0.19","5eb583347d2134426fce5fe7","609a8bf73b2ac84e2732f618","609d7b08ce0ddb4be6ec3f09","654.3050000036601","","","","37","","","","key","16.667000000000094","678","348.5","true","-1","143.16191999999998","6.291456","7","-1","-1","","","","","","","","","","","","",""
"psychophysics","26","185348","0.0-6.0-0.20","5eb583347d2134426fce5fe7","609a8bf73b2ac84e2732f618","609d7b08ce0ddb4be6ec3f09","653.0749999947147","","","","37","","","","key","16.667000000000094","678","348.5","true","-1","136.87046399999997","6.291456","7","-1","-1","","","","","","","","","","","","",""
"psychophysics","27","186904","0.0-6.0-0.21","5eb583347d2134426fce5fe7","609a8bf73b2ac84e2732f618","609d7b08ce0ddb4be6ec3f09","552.3899999971036","","","","39","","","","key","16.666999999999874","678","348.5","true","1","136.87046399999997","6.291456","7","-1","-1","","","","","","","","","","","","",""
"psychophysics","28","188931","0.0-6.0-0.22","5eb583347d2134426fce5fe7","609a8bf73b2ac84e2732f618","609d7b08ce0ddb4be6ec3f09","1024.8049999936484","","","","39","","","","key","16.66700000000007","678","348.5","true","-1","130.57900799999996","5.033164800000001","8","1","-1","","","","","","","","","","","","",""
"psychophysics","29","190605","0.0-6.0-0.23","5eb583347d2134426fce5fe7","609a8bf73b2ac84e2732f618","609d7b08ce0ddb4be6ec3f09","670.0649999984307","","","","37","","","","key","16.666999999999824","678","348.5","true","-1","135.61217279999997","5.033164800000001","8","-1","1","","","","","","","","","","","","",""
"psychophysics","30","192372","0.0-6.0-0.24","5eb583347d2134426fce5fe7","609a8bf73b2ac84e2732f618","609d7b08ce0ddb4be6ec3f09","765.5549999908544","","","","37","","","","key","16.671914285714074","678","348.5","true","-1","135.61217279999997","4.0265318400000005","9","-1","-1","","","","","","","","","","","","",""
"psychophysics","31","194076","0.0-6.0-0.25","5eb583347d2134426fce5fe7","609a8bf73b2ac84e2732f618","609d7b08ce0ddb4be6ec3f09","702.4099999980535","","","","37","","","","key","16.666999999999984","678","348.5","true","-1","131.58564095999998","4.0265318400000005","9","-1","-1","","","","","","","","","","","","",""
"psychophysics","32","195853","0.0-6.0-0.26","5eb583347d2134426fce5fe7","609a8bf73b2ac84e2732f618","609d7b08ce0ddb4be6ec3f09","776.110000006156","","","","37","","","","key","16.667000000000183","678","348.5","true","-1","131.58564095999998","4.0265318400000005","9","-1","-1","","","","","","","","","","","","",""
"psychophysics","33","198144","0.0-6.0-0.27","5eb583347d2134426fce5fe7","609a8bf73b2ac84e2732f618","609d7b08ce0ddb4be6ec3f09","1287.4999999912689","","","","37","","","","key","16.666999999999998","678","348.5","true","1","129","3.2212254720000004","10","1","-1","","","","","","","","","","","","",""
"psychophysics","34","200028","0.0-6.0-0.28","5eb583347d2134426fce5fe7","609a8bf73b2ac84e2732f618","609d7b08ce0ddb4be6ec3f09","883.044999995036","","","","37","","","","key","16.66699999999998","678","348.5","true","1","132.22122547200001","3.2212254720000004","10","1","1","","","","","","","","","","","","",""
"psychophysics","35","201157","0.0-6.0-0.29","5eb583347d2134426fce5fe7","609a8bf73b2ac84e2732f618","609d7b08ce0ddb4be6ec3f09","126.07999998726882","","","","37","","","","key","16.6742985074629","678","348.5","true","-1","135.44245094400003","3.2212254720000004","10","-1","1","","","","","","","","","","","","",""
"psychophysics","36","202624","0.0-6.0-0.30","5eb583347d2134426fce5fe7","609a8bf73b2ac84e2732f618","609d7b08ce0ddb4be6ec3f09","465.3250000119442","","","","37","","","","key","16.667000000000108","678","348.5","true","-1","135.44245094400003","2.5769803776000004","11","-1","-1","","","","","","","","","","","","",""
"psychophysics","37","204098","0.0-6.0-0.31","5eb583347d2134426fce5fe7","609a8bf73b2ac84e2732f618","609d7b08ce0ddb4be6ec3f09","473.0500000005122","","","","39","","","","key","16.667000000000108","678","348.5","true","1","132.86547056640003","2.5769803776000004","11","-1","-1","","","","","","","","","","","","",""
"psychophysics","38","205992","0.0-6.0-0.32","5eb583347d2134426fce5fe7","609a8bf73b2ac84e2732f618","609d7b08ce0ddb4be6ec3f09","892.2800000000279","","","","39","","","","key","16.667000000000122","678","348.5","true","-1","132.86547056640003","2.0615843020800004","12","1","-1","","","","","","","","","","","","",""
"psychophysics","39","207561","0.0-6.0-0.33","5eb583347d2134426fce5fe7","609a8bf73b2ac84e2732f618","609d7b08ce0ddb4be6ec3f09","566.7600000015227","","","","39","","","","key","16.667000000000186","678","348.5","true","1","134.92705486848004","2.0615843020800004","12","-1","1","","","","","","","","","","","","",""
"psychophysics","40","209131","0.0-6.0-0.34","5eb583347d2134426fce5fe7","609a8bf73b2ac84e2732f618","609d7b08ce0ddb4be6ec3f09","568.0800000118325","","","","39","","","","key","16.667000000000186","678","348.5","true","1","134.92705486848004","1.6492674416640005","13","-1","-1","","","","","","","","","","","","",""
"psychophysics","41","210683","0.0-6.0-0.35","5eb583347d2134426fce5fe7","609a8bf73b2ac84e2732f618","609d7b08ce0ddb4be6ec3f09","549.8950000037439","","","","39","","","","key","16.667000000000016","678","348.5","true","1","133.27778742681605","1.6492674416640005","13","-1","-1","","","","","","","","","","","","",""
"psychophysics","42","225565","0.0-6.0-0.36","5eb583347d2134426fce5fe7","609a8bf73b2ac84e2732f618","609d7b08ce0ddb4be6ec3f09","13879.625000001397","","","","39","","","","key","47.80731832797428","678","348.5","true","-1","133.27778742681605","1.3194139533312006","14","1","-1","","","","","","","","","","","","",""
"psychophysics","43","226646","0.0-6.0-0.37","5eb583347d2134426fce5fe7","609a8bf73b2ac84e2732f618","609d7b08ce0ddb4be6ec3f09","78.35999999952037","","","","39","","","","key","16.666999999999916","678","348.5","true","1","134.59720138014725","1.3194139533312006","14","-1","1","","","","","","","","","","","","",""
"psychophysics","44","227683","0.0-6.0-0.38","5eb583347d2134426fce5fe7","609a8bf73b2ac84e2732f618","609d7b08ce0ddb4be6ec3f09","35.08999999030493","","","","37","","","","key","16.66699999999961","678","348.5","true","-1","134.59720138014725","1.0555311626649604","15","-1","-1","","","","","","","","","","","","",""
"psychophysics","45","243614","0.0-6.0-0.39","5eb583347d2134426fce5fe7","609a8bf73b2ac84e2732f618","609d7b08ce0ddb4be6ec3f09","14928.260000000591","","","","37","","","","key","16.667514165792237","678","348.5","true","-1","133.5416702174823","1.0555311626649604","15","-1","-1","","","","","","","","","","","","",""
"html-keyboard-response","46","313930","0.0-7.0","5eb583347d2134426fce5fe7","609a8bf73b2ac84e2732f618","609d7b08ce0ddb4be6ec3f09","70312.46000000101","<p>Well Done !</p><p>Prepare for a new block.</p><p>DON'T EXIT THE FULL SCREEN MODE</p><p>Press the Spacebar to start.</p>","","","32","","","","","","","","","","","","","","","true","133.34360719874462","","","","","","","","","","",""
"psychophysics","47","315546","0.0-8.0-0.0","5eb583347d2134426fce5fe7","609a8bf73b2ac84e2732f618","609d7b08ce0ddb4be6ec3f09","611.2449999927776","","","","37","","","","key","16.70867708333329","678","348.5","true","-1","180","30","0","-1","","","","","","","","","","","","","",""
"psychophysics","48","318930","0.0-8.0-0.1","5eb583347d2134426fce5fe7","609a8bf73b2ac84e2732f618","609d7b08ce0ddb4be6ec3f09","2382.144999995944","","","","39","","","","key","16.667000000000062","678","348.5","true","1","180","30","0","-1","-1","","","","","","","","","","","","",""
"psychophysics","49","320293","0.0-8.0-0.2","5eb583347d2134426fce5fe7","609a8bf73b2ac84e2732f618","609d7b08ce0ddb4be6ec3f09","360.4099999938626","","","","39","","","","key","16.666999999999824","678","348.5","true","1","150","30","0","-1","-1","","","","","","","","","","","","",""
"psychophysics","50","321625","0.0-8.0-0.3","5eb583347d2134426fce5fe7","609a8bf73b2ac84e2732f618","609d7b08ce0ddb4be6ec3f09","330.41000000957865","","","","37","","","","key","16.66699999999962","678","348.5","true","-1","150","30","0","-1","-1","","","","","","","","","","","","",""
"psychophysics","51","323111","0.0-8.0-0.4","5eb583347d2134426fce5fe7","609a8bf73b2ac84e2732f618","609d7b08ce0ddb4be6ec3f09","483.5449999955017","","","","37","","","","key","16.66699999999996","678","348.5","true","1","129","24","1","1","-1","","","","","","","","","","","","",""
"psychophysics","52","324453","0.0-8.0-0.5","5eb583347d2134426fce5fe7","609a8bf73b2ac84e2732f618","609d7b08ce0ddb4be6ec3f09","340.6799999938812","","","","37","","","","key","16.672324999999546","678","348.5","true","-1","153","24","1","-1","1","","","","","","","","","","","","",""
"psychophysics","53","325837","0.0-8.0-0.6","5eb583347d2134426fce5fe7","609a8bf73b2ac84e2732f618","609d7b08ce0ddb4be6ec3f09","382.26999998732936","","","","37","","","","key","16.667000000000215","678","348.5","true","-1","153","19.2","2","-1","-1","","","","","","","","","","","","",""
"psychophysics","54","327321","0.0-8.0-0.7","5eb583347d2134426fce5fe7","609a8bf73b2ac84e2732f618","609d7b08ce0ddb4be6ec3f09","482.3349999933271","","","","39","","","","key","16.66699999999996","678","348.5","true","1","133.8","19.2","2","-1","-1","","","","","","","","","","","","",""
"psychophysics","55","328727","0.0-8.0-0.8","5eb583347d2134426fce5fe7","609a8bf73b2ac84e2732f618","609d7b08ce0ddb4be6ec3f09","403.93000000040047","","","","37","","","","key","16.667000000000403","678","348.5","true","-1","133.8","19.2","2","-1","-1","","","","","","","","","","","","",""
"psychophysics","56","330217","0.0-8.0-0.9","5eb583347d2134426fce5fe7","609a8bf73b2ac84e2732f618","609d7b08ce0ddb4be6ec3f09","488.7849999940954","","","","37","","","","key","16.667000000000137","678","348.5","true","-1","129","19.2","2","-1","-1","","","","","","","","","","","","",""
"psychophysics","57","331667","0.0-8.0-0.10","5eb583347d2134426fce5fe7","609a8bf73b2ac84e2732f618","609d7b08ce0ddb4be6ec3f09","448.08000000193715","","","","37","","","","key","16.66699999999959","678","348.5","true","1","129","15.36","3","1","-1","","","","","","","","","","","","",""
"psychophysics","58","333117","0.0-8.0-0.11","5eb583347d2134426fce5fe7","609a8bf73b2ac84e2732f618","609d7b08ce0ddb4be6ec3f09","449.1799999959767","","","","39","","","","key","16.667000000000264","678","348.5","true","1","144.36","15.36","3","-1","1","","","","","","","","","","","","",""
"psychophysics","59","334553","0.0-8.0-0.12","5eb583347d2134426fce5fe7","609a8bf73b2ac84e2732f618","609d7b08ce0ddb4be6ec3f09","434.2750000068918","","","","39","","","","key","16.672811764706037","678","348.5","true","1","144.36","12.287999999999998","4","-1","-1","","","","","","","","","","","","",""
"psychophysics","60","336024","0.0-8.0-0.13","5eb583347d2134426fce5fe7","609a8bf73b2ac84e2732f618","609d7b08ce0ddb4be6ec3f09","469.8399999906542","","","","39","","","","key","16.666999999999774","678","348.5","true","1","132.072","12.287999999999998","4","-1","-1","","","","","","","","","","","","",""
"psychophysics","61","337527","0.0-8.0-0.14","5eb583347d2134426fce5fe7","609a8bf73b2ac84e2732f618","609d7b08ce0ddb4be6ec3f09","501.02500000502914","","","","39","","","","key","16.667000000000137","678","348.5","true","-1","132.072","9.8304","5","1","-1","","","","","","","","","","","","",""
"psychophysics","62","338938","0.0-8.0-0.15","5eb583347d2134426fce5fe7","609a8bf73b2ac84e2732f618","609d7b08ce0ddb4be6ec3f09","408.42999999586027","","","","39","","","","key","16.666999999999895","678","348.5","true","1","141.9024","9.8304","5","-1","1","","","","","","","","","","","","",""
"psychophysics","63","340386","0.0-8.0-0.16","5eb583347d2134426fce5fe7","609a8bf73b2ac84e2732f618","609d7b08ce0ddb4be6ec3f09","446.5749999944819","","","","37","","","","key","16.667000000000264","678","348.5","true","-1","141.9024","7.864319999999999","6","-1","-1","","","","","","","","","","","","",""
"psychophysics","64","341807","0.0-8.0-0.17","5eb583347d2134426fce5fe7","609a8bf73b2ac84e2732f618","609d7b08ce0ddb4be6ec3f09","419.7850000055041","","","","37","","","","key","16.666999999999895","678","348.5","true","-1","134.03808","7.864319999999999","6","-1","-1","","","","","","","","","","","","",""
"psychophysics","65","343329","0.0-8.0-0.18","5eb583347d2134426fce5fe7","609a8bf73b2ac84e2732f618","609d7b08ce0ddb4be6ec3f09","519.8249999957625","","","","39","","","","key","16.666999999999664","678","348.5","true","1","134.03808","7.864319999999999","6","-1","-1","","","","","","","","","","","","",""
"psychophysics","66","344796","0.0-8.0-0.19","5eb583347d2134426fce5fe7","609a8bf73b2ac84e2732f618","609d7b08ce0ddb4be6ec3f09","462.82000000064727","","","","37","","","","key","16.672632183907716","678","348.5","true","1","129","6.291456","7","1","-1","","","","","","","","","","","","",""
"psychophysics","67","346239","0.0-8.0-0.20","5eb583347d2134426fce5fe7","609a8bf73b2ac84e2732f618","609d7b08ce0ddb4be6ec3f09","441.6049999999814","","","","39","","","","key","16.667000000000264","678","348.5","true","1","135.291456","6.291456","7","-1","1","","","","","","","","","","","","",""
"psychophysics","68","347656","0.0-8.0-0.21","5eb583347d2134426fce5fe7","609a8bf73b2ac84e2732f618","609d7b08ce0ddb4be6ec3f09","415.8900000038557","","","","39","","","","key","16.667000000000588","678","348.5","true","1","135.291456","5.033164800000001","8","-1","-1","","","","","","","","","","","","",""
"psychophysics","69","349286","0.0-8.0-0.22","5eb583347d2134426fce5fe7","609a8bf73b2ac84e2732f618","609d7b08ce0ddb4be6ec3f09","627.9150000045775","","","","37","","","","key","16.66700000000023","678","348.5","true","-1","130.2582912","5.033164800000001","8","-1","-1","","","","","","","","","","","","",""
"psychophysics","70","350702","0.0-8.0-0.23","5eb583347d2134426fce5fe7","609a8bf73b2ac84e2732f618","609d7b08ce0ddb4be6ec3f09","413.8749999983702","","","","37","","","","key","16.666999999999895","678","348.5","true","-1","130.2582912","5.033164800000001","8","-1","-1","","","","","","","","","","","","",""
"psychophysics","71","352546","0.0-8.0-0.24","5eb583347d2134426fce5fe7","609a8bf73b2ac84e2732f618","609d7b08ce0ddb4be6ec3f09","842.0199999964098","","","","39","","","","key","16.666999999999813","678","348.5","true","-1","129","4.0265318400000005","9","1","-1","","","","","","","","","","","","",""
"psychophysics","72","354011","0.0-8.0-0.25","5eb583347d2134426fce5fe7","609a8bf73b2ac84e2732f618","609d7b08ce0ddb4be6ec3f09","463.6600000085309","","","","37","","","","key","16.666999999999774","678","348.5","true","-1","133.02653184","4.0265318400000005","9","-1","1","","","","","","","","","","","","",""
"psychophysics","73","355505","0.0-8.0-0.26","5eb583347d2134426fce5fe7","609a8bf73b2ac84e2732f618","609d7b08ce0ddb4be6ec3f09","491.3900000101421","","","","39","","","","key","20.899070422534837","678","348.5","true","1","133.02653184","3.2212254720000004","10","-1","-1","","","","","","","","","","","","",""
"psychophysics","74","356909","0.0-8.0-0.27","5eb583347d2134426fce5fe7","609a8bf73b2ac84e2732f618","609d7b08ce0ddb4be6ec3f09","402.36999999615364","","","","39","","","","key","16.666999999999703","678","348.5","true","1","129.805306368","3.2212254720000004","10","-1","-1","","","","","","","","","","","","",""
"psychophysics","75","358538","0.0-8.0-0.28","5eb583347d2134426fce5fe7","609a8bf73b2ac84e2732f618","609d7b08ce0ddb4be6ec3f09","627.5099999911617","","","","37","","","","key","16.66700000000023","678","348.5","true","-1","129.805306368","3.2212254720000004","10","-1","-1","","","","","","","","","","","","",""
"psychophysics","76","359938","0.0-8.0-0.29","5eb583347d2134426fce5fe7","609a8bf73b2ac84e2732f618","609d7b08ce0ddb4be6ec3f09","398.96500000031665","","","","39","","","","key","16.667000000000403","678","348.5","true","1","129","3.2212254720000004","10","-1","-1","","","","","","","","","","","","",""
"psychophysics","77","361513","0.0-8.0-0.30","5eb583347d2134426fce5fe7","609a8bf73b2ac84e2732f618","609d7b08ce0ddb4be6ec3f09","573.9449999964563","","","","37","","","","key","16.66699999999956","678","348.5","true","-1","129","3.2212254720000004","10","-1","-1","","","","","","","","","","","","",""
"psychophysics","78","363196","0.0-8.0-0.31","5eb583347d2134426fce5fe7","609a8bf73b2ac84e2732f618","609d7b08ce0ddb4be6ec3f09","681.4750000048662","","","","39","","","","key","16.667000000000115","678","348.5","true","-1","129","2.5769803776000004","11","1","-1","","","","","","","","","","","","",""
"psychophysics","79","364715","0.0-8.0-0.32","5eb583347d2134426fce5fe7","609a8bf73b2ac84e2732f618","609d7b08ce0ddb4be6ec3f09","516.299999988405","","","","37","","","","key","16.672444444444004","678","348.5","true","-1","131.5769803776","2.5769803776000004","11","-1","1","","","","","","","","","","","","",""
"psychophysics","80","366206","0.0-8.0-0.33","5eb583347d2134426fce5fe7","609a8bf73b2ac84e2732f618","609d7b08ce0ddb4be6ec3f09","486.58499999146443","","","","39","","","","key","16.667000000000137","678","348.5","true","1","131.5769803776","2.0615843020800004","12","-1","-1","","","","","","","","","","","","",""
"psychophysics","81","367737","0.0-8.0-0.34","5eb583347d2134426fce5fe7","609a8bf73b2ac84e2732f618","609d7b08ce0ddb4be6ec3f09","530.3850000054808","","","","39","","","","key","16.66700000000048","678","348.5","true","1","129.51539607552","2.0615843020800004","12","-1","-1","","","","","","","","","","","","",""
"psychophysics","82","369288","0.0-8.0-0.35","5eb583347d2134426fce5fe7","609a8bf73b2ac84e2732f618","609d7b08ce0ddb4be6ec3f09","548.6849999870174","","","","39","","","","key","16.667000000000016","678","348.5","true","1","129.51539607552","2.0615843020800004","12","-1","-1","","","","","","","","","","","","",""
"psychophysics","83","370931","0.0-8.0-0.36","5eb583347d2134426fce5fe7","609a8bf73b2ac84e2732f618","609d7b08ce0ddb4be6ec3f09","642.0250000082888","","","","39","","","","key","16.66700000000023","678","348.5","true","-1","129","1.6492674416640005","13","1","-1","","","","","","","","","","","","",""
"psychophysics","84","372894","0.0-8.0-0.37","5eb583347d2134426fce5fe7","609a8bf73b2ac84e2732f618","609d7b08ce0ddb4be6ec3f09","960.5799999990268","","","","37","","","","key","16.66700000000041","678","348.5","true","-1","130.649267441664","1.6492674416640005","13","-1","1","","","","","","","","","","","","",""
"psychophysics","85","374359","0.0-8.0-0.38","5eb583347d2134426fce5fe7","609a8bf73b2ac84e2732f618","609d7b08ce0ddb4be6ec3f09","461.67000000423286","","","","39","","","","key","16.672620689655634","678","348.5","true","1","130.649267441664","1.3194139533312006","14","-1","-1","","","","","","","","","","","","",""
"psychophysics","86","375857","0.0-8.0-0.39","5eb583347d2134426fce5fe7","609a8bf73b2ac84e2732f618","609d7b08ce0ddb4be6ec3f09","496.05000000155997","","","","37","","","","key","16.667000000000137","678","348.5","true","-1","129.3298534883328","1.3194139533312006","14","-1","-1","","","","","","","","","","","","",""
"html-keyboard-response","87","382084","0.0-9.0","5eb583347d2134426fce5fe7","609a8bf73b2ac84e2732f618","609d7b08ce0ddb4be6ec3f09","6226.324999995995","<p>Well Done !</p><p>Prepare for a new block.</p><p>DON'T EXIT THE FULL SCREEN MODE</p><p>Press the Spacebar to start.</p>","","","32","","","","","","","","","","","","","","","true","130.2984545129267","","","","","","","","","","",""
"psychophysics","88","384473","0.0-10.0-0.0","5eb583347d2134426fce5fe7","609a8bf73b2ac84e2732f618","609d7b08ce0ddb4be6ec3f09","1385.420000005979","","","","39","","","","key","16.670461538461872","678","348.5","true","-1","180","30","0","1","","","","","","","","","","","","","",""
"psychophysics","89","385978","0.0-10.0-0.1","5eb583347d2134426fce5fe7","609a8bf73b2ac84e2732f618","609d7b08ce0ddb4be6ec3f09","503.8350000104401","","","","39","","","","key","16.667000000000137","678","348.5","true","1","210","30","0","-1","1","","","","","","","","","","","","",""
"psychophysics","90","387465","0.0-10.0-0.2","5eb583347d2134426fce5fe7","609a8bf73b2ac84e2732f618","609d7b08ce0ddb4be6ec3f09","485.7049999991432","","","","37","","","","key","16.66699999999996","678","348.5","true","-1","210","24","1","-1","-1","","","","","","","","","","","","",""
"psychophysics","91","388913","0.0-10.0-0.3","5eb583347d2134426fce5fe7","609a8bf73b2ac84e2732f618","609d7b08ce0ddb4be6ec3f09","446.0550000076182","","","","39","","","","key","16.66699999999959","678","348.5","true","1","186","24","1","-1","-1","","","","","","","","","","","","",""
"psychophysics","92","390377","0.0-10.0-0.4","5eb583347d2134426fce5fe7","609a8bf73b2ac84e2732f618","609d7b08ce0ddb4be6ec3f09","462.7100000070641","","","","37","","","","key","16.666999999999774","678","348.5","true","-1","186","24","1","-1","-1","","","","","","","","","","","","",""
"psychophysics","93","391781","0.0-10.0-0.5","5eb583347d2134426fce5fe7","609a8bf73b2ac84e2732f618","609d7b08ce0ddb4be6ec3f09","403.0649999913294","","","","39","","","","key","16.667000000000403","678","348.5","true","1","162","24","1","-1","-1","","","","","","","","","","","","",""
"psychophysics","94","393216","0.0-10.0-0.6","5eb583347d2134426fce5fe7","609a8bf73b2ac84e2732f618","609d7b08ce0ddb4be6ec3f09","432.7449999982491","","","","39","","","","key","16.667000000000083","678","348.5","true","1","162","24","1","-1","-1","","","","","","","","","","","","",""
"psychophysics","95","394625","0.0-10.0-0.7","5eb583347d2134426fce5fe7","609a8bf73b2ac84e2732f618","609d7b08ce0ddb4be6ec3f09","407.9749999946216","","","","37","","","","key","16.673178571428814","678","348.5","true","-1","138","24","1","-1","-1","","","","","","","","","","","","",""
"psychophysics","96","396073","0.0-10.0-0.8","5eb583347d2134426fce5fe7","609a8bf73b2ac84e2732f618","609d7b08ce0ddb4be6ec3f09","446.19499999680556","","","","37","","","","key","16.667000000000264","678","348.5","true","-1","138","24","1","-1","-1","","","","","","","","","","","","",""
"psychophysics","97","397530","0.0-10.0-0.9","5eb583347d2134426fce5fe7","609a8bf73b2ac84e2732f618","609d7b08ce0ddb4be6ec3f09","455.44499999959953","","","","39","","","","key","16.66699999999959","678","348.5","true","1","129","24","1","-1","-1","","","","","","","","","","","","",""
"psychophysics","98","398891","0.0-10.0-0.10","5eb583347d2134426fce5fe7","609a8bf73b2ac84e2732f618","609d7b08ce0ddb4be6ec3f09","358.8749999908032","","","","39","","","","key","16.667000000000023","678","348.5","true","1","129","24","1","-1","-1","","","","","","","","","","","","",""
"psychophysics","99","400102","0.0-10.0-0.11","5eb583347d2134426fce5fe7","609a8bf73b2ac84e2732f618","609d7b08ce0ddb4be6ec3f09","209.26499999768566","","","","39","","","","key","16.666999999999437","678","348.5","true","-1","129","19.2","2","1","-1","","","","","","","","","","","","",""
"psychophysics","100","401460","0.0-10.0-0.12","5eb583347d2134426fce5fe7","609a8bf73b2ac84e2732f618","609d7b08ce0ddb4be6ec3f09","356.31499999726657","","","","39","","","","key","16.667000000000023","678","348.5","true","1","148.2","19.2","2","-1","1","","","","","","","","","","","","",""
"psychophysics","101","402868","0.0-10.0-0.13","5eb583347d2134426fce5fe7","609a8bf73b2ac84e2732f618","609d7b08ce0ddb4be6ec3f09","406.33499999239575","","","","37","","","","key","16.666999999999703","678","348.5","true","-1","148.2","15.36","3","-1","-1","","","","","","","","","","","","",""
"psychophysics","102","404284","0.0-10.0-0.14","5eb583347d2134426fce5fe7","609a8bf73b2ac84e2732f618","609d7b08ce0ddb4be6ec3f09","414.0950000000885","","","","39","","","","key","16.666999999999895","678","348.5","true","1","132.83999999999997","15.36","3","-1","-1","","","","","","","","","","","","",""
"psychophysics","103","405710","0.0-10.0-0.15","5eb583347d2134426fce5fe7","609a8bf73b2ac84e2732f618","609d7b08ce0ddb4be6ec3f09","424.524999994901","","","","39","","","","key","16.67244705882348","678","348.5","true","1","132.83999999999997","15.36","3","-1","-1","","","","","","","","","","","","",""
"psychophysics","104","407249","0.0-10.0-0.16","5eb583347d2134426fce5fe7","609a8bf73b2ac84e2732f618","609d7b08ce0ddb4be6ec3f09","537.5950000016019","","","","39","","","","key","16.66699999999984","678","348.5","true","1","129","15.36","3","-1","-1","","","","","","","","","","","","",""
"psychophysics","105","408743","0.0-10.0-0.17","5eb583347d2134426fce5fe7","609a8bf73b2ac84e2732f618","609d7b08ce0ddb4be6ec3f09","492.5199999997858","","","","39","","","","key","16.666999999999483","678","348.5","true","1","129","15.36","3","-1","-1","","","","","","","","","","","","",""
"psychophysics","106","410102","0.0-10.0-0.18","5eb583347d2134426fce5fe7","609a8bf73b2ac84e2732f618","609d7b08ce0ddb4be6ec3f09","357.73999999219086","","","","37","","","","key","16.666999999999824","678","348.5","true","1","129","12.287999999999998","4","1","-1","","","","","","","","","","","","",""
"psychophysics","107","411553","0.0-10.0-0.19","5eb583347d2134426fce5fe7","609a8bf73b2ac84e2732f618","609d7b08ce0ddb4be6ec3f09","449.55999999365304","","","","37","","","","key","16.667000000000264","678","348.5","true","-1","141.288","12.287999999999998","4","-1","1","","","","","","","","","","","","",""
"psychophysics","108","413001","0.0-10.0-0.20","5eb583347d2134426fce5fe7","609a8bf73b2ac84e2732f618","609d7b08ce0ddb4be6ec3f09","445.7799999945564","","","","39","","","","key","16.667000000000264","678","348.5","true","1","141.288","9.8304","5","-1","-1","","","","","","","","","","","","",""
"psychophysics","109","414528","0.0-10.0-0.21","5eb583347d2134426fce5fe7","609a8bf73b2ac84e2732f618","609d7b08ce0ddb4be6ec3f09","525.500000003376","","","","37","","","","key","16.672736263736073","678","348.5","true","-1","131.4576","9.8304","5","-1","-1","","","","","","","","","","","","",""
"psychophysics","110","416016","0.0-10.0-0.22","5eb583347d2134426fce5fe7","609a8bf73b2ac84e2732f618","609d7b08ce0ddb4be6ec3f09","486.0999999946216","","","","37","","","","key","16.66699999999996","678","348.5","true","-1","131.4576","9.8304","5","-1","-1","","","","","","","","","","","","",""
"psychophysics","111","417643","0.0-10.0-0.23","5eb583347d2134426fce5fe7","609a8bf73b2ac84e2732f618","609d7b08ce0ddb4be6ec3f09","625.8399999933317","","","","39","","","","key","16.666999999999632","678","348.5","true","-1","129","7.864319999999999","6","1","-1","","","","","","","","","","","","",""
"psychophysics","112","419185","0.0-10.0-0.24","5eb583347d2134426fce5fe7","609a8bf73b2ac84e2732f618","609d7b08ce0ddb4be6ec3f09","540.4050000070129","","","","39","","","","key","16.66699999999984","678","348.5","true","1","136.86432","7.864319999999999","6","-1","1","","","","","","","","","","","","",""
"psychophysics","113","420661","0.0-10.0-0.25","5eb583347d2134426fce5fe7","609a8bf73b2ac84e2732f618","609d7b08ce0ddb4be6ec3f09","472.0499999966705","","","","37","","","","key","16.66699999999996","678","348.5","true","-1","136.86432","6.291456","7","-1","-1","","","","","","","","","","","","",""
"psychophysics","114","422098","0.0-10.0-0.26","5eb583347d2134426fce5fe7","609a8bf73b2ac84e2732f618","609d7b08ce0ddb4be6ec3f09","435.98999999812804","","","","39","","","","key","16.667000000000083","678","348.5","true","1","130.57286399999998","6.291456","7","-1","-1","","","","","","","","","","","","",""
"psychophysics","115","423567","0.0-10.0-0.27","5eb583347d2134426fce5fe7","609a8bf73b2ac84e2732f618","609d7b08ce0ddb4be6ec3f09","467.1799999923678","","","","37","","","","key","16.667000000000446","678","348.5","true","-1","130.57286399999998","6.291456","7","-1","-1","","","","","","","","","","","","",""
"psychophysics","116","425027","0.0-10.0-0.28","5eb583347d2134426fce5fe7","609a8bf73b2ac84e2732f618","609d7b08ce0ddb4be6ec3f09","457.7199999912409","","","","39","","","","key","16.672298850574606","678","348.5","true","-1","129","5.033164800000001","8","1","-1","","","","","","","","","","","","",""
"psychophysics","117","426462","0.0-10.0-0.29","5eb583347d2134426fce5fe7","609a8bf73b2ac84e2732f618","609d7b08ce0ddb4be6ec3f09","433.5399999981746","","","","37","","","","key","16.667000000000083","678","348.5","true","-1","134.0331648","5.033164800000001","8","-1","1","","","","","","","","","","","","",""
"psychophysics","118","427898","0.0-10.0-0.30","5eb583347d2134426fce5fe7","609a8bf73b2ac84e2732f618","609d7b08ce0ddb4be6ec3f09","434.2250000045169","","","","37","","","","key","16.667000000000083","678","348.5","true","-1","134.0331648","4.0265318400000005","9","-1","-1","","","","","","","","","","","","",""
"psychophysics","119","429428","0.0-10.0-0.31","5eb583347d2134426fce5fe7","609a8bf73b2ac84e2732f618","609d7b08ce0ddb4be6ec3f09","527.6400000002468","","","","37","","","","key","16.66700000000048","678","348.5","true","1","130.00663296000002","3.2212254720000004","10","1","-1","","","","","","","","","","","","",""
"psychophysics","120","430890","0.0-10.0-0.32","5eb583347d2134426fce5fe7","609a8bf73b2ac84e2732f618","609d7b08ce0ddb4be6ec3f09","460.5699999956414","","","","37","","","","key","16.667000000000264","678","348.5","true","-1","133.227858432","3.2212254720000004","10","-1","1","","","","","","","","","","","","",""
"psychophysics","121","432345","0.0-10.0-0.33","5eb583347d2134426fce5fe7","609a8bf73b2ac84e2732f618","609d7b08ce0ddb4be6ec3f09","453.3050000027288","","","","37","","","","key","16.666999999999774","678","348.5","true","-1","133.227858432","2.5769803776000004","11","-1","-1","","","","","","","","","","","","",""
"psychophysics","122","433826","0.0-10.0-0.34","5eb583347d2134426fce5fe7","609a8bf73b2ac84e2732f618","609d7b08ce0ddb4be6ec3f09","479.18499998922925","","","","39","","","","key","16.66699999999996","678","348.5","true","1","130.6508780544","2.5769803776000004","11","-1","-1","","","","","","","","","","","","",""
"psychophysics","123","435463","0.0-10.0-0.35","5eb583347d2134426fce5fe7","609a8bf73b2ac84e2732f618","609d7b08ce0ddb4be6ec3f09","635.9800000063842","","","","39","","","","key","16.672072164948368","678","348.5","true","-1","130.6508780544","2.0615843020800004","12","1","-1","","","","","","","","","","","","",""
"psychophysics","124","436827","0.0-10.0-0.36","5eb583347d2134426fce5fe7","609a8bf73b2ac84e2732f618","609d7b08ce0ddb4be6ec3f09","362.73500000243075","","","","39","","","","key","16.667000000000023","678","348.5","true","1","132.71246235648002","2.0615843020800004","12","-1","1","","","","","","","","","","","","",""
"psychophysics","125","438289","0.0-10.0-0.37","5eb583347d2134426fce5fe7","609a8bf73b2ac84e2732f618","609d7b08ce0ddb4be6ec3f09","459.9949999974342","","","","39","","","","key","16.667000000000264","678","348.5","true","-1","132.71246235648002","1.6492674416640005","13","1","-1","","","","","","","","","","","","",""
"psychophysics","126","439660","0.0-10.0-0.38","5eb583347d2134426fce5fe7","609a8bf73b2ac84e2732f618","609d7b08ce0ddb4be6ec3f09","369.6099999942817","","","","39","","","","key","16.667000000000215","678","348.5","true","1","134.361729798144","1.6492674416640005","13","-1","1","","","","","","","","","","","","",""
"psychophysics","127","441795","0.0-10.0-0.39","5eb583347d2134426fce5fe7","609a8bf73b2ac84e2732f618","609d7b08ce0ddb4be6ec3f09","1132.2499999951106","","","","39","","","","key","16.666999999999792","678","348.5","true","1","134.361729798144","1.3194139533312006","14","-1","-1","","","","","","","","","","","","",""
"html-keyboard-response","128","447673","0.0-11.0","5eb583347d2134426fce5fe7","609a8bf73b2ac84e2732f618","609d7b08ce0ddb4be6ec3f09","5877.500000002328","<p>Well Done !</p><p>Prepare for a new block.</p><p>DON'T EXIT THE FULL SCREEN MODE</p><p>Press the Spacebar to start.</p>","","","32","","","","","","","","","","","","","","","true","132.46592452280322","","","","","","","","","","",""
"psychophysics","129","449729","0.0-12.0-0.0","5eb583347d2134426fce5fe7","609a8bf73b2ac84e2732f618","609d7b08ce0ddb4be6ec3f09","1051.3799999898765","","","","39","","","","key","16.672341463414902","678","348.5","true","-1","180","30","0","1","","","","","","","","","","","","","",""
"psychophysics","130","451196","0.0-12.0-0.1","5eb583347d2134426fce5fe7","609a8bf73b2ac84e2732f618","609d7b08ce0ddb4be6ec3f09","465.6399999948917","","","","39","","","","key","16.667000000000446","678","348.5","true","1","210","30","0","-1","1","","","","","","","","","","","","",""
"psychophysics","131","452634","0.0-12.0-0.2","5eb583347d2134426fce5fe7","609a8bf73b2ac84e2732f618","609d7b08ce0ddb4be6ec3f09","436.3500000035856","","","","37","","","","key","16.666999999999398","678","348.5","true","-1","210","24","1","-1","-1","","","","","","","","","","","","",""
"psychophysics","132","454497","0.0-12.0-0.3","5eb583347d2134426fce5fe7","609a8bf73b2ac84e2732f618","609d7b08ce0ddb4be6ec3f09","860.1349999953527","","","","37","","","","key","16.6670000000001","678","348.5","true","-1","186","24","1","-1","-1","","","","","","","","","","","","",""
"psychophysics","133","456020","0.0-12.0-0.4","5eb583347d2134426fce5fe7","609a8bf73b2ac84e2732f618","609d7b08ce0ddb4be6ec3f09","522.0200000039767","","","","37","","","","key","16.666999999999664","678","348.5","true","-1","186","24","1","-1","-1","","","","","","","","","","","","",""
"psychophysics","134","457487","0.0-12.0-0.5","5eb583347d2134426fce5fe7","609a8bf73b2ac84e2732f618","609d7b08ce0ddb4be6ec3f09","465.59500000148546","","","","37","","","","key","16.666999999999774","678","348.5","true","-1","162","24","1","-1","-1","","","","","","","","","","","","",""
"psychophysics","135","458915","0.0-12.0-0.6","5eb583347d2134426fce5fe7","609a8bf73b2ac84e2732f618","609d7b08ce0ddb4be6ec3f09","425.7100000104401","","","","39","","","","key","16.672776470588083","678","348.5","true","1","162","24","1","-1","-1","","","","","","","","","","","","",""
"psychophysics","136","460317","0.0-12.0-0.7","5eb583347d2134426fce5fe7","609a8bf73b2ac84e2732f618","609d7b08ce0ddb4be6ec3f09","400.8800000010524","","","","37","","","","key","16.666999999999703","678","348.5","true","-1","138","24","1","-1","-1","","","","","","","","","","","","",""
"psychophysics","137","461769","0.0-12.0-0.8","5eb583347d2134426fce5fe7","609a8bf73b2ac84e2732f618","609d7b08ce0ddb4be6ec3f09","450.6649999966612","","","","37","","","","key","16.667000000000264","678","348.5","true","-1","138","24","1","-1","-1","","","","","","","","","","","","",""
"psychophysics","138","463392","0.0-12.0-0.9","5eb583347d2134426fce5fe7","609a8bf73b2ac84e2732f618","609d7b08ce0ddb4be6ec3f09","618.5150000092108","","","","39","","","","key","16.66700000000007","678","348.5","true","-1","129","19.2","2","1","-1","","","","","","","","","","","","",""
"psychophysics","139","464708","0.0-12.0-0.10","5eb583347d2134426fce5fe7","609a8bf73b2ac84e2732f618","609d7b08ce0ddb4be6ec3f09","314.63500000245403","","","","39","","","","key","16.66700000000016","678","348.5","true","1","148.2","19.2","2","-1","1","","","","","","","","","","","","",""
"psychophysics","140","466148","0.0-12.0-0.11","5eb583347d2134426fce5fe7","609a8bf73b2ac84e2732f618","609d7b08ce0ddb4be6ec3f09","438.00500000361353","","","","37","","","","key","16.66699999999959","678","348.5","true","-1","148.2","15.36","3","-1","-1","","","","","","","","","","","","",""
"psychophysics","141","467521","0.0-12.0-0.12","5eb583347d2134426fce5fe7","609a8bf73b2ac84e2732f618","609d7b08ce0ddb4be6ec3f09","371.71500000113156","","","","39","","","","key","16.667000000000023","678","348.5","true","1","132.83999999999997","15.36","3","-1","-1","","","","","","","","","","","","",""
"psychophysics","142","468875","0.0-12.0-0.13","5eb583347d2134426fce5fe7","609a8bf73b2ac84e2732f618","609d7b08ce0ddb4be6ec3f09","352.485000010347","","","","37","","","","key","16.67341249999954","678","348.5","true","-1","132.83999999999997","15.36","3","-1","-1","","","","","","","","","","","","",""
"psychophysics","143","470207","0.0-12.0-0.14","5eb583347d2134426fce5fe7","609a8bf73b2ac84e2732f618","609d7b08ce0ddb4be6ec3f09","329.6799999952782","","","","39","","","","key","16.66699999999962","678","348.5","true","-1","129","12.287999999999998","4","1","-1","","","","","","","","","","","","",""
"psychophysics","144","471608","0.0-12.0-0.15","5eb583347d2134426fce5fe7","609a8bf73b2ac84e2732f618","609d7b08ce0ddb4be6ec3f09","399.1399999940768","","","","39","","","","key","16.667000000000403","678","348.5","true","1","141.288","12.287999999999998","4","-1","1","","","","","","","","","","","","",""
"psychophysics","145","472998","0.0-12.0-0.16","5eb583347d2134426fce5fe7","609a8bf73b2ac84e2732f618","609d7b08ce0ddb4be6ec3f09","386.8700000020908","","","","37","","","","key","16.667000000000403","678","348.5","true","-1","141.288","9.8304","5","-1","-1","","","","","","","","","","","","",""
"psychophysics","146","474520","0.0-12.0-0.17","5eb583347d2134426fce5fe7","609a8bf73b2ac84e2732f618","609d7b08ce0ddb4be6ec3f09","521.0800000058953","","","","37","","","","key","16.666999999999664","678","348.5","true","1","131.4576","7.864319999999999","6","1","-1","","","","","","","","","","","","",""
"psychophysics","147","475881","0.0-12.0-0.18","5eb583347d2134426fce5fe7","609a8bf73b2ac84e2732f618","609d7b08ce0ddb4be6ec3f09","359.41999999340624","","","","39","","","","key","16.667000000000023","678","348.5","true","1","139.32192","7.864319999999999","6","-1","1","","","","","","","","","","","","",""
"psychophysics","148","477281","0.0-12.0-0.19","5eb583347d2134426fce5fe7","609a8bf73b2ac84e2732f618","609d7b08ce0ddb4be6ec3f09","398.5700000048382","","","","39","","","","key","16.667000000000403","678","348.5","true","1","139.32192","6.291456","7","-1","-1","","","","","","","","","","","","",""
"psychophysics","149","478709","0.0-12.0-0.20","5eb583347d2134426fce5fe7","609a8bf73b2ac84e2732f618","609d7b08ce0ddb4be6ec3f09","427.0150000083959","","","","37","","","","key","16.672607142856577","678","348.5","true","-1","133.030464","6.291456","7","-1","-1","","","","","","","","","","","","",""
"psychophysics","150","480069","0.0-12.0-0.21","5eb583347d2134426fce5fe7","609a8bf73b2ac84e2732f618","609d7b08ce0ddb4be6ec3f09","358.31000001053326","","","","39","","","","key","16.667000000000023","678","348.5","true","1","133.030464","6.291456","7","-1","-1","","","","","","","","","","","","",""
"psychophysics","151","481517","0.0-12.0-0.22","5eb583347d2134426fce5fe7","609a8bf73b2ac84e2732f618","609d7b08ce0ddb4be6ec3f09","446.2900000071386","","","","39","","","","key","16.66699999999959","678","348.5","true","1","129","6.291456","7","-1","-1","","","","","","","","","","","","",""
"psychophysics","152","482917","0.0-12.0-0.23","5eb583347d2134426fce5fe7","609a8bf73b2ac84e2732f618","609d7b08ce0ddb4be6ec3f09","397.8600000118604","","","","37","","","","key","16.667000000000403","678","348.5","true","-1","129","6.291456","7","-1","-1","","","","","","","","","","","","",""
"psychophysics","153","484638","0.0-12.0-0.24","5eb583347d2134426fce5fe7","609a8bf73b2ac84e2732f618","609d7b08ce0ddb4be6ec3f09","719.664999996894","","","","39","","","","key","16.667000000000424","678","348.5","true","1","129","6.291456","7","-1","-1","","","","","","","","","","","","",""
"psychophysics","154","486200","0.0-12.0-0.25","5eb583347d2134426fce5fe7","609a8bf73b2ac84e2732f618","609d7b08ce0ddb4be6ec3f09","559.7300000081304","","","","37","","","","key","16.667000000000186","678","348.5","true","-1","129","6.291456","7","-1","-1","","","","","","","","","","","","",""
"psychophysics","155","487759","0.0-12.0-0.26","5eb583347d2134426fce5fe7","609a8bf73b2ac84e2732f618","609d7b08ce0ddb4be6ec3f09","557.8899999964051","","","","37","","","","key","16.667000000000016","678","348.5","true","1","129","5.033164800000001","8","1","-1","","","","","","","","","","","","",""
"psychophysics","156","489116","0.0-12.0-0.27","5eb583347d2134426fce5fe7","609a8bf73b2ac84e2732f618","609d7b08ce0ddb4be6ec3f09","355.53499999514315","","","","39","","","","key","16.673049382716677","678","348.5","true","1","134.0331648","5.033164800000001","8","-1","1","","","","","","","","","","","","",""
"psychophysics","157","490517","0.0-12.0-0.28","5eb583347d2134426fce5fe7","609a8bf73b2ac84e2732f618","609d7b08ce0ddb4be6ec3f09","399.9500000063563","","","","39","","","","key","16.667000000000403","678","348.5","true","1","134.0331648","4.0265318400000005","9","-1","-1","","","","","","","","","","","","",""
"psychophysics","158","492084","0.0-12.0-0.29","5eb583347d2134426fce5fe7","609a8bf73b2ac84e2732f618","609d7b08ce0ddb4be6ec3f09","565.149999994901","","","","39","","","","key","16.667000000000186","678","348.5","true","-1","130.00663296000002","3.2212254720000004","10","1","-1","","","","","","","","","","","","",""
"psychophysics","159","493519","0.0-12.0-0.30","5eb583347d2134426fce5fe7","609a8bf73b2ac84e2732f618","609d7b08ce0ddb4be6ec3f09","434.1149999963818","","","","37","","","","key","16.667000000000083","678","348.5","true","-1","133.227858432","3.2212254720000004","10","-1","1","","","","","","","","","","","","",""
"psychophysics","160","494917","0.0-12.0-0.31","5eb583347d2134426fce5fe7","609a8bf73b2ac84e2732f618","609d7b08ce0ddb4be6ec3f09","396.41000000119675","","","","39","","","","key","16.666999999999703","678","348.5","true","1","133.227858432","2.5769803776000004","11","-1","-1","","","","","","","","","","","","",""
"psychophysics","161","496579","0.0-12.0-0.32","5eb583347d2134426fce5fe7","609a8bf73b2ac84e2732f618","609d7b08ce0ddb4be6ec3f09","660.6450000108453","","","","37","","","","key","16.666999999999796","678","348.5","true","1","130.6508780544","2.0615843020800004","12","1","-1","","","","","","","","","","","","",""
"psychophysics","162","497914","0.0-12.0-0.33","5eb583347d2134426fce5fe7","609a8bf73b2ac84e2732f618","609d7b08ce0ddb4be6ec3f09","332.5699999986682","","","","37","","","","key","16.66699999999962","678","348.5","true","-1","132.71246235648002","2.0615843020800004","12","-1","1","","","","","","","","","","","","",""
"psychophysics","163","499258","0.0-12.0-0.34","5eb583347d2134426fce5fe7","609a8bf73b2ac84e2732f618","609d7b08ce0ddb4be6ec3f09","342.04000000318047","","","","39","","","","key","16.666999999999824","678","348.5","true","1","132.71246235648002","1.6492674416640005","13","-1","-1","","","","","","","","","","","","",""
"psychophysics","164","500656","0.0-12.0-0.35","5eb583347d2134426fce5fe7","609a8bf73b2ac84e2732f618","609d7b08ce0ddb4be6ec3f09","395.77999999164604","","","","39","","","","key","16.667000000000403","678","348.5","true","1","131.06319491481602","1.6492674416640005","13","-1","-1","","","","","","","","","","","","",""
"psychophysics","165","502089","0.0-12.0-0.36","5eb583347d2134426fce5fe7","609a8bf73b2ac84e2732f618","609d7b08ce0ddb4be6ec3f09","430.91500000446104","","","","39","","","","key","16.667000000000083","678","348.5","true","1","131.06319491481602","1.6492674416640005","13","-1","-1","","","","","","","","","","","","",""
"psychophysics","166","503652","0.0-12.0-0.37","5eb583347d2134426fce5fe7","609a8bf73b2ac84e2732f618","609d7b08ce0ddb4be6ec3f09","561.8350000004284","","","","37","","","","key","16.667000000000186","678","348.5","true","-1","129.41392747315203","1.6492674416640005","13","-1","-1","","","","","","","","","","","","",""
"psychophysics","167","505007","0.0-12.0-0.38","5eb583347d2134426fce5fe7","609a8bf73b2ac84e2732f618","609d7b08ce0ddb4be6ec3f09","353.3800000004703","","","","39","","","","key","16.666999999999824","678","348.5","true","-1","129.41392747315203","1.3194139533312006","14","1","-1","","","","","","","","","","","","",""
"psychophysics","168","506385","0.0-12.0-0.39","5eb583347d2134426fce5fe7","609a8bf73b2ac84e2732f618","609d7b08ce0ddb4be6ec3f09","376.52499999967404","","","","39","","","","key","16.666999999999504","678","348.5","true","1","130.73334142648324","1.3194139533312006","14","-1","1","","","","","","","","","","","","",""
"html-keyboard-response","169","527389","0.0-13.0","5eb583347d2134426fce5fe7","609a8bf73b2ac84e2732f618","609d7b08ce0ddb4be6ec3f09","21001.580000011018","<p>Well Done !</p><p>Prepare for a new block.</p><p>DON'T EXIT THE FULL SCREEN MODE</p><p>Press the Spacebar to start.</p>","","","32","","","","","","","","","","","","","","","true","131.35280455958528","","","","","","","","","","",""
"html-keyboard-response","170","527492","0.0-14.0","5eb583347d2134426fce5fe7","609a8bf73b2ac84e2732f618","609d7b08ce0ddb4be6ec3f09","null","","","","null","","","","","","","","","","","","","","","","","131.86519769851495","true","135.7303953970299","","","","","","","",""
"instructions","171","567681","0.0-15.0","5eb583347d2134426fce5fe7","609a8bf73b2ac84e2732f618","609d7b08ce0ddb4be6ec3f09","40187.409999998636","","","","","","","[{""page_index"":0,""viewing_time"":36466.62999999535},{""page_index"":1,""viewing_time"":1520.6449999968754},{""page_index"":2,""viewing_time"":2199.700000011944}]","","","","","","","","","","","","","","","","","","","","","","","",""
"psychophysics","172","571026","0.0-16.0-0.0","5eb583347d2134426fce5fe7","609a8bf73b2ac84e2732f618","609d7b08ce0ddb4be6ec3f09","null","","","","null","","","","key","16.674937499999942","678","348.5","","","","","","","","","","","","","","","","","","","",""
"psychophysics","173","571530","0.0-16.0-1.0","5eb583347d2134426fce5fe7","609a8bf73b2ac84e2732f618","609d7b08ce0ddb4be6ec3f09","null","","","","null","","","","key","16.666999999999774","678","348.5","","","","","","","","","","","","","136","1","6","false","","","",""
"psychophysics","174","572310","0.0-16.0-2.0","5eb583347d2134426fce5fe7","609a8bf73b2ac84e2732f618","609d7b08ce0ddb4be6ec3f09","777.5349999865284","","","","90","","","","key","16.667000000000648","678","348.5","","","","","","","","","","","","","","","","","","","",""
"psychophysics","175","572907","0.0-16.0-0.1","5eb583347d2134426fce5fe7","609a8bf73b2ac84e2732f618","609d7b08ce0ddb4be6ec3f09","null","","","","null","","","","key","16.667000000002528","678","348.5","","","","","","","","","","","","","","","","","","","",""
"psychophysics","176","573409","0.0-16.0-1.1","5eb583347d2134426fce5fe7","609a8bf73b2ac84e2732f618","609d7b08ce0ddb4be6ec3f09","null","","","","null","","","","key","16.666999999999774","678","348.5","","","","","","","","","","","","","136","-1","2","false","","","",""
"psychophysics","177","573583","0.0-16.0-2.1","5eb583347d2134426fce5fe7","609a8bf73b2ac84e2732f618","609d7b08ce0ddb4be6ec3f09","172.34999999345746","","","","90","","","","key","16.667000000002897","678","348.5","","","","","","","","","","","","","","","","","","","",""
"psychophysics","178","574106","0.0-16.0-0.2","5eb583347d2134426fce5fe7","609a8bf73b2ac84e2732f618","609d7b08ce0ddb4be6ec3f09","null","","","","null","","","","key","16.66700000000081","678","348.5","","","","","","","","","","","","","","","","","","","",""
"psychophysics","179","574609","0.0-16.0-1.2","5eb583347d2134426fce5fe7","609a8bf73b2ac84e2732f618","609d7b08ce0ddb4be6ec3f09","null","","","","null","","","","key","16.666999999999774","678","348.5","","","","","","","","","","","","","136","-1","0","false","","","",""
"psychophysics","180","574713","0.0-16.0-2.2","5eb583347d2134426fce5fe7","609a8bf73b2ac84e2732f618","609d7b08ce0ddb4be6ec3f09","101.5800000022864","","","","90","","","","key","16.666999999992548","678","348.5","","","","","","","","","","","","","","","","","","","",""
"psychophysics","181","576212","0.0-16.0-0.3","5eb583347d2134426fce5fe7","609a8bf73b2ac84e2732f618","609d7b08ce0ddb4be6ec3f09","null","","","","null","","","","key","16.667000000000137","678","348.5","","","","","","","","","","","","","","","","","","","",""
"psychophysics","182","576715","0.0-16.0-1.3","5eb583347d2134426fce5fe7","609a8bf73b2ac84e2732f618","609d7b08ce0ddb4be6ec3f09","null","","","","null","","","","key","16.666999999999774","678","348.5","","","","","","","","","","","","","136","1","2","false","","","",""
"psychophysics","183","577154","0.0-16.0-2.3","5eb583347d2134426fce5fe7","609a8bf73b2ac84e2732f618","609d7b08ce0ddb4be6ec3f09","436.9600000063656","","","","90","","","","key","16.666999999997206","678","348.5","","","","","","","","","","","","","","","","","","","",""
"psychophysics","184","578623","0.0-16.0-0.4","5eb583347d2134426fce5fe7","609a8bf73b2ac84e2732f618","609d7b08ce0ddb4be6ec3f09","null","","","","null","","","","key","16.66699999999996","678","348.5","","","","","","","","","","","","","","","","","","","",""
"psychophysics","185","579126","0.0-16.0-1.4","5eb583347d2134426fce5fe7","609a8bf73b2ac84e2732f618","609d7b08ce0ddb4be6ec3f09","null","","","","null","","","","key","16.666999999999774","678","348.5","","","","","","","","","","","","","136","1","3","false","","","",""
"psychophysics","186","579578","0.0-16.0-2.4","5eb583347d2134426fce5fe7","609a8bf73b2ac84e2732f618","609d7b08ce0ddb4be6ec3f09","449.91500000469387","","","","90","","","","key","16.666999999997923","678","348.5","","","","","","","","","","","","","","","","","","","",""
"psychophysics","187","580772","0.0-16.0-0.5","5eb583347d2134426fce5fe7","609a8bf73b2ac84e2732f618","609d7b08ce0ddb4be6ec3f09","null","","","","null","","","","key","16.673500000000267","678","348.5","","","","","","","","","","","","","","","","","","","",""
"psychophysics","188","581274","0.0-16.0-1.5","5eb583347d2134426fce5fe7","609a8bf73b2ac84e2732f618","609d7b08ce0ddb4be6ec3f09","null","","","","null","","","","key","16.66700000000031","678","348.5","","","","","","","","","","","","","136","-1","5","false","","","",""
"psychophysics","189","582450","0.0-16.0-2.5","5eb583347d2134426fce5fe7","609a8bf73b2ac84e2732f618","609d7b08ce0ddb4be6ec3f09","1172.8250000014668","","","","90","","","","key","16.66699999999896","678","348.5","","","","","","","","","","","","","","","","","","","",""
"psychophysics","190","583376","0.0-16.0-0.6","5eb583347d2134426fce5fe7","609a8bf73b2ac84e2732f618","609d7b08ce0ddb4be6ec3f09","null","","","","null","","","","key","16.667000000001018","678","348.5","","","","","","","","","","","","","","","","","","","",""
"psychophysics","191","583879","0.0-16.0-1.6","5eb583347d2134426fce5fe7","609a8bf73b2ac84e2732f618","609d7b08ce0ddb4be6ec3f09","null","","","","null","","","","key","16.66700000000379","678","348.5","","","","","","","","","","","","","136","-1","4","false","","","",""
"psychophysics","192","584847","0.0-16.0-2.6","5eb583347d2134426fce5fe7","609a8bf73b2ac84e2732f618","609d7b08ce0ddb4be6ec3f09","965.794999996433","","","","90","","","","key","16.667000000001536","678","348.5","","","","","","","","","","","","","","","","","","","",""
"psychophysics","193","586081","0.0-16.0-0.7","5eb583347d2134426fce5fe7","609a8bf73b2ac84e2732f618","609d7b08ce0ddb4be6ec3f09","null","","","","null","","","","key","16.666999999999884","678","348.5","","","","","","","","","","","","","","","","","","","",""
"psychophysics","194","586585","0.0-16.0-1.7","5eb583347d2134426fce5fe7","609a8bf73b2ac84e2732f618","609d7b08ce0ddb4be6ec3f09","null","","","","null","","","","key","16.66700000000379","678","348.5","","","","","","","","","","","","","136","1","0","false","","","",""
"psychophysics","195","587301","0.0-16.0-2.7","5eb583347d2134426fce5fe7","609a8bf73b2ac84e2732f618","609d7b08ce0ddb4be6ec3f09","713.2399999973131","","","","90","","","","key","16.667000000001973","678","348.5","","","","","","","","","","","","","","","","","","","",""
"psychophysics","196","588343","0.0-16.0-0.8","5eb583347d2134426fce5fe7","609a8bf73b2ac84e2732f618","609d7b08ce0ddb4be6ec3f09","null","","","","null","","","","key","16.666999999998932","678","348.5","","","","","","","","","","","","","","","","","","","",""
"psychophysics","197","588846","0.0-16.0-1.8","5eb583347d2134426fce5fe7","609a8bf73b2ac84e2732f618","609d7b08ce0ddb4be6ec3f09","null","","","","null","","","","key","16.666999999999774","678","348.5","","","","","","","","","","","","","136","-1","6","false","","","",""
"psychophysics","198","589453","0.0-16.0-2.8","5eb583347d2134426fce5fe7","609a8bf73b2ac84e2732f618","609d7b08ce0ddb4be6ec3f09","604.9249999923632","","","","90","","","","key","16.666999999999202","678","348.5","","","","","","","","","","","","","","","","","","","",""
"psychophysics","199","590661","0.0-16.0-0.9","5eb583347d2134426fce5fe7","609a8bf73b2ac84e2732f618","609d7b08ce0ddb4be6ec3f09","null","","","","null","","","","key","16.67388888888915","678","348.5","","","","","","","","","","","","","","","","","","","",""
"psychophysics","200","591163","0.0-16.0-1.9","5eb583347d2134426fce5fe7","609a8bf73b2ac84e2732f618","609d7b08ce0ddb4be6ec3f09","null","","","","null","","","","key","16.666999999999774","678","348.5","","","","","","","","","","","","","136","1","4","false","","","",""
"psychophysics","201","592748","0.0-16.0-2.9","5eb583347d2134426fce5fe7","609a8bf73b2ac84e2732f618","609d7b08ce0ddb4be6ec3f09","1583.1399999879068","","","","77","","","","key","16.66699999999973","678","348.5","","","","","","","","","","","","","","","","","","","",""
"psychophysics","202","593828","0.0-16.0-0.10","5eb583347d2134426fce5fe7","609a8bf73b2ac84e2732f618","609d7b08ce0ddb4be6ec3f09","null","","","","null","","","","key","16.66699999999946","678","348.5","","","","","","","","","","","","","","","","","","","",""
"psychophysics","203","594331","0.0-16.0-1.10","5eb583347d2134426fce5fe7","609a8bf73b2ac84e2732f618","609d7b08ce0ddb4be6ec3f09","null","","","","null","","","","key","16.666999999999774","678","348.5","","","","","","","","","","","","","136","-1","3","false","","","",""
"psychophysics","204","594955","0.0-16.0-2.10","5eb583347d2134426fce5fe7","609a8bf73b2ac84e2732f618","609d7b08ce0ddb4be6ec3f09","621.6899999999441","","","","90","","","","key","16.666999999999664","678","348.5","","","","","","","","","","","","","","","","","","","",""
"psychophysics","205","595860","0.0-16.0-0.11","5eb583347d2134426fce5fe7","609a8bf73b2ac84e2732f618","609d7b08ce0ddb4be6ec3f09","null","","","","null","","","","key","16.666999999998584","678","348.5","","","","","","","","","","","","","","","","","","","",""
"psychophysics","206","596362","0.0-16.0-1.11","5eb583347d2134426fce5fe7","609a8bf73b2ac84e2732f618","609d7b08ce0ddb4be6ec3f09","null","","","","null","","","","key","16.666999999999774","678","348.5","","","","","","","","","","","","","136","1","5","false","","","",""
"psychophysics","207","597023","0.0-16.0-2.11","5eb583347d2134426fce5fe7","609a8bf73b2ac84e2732f618","609d7b08ce0ddb4be6ec3f09","658.674999998766","","","","77","","","","key","16.667000000000513","678","348.5","","","","","","","","","","","","","","","","","","","",""
"psychophysics","208","598358","0.0-16.0-0.12","5eb583347d2134426fce5fe7","609a8bf73b2ac84e2732f618","609d7b08ce0ddb4be6ec3f09","null","","","","null","","","","key","16.666999999999824","678","348.5","","","","","","","","","","","","","","","","","","","",""
"psychophysics","209","598860","0.0-16.0-1.12","5eb583347d2134426fce5fe7","609a8bf73b2ac84e2732f618","609d7b08ce0ddb4be6ec3f09","null","","","","null","","","","key","16.666999999999774","678","348.5","","","","","","","","","","","","","136","1","2","false","","","",""
"psychophysics","210","599371","0.0-16.0-2.12","5eb583347d2134426fce5fe7","609a8bf73b2ac84e2732f618","609d7b08ce0ddb4be6ec3f09","508.36000000708736","","","","90","","","","key","16.666999999999774","678","348.5","","","","","","","","","","","","","","","","","","","",""
"psychophysics","211","599962","0.0-16.0-0.13","5eb583347d2134426fce5fe7","609a8bf73b2ac84e2732f618","609d7b08ce0ddb4be6ec3f09","null","","","","null","","","","key","16.680599999999895","678","348.5","","","","","","","","","","","","","","","","","","","",""
"psychophysics","212","600464","0.0-16.0-1.13","5eb583347d2134426fce5fe7","609a8bf73b2ac84e2732f618","609d7b08ce0ddb4be6ec3f09","null","","","","null","","","","key","16.666999999999774","678","348.5","","","","","","","","","","","","","136","-1","3","false","","","",""
"psychophysics","213","601557","0.0-16.0-2.13","5eb583347d2134426fce5fe7","609a8bf73b2ac84e2732f618","609d7b08ce0ddb4be6ec3f09","1090.570000000298","","","","90","","","","key","16.66699999999946","678","348.5","","","","","","","","","","","","","","","","","","","",""
"psychophysics","214","602552","0.0-16.0-0.14","5eb583347d2134426fce5fe7","609a8bf73b2ac84e2732f618","609d7b08ce0ddb4be6ec3f09","null","","","","null","","","","key","16.667000000000048","678","348.5","","","","","","","","","","","","","","","","","","","",""
"psychophysics","215","603054","0.0-16.0-1.14","5eb583347d2134426fce5fe7","609a8bf73b2ac84e2732f618","609d7b08ce0ddb4be6ec3f09","null","","","","null","","","","key","16.666999999999774","678","348.5","","","","","","","","","","","","","136","-1","6","false","","","",""
"psychophysics","216","603713","0.0-16.0-2.14","5eb583347d2134426fce5fe7","609a8bf73b2ac84e2732f618","609d7b08ce0ddb4be6ec3f09","657.02000001329","","","","77","","","","key","16.667000000000908","678","348.5","","","","","","","","","","","","","","","","","","","",""
"psychophysics","217","604698","0.0-16.0-0.15","5eb583347d2134426fce5fe7","609a8bf73b2ac84e2732f618","609d7b08ce0ddb4be6ec3f09","null","","","","null","","","","key","16.666999999999774","678","348.5","","","","","","","","","","","","","","","","","","","",""
"psychophysics","218","605200","0.0-16.0-1.15","5eb583347d2134426fce5fe7","609a8bf73b2ac84e2732f618","609d7b08ce0ddb4be6ec3f09","null","","","","null","","","","key","16.666999999999774","678","348.5","","","","","","","","","","","","","136","1","5","false","","","",""
"psychophysics","219","606218","0.0-16.0-2.15","5eb583347d2134426fce5fe7","609a8bf73b2ac84e2732f618","609d7b08ce0ddb4be6ec3f09","1015.1199999963865","","","","77","","","","key","16.66700000000031","678","348.5","","","","","","","","","","","","","","","","","","","",""
"psychophysics","220","606884","0.0-16.0-0.16","5eb583347d2134426fce5fe7","609a8bf73b2ac84e2732f618","609d7b08ce0ddb4be6ec3f09","null","","","","null","","","","key","16.666999999997923","678","348.5","","","","","","","","","","","","","","","","","","","",""
"psychophysics","221","607388","0.0-16.0-1.16","5eb583347d2134426fce5fe7","609a8bf73b2ac84e2732f618","609d7b08ce0ddb4be6ec3f09","null","","","","null","","","","key","16.666999999999774","678","348.5","","","","","","","","","","","","","136","1","4","false","","","",""
"psychophysics","222","607922","0.0-16.0-2.16","5eb583347d2134426fce5fe7","609a8bf73b2ac84e2732f618","609d7b08ce0ddb4be6ec3f09","531.8549999938114","","","","77","","","","key","16.66700000000081","678","348.5","","","","","","","","","","","","","","","","","","","",""
"psychophysics","223","609416","0.0-16.0-0.17","5eb583347d2134426fce5fe7","609a8bf73b2ac84e2732f618","609d7b08ce0ddb4be6ec3f09","null","","","","null","","","","key","16.667000000000137","678","348.5","","","","","","","","","","","","","","","","","","","",""
"psychophysics","224","609919","0.0-16.0-1.17","5eb583347d2134426fce5fe7","609a8bf73b2ac84e2732f618","609d7b08ce0ddb4be6ec3f09","null","","","","null","","","","key","16.683862068967347","678","348.5","","","","","","","","","","","","","136","-1","5","false","","","",""
"psychophysics","225","610334","0.0-16.0-2.17","5eb583347d2134426fce5fe7","609a8bf73b2ac84e2732f618","609d7b08ce0ddb4be6ec3f09","412.5400000048103","","","","77","","","","key","16.66700000000128","678","348.5","","","","","","","","","","","","","","","","","","","",""
"psychophysics","226","611344","0.0-16.0-0.18","5eb583347d2134426fce5fe7","609a8bf73b2ac84e2732f618","609d7b08ce0ddb4be6ec3f09","null","","","","null","","","","key","16.66700000000031","678","348.5","","","","","","","","","","","","","","","","","","","",""
"psychophysics","227","611847","0.0-16.0-1.18","5eb583347d2134426fce5fe7","609a8bf73b2ac84e2732f618","609d7b08ce0ddb4be6ec3f09","null","","","","null","","","","key","16.666999999999774","678","348.5","","","","","","","","","","","","","136","1","6","false","","","",""
"psychophysics","228","612437","0.0-16.0-2.18","5eb583347d2134426fce5fe7","609a8bf73b2ac84e2732f618","609d7b08ce0ddb4be6ec3f09","587.6649999991059","","","","77","","","","key","16.666999999998712","678","348.5","","","","","","","","","","","","","","","","","","","",""
"psychophysics","229","613739","0.0-16.0-0.19","5eb583347d2134426fce5fe7","609a8bf73b2ac84e2732f618","609d7b08ce0ddb4be6ec3f09","null","","","","null","","","","key","16.667000000000712","678","348.5","","","","","","","","","","","","","","","","","","","",""
"psychophysics","230","614241","0.0-16.0-1.19","5eb583347d2134426fce5fe7","609a8bf73b2ac84e2732f618","609d7b08ce0ddb4be6ec3f09","null","","","","null","","","","key","16.666999999999774","678","348.5","","","","","","","","","","","","","136","-1","0","false","","","",""
"psychophysics","231","614784","0.0-16.0-2.19","5eb583347d2134426fce5fe7","609a8bf73b2ac84e2732f618","609d7b08ce0ddb4be6ec3f09","537.5800000037998","","","","77","","","","key","16.666999999997643","678","348.5","","","","","","","","","","","","","","","","","","","",""
"psychophysics","232","615606","0.0-16.0-0.20","5eb583347d2134426fce5fe7","609a8bf73b2ac84e2732f618","609d7b08ce0ddb4be6ec3f09","null","","","","null","","","","key","16.66700000000128","678","348.5","","","","","","","","","","","","","","","","","","","",""
"psychophysics","233","616109","0.0-16.0-1.20","5eb583347d2134426fce5fe7","609a8bf73b2ac84e2732f618","609d7b08ce0ddb4be6ec3f09","null","","","","null","","","","key","16.666999999999774","678","348.5","","","","","","","","","","","","","136","-1","4","false","","","",""
"psychophysics","234","616567","0.0-16.0-2.20","5eb583347d2134426fce5fe7","609a8bf73b2ac84e2732f618","609d7b08ce0ddb4be6ec3f09","455.774999994901","","","","77","","","","key","16.667000000002897","678","348.5","","","","","","","","","","","","","","","","","","","",""
"psychophysics","235","617574","0.0-16.0-0.21","5eb583347d2134426fce5fe7","609a8bf73b2ac84e2732f618","609d7b08ce0ddb4be6ec3f09","null","","","","null","","","","key","16.667000000000048","678","348.5","","","","","","","","","","","","","","","","","","","",""
"psychophysics","236","618076","0.0-16.0-1.21","5eb583347d2134426fce5fe7","609a8bf73b2ac84e2732f618","609d7b08ce0ddb4be6ec3f09","null","","","","null","","","","key","16.66700000000031","678","348.5","","","","","","","","","","","","","136","1","3","false","","","",""
"psychophysics","237","618530","0.0-16.0-2.21","5eb583347d2134426fce5fe7","609a8bf73b2ac84e2732f618","609d7b08ce0ddb4be6ec3f09","451.35499999742024","","","","77","","","","key","16.6670000000024","678","348.5","","","","","","","","","","","","","","","","","","","",""
"psychophysics","238","619825","0.0-16.0-0.22","5eb583347d2134426fce5fe7","609a8bf73b2ac84e2732f618","609d7b08ce0ddb4be6ec3f09","null","","","","null","","","","key","16.666999999998982","678","348.5","","","","","","","","","","","","","","","","","","","",""
"psychophysics","239","620328","0.0-16.0-1.22","5eb583347d2134426fce5fe7","609a8bf73b2ac84e2732f618","609d7b08ce0ddb4be6ec3f09","null","","","","null","","","","key","16.681566666668125","678","348.5","","","","","","","","","","","","","136","-1","2","false","","","",""
"psychophysics","240","620656","0.0-16.0-2.22","5eb583347d2134426fce5fe7","609a8bf73b2ac84e2732f618","609d7b08ce0ddb4be6ec3f09","326.93000001017936","","","","90","","","","key","16.66699999999643","678","348.5","","","","","","","","","","","","","","","","","","","",""
"psychophysics","241","621354","0.0-16.0-0.23","5eb583347d2134426fce5fe7","609a8bf73b2ac84e2732f618","609d7b08ce0ddb4be6ec3f09","null","","","","null","","","","key","16.666999999998797","678","348.5","","","","","","","","","","","","","","","","","","","",""
"psychophysics","242","621857","0.0-16.0-1.23","5eb583347d2134426fce5fe7","609a8bf73b2ac84e2732f618","609d7b08ce0ddb4be6ec3f09","null","","","","null","","","","key","16.666999999999774","678","348.5","","","","","","","","","","","","","136","1","0","false","","","",""
"psychophysics","243","622350","0.0-16.0-2.23","5eb583347d2134426fce5fe7","609a8bf73b2ac84e2732f618","609d7b08ce0ddb4be6ec3f09","488.64000001049135","","","","90","","","","key","16.666999999999774","678","348.5","","","","","","","","","","","","","","","","","","","",""
"html-keyboard-response","244","624160","0.0-17.0","5eb583347d2134426fce5fe7","609a8bf73b2ac84e2732f618","609d7b08ce0ddb4be6ec3f09","1808.180000007269","<p>Well Done !</p><p>Training Complete. Press the spacebar to start.</p><p>DON'T EXIT THE FULL SCREEN MODE</p>","","","32","","","","","","","","","","","","","","","","","","","","","","","","","","",""
"psychophysics","245","626856","0.0-18.0-0.0","5eb583347d2134426fce5fe7","609a8bf73b2ac84e2732f618","609d7b08ce0ddb4be6ec3f09","null","","","","null","","","","key","16.667000000001636","678","348.5","","","","","","","","","","","","","","","","","","","",""
"psychophysics","246","627358","0.0-18.0-1.0","5eb583347d2134426fce5fe7","609a8bf73b2ac84e2732f618","609d7b08ce0ddb4be6ec3f09","null","","","","null","","","","key","16.666999999999774","678","348.5","","","","","","","","","","","","","136","-1","2","true","","","",""
"psychophysics","247","627957","0.0-18.0-2.0","5eb583347d2134426fce5fe7","609a8bf73b2ac84e2732f618","609d7b08ce0ddb4be6ec3f09","594.3299999926239","","","","90","","","","key","16.667000000002528","678","348.5","","","","","","","","","","","","","","","","","","","",""
"psychophysics","248","629407","0.0-18.0-0.1","5eb583347d2134426fce5fe7","609a8bf73b2ac84e2732f618","609d7b08ce0ddb4be6ec3f09","null","","","","null","","","","key","16.667000000000943","678","348.5","","","","","","","","","","","","","","","","","","","",""
"psychophysics","249","629909","0.0-18.0-1.1","5eb583347d2134426fce5fe7","609a8bf73b2ac84e2732f618","609d7b08ce0ddb4be6ec3f09","null","","","","null","","","","key","16.66700000000031","678","348.5","","","","","","","","","","","","","136","1","0","true","","","",""
"psychophysics","250","630339","0.0-18.0-2.1","5eb583347d2134426fce5fe7","609a8bf73b2ac84e2732f618","609d7b08ce0ddb4be6ec3f09","427.1149999985937","","","","90","","","","key","16.689750000000156","678","348.5","","","","","","","","","","","","","","","","","","","",""
"psychophysics","251","631025","0.0-18.0-0.2","5eb583347d2134426fce5fe7","609a8bf73b2ac84e2732f618","609d7b08ce0ddb4be6ec3f09","null","","","","null","","","","key","16.66700000000128","678","348.5","","","","","","","","","","","","","","","","","","","",""
"psychophysics","252","631529","0.0-18.0-1.2","5eb583347d2134426fce5fe7","609a8bf73b2ac84e2732f618","609d7b08ce0ddb4be6ec3f09","null","","","","null","","","","key","16.66700000000031","678","348.5","","","","","","","","","","","","","136","-1","6","true","","","",""
"psychophysics","253","632099","0.0-18.0-2.2","5eb583347d2134426fce5fe7","609a8bf73b2ac84e2732f618","609d7b08ce0ddb4be6ec3f09","567.7450000075623","","","","77","","","","key","16.66700000000172","678","348.5","","","","","","","","","","","","","","","","","","","",""
"psychophysics","254","633055","0.0-18.0-0.3","5eb583347d2134426fce5fe7","609a8bf73b2ac84e2732f618","609d7b08ce0ddb4be6ec3f09","null","","","","null","","","","key","16.666999999999202","678","348.5","","","","","","","","","","","","","","","","","","","",""
"psychophysics","255","633559","0.0-18.0-1.3","5eb583347d2134426fce5fe7","609a8bf73b2ac84e2732f618","609d7b08ce0ddb4be6ec3f09","null","","","","null","","","","key","16.666999999999774","678","348.5","","","","","","","","","","","","","136","-1","4","true","","","",""
"psychophysics","256","633780","0.0-18.0-2.3","5eb583347d2134426fce5fe7","609a8bf73b2ac84e2732f618","609d7b08ce0ddb4be6ec3f09","217.4500000110129","","","","77","","","","key","16.666999999997923","678","348.5","","","","","","","","","","","","","","","","","","","",""
"psychophysics","257","634444","0.0-18.0-0.4","5eb583347d2134426fce5fe7","609a8bf73b2ac84e2732f618","609d7b08ce0ddb4be6ec3f09","null","","","","null","","","","key","16.667000000000513","678","348.5","","","","","","","","","","","","","","","","","","","",""
"psychophysics","258","634947","0.0-18.0-1.4","5eb583347d2134426fce5fe7","609a8bf73b2ac84e2732f618","609d7b08ce0ddb4be6ec3f09","null","","","","null","","","","key","16.66700000000031","678","348.5","","","","","","","","","","","","","136","-1","0","true","","","",""
"psychophysics","259","635622","0.0-18.0-2.4","5eb583347d2134426fce5fe7","609a8bf73b2ac84e2732f618","609d7b08ce0ddb4be6ec3f09","672.8200000070501","","","","77","","","","key","16.666999999997923","678","348.5","","","","","","","","","","","","","","","","","","","",""
"psychophysics","260","636988","0.0-18.0-0.5","5eb583347d2134426fce5fe7","609a8bf73b2ac84e2732f618","609d7b08ce0ddb4be6ec3f09","null","","","","null","","","","key","16.667000000000023","678","348.5","","","","","","","","","","","","","","","","","","","",""
"psychophysics","261","637491","0.0-18.0-1.5","5eb583347d2134426fce5fe7","609a8bf73b2ac84e2732f618","609d7b08ce0ddb4be6ec3f09","null","","","","null","","","","key","16.666999999999774","678","348.5","","","","","","","","","","","","","136","-1","3","true","","","",""
"psychophysics","262","638043","0.0-18.0-2.5","5eb583347d2134426fce5fe7","609a8bf73b2ac84e2732f618","609d7b08ce0ddb4be6ec3f09","549.6100000018487","","","","77","","","","key","16.66700000000128","678","348.5","","","","","","","","","","","","","","","","","","","",""
"psychophysics","263","638966","0.0-18.0-0.6","5eb583347d2134426fce5fe7","609a8bf73b2ac84e2732f618","609d7b08ce0ddb4be6ec3f09","null","","","","null","","","","key","16.667000000001018","678","348.5","","","","","","","","","","","","","","","","","","","",""
"psychophysics","264","639468","0.0-18.0-1.6","5eb583347d2134426fce5fe7","609a8bf73b2ac84e2732f618","609d7b08ce0ddb4be6ec3f09","null","","","","null","","","","key","16.666999999999774","678","348.5","","","","","","","","","","","","","136","1","3","true","","","",""
"psychophysics","265","640022","0.0-18.0-2.6","5eb583347d2134426fce5fe7","609a8bf73b2ac84e2732f618","609d7b08ce0ddb4be6ec3f09","551.8400000000838","","","","77","","","","key","16.68218749999869","678","348.5","","","","","","","","","","","","","","","","","","","",""
"psychophysics","266","640878","0.0-18.0-0.7","5eb583347d2134426fce5fe7","609a8bf73b2ac84e2732f618","609d7b08ce0ddb4be6ec3f09","null","","","","null","","","","key","16.666999999999533","678","348.5","","","","","","","","","","","","","","","","","","","",""
"psychophysics","267","641380","0.0-18.0-1.7","5eb583347d2134426fce5fe7","609a8bf73b2ac84e2732f618","609d7b08ce0ddb4be6ec3f09","null","","","","null","","","","key","16.66700000000031","678","348.5","","","","","","","","","","","","","136","-1","5","true","","","",""
"psychophysics","268","641890","0.0-18.0-2.7","5eb583347d2134426fce5fe7","609a8bf73b2ac84e2732f618","609d7b08ce0ddb4be6ec3f09","507.71000000531785","","","","77","","","","key","16.666999999999774","678","348.5","","","","","","","","","","","","","","","","","","","",""
"psychophysics","269","642683","0.0-18.0-0.8","5eb583347d2134426fce5fe7","609a8bf73b2ac84e2732f618","609d7b08ce0ddb4be6ec3f09","null","","","","null","","","","key","16.666999999998495","678","348.5","","","","","","","","","","","","","","","","","","","",""
"psychophysics","270","643185","0.0-18.0-1.8","5eb583347d2134426fce5fe7","609a8bf73b2ac84e2732f618","609d7b08ce0ddb4be6ec3f09","null","","","","null","","","","key","16.666999999999774","678","348.5","","","","","","","","","","","","","136","1","5","true","","","",""
"psychophysics","271","643625","0.0-18.0-2.8","5eb583347d2134426fce5fe7","609a8bf73b2ac84e2732f618","609d7b08ce0ddb4be6ec3f09","436.7800000036368","","","","77","","","","key","16.667000000001863","678","348.5","","","","","","","","","","","","","","","","","","","",""
"psychophysics","272","644462","0.0-18.0-0.9","5eb583347d2134426fce5fe7","609a8bf73b2ac84e2732f618","609d7b08ce0ddb4be6ec3f09","null","","","","null","","","","key","16.666999999999533","678","348.5","","","","","","","","","","","","","","","","","","","",""
"psychophysics","273","644964","0.0-18.0-1.9","5eb583347d2134426fce5fe7","609a8bf73b2ac84e2732f618","609d7b08ce0ddb4be6ec3f09","null","","","","null","","","","key","16.666999999999774","678","348.5","","","","","","","","","","","","","136","1","4","true","","","",""
"psychophysics","274","645400","0.0-18.0-2.9","5eb583347d2134426fce5fe7","609a8bf73b2ac84e2732f618","609d7b08ce0ddb4be6ec3f09","433.25000000186265","","","","77","","","","key","16.666999999997206","678","348.5","","","","","","","","","","","","","","","","","","","",""
"psychophysics","275","646026","0.0-18.0-0.10","5eb583347d2134426fce5fe7","609a8bf73b2ac84e2732f618","609d7b08ce0ddb4be6ec3f09","null","","","","null","","","","key","16.666999999999664","678","348.5","","","","","","","","","","","","","","","","","","","",""
"psychophysics","276","646528","0.0-18.0-1.10","5eb583347d2134426fce5fe7","609a8bf73b2ac84e2732f618","609d7b08ce0ddb4be6ec3f09","null","","","","null","","","","key","16.66700000000031","678","348.5","","","","","","","","","","","","","136","1","2","true","","","",""
"psychophysics","277","646986","0.0-18.0-2.10","5eb583347d2134426fce5fe7","609a8bf73b2ac84e2732f618","609d7b08ce0ddb4be6ec3f09","453.85999999416526","","","","90","","","","key","16.666999999997923","678","348.5","","","","","","","","","","","","","","","","","","","",""
"psychophysics","278","648342","0.0-18.0-0.11","5eb583347d2134426fce5fe7","609a8bf73b2ac84e2732f618","609d7b08ce0ddb4be6ec3f09","null","","","","null","","","","key","16.666999999999824","678","348.5","","","","","","","","","","","","","","","","","","","",""
"psychophysics","279","648847","0.0-18.0-1.11","5eb583347d2134426fce5fe7","609a8bf73b2ac84e2732f618","609d7b08ce0ddb4be6ec3f09","null","","","","null","","","","key","16.66700000000031","678","348.5","","","","","","","","","","","","","136","1","6","true","","","",""
"psychophysics","280","649254","0.0-18.0-2.11","5eb583347d2134426fce5fe7","609a8bf73b2ac84e2732f618","609d7b08ce0ddb4be6ec3f09","405.28000000631437","","","","77","","","","key","16.667000000000648","678","348.5","","","","","","","","","","","","","","","","","","","",""
"psychophysics","281","650739","0.0-18.0-0.12","5eb583347d2134426fce5fe7","609a8bf73b2ac84e2732f618","609d7b08ce0ddb4be6ec3f09","null","","","","null","","","","key","16.672806818181098","678","348.5","","","","","","","","","","","","","","","","","","","",""
"psychophysics","282","651242","0.0-18.0-1.12","5eb583347d2134426fce5fe7","609a8bf73b2ac84e2732f618","609d7b08ce0ddb4be6ec3f09","null","","","","null","","","","key","16.666999999999774","678","348.5","","","","","","","","","","","","","136","1","5","true","","","",""
"psychophysics","283","651710","0.0-18.0-2.12","5eb583347d2134426fce5fe7","609a8bf73b2ac84e2732f618","609d7b08ce0ddb4be6ec3f09","465.8449999988079","","","","77","","","","key","16.666999999998584","678","348.5","","","","","","","","","","","","","","","","","","","",""
"psychophysics","284","652931","0.0-18.0-0.13","5eb583347d2134426fce5fe7","609a8bf73b2ac84e2732f618","609d7b08ce0ddb4be6ec3f09","null","","","","null","","","","key","16.666999999999884","678","348.5","","","","","","","","","","","","","","","","","","","",""
"psychophysics","285","653433","0.0-18.0-1.13","5eb583347d2134426fce5fe7","609a8bf73b2ac84e2732f618","609d7b08ce0ddb4be6ec3f09","null","","","","null","","","","key","16.666999999999774","678","348.5","","","","","","","","","","","","","136","1","2","true","","","",""
"psychophysics","286","653935","0.0-18.0-2.13","5eb583347d2134426fce5fe7","609a8bf73b2ac84e2732f618","609d7b08ce0ddb4be6ec3f09","500.3299999953015","","","","90","","","","key","16.666999999999774","678","348.5","","","","","","","","","","","","","","","","","","","",""
"psychophysics","287","654637","0.0-18.0-0.14","5eb583347d2134426fce5fe7","609a8bf73b2ac84e2732f618","609d7b08ce0ddb4be6ec3f09","null","","","","null","","","","key","16.666999999998797","678","348.5","","","","","","","","","","","","","","","","","","","",""
"psychophysics","288","655139","0.0-18.0-1.14","5eb583347d2134426fce5fe7","609a8bf73b2ac84e2732f618","609d7b08ce0ddb4be6ec3f09","null","","","","null","","","","key","16.666999999999774","678","348.5","","","","","","","","","","","","","136","-1","4","true","","","",""
"psychophysics","289","655502","0.0-18.0-2.14","5eb583347d2134426fce5fe7","609a8bf73b2ac84e2732f618","609d7b08ce0ddb4be6ec3f09","358.91999999876134","","","","77","","","","key","16.666999999999202","678","348.5","","","","","","","","","","","","","","","","","","","",""
"psychophysics","290","656215","0.0-18.0-0.15","5eb583347d2134426fce5fe7","609a8bf73b2ac84e2732f618","609d7b08ce0ddb4be6ec3f09","null","","","","null","","","","key","16.666999999999202","678","348.5","","","","","","","","","","","","","","","","","","","",""
"psychophysics","291","656717","0.0-18.0-1.15","5eb583347d2134426fce5fe7","609a8bf73b2ac84e2732f618","609d7b08ce0ddb4be6ec3f09","null","","","","null","","","","key","16.666999999999774","678","348.5","","","","","","","","","","","","","136","1","3","true","","","",""
"psychophysics","292","657169","0.0-18.0-2.15","5eb583347d2134426fce5fe7","609a8bf73b2ac84e2732f618","609d7b08ce0ddb4be6ec3f09","449.8250000033295","","","","90","","","","key","16.6670000000024","678","348.5","","","","","","","","","","","","","","","","","","","",""
"psychophysics","293","657898","0.0-18.0-0.16","5eb583347d2134426fce5fe7","609a8bf73b2ac84e2732f618","609d7b08ce0ddb4be6ec3f09","null","","","","null","","","","key","16.667000000002297","678","348.5","","","","","","","","","","","","","","","","","","","",""
"psychophysics","294","658400","0.0-18.0-1.16","5eb583347d2134426fce5fe7","609a8bf73b2ac84e2732f618","609d7b08ce0ddb4be6ec3f09","null","","","","null","","","","key","16.66700000000379","678","348.5","","","","","","","","","","","","","136","-1","5","true","","","",""
"psychophysics","295","658668","0.0-18.0-2.16","5eb583347d2134426fce5fe7","609a8bf73b2ac84e2732f618","609d7b08ce0ddb4be6ec3f09","265.72999999916647","","","","77","","","","key","16.66700000000031","678","348.5","","","","","","","","","","","","","","","","","","","",""
"psychophysics","296","659921","0.0-18.0-0.17","5eb583347d2134426fce5fe7","609a8bf73b2ac84e2732f618","609d7b08ce0ddb4be6ec3f09","null","","","","null","","","","key","16.6670000000001","678","348.5","","","","","","","","","","","","","","","","","","","",""
"psychophysics","297","660423","0.0-18.0-1.17","5eb583347d2134426fce5fe7","609a8bf73b2ac84e2732f618","609d7b08ce0ddb4be6ec3f09","null","","","","null","","","","key","16.685137931032685","678","348.5","","","","","","","","","","","","","136","-1","2","true","","","",""
"psychophysics","298","660824","0.0-18.0-2.17","5eb583347d2134426fce5fe7","609a8bf73b2ac84e2732f618","609d7b08ce0ddb4be6ec3f09","399.16999998968095","","","","90","","","","key","16.667000000000648","678","348.5","","","","","","","","","","","","","","","","","","","",""
"psychophysics","299","661717","0.0-18.0-0.18","5eb583347d2134426fce5fe7","609a8bf73b2ac84e2732f618","609d7b08ce0ddb4be6ec3f09","null","","","","null","","","","key","16.667000000000456","678","348.5","","","","","","","","","","","","","","","","","","","",""
"psychophysics","300","662220","0.0-18.0-1.18","5eb583347d2134426fce5fe7","609a8bf73b2ac84e2732f618","609d7b08ce0ddb4be6ec3f09","null","","","","null","","","","key","16.666999999999774","678","348.5","","","","","","","","","","","","","136","1","4","true","","","",""
"psychophysics","301","662703","0.0-18.0-2.18","5eb583347d2134426fce5fe7","609a8bf73b2ac84e2732f618","609d7b08ce0ddb4be6ec3f09","481.51500000676606","","","","77","","","","key","16.666999999999202","678","348.5","","","","","","","","","","","","","","","","","","","",""
"psychophysics","302","663577","0.0-18.0-0.19","5eb583347d2134426fce5fe7","609a8bf73b2ac84e2732f618","609d7b08ce0ddb4be6ec3f09","null","","","","null","","","","key","16.666999999999852","678","348.5","","","","","","","","","","","","","","","","","","","",""
"psychophysics","303","664080","0.0-18.0-1.19","5eb583347d2134426fce5fe7","609a8bf73b2ac84e2732f618","609d7b08ce0ddb4be6ec3f09","null","","","","null","","","","key","16.666999999999774","678","348.5","","","","","","","","","","","","","136","-1","0","true","","","",""
"psychophysics","304","664683","0.0-18.0-2.19","5eb583347d2134426fce5fe7","609a8bf73b2ac84e2732f618","609d7b08ce0ddb4be6ec3f09","590.875000008964","","","","77","","","","key","16.666999999999664","678","348.5","","","","","","","","","","","","","","","","","","","",""
"psychophysics","305","665525","0.0-18.0-0.20","5eb583347d2134426fce5fe7","609a8bf73b2ac84e2732f618","609d7b08ce0ddb4be6ec3f09","null","","","","null","","","","key","16.666999999999202","678","348.5","","","","","","","","","","","","","","","","","","","",""
"psychophysics","306","666030","0.0-18.0-1.20","5eb583347d2134426fce5fe7","609a8bf73b2ac84e2732f618","609d7b08ce0ddb4be6ec3f09","null","","","","null","","","","key","16.666999999999774","678","348.5","","","","","","","","","","","","","136","-1","6","true","","","",""
"psychophysics","307","666458","0.0-18.0-2.20","5eb583347d2134426fce5fe7","609a8bf73b2ac84e2732f618","609d7b08ce0ddb4be6ec3f09","424.7400000022026","","","","77","","","","key","16.666999999997206","678","348.5","","","","","","","","","","","","","","","","","","","",""
"psychophysics","308","667119","0.0-18.0-0.21","5eb583347d2134426fce5fe7","609a8bf73b2ac84e2732f618","609d7b08ce0ddb4be6ec3f09","null","","","","null","","","","key","16.667000000000908","678","348.5","","","","","","","","","","","","","","","","","","","",""
"psychophysics","309","667622","0.0-18.0-1.21","5eb583347d2134426fce5fe7","609a8bf73b2ac84e2732f618","609d7b08ce0ddb4be6ec3f09","null","","","","null","","","","key","16.666999999999774","678","348.5","","","","","","","","","","","","","136","-1","3","true","","","",""
"psychophysics","310","667958","0.0-18.0-2.21","5eb583347d2134426fce5fe7","609a8bf73b2ac84e2732f618","609d7b08ce0ddb4be6ec3f09","334.6050000109244","","","","90","","","","key","16.66699999999745","678","348.5","","","","","","","","","","","","","","","","","","","",""
"psychophysics","311","668505","0.0-18.0-0.22","5eb583347d2134426fce5fe7","609a8bf73b2ac84e2732f618","609d7b08ce0ddb4be6ec3f09","null","","","","null","","","","key","16.66700000000128","678","348.5","","","","","","","","","","","","","","","","","","","",""
"psychophysics","312","669008","0.0-18.0-1.22","5eb583347d2134426fce5fe7","609a8bf73b2ac84e2732f618","609d7b08ce0ddb4be6ec3f09","null","","","","null","","","","key","16.666999999999774","678","348.5","","","","","","","","","","","","","136","1","0","true","","","",""
"psychophysics","313","669783","0.0-18.0-2.22","5eb583347d2134426fce5fe7","609a8bf73b2ac84e2732f618","609d7b08ce0ddb4be6ec3f09","772.4200000084238","","","","90","","","","key","16.667000000000648","678","348.5","","","","","","","","","","","","","","","","","","","",""
"psychophysics","314","670579","0.0-18.0-0.23","5eb583347d2134426fce5fe7","609a8bf73b2ac84e2732f618","609d7b08ce0ddb4be6ec3f09","null","","","","null","","","","key","16.67604347826083","678","348.5","","","","","","","","","","","","","","","","","","","",""
"psychophysics","315","671082","0.0-18.0-1.23","5eb583347d2134426fce5fe7","609a8bf73b2ac84e2732f618","609d7b08ce0ddb4be6ec3f09","null","","","","null","","","","key","16.66700000000031","678","348.5","","","","","","","","","","","","","136","1","6","true","","","",""
"psychophysics","316","671836","0.0-18.0-2.23","5eb583347d2134426fce5fe7","609a8bf73b2ac84e2732f618","609d7b08ce0ddb4be6ec3f09","751.6949999990175","","","","77","","","","key","16.66699999999996","678","348.5","","","","","","","","","","","","","","","","","","","",""
"psychophysics","317","672984","0.0-18.0-0.24","5eb583347d2134426fce5fe7","609a8bf73b2ac84e2732f618","609d7b08ce0ddb4be6ec3f09","null","","","","null","","","","key","16.667000000000424","678","348.5","","","","","","","","","","","","","","","","","","","",""
"psychophysics","318","673485","0.0-18.0-1.24","5eb583347d2134426fce5fe7","609a8bf73b2ac84e2732f618","609d7b08ce0ddb4be6ec3f09","null","","","","null","","","","key","16.666999999999774","678","348.5","","","","","","","","","","","","","136","1","3","true","","","",""
"psychophysics","319","673923","0.0-18.0-2.24","5eb583347d2134426fce5fe7","609a8bf73b2ac84e2732f618","609d7b08ce0ddb4be6ec3f09","436.1600000120234","","","","77","","","","key","16.667000000001863","678","348.5","","","","","","","","","","","","","","","","","","","",""
"psychophysics","320","675343","0.0-18.0-0.25","5eb583347d2134426fce5fe7","609a8bf73b2ac84e2732f618","609d7b08ce0ddb4be6ec3f09","null","","","","null","","","","key","16.667000000000588","678","348.5","","","","","","","","","","","","","","","","","","","",""
"psychophysics","321","675845","0.0-18.0-1.25","5eb583347d2134426fce5fe7","609a8bf73b2ac84e2732f618","609d7b08ce0ddb4be6ec3f09","null","","","","null","","","","key","16.666999999999774","678","348.5","","","","","","","","","","","","","136","1","5","true","","","",""
"psychophysics","322","676212","0.0-18.0-2.25","5eb583347d2134426fce5fe7","609a8bf73b2ac84e2732f618","609d7b08ce0ddb4be6ec3f09","365.4800000076648","","","","77","","","","key","16.666999999999202","678","348.5","","","","","","","","","","","","","","","","","","","",""
"psychophysics","323","676956","0.0-18.0-0.26","5eb583347d2134426fce5fe7","609a8bf73b2ac84e2732f618","609d7b08ce0ddb4be6ec3f09","null","","","","null","","","","key","16.66699999999996","678","348.5","","","","","","","","","","","","","","","","","","","",""
"psychophysics","324","677460","0.0-18.0-1.26","5eb583347d2134426fce5fe7","609a8bf73b2ac84e2732f618","609d7b08ce0ddb4be6ec3f09","null","","","","null","","","","key","16.666999999999774","678","348.5","","","","","","","","","","","","","136","1","6","true","","","",""
"psychophysics","325","677768","0.0-18.0-2.26","5eb583347d2134426fce5fe7","609a8bf73b2ac84e2732f618","609d7b08ce0ddb4be6ec3f09","306.1900000029709","","","","77","","","","key","16.66699999999643","678","348.5","","","","","","","","","","","","","","","","","","","",""
"psychophysics","326","679117","0.0-18.0-0.27","5eb583347d2134426fce5fe7","609a8bf73b2ac84e2732f618","609d7b08ce0ddb4be6ec3f09","null","","","","null","","","","key","16.666999999999824","678","348.5","","","","","","","","","","","","","","","","","","","",""
"psychophysics","327","679620","0.0-18.0-1.27","5eb583347d2134426fce5fe7","609a8bf73b2ac84e2732f618","609d7b08ce0ddb4be6ec3f09","null","","","","null","","","","key","16.666999999999774","678","348.5","","","","","","","","","","","","","136","-1","2","true","","","",""
"psychophysics","328","679860","0.0-18.0-2.27","5eb583347d2134426fce5fe7","609a8bf73b2ac84e2732f618","609d7b08ce0ddb4be6ec3f09","237.69999999785796","","","","90","","","","key","16.666999999997923","678","348.5","","","","","","","","","","","","","","","","","","","",""
