"trial_type","trial_index","time_elapsed","internal_node_id","PROLIFIC_PID","STUDY_ID","SESSION_ID","rt","stimulus","button_pressed","success","key_press","responses","isData","view_history","response_type","avg_frame_time","center_x","center_y","isSC","stim_side","trial_luminance","step_size","nReversal","correct","prev_ans","isThreshold","SC_threshold","final_threshold","isLuminance","FF_luminance","luminance","stimSide","ISInt","isFF","question_order","isSPQ","isCAPS","isAQ"
"pavlovia","0","9","0.0-0.0","6042c45fc5d9b623504e6a07","609a8bf73b2ac84e2732f618","609d7ce77a4253967b0d11ab","","","","","","","","","","","","","","","","","","","","","","","","","","","","","","","",""
"html-button-response","1","11742","0.0-1.0","6042c45fc5d9b623504e6a07","609a8bf73b2ac84e2732f618","609d7ce77a4253967b0d11ab","11726.125000000025","<div style='background-color: white; width:60%; margin: auto; padding: 50px; text-align: justify; text-justify: inter-word; margin-bottom: 20px;'><h1 style='text-align: center;'>Consent Form</h1><p>Please read this consent form carefully before deciding whether you would like to participate in this study. You have to be 18 years old or older to participate to this study.</p><p style='text-decoration: underline;'>Participation is voluntary:</p><p>It is your choice whether or not to participate in this research. If you choose to participate, you may change your mind and leave the study at any time. Refusal to participate or stopping your participation will involve no penalty or loss of benefits to which you are otherwise entitled.</p><p style='text-decoration: underline;'>Purpose of the Study:</p><p>To understand the mechanisms underlying human perception.</p><p style='text-decoration: underline;'>What you will do in this study:</p><p>You will be presented with a series of visual images and then you will press buttons on the keyboard of your computer to respond to simple questions about the images (e.g. Were one or two images presented?). In addition, you will be asked to complete a questionnaire concerning your beliefs and everyday mental and perceptual experiences.'</p><p style='text-decoration: underline;'> Time Required:</p><p>The study will take 40 minutes to complete. </p><p style='text-decoration: underline;'>Risks:</p><p>There are no anticipated risks associated with participating in this study that are beyond those experienced in everyday life. </p><p style='text-decoration: underline;'>Benefits:</p><p>There are no benefits to you in participating in the study. However, this study may lead to a better understanding of how different kinds of visual information are used.</p><p style='text-decoration: underline;'>Compensation:</p><p>You will be paid US$6.6/hour. </p><p style='text-decoration: underline;'>Privacy and Confidentiality:</p><p>Your participation in this study will be anonymous. No personal information about your name or identity will be asked or recorded. This anonymous data will be stored for several years and may be used for a variety of research purposes. The overall results of the study may be published, or the data files may be shared with other researchers, but your identity will not be revealed in any way. The online services we are using for this study may temporarily store your data, but this data will be downloaded and then promptly deleted from those services.Your data will not be permanently associated with your name, IP address, or any other identifiable information (e.g., your information will only be connected to your payment, not to any of your responses), though they may be temporarily stored together before we download and separate them. Even so, no guarantee of internet survey security can be given because, although unlikely, transmissions can be intercepted and IP addresses can be identified. The anonymous data may be shared publicly (for example, in conjunction with a resulting academic publication).</p><p style='text-decoration: underline;'>Participation and Withdrawal:</p><p>Your participation in this study is completely voluntary. You may stop responding to the stimuli or stop answering questions if you so choose and without penalty by exiting the full screen mode, closing this tab of your browser or redirecting it to a different website.</p><p style='text-decoration: underline;'>Contact Info of the Researcher: </p><p>If you have questions about this study, or if you would like to talk to the research team, please contact David Melcher (david.melcher@nyu.edu, md5050@nyu.edu) at the Perception and Active Cognition Laboratory, New York University Abu Dhabi, Computational Research Building, Saadiyat Island, Abu Dhabi, UAE.This research has been reviewed by the New York University Abu Dhabi Institutional Review Board (NYUAD IRB). To contact about your rights in this research, for questions, suggestions, or complaints that are not addressed by the researchers, please email IRBnyuad@nyu.edu, or call the NYUAD IRB at +971 2 628 4313. </p></div>","0","","","","","","","","","","","","","","","","","","","","","","","","","","","","",""
"fullscreen","2","18175","0.0-2.0","6042c45fc5d9b623504e6a07","609a8bf73b2ac84e2732f618","609d7ce77a4253967b0d11ab","","","","true","","","","","","","","","","","","","","","","","","","","","","","","","","","",""
"html-keyboard-response","3","35749","0.0-3.0","6042c45fc5d9b623504e6a07","609a8bf73b2ac84e2732f618","609d7ce77a4253967b0d11ab","17571.315000000028","<p>Welcome !</p><p>READ CAREFULLY THE FOLLOWING INDICATIONS:</p><p>From this moment you have ~40 minutes to complete the experiment.</p><p>During the experiment you will be prompted to take several breaks. Each break should not last longer than 2-3 minutes.</p><p>Make sure that your computer is plugged in and it's not running on battery power, even if the battery is already fully charged.</p><p>Turn off your phone and music, make sure that you are in a quiet room and that you will not be distracted for the next hour.</p><p>Failure to comply with the instructions and indications provided during the experiment will most likely result in the rejection of your data.<p>Press the spacebar to start.</p>","","","32","","","","","","","","","","","","","","","","","","","","","","","","","","",""
"survey-html-form","4","48016","0.0-4.0","6042c45fc5d9b623504e6a07","609a8bf73b2ac84e2732f618","609d7ce77a4253967b0d11ab","12264.149999999972","","","","","{""age"":""30"",""sex"":""M""}","true","","","","","","","","","","","","","","","","","","","","","","","","",""
"instructions","5","144417","0.0-5.0","6042c45fc5d9b623504e6a07","609a8bf73b2ac84e2732f618","609d7ce77a4253967b0d11ab","96395.15000000005","","","","","","","[{""page_index"":0,""viewing_time"":64939.259999999995},{""page_index"":1,""viewing_time"":22462.650000000038},{""page_index"":2,""viewing_time"":8992.284999999945}]","","","","","","","","","","","","","","","","","","","","","","","",""
"psychophysics","6","151721","0.0-6.0-0.0","6042c45fc5d9b623504e6a07","609a8bf73b2ac84e2732f618","609d7ce77a4253967b0d11ab","6292.514999999985","","","","39","","","","key","25.136230240549764","640","304.5","true","1","180","30","0","-1","","","","","","","","","","","","","",""
"psychophysics","7","153828","0.0-6.0-0.1","6042c45fc5d9b623504e6a07","609a8bf73b2ac84e2732f618","609d7ce77a4253967b0d11ab","1103.6149999999907","","","","39","","","","key","25.04753012048166","640","304.5","true","1","180","30","0","-1","-1","","","","","","","","","","","","",""
"psychophysics","8","155395","0.0-6.0-0.2","6042c45fc5d9b623504e6a07","609a8bf73b2ac84e2732f618","609d7ce77a4253967b0d11ab","565.1449999999022","","","","39","","","","key","25.048245901639334","640","304.5","true","1","150","30","0","-1","-1","","","","","","","","","","","","",""
"psychophysics","9","158590","0.0-6.0-0.3","6042c45fc5d9b623504e6a07","609a8bf73b2ac84e2732f618","609d7ce77a4253967b0d11ab","2191.069999999978","","","","39","","","","key","25.050291338582582","640","304.5","true","-1","150","24","1","1","-1","","","","","","","","","","","","",""
"psychophysics","10","160071","0.0-6.0-0.4","6042c45fc5d9b623504e6a07","609a8bf73b2ac84e2732f618","609d7ce77a4253967b0d11ab","478.2950000000128","","","","37","","","","key","25.050344827585924","640","304.5","true","-1","174","24","1","-1","1","","","","","","","","","","","","",""
"psychophysics","11","161515","0.0-6.0-0.5","6042c45fc5d9b623504e6a07","609a8bf73b2ac84e2732f618","609d7ce77a4253967b0d11ab","441.2650000000431","","","","37","","","","key","25.052228070175676","640","304.5","true","-1","174","19.2","2","-1","-1","","","","","","","","","","","","",""
"psychophysics","12","163017","0.0-6.0-0.6","6042c45fc5d9b623504e6a07","609a8bf73b2ac84e2732f618","609d7ce77a4253967b0d11ab","499.31500000003143","","","","39","","","","key","25.05018644067814","640","304.5","true","1","154.8","19.2","2","-1","-1","","","","","","","","","","","","",""
"psychophysics","13","164270","0.0-6.0-0.7","6042c45fc5d9b623504e6a07","609a8bf73b2ac84e2732f618","609d7ce77a4253967b0d11ab","251.78999999989173","","","","37","","","","key","25.049530612245412","640","304.5","true","-1","154.8","19.2","2","-1","-1","","","","","","","","","","","","",""
"psychophysics","14","165683","0.0-6.0-0.8","6042c45fc5d9b623504e6a07","609a8bf73b2ac84e2732f618","609d7ce77a4253967b0d11ab","410.68499999993946","","","","37","","","","key","25.050327272726943","640","304.5","true","-1","135.60000000000002","19.2","2","-1","-1","","","","","","","","","","","","",""
"psychophysics","15","166976","0.0-6.0-0.9","6042c45fc5d9b623504e6a07","609a8bf73b2ac84e2732f618","609d7ce77a4253967b0d11ab","290.67500000007567","","","","37","","","","key","25.050039215686198","640","304.5","true","-1","135.60000000000002","19.2","2","-1","-1","","","","","","","","","","","","",""
"psychophysics","16","168729","0.0-6.0-0.10","6042c45fc5d9b623504e6a07","609a8bf73b2ac84e2732f618","609d7ce77a4253967b0d11ab","750.7200000000012","","","","37","","","","key","25.050275362319013","640","304.5","true","-1","129","19.2","2","-1","-1","","","","","","","","","","","","",""
"psychophysics","17","170352","0.0-6.0-0.11","6042c45fc5d9b623504e6a07","609a8bf73b2ac84e2732f618","609d7ce77a4253967b0d11ab","620.4649999999674","","","","37","","","","key","25.050203124999825","640","304.5","true","-1","129","19.2","2","-1","-1","","","","","","","","","","","","",""
"psychophysics","18","172322","0.0-6.0-0.12","6042c45fc5d9b623504e6a07","609a8bf73b2ac84e2732f618","609d7ce77a4253967b0d11ab","968.4750000000058","","","","37","","","","key","25.050519480519284","640","304.5","true","-1","129","19.2","2","-1","-1","","","","","","","","","","","","",""
"psychophysics","19","174821","0.0-6.0-0.13","6042c45fc5d9b623504e6a07","609a8bf73b2ac84e2732f618","609d7ce77a4253967b0d11ab","1496.4350000000268","","","","39","","","","key","25.052909090909214","640","304.5","true","1","129","19.2","2","-1","-1","","","","","","","","","","","","",""
"psychophysics","20","176490","0.0-6.0-0.14","6042c45fc5d9b623504e6a07","609a8bf73b2ac84e2732f618","609d7ce77a4253967b0d11ab","666.0600000000268","","","","37","","","","key","25.050424242424373","640","304.5","true","1","129","15.36","3","1","-1","","","","","","","","","","","","",""
"psychophysics","21","178243","0.0-6.0-0.15","6042c45fc5d9b623504e6a07","609a8bf73b2ac84e2732f618","609d7ce77a4253967b0d11ab","750.1950000000943","","","","37","","","","key","25.051500000000114","640","304.5","true","-1","144.36","15.36","3","-1","1","","","","","","","","","","","","",""
"psychophysics","22","179619","0.0-6.0-0.16","6042c45fc5d9b623504e6a07","609a8bf73b2ac84e2732f618","609d7ce77a4253967b0d11ab","372.77000000004773","","","","37","","","","key","25.04983333333318","640","304.5","true","-1","144.36","12.287999999999998","4","-1","-1","","","","","","","","","","","","",""
"psychophysics","23","181617","0.0-6.0-0.17","6042c45fc5d9b623504e6a07","609a8bf73b2ac84e2732f618","609d7ce77a4253967b0d11ab","995.060000000085","","","","37","","","","key","25.04891139240508","640","304.5","true","1","132.072","9.8304","5","1","-1","","","","","","","","","","","","",""
"psychophysics","24","182958","0.0-6.0-0.18","6042c45fc5d9b623504e6a07","609a8bf73b2ac84e2732f618","609d7ce77a4253967b0d11ab","338.4100000000617","","","","39","","","","key","25.052735849056845","640","304.5","true","1","141.9024","9.8304","5","-1","1","","","","","","","","","","","","",""
"psychophysics","25","184306","0.0-6.0-0.19","6042c45fc5d9b623504e6a07","609a8bf73b2ac84e2732f618","609d7ce77a4253967b0d11ab","346.2950000000419","","","","37","","","","key","25.051169811320747","640","304.5","true","-1","141.9024","7.864319999999999","6","-1","-1","","","","","","","","","","","","",""
"psychophysics","26","185799","0.0-6.0-0.20","6042c45fc5d9b623504e6a07","609a8bf73b2ac84e2732f618","609d7ce77a4253967b0d11ab","491.05999999993946","","","","39","","","","key","25.05160344827615","640","304.5","true","1","134.03808","7.864319999999999","6","-1","-1","","","","","","","","","","","","",""
"psychophysics","27","187768","0.0-6.0-0.21","6042c45fc5d9b623504e6a07","609a8bf73b2ac84e2732f618","609d7ce77a4253967b0d11ab","966.9900000000198","","","","37","","","","key","25.05043589743563","640","304.5","true","1","134.03808","6.291456","7","1","-1","","","","","","","","","","","","",""
"psychophysics","28","189143","0.0-6.0-0.22","6042c45fc5d9b623504e6a07","609a8bf73b2ac84e2732f618","609d7ce77a4253967b0d11ab","373.51500000001397","","","","37","","","","key","25.0496296296295","640","304.5","true","-1","140.32953600000002","6.291456","7","-1","1","","","","","","","","","","","","",""
"psychophysics","29","190475","0.0-6.0-0.23","6042c45fc5d9b623504e6a07","609a8bf73b2ac84e2732f618","609d7ce77a4253967b0d11ab","329.7400000000198","","","","37","","","","key","25.050346153846476","640","304.5","true","-1","140.32953600000002","5.033164800000001","8","-1","-1","","","","","","","","","","","","",""
"psychophysics","30","191724","0.0-6.0-0.24","6042c45fc5d9b623504e6a07","609a8bf73b2ac84e2732f618","609d7ce77a4253967b0d11ab","246.62500000011642","","","","39","","","","key","25.05038775510228","640","304.5","true","1","135.2963712","5.033164800000001","8","-1","-1","","","","","","","","","","","","",""
"psychophysics","31","193056","0.0-6.0-0.25","6042c45fc5d9b623504e6a07","609a8bf73b2ac84e2732f618","609d7ce77a4253967b0d11ab","330.5199999999895","","","","37","","","","key","25.048942307691995","640","304.5","true","-1","135.2963712","5.033164800000001","8","-1","-1","","","","","","","","","","","","",""
"psychophysics","32","194751","0.0-6.0-0.26","6042c45fc5d9b623504e6a07","609a8bf73b2ac84e2732f618","609d7ce77a4253967b0d11ab","693.4350000000268","","","","37","","","","key","25.05035820895495","640","304.5","true","1","130.2632064","4.0265318400000005","9","1","-1","","","","","","","","","","","","",""
"psychophysics","33","196067","0.0-6.0-0.27","6042c45fc5d9b623504e6a07","609a8bf73b2ac84e2732f618","609d7ce77a4253967b0d11ab","310.65499999999884","","","","37","","","","key","25.051156862745035","640","304.5","true","-1","134.28973824","4.0265318400000005","9","-1","1","","","","","","","","","","","","",""
"psychophysics","34","197419","0.0-6.0-0.28","6042c45fc5d9b623504e6a07","609a8bf73b2ac84e2732f618","609d7ce77a4253967b0d11ab","350.33499999996275","","","","37","","","","key","25.05045283018866","640","304.5","true","-1","134.28973824","3.2212254720000004","10","-1","-1","","","","","","","","","","","","",""
"psychophysics","35","199303","0.0-6.0-0.29","6042c45fc5d9b623504e6a07","609a8bf73b2ac84e2732f618","609d7ce77a4253967b0d11ab","881.6849999999686","","","","37","","","","key","25.050702702702807","640","304.5","true","-1","131.068512768","3.2212254720000004","10","-1","-1","","","","","","","","","","","","",""
"psychophysics","36","200798","0.0-6.0-0.30","6042c45fc5d9b623504e6a07","609a8bf73b2ac84e2732f618","609d7ce77a4253967b0d11ab","492.9199999998964","","","","37","","","","key","25.05257627118667","640","304.5","true","1","131.068512768","2.5769803776000004","11","1","-1","","","","","","","","","","","","",""
"psychophysics","37","202332","0.0-6.0-0.31","6042c45fc5d9b623504e6a07","609a8bf73b2ac84e2732f618","609d7ce77a4253967b0d11ab","532.4700000000885","","","","39","","","","key","25.04991666666659","640","304.5","true","1","133.6454931456","2.5769803776000004","11","-1","1","","","","","","","","","","","","",""
"psychophysics","38","203848","0.0-6.0-0.32","6042c45fc5d9b623504e6a07","609a8bf73b2ac84e2732f618","609d7ce77a4253967b0d11ab","513.9249999999884","","","","37","","","","key","25.04788333333369","640","304.5","true","1","133.6454931456","2.0615843020800004","12","1","-1","","","","","","","","","","","","",""
"psychophysics","39","205209","0.0-6.0-0.33","6042c45fc5d9b623504e6a07","609a8bf73b2ac84e2732f618","609d7ce77a4253967b0d11ab","357.2050000000163","","","","39","","","","key","25.04939622641541","640","304.5","true","1","135.70707744768","2.0615843020800004","12","-1","1","","","","","","","","","","","","",""
"psychophysics","40","206555","0.0-6.0-0.34","6042c45fc5d9b623504e6a07","609a8bf73b2ac84e2732f618","609d7ce77a4253967b0d11ab","343.91499999992084","","","","37","","","","key","25.050811320754704","640","304.5","true","-1","135.70707744768","1.6492674416640005","13","-1","-1","","","","","","","","","","","","",""
"psychophysics","41","207810","0.0-6.0-0.35","6042c45fc5d9b623504e6a07","609a8bf73b2ac84e2732f618","609d7ce77a4253967b0d11ab","250.30000000004657","","","","39","","","","key","25.04928571428588","640","304.5","true","1","134.057810006016","1.6492674416640005","13","-1","-1","","","","","","","","","","","","",""
"psychophysics","42","209343","0.0-6.0-0.36","6042c45fc5d9b623504e6a07","609a8bf73b2ac84e2732f618","609d7ce77a4253967b0d11ab","530.7950000000128","","","","39","","","","key","25.052599999999803","640","304.5","true","1","134.057810006016","1.6492674416640005","13","-1","-1","","","","","","","","","","","","",""
"psychophysics","43","210912","0.0-6.0-0.37","6042c45fc5d9b623504e6a07","609a8bf73b2ac84e2732f618","609d7ce77a4253967b0d11ab","567.1399999999849","","","","39","","","","key","25.04938709677428","640","304.5","true","-1","132.40854256435202","1.3194139533312006","14","1","-1","","","","","","","","","","","","",""
"psychophysics","44","212215","0.0-6.0-0.38","6042c45fc5d9b623504e6a07","609a8bf73b2ac84e2732f618","609d7ce77a4253967b0d11ab","299.6349999999511","","","","39","","","","key","25.048549019607748","640","304.5","true","1","133.72795651768323","1.3194139533312006","14","-1","1","","","","","","","","","","","","",""
"psychophysics","45","213609","0.0-6.0-0.39","6042c45fc5d9b623504e6a07","609a8bf73b2ac84e2732f618","609d7ce77a4253967b0d11ab","392.3650000000489","","","","39","","","","key","25.049481481481862","640","304.5","true","1","133.72795651768323","1.0555311626649604","15","-1","-1","","","","","","","","","","","","",""
"html-keyboard-response","46","218469","0.0-7.0","6042c45fc5d9b623504e6a07","609a8bf73b2ac84e2732f618","609d7ce77a4253967b0d11ab","4856.109999999928","<p>Well Done !</p><p>Prepare for a new block.</p><p>DON'T EXIT THE FULL SCREEN MODE</p><p>Press the Spacebar to start.</p>","","","32","","","","","","","","","","","","","","","true","133.53075309428738","","","","","","","","","","",""
"psychophysics","47","220129","0.0-8.0-0.0","6042c45fc5d9b623504e6a07","609a8bf73b2ac84e2732f618","609d7ce77a4253967b0d11ab","650.7299999999523","","","","39","","","","key","24.99937313432812","640","304.5","true","-1","180","30","0","1","","","","","","","","","","","","","",""
"psychophysics","48","221325","0.0-8.0-0.1","6042c45fc5d9b623504e6a07","609a8bf73b2ac84e2732f618","609d7ce77a4253967b0d11ab","193.204999999929","","","","37","","","","key","25.047673913044097","640","304.5","true","-1","210","30","0","-1","1","","","","","","","","","","","","",""
"psychophysics","49","222937","0.0-8.0-0.2","6042c45fc5d9b623504e6a07","609a8bf73b2ac84e2732f618","609d7ce77a4253967b0d11ab","608.3049999999639","","","","37","","","","key","25.0509843750001","640","304.5","true","-1","210","24","1","-1","-1","","","","","","","","","","","","",""
"psychophysics","50","224174","0.0-8.0-0.3","6042c45fc5d9b623504e6a07","609a8bf73b2ac84e2732f618","609d7ce77a4253967b0d11ab","235.53499999991618","","","","37","","","","key","25.052041666666508","640","304.5","true","-1","186","24","1","-1","-1","","","","","","","","","","","","",""
"psychophysics","51","225442","0.0-8.0-0.4","6042c45fc5d9b623504e6a07","609a8bf73b2ac84e2732f618","609d7ce77a4253967b0d11ab","265.7950000000128","","","","39","","","","key","25.05105999999971","640","304.5","true","1","186","24","1","-1","-1","","","","","","","","","","","","",""
"psychophysics","52","226656","0.0-8.0-0.5","6042c45fc5d9b623504e6a07","609a8bf73b2ac84e2732f618","609d7ce77a4253967b0d11ab","212.36999999996624","","","","39","","","","key","25.05089361702174","640","304.5","true","1","162","24","1","-1","-1","","","","","","","","","","","","",""
"psychophysics","53","227862","0.0-8.0-0.6","6042c45fc5d9b623504e6a07","609a8bf73b2ac84e2732f618","609d7ce77a4253967b0d11ab","204.04999999993015","","","","39","","","","key","25.04910638297851","640","304.5","true","1","162","24","1","-1","-1","","","","","","","","","","","","",""
"psychophysics","54","229065","0.0-8.0-0.7","6042c45fc5d9b623504e6a07","609a8bf73b2ac84e2732f618","609d7ce77a4253967b0d11ab","201.27999999999884","","","","39","","","","key","25.05119148936145","640","304.5","true","1","138","24","1","-1","-1","","","","","","","","","","","","",""
"psychophysics","55","230283","0.0-8.0-0.8","6042c45fc5d9b623504e6a07","609a8bf73b2ac84e2732f618","609d7ce77a4253967b0d11ab","216.77999999996973","","","","37","","","","key","25.051145833333067","640","304.5","true","-1","138","24","1","-1","-1","","","","","","","","","","","","",""
"psychophysics","56","231769","0.0-8.0-0.9","6042c45fc5d9b623504e6a07","609a8bf73b2ac84e2732f618","609d7ce77a4253967b0d11ab","483.25499999997555","","","","39","","","","key","25.048862068965562","640","304.5","true","1","129","24","1","-1","-1","","","","","","","","","","","","",""
"psychophysics","57","233232","0.0-8.0-0.10","6042c45fc5d9b623504e6a07","609a8bf73b2ac84e2732f618","609d7ce77a4253967b0d11ab","461.6849999999977","","","","39","","","","key","25.049224137931215","640","304.5","true","1","129","24","1","-1","-1","","","","","","","","","","","","",""
"psychophysics","58","234861","0.0-8.0-0.11","6042c45fc5d9b623504e6a07","609a8bf73b2ac84e2732f618","609d7ce77a4253967b0d11ab","626.469999999943","","","","39","","","","key","25.048921874999905","640","304.5","true","1","129","24","1","-1","-1","","","","","","","","","","","","",""
"psychophysics","59","236564","0.0-8.0-0.12","6042c45fc5d9b623504e6a07","609a8bf73b2ac84e2732f618","609d7ce77a4253967b0d11ab","699.9749999999767","","","","37","","","","key","25.05310447761179","640","304.5","true","-1","129","24","1","-1","-1","","","","","","","","","","","","",""
"psychophysics","60","238227","0.0-8.0-0.13","6042c45fc5d9b623504e6a07","609a8bf73b2ac84e2732f618","609d7ce77a4253967b0d11ab","661.3349999999919","","","","37","","","","key","25.051338461538453","640","304.5","true","-1","129","24","1","-1","-1","","","","","","","","","","","","",""
"psychophysics","61","239875","0.0-8.0-0.14","6042c45fc5d9b623504e6a07","609a8bf73b2ac84e2732f618","609d7ce77a4253967b0d11ab","645.6299999999756","","","","39","","","","key","25.048430769231008","640","304.5","true","-1","129","19.2","2","1","-1","","","","","","","","","","","","",""
"psychophysics","62","241250","0.0-8.0-0.15","6042c45fc5d9b623504e6a07","609a8bf73b2ac84e2732f618","609d7ce77a4253967b0d11ab","373.4399999999732","","","","37","","","","key","25.04861111111111","640","304.5","true","-1","148.2","19.2","2","-1","1","","","","","","","","","","","","",""
"psychophysics","63","242463","0.0-8.0-0.16","6042c45fc5d9b623504e6a07","609a8bf73b2ac84e2732f618","609d7ce77a4253967b0d11ab","210.77999999999884","","","","37","","","","key","25.048829787234315","640","304.5","true","-1","148.2","15.36","3","-1","-1","","","","","","","","","","","","",""
"psychophysics","64","243968","0.0-8.0-0.17","6042c45fc5d9b623504e6a07","609a8bf73b2ac84e2732f618","609d7ce77a4253967b0d11ab","502.84499999997206","","","","39","","","","key","25.049559322033883","640","304.5","true","1","132.83999999999997","15.36","3","-1","-1","","","","","","","","","","","","",""
"psychophysics","65","245380","0.0-8.0-0.18","6042c45fc5d9b623504e6a07","609a8bf73b2ac84e2732f618","609d7ce77a4253967b0d11ab","409.86999999996624","","","","37","","","","key","25.051517857143022","640","304.5","true","-1","132.83999999999997","15.36","3","-1","-1","","","","","","","","","","","","",""
"psychophysics","66","247112","0.0-8.0-0.19","6042c45fc5d9b623504e6a07","609a8bf73b2ac84e2732f618","609d7ce77a4253967b0d11ab","729.6850000000268","","","","37","","","","key","25.05333823529423","640","304.5","true","1","129","12.287999999999998","4","1","-1","","","","","","","","","","","","",""
"psychophysics","67","248339","0.0-8.0-0.20","6042c45fc5d9b623504e6a07","609a8bf73b2ac84e2732f618","609d7ce77a4253967b0d11ab","224.50500000000466","","","","39","","","","key","25.047895833333314","640","304.5","true","1","141.288","12.287999999999998","4","-1","1","","","","","","","","","","","","",""
"psychophysics","68","249593","0.0-8.0-0.21","6042c45fc5d9b623504e6a07","609a8bf73b2ac84e2732f618","609d7ce77a4253967b0d11ab","251.69499999991967","","","","39","","","","key","25.048775510204365","640","304.5","true","1","141.288","9.8304","5","-1","-1","","","","","","","","","","","","",""
"psychophysics","69","250918","0.0-8.0-0.22","6042c45fc5d9b623504e6a07","609a8bf73b2ac84e2732f618","609d7ce77a4253967b0d11ab","323.0350000000035","","","","39","","","","key","25.050307692307868","640","304.5","true","1","131.4576","9.8304","5","-1","-1","","","","","","","","","","","","",""
"psychophysics","70","252505","0.0-8.0-0.23","6042c45fc5d9b623504e6a07","609a8bf73b2ac84e2732f618","609d7ce77a4253967b0d11ab","584.8600000000442","","","","37","","","","key","25.049403225806365","640","304.5","true","-1","131.4576","9.8304","5","-1","-1","","","","","","","","","","","","",""
"psychophysics","71","254143","0.0-8.0-0.24","6042c45fc5d9b623504e6a07","609a8bf73b2ac84e2732f618","609d7ce77a4253967b0d11ab","635.3400000000256","","","","39","","","","key","25.047046875000433","640","304.5","true","-1","129","7.864319999999999","6","1","-1","","","","","","","","","","","","",""
"psychophysics","72","255608","0.0-8.0-0.25","6042c45fc5d9b623504e6a07","609a8bf73b2ac84e2732f618","609d7ce77a4253967b0d11ab","458.8850000000093","","","","39","","","","key","25.051844827585917","640","304.5","true","-1","136.86432","7.864319999999999","6","1","1","","","","","","","","","","","","",""
"psychophysics","73","256932","0.0-8.0-0.26","6042c45fc5d9b623504e6a07","609a8bf73b2ac84e2732f618","609d7ce77a4253967b0d11ab","318.9199999999255","","","","39","","","","key","25.049730769230965","640","304.5","true","1","144.72863999999998","7.864319999999999","6","-1","1","","","","","","","","","","","","",""
"psychophysics","74","258165","0.0-8.0-0.27","6042c45fc5d9b623504e6a07","609a8bf73b2ac84e2732f618","609d7ce77a4253967b0d11ab","230.57500000001164","","","","37","","","","key","25.046166666666977","640","304.5","true","-1","144.72863999999998","6.291456","7","-1","-1","","","","","","","","","","","","",""
"psychophysics","75","259721","0.0-8.0-0.28","6042c45fc5d9b623504e6a07","609a8bf73b2ac84e2732f618","609d7ce77a4253967b0d11ab","555.1199999999953","","","","37","","","","key","25.050065573770553","640","304.5","true","1","138.43718399999997","5.033164800000001","8","1","-1","","","","","","","","","","","","",""
"psychophysics","76","260935","0.0-8.0-0.29","6042c45fc5d9b623504e6a07","609a8bf73b2ac84e2732f618","609d7ce77a4253967b0d11ab","211.05999999999767","","","","37","","","","key","25.048638297872806","640","304.5","true","-1","143.47034879999998","5.033164800000001","8","-1","1","","","","","","","","","","","","",""
"psychophysics","77","262218","0.0-8.0-0.30","6042c45fc5d9b623504e6a07","609a8bf73b2ac84e2732f618","609d7ce77a4253967b0d11ab","278.4550000000163","","","","39","","","","key","25.049568627450807","640","304.5","true","1","143.47034879999998","4.0265318400000005","9","-1","-1","","","","","","","","","","","","",""
"psychophysics","78","263455","0.0-8.0-0.31","6042c45fc5d9b623504e6a07","609a8bf73b2ac84e2732f618","609d7ce77a4253967b0d11ab","234.65500000008615","","","","39","","","","key","25.050708333333507","640","304.5","true","1","139.44381696","4.0265318400000005","9","-1","-1","","","","","","","","","","","","",""
"psychophysics","79","264650","0.0-8.0-0.32","6042c45fc5d9b623504e6a07","609a8bf73b2ac84e2732f618","609d7ce77a4253967b0d11ab","192.18000000005122","","","","37","","","","key","25.047063829787223","640","304.5","true","-1","139.44381696","4.0265318400000005","9","-1","-1","","","","","","","","","","","","",""
"psychophysics","80","265879","0.0-8.0-0.33","6042c45fc5d9b623504e6a07","609a8bf73b2ac84e2732f618","609d7ce77a4253967b0d11ab","225.22000000003027","","","","39","","","","key","25.051312499999767","640","304.5","true","1","135.41728512","4.0265318400000005","9","-1","-1","","","","","","","","","","","","",""
"psychophysics","81","267095","0.0-8.0-0.34","6042c45fc5d9b623504e6a07","609a8bf73b2ac84e2732f618","609d7ce77a4253967b0d11ab","213.3649999999907","","","","37","","","","key","25.051170212766554","640","304.5","true","-1","135.41728512","4.0265318400000005","9","-1","-1","","","","","","","","","","","","",""
"psychophysics","82","268785","0.0-8.0-0.35","6042c45fc5d9b623504e6a07","609a8bf73b2ac84e2732f618","609d7ce77a4253967b0d11ab","686.8100000000559","","","","37","","","","key","25.050999999999696","640","304.5","true","1","131.39075328","3.2212254720000004","10","1","-1","","","","","","","","","","","","",""
"psychophysics","83","270409","0.0-8.0-0.36","6042c45fc5d9b623504e6a07","609a8bf73b2ac84e2732f618","609d7ce77a4253967b0d11ab","622.484999999986","","","","37","","","","key","25.04976923076991","640","304.5","true","-1","134.61197875200003","3.2212254720000004","10","-1","1","","","","","","","","","","","","",""
"psychophysics","84","271697","0.0-8.0-0.37","6042c45fc5d9b623504e6a07","609a8bf73b2ac84e2732f618","609d7ce77a4253967b0d11ab","286.89000000001397","","","","37","","","","key","25.05170000000042","640","304.5","true","-1","134.61197875200003","2.5769803776000004","11","-1","-1","","","","","","","","","","","","",""
"psychophysics","85","272995","0.0-8.0-0.38","6042c45fc5d9b623504e6a07","609a8bf73b2ac84e2732f618","609d7ce77a4253967b0d11ab","295.0899999999674","","","","39","","","","key","25.054607843136754","640","304.5","true","1","132.03499837440003","2.5769803776000004","11","-1","-1","","","","","","","","","","","","",""
"psychophysics","86","274646","0.0-8.0-0.39","6042c45fc5d9b623504e6a07","609a8bf73b2ac84e2732f618","609d7ce77a4253967b0d11ab","649.0149999999558","","","","37","","","","key","25.050646153845502","640","304.5","true","1","132.03499837440003","2.0615843020800004","12","1","-1","","","","","","","","","","","","",""
"html-keyboard-response","87","277819","0.0-9.0","6042c45fc5d9b623504e6a07","609a8bf73b2ac84e2732f618","609d7ce77a4253967b0d11ab","3171.6200000000536","<p>Well Done !</p><p>Prepare for a new block.</p><p>DON'T EXIT THE FULL SCREEN MODE</p><p>Press the Spacebar to start.</p>","","","32","","","","","","","","","","","","","","","true","137.74042621952003","","","","","","","","","","",""
"psychophysics","88","279009","0.0-10.0-0.0","6042c45fc5d9b623504e6a07","609a8bf73b2ac84e2732f618","609d7ce77a4253967b0d11ab","185.20000000001164","","","","37","","","","key","25.160489361701","640","304.5","true","-1","180","30","0","-1","","","","","","","","","","","","","",""
"psychophysics","89","280204","0.0-10.0-0.1","6042c45fc5d9b623504e6a07","609a8bf73b2ac84e2732f618","609d7ce77a4253967b0d11ab","193.4999999999418","","","","37","","","","key","25.047978723404356","640","304.5","true","-1","180","30","0","-1","-1","","","","","","","","","","","","",""
"psychophysics","90","281378","0.0-10.0-0.2","6042c45fc5d9b623504e6a07","609a8bf73b2ac84e2732f618","609d7ce77a4253967b0d11ab","170.8300000000163","","","","37","","","","key","25.05002173912995","640","304.5","true","-1","150","30","0","-1","-1","","","","","","","","","","","","",""
"psychophysics","91","282559","0.0-10.0-0.3","6042c45fc5d9b623504e6a07","609a8bf73b2ac84e2732f618","609d7ce77a4253967b0d11ab","177.71999999991385","","","","39","","","","key","25.04891304347826","640","304.5","true","1","150","30","0","-1","-1","","","","","","","","","","","","",""
"psychophysics","92","284158","0.0-10.0-0.4","6042c45fc5d9b623504e6a07","609a8bf73b2ac84e2732f618","609d7ce77a4253967b0d11ab","597.0049999999464","","","","37","","","","key","25.051253968253842","640","304.5","true","-1","129","30","0","-1","-1","","","","","","","","","","","","",""
"psychophysics","93","285753","0.0-10.0-0.5","6042c45fc5d9b623504e6a07","609a8bf73b2ac84e2732f618","609d7ce77a4253967b0d11ab","592.8099999999977","","","","37","","","","key","25.05080645161328","640","304.5","true","1","129","24","1","1","-1","","","","","","","","","","","","",""
"psychophysics","94","287002","0.0-10.0-0.6","6042c45fc5d9b623504e6a07","609a8bf73b2ac84e2732f618","609d7ce77a4253967b0d11ab","247.31499999994412","","","","37","","","","key","25.051530612244186","640","304.5","true","-1","153","24","1","-1","1","","","","","","","","","","","","",""
"psychophysics","95","288237","0.0-10.0-0.7","6042c45fc5d9b623504e6a07","609a8bf73b2ac84e2732f618","609d7ce77a4253967b0d11ab","233.16499999997905","","","","39","","","","key","25.055124999998952","640","304.5","true","1","153","19.2","2","-1","-1","","","","","","","","","","","","",""
"psychophysics","96","289446","0.0-10.0-0.8","6042c45fc5d9b623504e6a07","609a8bf73b2ac84e2732f618","609d7ce77a4253967b0d11ab","203.02500000002328","","","","39","","","","key","25.05010416666725","640","304.5","true","1","133.8","19.2","2","-1","-1","","","","","","","","","","","","",""
"psychophysics","97","290651","0.0-10.0-0.9","6042c45fc5d9b623504e6a07","609a8bf73b2ac84e2732f618","609d7ce77a4253967b0d11ab","203.29999999998836","","","","37","","","","key","25.049638297872004","640","304.5","true","-1","133.8","19.2","2","-1","-1","","","","","","","","","","","","",""
"psychophysics","98","292511","0.0-10.0-0.10","6042c45fc5d9b623504e6a07","609a8bf73b2ac84e2732f618","609d7ce77a4253967b0d11ab","857.7749999999651","","","","37","","","","key","25.049520547945875","640","304.5","true","-1","129","19.2","2","-1","-1","","","","","","","","","","","","",""
"psychophysics","99","294215","0.0-10.0-0.11","6042c45fc5d9b623504e6a07","609a8bf73b2ac84e2732f618","609d7ce77a4253967b0d11ab","701.7699999999604","","","","39","","","","key","25.0495373134331","640","304.5","true","-1","129","15.36","3","1","-1","","","","","","","","","","","","",""
"psychophysics","100","295444","0.0-10.0-0.12","6042c45fc5d9b623504e6a07","609a8bf73b2ac84e2732f618","609d7ce77a4253967b0d11ab","226.9999999999418","","","","37","","","","key","25.047979166666966","640","304.5","true","-1","144.36","15.36","3","-1","1","","","","","","","","","","","","",""
"psychophysics","101","296692","0.0-10.0-0.13","6042c45fc5d9b623504e6a07","609a8bf73b2ac84e2732f618","609d7ce77a4253967b0d11ab","245.89500000001863","","","","39","","","","key","25.050693877550955","640","304.5","true","1","144.36","12.287999999999998","4","-1","-1","","","","","","","","","","","","",""
"psychophysics","102","298370","0.0-10.0-0.14","6042c45fc5d9b623504e6a07","609a8bf73b2ac84e2732f618","609d7ce77a4253967b0d11ab","676.7699999999022","","","","37","","","","key","25.049545454544855","640","304.5","true","-1","132.072","12.287999999999998","4","-1","-1","","","","","","","","","","","","",""
"psychophysics","103","300029","0.0-10.0-0.15","6042c45fc5d9b623504e6a07","609a8bf73b2ac84e2732f618","609d7ce77a4253967b0d11ab","656.7150000000838","","","","37","","","","key","25.051984615384853","640","304.5","true","1","132.072","9.8304","5","1","-1","","","","","","","","","","","","",""
"psychophysics","104","301256","0.0-10.0-0.16","6042c45fc5d9b623504e6a07","609a8bf73b2ac84e2732f618","609d7ce77a4253967b0d11ab","224.3499999999185","","","","37","","","","key","25.049937499999942","640","304.5","true","-1","141.9024","9.8304","5","-1","1","","","","","","","","","","","","",""
"psychophysics","105","302545","0.0-10.0-0.17","6042c45fc5d9b623504e6a07","609a8bf73b2ac84e2732f618","609d7ce77a4253967b0d11ab","287.59500000003027","","","","39","","","","key","25.050529411765655","640","304.5","true","1","141.9024","7.864319999999999","6","-1","-1","","","","","","","","","","","","",""
"psychophysics","106","304249","0.0-10.0-0.18","6042c45fc5d9b623504e6a07","609a8bf73b2ac84e2732f618","609d7ce77a4253967b0d11ab","701.6900000000023","","","","37","","","","key","25.04946268656736","640","304.5","true","1","134.03808","6.291456","7","1","-1","","","","","","","","","","","","",""
"psychophysics","107","305539","0.0-10.0-0.19","6042c45fc5d9b623504e6a07","609a8bf73b2ac84e2732f618","609d7ce77a4253967b0d11ab","287.35000000009313","","","","37","","","","key","25.050900000000837","640","304.5","true","-1","140.32953600000002","6.291456","7","-1","1","","","","","","","","","","","","",""
"psychophysics","108","306788","0.0-10.0-0.20","6042c45fc5d9b623504e6a07","609a8bf73b2ac84e2732f618","609d7ce77a4253967b0d11ab","247.42999999999302","","","","39","","","","key","25.049408163264754","640","304.5","true","1","140.32953600000002","5.033164800000001","8","-1","-1","","","","","","","","","","","","",""
"psychophysics","109","308006","0.0-10.0-0.21","6042c45fc5d9b623504e6a07","609a8bf73b2ac84e2732f618","609d7ce77a4253967b0d11ab","216.97500000003492","","","","39","","","","key","25.047020833334198","640","304.5","true","1","135.2963712","5.033164800000001","8","-1","-1","","","","","","","","","","","","",""
"psychophysics","110","309251","0.0-10.0-0.22","6042c45fc5d9b623504e6a07","609a8bf73b2ac84e2732f618","609d7ce77a4253967b0d11ab","242.45999999996275","","","","37","","","","key","25.05247916666728","640","304.5","true","-1","135.2963712","5.033164800000001","8","-1","-1","","","","","","","","","","","","",""
"psychophysics","111","310969","0.0-10.0-0.23","6042c45fc5d9b623504e6a07","609a8bf73b2ac84e2732f618","609d7ce77a4253967b0d11ab","716.5549999999348","","","","39","","","","key","25.048661764706004","640","304.5","true","-1","130.2632064","4.0265318400000005","9","1","-1","","","","","","","","","","","","",""
"psychophysics","112","312255","0.0-10.0-0.24","6042c45fc5d9b623504e6a07","609a8bf73b2ac84e2732f618","609d7ce77a4253967b0d11ab","283.56500000006054","","","","39","","","","key","25.045019999999784","640","304.5","true","1","134.28973824","4.0265318400000005","9","-1","1","","","","","","","","","","","","",""
"psychophysics","113","313661","0.0-10.0-0.25","6042c45fc5d9b623504e6a07","609a8bf73b2ac84e2732f618","609d7ce77a4253967b0d11ab","403.4800000000396","","","","39","","","","key","25.05119999999985","640","304.5","true","1","134.28973824","3.2212254720000004","10","-1","-1","","","","","","","","","","","","",""
"psychophysics","114","315331","0.0-10.0-0.26","6042c45fc5d9b623504e6a07","609a8bf73b2ac84e2732f618","609d7ce77a4253967b0d11ab","668.0599999999977","","","","37","","","","key","25.047409090909323","640","304.5","true","-1","131.068512768","3.2212254720000004","10","-1","-1","","","","","","","","","","","","",""
"psychophysics","115","316975","0.0-10.0-0.27","6042c45fc5d9b623504e6a07","609a8bf73b2ac84e2732f618","609d7ce77a4253967b0d11ab","640.8449999999721","","","","39","","","","key","25.046738461538467","640","304.5","true","1","131.068512768","3.2212254720000004","10","-1","-1","","","","","","","","","","","","",""
"psychophysics","116","318597","0.0-10.0-0.28","6042c45fc5d9b623504e6a07","609a8bf73b2ac84e2732f618","609d7ce77a4253967b0d11ab","619.1500000000233","","","","37","","","","key","25.04730158730129","640","304.5","true","-1","129","3.2212254720000004","10","-1","-1","","","","","","","","","","","","",""
"psychophysics","117","320214","0.0-10.0-0.29","6042c45fc5d9b623504e6a07","609a8bf73b2ac84e2732f618","609d7ce77a4253967b0d11ab","615.289999999979","","","","39","","","","key","25.05151562499941","640","304.5","true","1","129","3.2212254720000004","10","-1","-1","","","","","","","","","","","","",""
"psychophysics","118","321904","0.0-10.0-0.30","6042c45fc5d9b623504e6a07","609a8bf73b2ac84e2732f618","609d7ce77a4253967b0d11ab","688.9049999999697","","","","37","","","","key","25.05160606060632","640","304.5","true","1","129","2.5769803776000004","11","1","-1","","","","","","","","","","","","",""
"psychophysics","119","323678","0.0-10.0-0.31","6042c45fc5d9b623504e6a07","609a8bf73b2ac84e2732f618","609d7ce77a4253967b0d11ab","770.9899999999907","","","","37","","","","key","25.048500000000267","640","304.5","true","1","131.5769803776","2.5769803776000004","11","1","1","","","","","","","","","","","","",""
"psychophysics","120","325120","0.0-10.0-0.32","6042c45fc5d9b623504e6a07","609a8bf73b2ac84e2732f618","609d7ce77a4253967b0d11ab","439.1850000000559","","","","39","","","","key","25.049999999999592","640","304.5","true","1","134.1539607552","2.5769803776000004","11","-1","1","","","","","","","","","","","","",""
"psychophysics","121","326397","0.0-10.0-0.33","6042c45fc5d9b623504e6a07","609a8bf73b2ac84e2732f618","609d7ce77a4253967b0d11ab","274.2850000000908","","","","37","","","","key","25.047219999999506","640","304.5","true","-1","134.1539607552","2.0615843020800004","12","-1","-1","","","","","","","","","","","","",""
"psychophysics","122","328474","0.0-10.0-0.34","6042c45fc5d9b623504e6a07","609a8bf73b2ac84e2732f618","609d7ce77a4253967b0d11ab","1074.0749999999534","","","","39","","","","key","25.050475609756397","640","304.5","true","-1","132.09237645311998","1.6492674416640005","13","1","-1","","","","","","","","","","","","",""
"psychophysics","123","330319","0.0-10.0-0.35","6042c45fc5d9b623504e6a07","609a8bf73b2ac84e2732f618","609d7ce77a4253967b0d11ab","843.5250000000233","","","","37","","","","key","25.05037500000051","640","304.5","true","1","133.74164389478398","1.6492674416640005","13","1","1","","","","","","","","","","","","",""
"psychophysics","124","331981","0.0-10.0-0.36","6042c45fc5d9b623504e6a07","609a8bf73b2ac84e2732f618","609d7ce77a4253967b0d11ab","660.5750000000116","","","","39","","","","key","25.051075757575525","640","304.5","true","1","135.39091133644797","1.6492674416640005","13","-1","1","","","","","","","","","","","","",""
"psychophysics","125","333904","0.0-10.0-0.37","6042c45fc5d9b623504e6a07","609a8bf73b2ac84e2732f618","609d7ce77a4253967b0d11ab","919.8800000000629","","","","37","","","","key","25.04981333333378","640","304.5","true","-1","135.39091133644797","1.3194139533312006","14","-1","-1","","","","","","","","","","","","",""
"psychophysics","126","335282","0.0-10.0-0.38","6042c45fc5d9b623504e6a07","609a8bf73b2ac84e2732f618","609d7ce77a4253967b0d11ab","375.8950000000186","","","","39","","","","key","25.04955555555514","640","304.5","true","1","134.07149738311676","1.3194139533312006","14","-1","-1","","","","","","","","","","","","",""
"psychophysics","127","337143","0.0-10.0-0.39","6042c45fc5d9b623504e6a07","609a8bf73b2ac84e2732f618","609d7ce77a4253967b0d11ab","859.0799999999581","","","","39","","","","key","25.048621621621596","640","304.5","true","-1","134.07149738311676","1.0555311626649604","15","1","-1","","","","","","","","","","","","",""
"html-keyboard-response","128","350261","0.0-11.0","6042c45fc5d9b623504e6a07","609a8bf73b2ac84e2732f618","609d7ce77a4253967b0d11ab","13115.26999999996","<p>Well Done !</p><p>Prepare for a new block.</p><p>DON'T EXIT THE FULL SCREEN MODE</p><p>Press the Spacebar to start.</p>","","","32","","","","","","","","","","","","","","","true","132.53803356340222","","","","","","","","","","",""
"psychophysics","129","351600","0.0-12.0-0.0","6042c45fc5d9b623504e6a07","609a8bf73b2ac84e2732f618","609d7ce77a4253967b0d11ab","333.20999999990454","","","","39","","","","key","25.02511111111057","640","304.5","true","1","180","30","0","-1","","","","","","","","","","","","","",""
"psychophysics","130","352956","0.0-12.0-0.1","6042c45fc5d9b623504e6a07","609a8bf73b2ac84e2732f618","609d7ce77a4253967b0d11ab","354.88999999995576","","","","37","","","","key","25.04883018868013","640","304.5","true","-1","180","30","0","-1","-1","","","","","","","","","","","","",""
"psychophysics","131","354175","0.0-12.0-0.2","6042c45fc5d9b623504e6a07","609a8bf73b2ac84e2732f618","609d7ce77a4253967b0d11ab","216.38999999995576","","","","39","","","","key","25.04965957446752","640","304.5","true","1","150","30","0","-1","-1","","","","","","","","","","","","",""
"psychophysics","132","355381","0.0-12.0-0.3","6042c45fc5d9b623504e6a07","609a8bf73b2ac84e2732f618","609d7ce77a4253967b0d11ab","202.2300000000978","","","","39","","","","key","25.048791666666755","640","304.5","true","1","150","30","0","-1","-1","","","","","","","","","","","","",""
"psychophysics","133","357122","0.0-12.0-0.4","6042c45fc5d9b623504e6a07","609a8bf73b2ac84e2732f618","609d7ce77a4253967b0d11ab","738.7099999999627","","","","37","","","","key","25.051470588235293","640","304.5","true","-1","129","30","0","-1","-1","","","","","","","","","","","","",""
"psychophysics","134","358789","0.0-12.0-0.5","6042c45fc5d9b623504e6a07","609a8bf73b2ac84e2732f618","609d7ce77a4253967b0d11ab","666.0250000000233","","","","37","","","","key","25.05210606060626","640","304.5","true","-1","129","30","0","-1","-1","","","","","","","","","","","","",""
"psychophysics","135","360387","0.0-12.0-0.6","6042c45fc5d9b623504e6a07","609a8bf73b2ac84e2732f618","609d7ce77a4253967b0d11ab","595.6149999999325","","","","37","","","","key","25.05196774193469","640","304.5","true","-1","129","30","0","-1","-1","","","","","","","","","","","","",""
"psychophysics","136","362036","0.0-12.0-0.7","6042c45fc5d9b623504e6a07","609a8bf73b2ac84e2732f618","609d7ce77a4253967b0d11ab","644.2450000000536","","","","37","","","","key","25.048753846154657","640","304.5","true","-1","129","30","0","-1","-1","","","","","","","","","","","","",""
"psychophysics","137","363872","0.0-12.0-0.8","6042c45fc5d9b623504e6a07","609a8bf73b2ac84e2732f618","609d7ce77a4253967b0d11ab","833.7449999999953","","","","39","","","","key","25.0485479452062","640","304.5","true","1","129","30","0","-1","-1","","","","","","","","","","","","",""
"psychophysics","138","365502","0.0-12.0-0.9","6042c45fc5d9b623504e6a07","609a8bf73b2ac84e2732f618","609d7ce77a4253967b0d11ab","626.75","","","","39","","","","key","25.047828124999796","640","304.5","true","1","129","30","0","-1","-1","","","","","","","","","","","","",""
"psychophysics","139","367132","0.0-12.0-0.10","6042c45fc5d9b623504e6a07","609a8bf73b2ac84e2732f618","609d7ce77a4253967b0d11ab","627.4749999999767","","","","39","","","","key","25.050749999999425","640","304.5","true","-1","129","24","1","1","-1","","","","","","","","","","","","",""
"psychophysics","140","368497","0.0-12.0-0.11","6042c45fc5d9b623504e6a07","609a8bf73b2ac84e2732f618","609d7ce77a4253967b0d11ab","362.00500000006286","","","","39","","","","key","25.048867924527688","640","304.5","true","1","153","24","1","-1","1","","","","","","","","","","","","",""
"psychophysics","141","369809","0.0-12.0-0.12","6042c45fc5d9b623504e6a07","609a8bf73b2ac84e2732f618","609d7ce77a4253967b0d11ab","310.1899999999441","","","","37","","","","key","25.051750000000958","640","304.5","true","-1","153","19.2","2","-1","-1","","","","","","","","","","","","",""
"psychophysics","142","371517","0.0-12.0-0.13","6042c45fc5d9b623504e6a07","609a8bf73b2ac84e2732f618","609d7ce77a4253967b0d11ab","706.7750000000815","","","","39","","","","key","25.05143283582084","640","304.5","true","1","133.8","19.2","2","-1","-1","","","","","","","","","","","","",""
"psychophysics","143","373257","0.0-12.0-0.14","6042c45fc5d9b623504e6a07","609a8bf73b2ac84e2732f618","609d7ce77a4253967b0d11ab","736.9550000000745","","","","39","","","","key","25.05223529411716","640","304.5","true","-1","133.8","15.36","3","1","-1","","","","","","","","","","","","",""
"psychophysics","144","374532","0.0-12.0-0.15","6042c45fc5d9b623504e6a07","609a8bf73b2ac84e2732f618","609d7ce77a4253967b0d11ab","273.0249999999651","","","","37","","","","key","25.04621999999974","640","304.5","true","-1","149.16000000000003","15.36","3","-1","1","","","","","","","","","","","","",""
"psychophysics","145","375852","0.0-12.0-0.16","6042c45fc5d9b623504e6a07","609a8bf73b2ac84e2732f618","609d7ce77a4253967b0d11ab","318.18499999993946","","","","37","","","","key","25.050557692307986","640","304.5","true","-1","149.16000000000003","12.287999999999998","4","-1","-1","","","","","","","","","","","","",""
"psychophysics","146","377343","0.0-12.0-0.17","6042c45fc5d9b623504e6a07","609a8bf73b2ac84e2732f618","609d7ce77a4253967b0d11ab","487.49499999993714","","","","39","","","","key","25.048758620690304","640","304.5","true","1","136.872","12.287999999999998","4","-1","-1","","","","","","","","","","","","",""
"psychophysics","147","378569","0.0-12.0-0.18","6042c45fc5d9b623504e6a07","609a8bf73b2ac84e2732f618","609d7ce77a4253967b0d11ab","223.01500000007218","","","","37","","","","key","25.046166666665766","640","304.5","true","-1","136.872","12.287999999999998","4","-1","-1","","","","","","","","","","","","",""
"psychophysics","148","380087","0.0-12.0-0.19","6042c45fc5d9b623504e6a07","609a8bf73b2ac84e2732f618","609d7ce77a4253967b0d11ab","516.7949999999837","","","","37","","","","key","25.053366666666502","640","304.5","true","1","129","9.8304","5","1","-1","","","","","","","","","","","","",""
"psychophysics","149","381698","0.0-12.0-0.20","6042c45fc5d9b623504e6a07","609a8bf73b2ac84e2732f618","609d7ce77a4253967b0d11ab","608.1949999999488","","","","37","","","","key","25.05366666666657","640","304.5","true","1","138.8304","9.8304","5","1","1","","","","","","","","","","","","",""
"psychophysics","150","383045","0.0-12.0-0.21","6042c45fc5d9b623504e6a07","609a8bf73b2ac84e2732f618","609d7ce77a4253967b0d11ab","345.3550000000978","","","","39","","","","key","25.047150943396428","640","304.5","true","1","148.6608","9.8304","5","-1","1","","","","","","","","","","","","",""
"psychophysics","151","384337","0.0-12.0-0.22","6042c45fc5d9b623504e6a07","609a8bf73b2ac84e2732f618","609d7ce77a4253967b0d11ab","290.27000000007683","","","","37","","","","key","25.04670000000042","640","304.5","true","-1","148.6608","7.864319999999999","6","-1","-1","","","","","","","","","","","","",""
"psychophysics","152","385553","0.0-12.0-0.23","6042c45fc5d9b623504e6a07","609a8bf73b2ac84e2732f618","609d7ce77a4253967b0d11ab","210.98500000010245","","","","39","","","","key","25.049062500000826","640","304.5","true","1","140.79648","7.864319999999999","6","-1","-1","","","","","","","","","","","","",""
"psychophysics","153","386795","0.0-12.0-0.24","6042c45fc5d9b623504e6a07","609a8bf73b2ac84e2732f618","609d7ce77a4253967b0d11ab","240.01999999996042","","","","37","","","","key","25.055040816326237","640","304.5","true","-1","140.79648","7.864319999999999","6","-1","-1","","","","","","","","","","","","",""
"psychophysics","154","388383","0.0-12.0-0.25","6042c45fc5d9b623504e6a07","609a8bf73b2ac84e2732f618","609d7ce77a4253967b0d11ab","585.4150000000373","","","","37","","","","key","25.050290322580917","640","304.5","true","1","132.93216","6.291456","7","1","-1","","","","","","","","","","","","",""
"psychophysics","155","389659","0.0-12.0-0.26","6042c45fc5d9b623504e6a07","609a8bf73b2ac84e2732f618","609d7ce77a4253967b0d11ab","274.59499999997206","","","","37","","","","key","25.051260000000475","640","304.5","true","-1","139.22361600000002","6.291456","7","-1","1","","","","","","","","","","","","",""
"psychophysics","156","390967","0.0-12.0-0.27","6042c45fc5d9b623504e6a07","609a8bf73b2ac84e2732f618","609d7ce77a4253967b0d11ab","306.16499999997905","","","","39","","","","key","25.054941176471083","640","304.5","true","1","139.22361600000002","5.033164800000001","8","-1","-1","","","","","","","","","","","","",""
"psychophysics","157","392659","0.0-12.0-0.28","6042c45fc5d9b623504e6a07","609a8bf73b2ac84e2732f618","609d7ce77a4253967b0d11ab","690.2849999999162","","","","39","","","","key","25.05176119403062","640","304.5","true","1","134.1904512","5.033164800000001","8","-1","-1","","","","","","","","","","","","",""
"psychophysics","158","393986","0.0-12.0-0.29","6042c45fc5d9b623504e6a07","609a8bf73b2ac84e2732f618","609d7ce77a4253967b0d11ab","324.7849999999744","","","","37","","","","key","25.054173076923828","640","304.5","true","-1","134.1904512","5.033164800000001","8","-1","-1","","","","","","","","","","","","",""
"psychophysics","159","395797","0.0-12.0-0.30","6042c45fc5d9b623504e6a07","609a8bf73b2ac84e2732f618","609d7ce77a4253967b0d11ab","809.0349999999744","","","","37","","","","key","25.048971830986105","640","304.5","true","-1","129.1572864","5.033164800000001","8","-1","-1","","","","","","","","","","","","",""
"psychophysics","160","397341","0.0-12.0-0.31","6042c45fc5d9b623504e6a07","609a8bf73b2ac84e2732f618","609d7ce77a4253967b0d11ab","542.1449999999604","","","","37","","","","key","25.04985245901683","640","304.5","true","-1","129.1572864","5.033164800000001","8","-1","-1","","","","","","","","","","","","",""
"psychophysics","161","399144","0.0-12.0-0.32","6042c45fc5d9b623504e6a07","609a8bf73b2ac84e2732f618","609d7ce77a4253967b0d11ab","800.1500000000233","","","","37","","","","key","25.04974647887333","640","304.5","true","1","129","4.0265318400000005","9","1","-1","","","","","","","","","","","","",""
"psychophysics","162","401029","0.0-12.0-0.33","6042c45fc5d9b623504e6a07","609a8bf73b2ac84e2732f618","609d7ce77a4253967b0d11ab","882.8949999999604","","","","39","","","","key","25.05364864864906","640","304.5","true","-1","133.02653184","4.0265318400000005","9","1","1","","","","","","","","","","","","",""
"psychophysics","163","403709","0.0-12.0-0.34","6042c45fc5d9b623504e6a07","609a8bf73b2ac84e2732f618","609d7ce77a4253967b0d11ab","1678.0800000000163","","","","39","","","","key","25.048801886792546","640","304.5","true","-1","137.05306367999998","4.0265318400000005","9","1","1","","","","","","","","","","","","",""
"psychophysics","164","405056","0.0-12.0-0.35","6042c45fc5d9b623504e6a07","609a8bf73b2ac84e2732f618","609d7ce77a4253967b0d11ab","345.0800000000163","","","","39","","","","key","25.053679245282492","640","304.5","true","1","141.07959551999997","4.0265318400000005","9","-1","1","","","","","","","","","","","","",""
"psychophysics","165","406338","0.0-12.0-0.36","6042c45fc5d9b623504e6a07","609a8bf73b2ac84e2732f618","609d7ce77a4253967b0d11ab","280.3950000000186","","","","39","","","","key","25.052320000000762","640","304.5","true","1","141.07959551999997","3.2212254720000004","10","-1","-1","","","","","","","","","","","","",""
"psychophysics","166","407609","0.0-12.0-0.37","6042c45fc5d9b623504e6a07","609a8bf73b2ac84e2732f618","609d7ce77a4253967b0d11ab","268.48500000004424","","","","37","","","","key","25.051959183674107","640","304.5","true","-1","137.85837004799998","3.2212254720000004","10","-1","-1","","","","","","","","","","","","",""
"psychophysics","167","408827","0.0-12.0-0.38","6042c45fc5d9b623504e6a07","609a8bf73b2ac84e2732f618","609d7ce77a4253967b0d11ab","213.18000000005122","","","","39","","","","key","25.047479166667472","640","304.5","true","1","137.85837004799998","3.2212254720000004","10","-1","-1","","","","","","","","","","","","",""
"psychophysics","168","410545","0.0-12.0-0.39","6042c45fc5d9b623504e6a07","609a8bf73b2ac84e2732f618","609d7ce77a4253967b0d11ab","715.6150000001071","","","","39","","","","key","25.053235294117577","640","304.5","true","1","134.63714457599997","3.2212254720000004","10","-1","-1","","","","","","","","","","","","",""
"html-keyboard-response","169","419825","0.0-13.0","6042c45fc5d9b623504e6a07","609a8bf73b2ac84e2732f618","609d7ce77a4253967b0d11ab","9278.945000000065","<p>Well Done !</p><p>Prepare for a new block.</p><p>DON'T EXIT THE FULL SCREEN MODE</p><p>Press the Spacebar to start.</p>","","","32","","","","","","","","","","","","","","","true","135.31116922879997","","","","","","","","","","",""
"html-keyboard-response","170","419928","0.0-14.0","6042c45fc5d9b623504e6a07","609a8bf73b2ac84e2732f618","609d7ce77a4253967b0d11ab","null","","","","null","","","","","","","","","","","","","","","","","134.7800955265024","true","141.56019105300481","","","","","","","",""
"instructions","171","470126","0.0-15.0","6042c45fc5d9b623504e6a07","609a8bf73b2ac84e2732f618","609d7ce77a4253967b0d11ab","50193.76500000013","","","","","","","[{""page_index"":0,""viewing_time"":43985.03500000003},{""page_index"":1,""viewing_time"":2256.4700000000303},{""page_index"":2,""viewing_time"":3951.2700000000186}]","","","","","","","","","","","","","","","","","","","","","","","",""
"psychophysics","172","473245","0.0-16.0-0.0","6042c45fc5d9b623504e6a07","609a8bf73b2ac84e2732f618","609d7ce77a4253967b0d11ab","null","","","","null","","","","key","25.055088888890005","640","304.5","","","","","","","","","","","","","","","","","","","",""
"psychophysics","173","473748","0.0-16.0-1.0","6042c45fc5d9b623504e6a07","609a8bf73b2ac84e2732f618","609d7ce77a4253967b0d11ab","null","","","","null","","","","key","25.039947368422105","640","304.5","","","","","","","","","","","","","142","-1","0","false","","","",""
"psychophysics","174","474600","0.0-16.0-2.0","6042c45fc5d9b623504e6a07","609a8bf73b2ac84e2732f618","609d7ce77a4253967b0d11ab","849.3949999999604","","","","90","","","","key","25.050848484847158","640","304.5","","","","","","","","","","","","","","","","","","","",""
"psychophysics","175","475742","0.0-16.0-0.1","6042c45fc5d9b623504e6a07","609a8bf73b2ac84e2732f618","609d7ce77a4253967b0d11ab","null","","","","null","","","","key","25.04672727272687","640","304.5","","","","","","","","","","","","","","","","","","","",""
"psychophysics","176","476245","0.0-16.0-1.1","6042c45fc5d9b623504e6a07","609a8bf73b2ac84e2732f618","609d7ce77a4253967b0d11ab","null","","","","null","","","","key","25.04315789473721","640","304.5","","","","","","","","","","","","","142","1","6","false","","","",""
"psychophysics","177","476863","0.0-16.0-2.1","6042c45fc5d9b623504e6a07","609a8bf73b2ac84e2732f618","609d7ce77a4253967b0d11ab","611.1650000000373","","","","77","","","","key","25.05424999999862","640","304.5","","","","","","","","","","","","","","","","","","","",""
"psychophysics","178","478105","0.0-16.0-0.2","6042c45fc5d9b623504e6a07","609a8bf73b2ac84e2732f618","609d7ce77a4253967b0d11ab","null","","","","null","","","","key","25.054877551020674","640","304.5","","","","","","","","","","","","","","","","","","","",""
"psychophysics","179","478607","0.0-16.0-1.2","6042c45fc5d9b623504e6a07","609a8bf73b2ac84e2732f618","609d7ce77a4253967b0d11ab","null","","","","null","","","","key","25.055368421053956","640","304.5","","","","","","","","","","","","","142","1","0","false","","","",""
"psychophysics","180","479940","0.0-16.0-2.2","6042c45fc5d9b623504e6a07","609a8bf73b2ac84e2732f618","609d7ce77a4253967b0d11ab","1330.019999999844","","","","77","","","","key","25.05155769230735","640","304.5","","","","","","","","","","","","","","","","","","","",""
"psychophysics","181","480699","0.0-16.0-0.3","6042c45fc5d9b623504e6a07","609a8bf73b2ac84e2732f618","609d7ce77a4253967b0d11ab","null","","","","null","","","","key","25.05079310344821","640","304.5","","","","","","","","","","","","","","","","","","","",""
"psychophysics","182","481201","0.0-16.0-1.3","6042c45fc5d9b623504e6a07","609a8bf73b2ac84e2732f618","609d7ce77a4253967b0d11ab","null","","","","null","","","","key","25.047947368422204","640","304.5","","","","","","","","","","","","","142","-1","4","false","","","",""
"psychophysics","183","481522","0.0-16.0-2.3","6042c45fc5d9b623504e6a07","609a8bf73b2ac84e2732f618","609d7ce77a4253967b0d11ab","319.7050000001327","","","","90","","","","key","25.053999999998876","640","304.5","","","","","","","","","","","","","","","","","","","",""
"psychophysics","184","482876","0.0-16.0-0.4","6042c45fc5d9b623504e6a07","609a8bf73b2ac84e2732f618","609d7ce77a4253967b0d11ab","null","","","","null","","","","key","25.052056603773963","640","304.5","","","","","","","","","","","","","","","","","","","",""
"psychophysics","185","483378","0.0-16.0-1.4","6042c45fc5d9b623504e6a07","609a8bf73b2ac84e2732f618","609d7ce77a4253967b0d11ab","null","","","","null","","","","key","25.050894736842327","640","304.5","","","","","","","","","","","","","142","1","4","false","","","",""
"psychophysics","186","483605","0.0-16.0-2.4","6042c45fc5d9b623504e6a07","609a8bf73b2ac84e2732f618","609d7ce77a4253967b0d11ab","225.43000000016764","","","","77","","","","key","25.052624999996624","640","304.5","","","","","","","","","","","","","","","","","","","",""
"psychophysics","187","484903","0.0-16.0-0.5","6042c45fc5d9b623504e6a07","609a8bf73b2ac84e2732f618","609d7ce77a4253967b0d11ab","null","","","","null","","","","key","25.04570588235305","640","304.5","","","","","","","","","","","","","","","","","","","",""
"psychophysics","188","485405","0.0-16.0-1.5","6042c45fc5d9b623504e6a07","609a8bf73b2ac84e2732f618","609d7ce77a4253967b0d11ab","null","","","","null","","","","key","25.053526315792144","640","304.5","","","","","","","","","","","","","142","-1","5","false","","","",""
"psychophysics","189","485972","0.0-16.0-2.5","6042c45fc5d9b623504e6a07","609a8bf73b2ac84e2732f618","609d7ce77a4253967b0d11ab","564.7349999999278","","","","90","","","","key","25.049909090909008","640","304.5","","","","","","","","","","","","","","","","","","","",""
"psychophysics","190","486722","0.0-16.0-0.6","6042c45fc5d9b623504e6a07","609a8bf73b2ac84e2732f618","609d7ce77a4253967b0d11ab","null","","","","null","","","","key","25.05031034482667","640","304.5","","","","","","","","","","","","","","","","","","","",""
"psychophysics","191","487225","0.0-16.0-1.6","6042c45fc5d9b623504e6a07","609a8bf73b2ac84e2732f618","609d7ce77a4253967b0d11ab","null","","","","null","","","","key","25.054631578947394","640","304.5","","","","","","","","","","","","","142","1","5","false","","","",""
"psychophysics","192","487726","0.0-16.0-2.6","6042c45fc5d9b623504e6a07","609a8bf73b2ac84e2732f618","609d7ce77a4253967b0d11ab","498.3299999998999","","","","77","","","","key","25.057052631580614","640","304.5","","","","","","","","","","","","","","","","","","","",""
"psychophysics","193","488365","0.0-16.0-0.7","6042c45fc5d9b623504e6a07","609a8bf73b2ac84e2732f618","609d7ce77a4253967b0d11ab","null","","","","null","","","","key","25.050749999999727","640","304.5","","","","","","","","","","","","","","","","","","","",""
"psychophysics","194","488867","0.0-16.0-1.7","6042c45fc5d9b623504e6a07","609a8bf73b2ac84e2732f618","609d7ce77a4253967b0d11ab","null","","","","null","","","","key","25.05036842105236","640","304.5","","","","","","","","","","","","","142","-1","3","false","","","",""
"psychophysics","195","489324","0.0-16.0-2.7","6042c45fc5d9b623504e6a07","609a8bf73b2ac84e2732f618","609d7ce77a4253967b0d11ab","454.38999999983935","","","","77","","","","key","25.058647058821997","640","304.5","","","","","","","","","","","","","","","","","","","",""
"psychophysics","196","490660","0.0-16.0-0.8","6042c45fc5d9b623504e6a07","609a8bf73b2ac84e2732f618","609d7ce77a4253967b0d11ab","null","","","","null","","","","key","25.054584905660036","640","304.5","","","","","","","","","","","","","","","","","","","",""
"psychophysics","197","491162","0.0-16.0-1.8","6042c45fc5d9b623504e6a07","609a8bf73b2ac84e2732f618","609d7ce77a4253967b0d11ab","null","","","","null","","","","key","25.052473684209154","640","304.5","","","","","","","","","","","","","142","-1","6","false","","","",""
"psychophysics","198","491551","0.0-16.0-2.8","6042c45fc5d9b623504e6a07","609a8bf73b2ac84e2732f618","609d7ce77a4253967b0d11ab","387.070000000007","","","","77","","","","key","25.040071428574656","640","304.5","","","","","","","","","","","","","","","","","","","",""
"psychophysics","199","492403","0.0-16.0-0.9","6042c45fc5d9b623504e6a07","609a8bf73b2ac84e2732f618","609d7ce77a4253967b0d11ab","null","","","","null","","","","key","25.05127272727391","640","304.5","","","","","","","","","","","","","","","","","","","",""
"psychophysics","200","492910","0.0-16.0-1.9","6042c45fc5d9b623504e6a07","609a8bf73b2ac84e2732f618","609d7ce77a4253967b0d11ab","null","","","","null","","","","key","25.054449999998905","640","304.5","","","","","","","","","","","","","142","1","2","false","","","",""
"psychophysics","201","493448","0.0-16.0-2.9","6042c45fc5d9b623504e6a07","609a8bf73b2ac84e2732f618","609d7ce77a4253967b0d11ab","536.5599999999977","","","","90","","","","key","25.051900000000025","640","304.5","","","","","","","","","","","","","","","","","","","",""
"psychophysics","202","494449","0.0-16.0-0.10","6042c45fc5d9b623504e6a07","609a8bf73b2ac84e2732f618","609d7ce77a4253967b0d11ab","null","","","","null","","","","key","25.054564102564772","640","304.5","","","","","","","","","","","","","","","","","","","",""
"psychophysics","203","494951","0.0-16.0-1.10","6042c45fc5d9b623504e6a07","609a8bf73b2ac84e2732f618","609d7ce77a4253967b0d11ab","null","","","","null","","","","key","25.0564736842092","640","304.5","","","","","","","","","","","","","142","-1","2","false","","","",""
"psychophysics","204","495632","0.0-16.0-2.10","6042c45fc5d9b623504e6a07","609a8bf73b2ac84e2732f618","609d7ce77a4253967b0d11ab","679.3099999999977","","","","90","","","","key","25.052307692307156","640","304.5","","","","","","","","","","","","","","","","","","","",""
"psychophysics","205","496301","0.0-16.0-0.11","6042c45fc5d9b623504e6a07","609a8bf73b2ac84e2732f618","609d7ce77a4253967b0d11ab","null","","","","null","","","","key","25.049269230769895","640","304.5","","","","","","","","","","","","","","","","","","","",""
"psychophysics","206","496803","0.0-16.0-1.11","6042c45fc5d9b623504e6a07","609a8bf73b2ac84e2732f618","609d7ce77a4253967b0d11ab","null","","","","null","","","","key","25.042263157895498","640","304.5","","","","","","","","","","","","","142","1","3","false","","","",""
"psychophysics","207","497219","0.0-16.0-2.11","6042c45fc5d9b623504e6a07","609a8bf73b2ac84e2732f618","609d7ce77a4253967b0d11ab","413.80500000010943","","","","90","","","","key","25.04975000000195","640","304.5","","","","","","","","","","","","","","","","","","","",""
"psychophysics","208","498492","0.0-16.0-0.12","6042c45fc5d9b623504e6a07","609a8bf73b2ac84e2732f618","609d7ce77a4253967b0d11ab","null","","","","null","","","","key","25.050693877550955","640","304.5","","","","","","","","","","","","","","","","","","","",""
"psychophysics","209","498997","0.0-16.0-1.12","6042c45fc5d9b623504e6a07","609a8bf73b2ac84e2732f618","609d7ce77a4253967b0d11ab","null","","","","null","","","","key","25.03784999999916","640","304.5","","","","","","","","","","","","","142","-1","3","false","","","",""
"psychophysics","210","499301","0.0-16.0-2.12","6042c45fc5d9b623504e6a07","609a8bf73b2ac84e2732f618","609d7ce77a4253967b0d11ab","301.6650000002119","","","","77","","","","key","25.04045454545518","640","304.5","","","","","","","","","","","","","","","","","","","",""
"psychophysics","211","500163","0.0-16.0-0.13","6042c45fc5d9b623504e6a07","609a8bf73b2ac84e2732f618","609d7ce77a4253967b0d11ab","null","","","","null","","","","key","25.049787878787328","640","304.5","","","","","","","","","","","","","","","","","","","",""
"psychophysics","212","500665","0.0-16.0-1.13","6042c45fc5d9b623504e6a07","609a8bf73b2ac84e2732f618","609d7ce77a4253967b0d11ab","null","","","","null","","","","key","25.05194736841919","640","304.5","","","","","","","","","","","","","142","-1","6","false","","","",""
"psychophysics","213","501140","0.0-16.0-2.13","6042c45fc5d9b623504e6a07","609a8bf73b2ac84e2732f618","609d7ce77a4253967b0d11ab","473.1050000000396","","","","77","","","","key","25.054555555556565","640","304.5","","","","","","","","","","","","","","","","","","","",""
"psychophysics","214","502631","0.0-16.0-0.14","6042c45fc5d9b623504e6a07","609a8bf73b2ac84e2732f618","609d7ce77a4253967b0d11ab","null","","","","null","","","","key","25.05103389830506","640","304.5","","","","","","","","","","","","","","","","","","","",""
"psychophysics","215","503134","0.0-16.0-1.14","6042c45fc5d9b623504e6a07","609a8bf73b2ac84e2732f618","609d7ce77a4253967b0d11ab","null","","","","null","","","","key","25.043947368422156","640","304.5","","","","","","","","","","","","","142","-1","2","false","","","",""
"psychophysics","216","503638","0.0-16.0-2.14","6042c45fc5d9b623504e6a07","609a8bf73b2ac84e2732f618","609d7ce77a4253967b0d11ab","502.53999999997905","","","","90","","","","key","25.047578947370454","640","304.5","","","","","","","","","","","","","","","","","","","",""
"psychophysics","217","504612","0.0-16.0-0.15","6042c45fc5d9b623504e6a07","609a8bf73b2ac84e2732f618","609d7ce77a4253967b0d11ab","null","","","","null","","","","key","25.048789473685535","640","304.5","","","","","","","","","","","","","","","","","","","",""
"psychophysics","218","505114","0.0-16.0-1.15","6042c45fc5d9b623504e6a07","609a8bf73b2ac84e2732f618","609d7ce77a4253967b0d11ab","null","","","","null","","","","key","25.05152631579212","640","304.5","","","","","","","","","","","","","142","1","6","false","","","",""
"psychophysics","219","505439","0.0-16.0-2.15","6042c45fc5d9b623504e6a07","609a8bf73b2ac84e2732f618","609d7ce77a4253967b0d11ab","321.99500000005355","","","","77","","","","key","25.05450000000322","640","304.5","","","","","","","","","","","","","","","","","","","",""
"psychophysics","220","505944","0.0-16.0-0.16","6042c45fc5d9b623504e6a07","609a8bf73b2ac84e2732f618","609d7ce77a4253967b0d11ab","null","","","","null","","","","key","25.05494736842076","640","304.5","","","","","","","","","","","","","","","","","","","",""
"psychophysics","221","506446","0.0-16.0-1.16","6042c45fc5d9b623504e6a07","609a8bf73b2ac84e2732f618","609d7ce77a4253967b0d11ab","null","","","","null","","","","key","25.054894736842375","640","304.5","","","","","","","","","","","","","142","-1","0","false","","","",""
"psychophysics","222","506904","0.0-16.0-2.16","6042c45fc5d9b623504e6a07","609a8bf73b2ac84e2732f618","609d7ce77a4253967b0d11ab","456.26500000001397","","","","90","","","","key","25.06105882352944","640","304.5","","","","","","","","","","","","","","","","","","","",""
"psychophysics","223","507906","0.0-16.0-0.17","6042c45fc5d9b623504e6a07","609a8bf73b2ac84e2732f618","609d7ce77a4253967b0d11ab","null","","","","null","","","","key","25.051358974358152","640","304.5","","","","","","","","","","","","","","","","","","","",""
"psychophysics","224","508408","0.0-16.0-1.17","6042c45fc5d9b623504e6a07","609a8bf73b2ac84e2732f618","609d7ce77a4253967b0d11ab","null","","","","null","","","","key","25.045894736843795","640","304.5","","","","","","","","","","","","","142","-1","4","false","","","",""
"psychophysics","225","508704","0.0-16.0-2.17","6042c45fc5d9b623504e6a07","609a8bf73b2ac84e2732f618","609d7ce77a4253967b0d11ab","293.7249999999767","","","","77","","","","key","25.04527272726938","640","304.5","","","","","","","","","","","","","","","","","","","",""
"psychophysics","226","509558","0.0-16.0-0.18","6042c45fc5d9b623504e6a07","609a8bf73b2ac84e2732f618","609d7ce77a4253967b0d11ab","null","","","","null","","","","key","25.049787878787328","640","304.5","","","","","","","","","","","","","","","","","","","",""
"psychophysics","227","510060","0.0-16.0-1.18","6042c45fc5d9b623504e6a07","609a8bf73b2ac84e2732f618","609d7ce77a4253967b0d11ab","null","","","","null","","","","key","25.049157894737284","640","304.5","","","","","","","","","","","","","142","1","3","false","","","",""
"psychophysics","228","510560","0.0-16.0-2.18","6042c45fc5d9b623504e6a07","609a8bf73b2ac84e2732f618","609d7ce77a4253967b0d11ab","498.24499999999534","","","","77","","","","key","25.033526315788837","640","304.5","","","","","","","","","","","","","","","","","","","",""
"psychophysics","229","512000","0.0-16.0-0.19","6042c45fc5d9b623504e6a07","609a8bf73b2ac84e2732f618","609d7ce77a4253967b0d11ab","null","","","","null","","","","key","25.043631578947767","640","304.5","","","","","","","","","","","","","","","","","","","",""
"psychophysics","230","512502","0.0-16.0-1.19","6042c45fc5d9b623504e6a07","609a8bf73b2ac84e2732f618","609d7ce77a4253967b0d11ab","null","","","","null","","","","key","25.036684210525557","640","304.5","","","","","","","","","","","","","142","1","4","false","","","",""
"psychophysics","231","512778","0.0-16.0-2.19","6042c45fc5d9b623504e6a07","609a8bf73b2ac84e2732f618","609d7ce77a4253967b0d11ab","274.06500000006054","","","","77","","","","key","25.058699999999952","640","304.5","","","","","","","","","","","","","","","","","","","",""
"psychophysics","232","513604","0.0-16.0-0.20","6042c45fc5d9b623504e6a07","609a8bf73b2ac84e2732f618","609d7ce77a4253967b0d11ab","null","","","","null","","","","key","25.046656249998705","640","304.5","","","","","","","","","","","","","","","","","","","",""
"psychophysics","233","514106","0.0-16.0-1.20","6042c45fc5d9b623504e6a07","609a8bf73b2ac84e2732f618","609d7ce77a4253967b0d11ab","null","","","","null","","","","key","25.04326315789398","640","304.5","","","","","","","","","","","","","142","1","0","false","","","",""
"psychophysics","234","514582","0.0-16.0-2.20","6042c45fc5d9b623504e6a07","609a8bf73b2ac84e2732f618","609d7ce77a4253967b0d11ab","473.6000000000349","","","","90","","","","key","25.035333333333256","640","304.5","","","","","","","","","","","","","","","","","","","",""
"psychophysics","235","515657","0.0-16.0-0.21","6042c45fc5d9b623504e6a07","609a8bf73b2ac84e2732f618","609d7ce77a4253967b0d11ab","null","","","","null","","","","key","25.050380952380475","640","304.5","","","","","","","","","","","","","","","","","","","",""
"psychophysics","236","516159","0.0-16.0-1.21","6042c45fc5d9b623504e6a07","609a8bf73b2ac84e2732f618","609d7ce77a4253967b0d11ab","null","","","","null","","","","key","25.051684210524208","640","304.5","","","","","","","","","","","","","142","1","5","false","","","",""
"psychophysics","237","516409","0.0-16.0-2.21","6042c45fc5d9b623504e6a07","609a8bf73b2ac84e2732f618","609d7ce77a4253967b0d11ab","246.6699999999837","","","","77","","","","key","25.043888888890958","640","304.5","","","","","","","","","","","","","","","","","","","",""
"psychophysics","238","517489","0.0-16.0-0.22","6042c45fc5d9b623504e6a07","609a8bf73b2ac84e2732f618","609d7ce77a4253967b0d11ab","null","","","","null","","","","key","25.05104761904832","640","304.5","","","","","","","","","","","","","","","","","","","",""
"psychophysics","239","517991","0.0-16.0-1.22","6042c45fc5d9b623504e6a07","609a8bf73b2ac84e2732f618","609d7ce77a4253967b0d11ab","null","","","","null","","","","key","25.049421052632265","640","304.5","","","","","","","","","","","","","142","1","2","false","","","",""
"psychophysics","240","518490","0.0-16.0-2.22","6042c45fc5d9b623504e6a07","609a8bf73b2ac84e2732f618","609d7ce77a4253967b0d11ab","496.3549999999814","","","","90","","","","key","25.05431578947403","640","304.5","","","","","","","","","","","","","","","","","","","",""
"psychophysics","241","519806","0.0-16.0-0.23","6042c45fc5d9b623504e6a07","609a8bf73b2ac84e2732f618","609d7ce77a4253967b0d11ab","null","","","","null","","","","key","25.05031372549003","640","304.5","","","","","","","","","","","","","","","","","","","",""
"psychophysics","242","520308","0.0-16.0-1.23","6042c45fc5d9b623504e6a07","609a8bf73b2ac84e2732f618","609d7ce77a4253967b0d11ab","null","","","","null","","","","key","25.0652105263128","640","304.5","","","","","","","","","","","","","142","-1","5","false","","","",""
"psychophysics","243","520624","0.0-16.0-2.23","6042c45fc5d9b623504e6a07","609a8bf73b2ac84e2732f618","609d7ce77a4253967b0d11ab","313.324999999837","","","","77","","","","key","25.036583333324717","640","304.5","","","","","","","","","","","","","","","","","","","",""
"html-keyboard-response","244","523743","0.0-17.0","6042c45fc5d9b623504e6a07","609a8bf73b2ac84e2732f618","609d7ce77a4253967b0d11ab","3118.199999999837","<p>Well Done !</p><p>Training Complete. Press the spacebar to start.</p><p>DON'T EXIT THE FULL SCREEN MODE</p>","","","32","","","","","","","","","","","","","","","","","","","","","","","","","","",""
"psychophysics","245","527081","0.0-18.0-0.0","6042c45fc5d9b623504e6a07","609a8bf73b2ac84e2732f618","609d7ce77a4253967b0d11ab","null","","","","null","","","","key","25.071396226414812","640","304.5","","","","","","","","","","","","","","","","","","","",""
"psychophysics","246","527584","0.0-18.0-1.0","6042c45fc5d9b623504e6a07","609a8bf73b2ac84e2732f618","609d7ce77a4253967b0d11ab","null","","","","null","","","","key","25.052105263163533","640","304.5","","","","","","","","","","","","","142","1","2","true","","","",""
"psychophysics","247","527985","0.0-18.0-2.0","6042c45fc5d9b623504e6a07","609a8bf73b2ac84e2732f618","609d7ce77a4253967b0d11ab","398.1349999998929","","","","90","","","","key","25.04933333333271","640","304.5","","","","","","","","","","","","","","","","","","","",""
"psychophysics","248","528622","0.0-18.0-0.1","6042c45fc5d9b623504e6a07","609a8bf73b2ac84e2732f618","609d7ce77a4253967b0d11ab","null","","","","null","","","","key","25.051083333334343","640","304.5","","","","","","","","","","","","","","","","","","","",""
"psychophysics","249","529124","0.0-18.0-1.1","6042c45fc5d9b623504e6a07","609a8bf73b2ac84e2732f618","609d7ce77a4253967b0d11ab","null","","","","null","","","","key","25.049736842108693","640","304.5","","","","","","","","","","","","","142","-1","3","true","","","",""
"psychophysics","250","529923","0.0-18.0-2.1","6042c45fc5d9b623504e6a07","609a8bf73b2ac84e2732f618","609d7ce77a4253967b0d11ab","796.6350000002421","","","","90","","","","key","25.049387096776627","640","304.5","","","","","","","","","","","","","","","","","","","",""
"psychophysics","251","530535","0.0-18.0-0.2","6042c45fc5d9b623504e6a07","609a8bf73b2ac84e2732f618","609d7ce77a4253967b0d11ab","null","","","","null","","","","key","25.045333333332866","640","304.5","","","","","","","","","","","","","","","","","","","",""
"psychophysics","252","531039","0.0-18.0-1.2","6042c45fc5d9b623504e6a07","609a8bf73b2ac84e2732f618","609d7ce77a4253967b0d11ab","null","","","","null","","","","key","25.037263157893904","640","304.5","","","","","","","","","","","","","142","1","3","true","","","",""
"psychophysics","253","531125","0.0-18.0-2.2","6042c45fc5d9b623504e6a07","609a8bf73b2ac84e2732f618","609d7ce77a4253967b0d11ab","83.44499999994878","","","","77","","","","key","24.99900000001071","640","304.5","","","","","","","","","","","","","","","","","","","",""
"psychophysics","254","532345","0.0-18.0-0.3","6042c45fc5d9b623504e6a07","609a8bf73b2ac84e2732f618","609d7ce77a4253967b0d11ab","null","","","","null","","","","key","25.050520833334303","640","304.5","","","","","","","","","","","","","","","","","","","",""
"psychophysics","255","532847","0.0-18.0-1.3","6042c45fc5d9b623504e6a07","609a8bf73b2ac84e2732f618","609d7ce77a4253967b0d11ab","null","","","","null","","","","key","25.05394736842228","640","304.5","","","","","","","","","","","","","142","-1","2","true","","","",""
"psychophysics","256","533285","0.0-18.0-2.3","6042c45fc5d9b623504e6a07","609a8bf73b2ac84e2732f618","609d7ce77a4253967b0d11ab","436.6699999998091","","","","90","","","","key","25.042562499998894","640","304.5","","","","","","","","","","","","","","","","","","","",""
"psychophysics","257","533889","0.0-18.0-0.4","6042c45fc5d9b623504e6a07","609a8bf73b2ac84e2732f618","609d7ce77a4253967b0d11ab","null","","","","null","","","","key","25.05234782608813","640","304.5","","","","","","","","","","","","","","","","","","","",""
"psychophysics","258","534393","0.0-18.0-1.4","6042c45fc5d9b623504e6a07","609a8bf73b2ac84e2732f618","609d7ce77a4253967b0d11ab","null","","","","null","","","","key","25.047399999998742","640","304.5","","","","","","","","","","","","","142","-1","5","true","","","",""
"psychophysics","259","534626","0.0-18.0-2.4","6042c45fc5d9b623504e6a07","609a8bf73b2ac84e2732f618","609d7ce77a4253967b0d11ab","231.05000000016298","","","","77","","","","key","25.06287500000326","640","304.5","","","","","","","","","","","","","","","","","","","",""
"psychophysics","260","535347","0.0-18.0-0.5","6042c45fc5d9b623504e6a07","609a8bf73b2ac84e2732f618","609d7ce77a4253967b0d11ab","null","","","","null","","","","key","25.052178571428936","640","304.5","","","","","","","","","","","","","","","","","","","",""
"psychophysics","261","535851","0.0-18.0-1.5","6042c45fc5d9b623504e6a07","609a8bf73b2ac84e2732f618","609d7ce77a4253967b0d11ab","null","","","","null","","","","key","25.041684210527148","640","304.5","","","","","","","","","","","","","142","1","6","true","","","",""
"psychophysics","262","536199","0.0-18.0-2.5","6042c45fc5d9b623504e6a07","609a8bf73b2ac84e2732f618","609d7ce77a4253967b0d11ab","345.9649999999674","","","","77","","","","key","25.052384615383254","640","304.5","","","","","","","","","","","","","","","","","","","",""
"psychophysics","263","537474","0.0-18.0-0.6","6042c45fc5d9b623504e6a07","609a8bf73b2ac84e2732f618","609d7ce77a4253967b0d11ab","null","","","","null","","","","key","25.05057999999961","640","304.5","","","","","","","","","","","","","","","","","","","",""
"psychophysics","264","537977","0.0-18.0-1.6","6042c45fc5d9b623504e6a07","609a8bf73b2ac84e2732f618","609d7ce77a4253967b0d11ab","null","","","","null","","","","key","25.049000000005197","640","304.5","","","","","","","","","","","","","142","1","5","true","","","",""
"psychophysics","265","538177","0.0-18.0-2.6","6042c45fc5d9b623504e6a07","609a8bf73b2ac84e2732f618","609d7ce77a4253967b0d11ab","197.4550000000745","","","","77","","","","key","25.052714285723464","640","304.5","","","","","","","","","","","","","","","","","","","",""
"psychophysics","266","539204","0.0-18.0-0.7","6042c45fc5d9b623504e6a07","609a8bf73b2ac84e2732f618","609d7ce77a4253967b0d11ab","null","","","","null","","","","key","25.05119999999879","640","304.5","","","","","","","","","","","","","","","","","","","",""
"psychophysics","267","539708","0.0-18.0-1.7","6042c45fc5d9b623504e6a07","609a8bf73b2ac84e2732f618","609d7ce77a4253967b0d11ab","null","","","","null","","","","key","25.050473684206064","640","304.5","","","","","","","","","","","","","142","-1","0","true","","","",""
"psychophysics","268","540165","0.0-18.0-2.7","6042c45fc5d9b623504e6a07","609a8bf73b2ac84e2732f618","609d7ce77a4253967b0d11ab","454.05000000004657","","","","90","","","","key","25.051117647062604","640","304.5","","","","","","","","","","","","","","","","","","","",""
"psychophysics","269","541318","0.0-18.0-0.8","6042c45fc5d9b623504e6a07","609a8bf73b2ac84e2732f618","609d7ce77a4253967b0d11ab","null","","","","null","","","","key","25.050444444444857","640","304.5","","","","","","","","","","","","","","","","","","","",""
"psychophysics","270","541820","0.0-18.0-1.8","6042c45fc5d9b623504e6a07","609a8bf73b2ac84e2732f618","609d7ce77a4253967b0d11ab","null","","","","null","","","","key","25.06968421052749","640","304.5","","","","","","","","","","","","","142","1","4","true","","","",""
"psychophysics","271","542043","0.0-18.0-2.8","6042c45fc5d9b623504e6a07","609a8bf73b2ac84e2732f618","609d7ce77a4253967b0d11ab","221.47999999998137","","","","77","","","","key","25.038375000003725","640","304.5","","","","","","","","","","","","","","","","","","","",""
"psychophysics","272","543233","0.0-18.0-0.9","6042c45fc5d9b623504e6a07","609a8bf73b2ac84e2732f618","609d7ce77a4253967b0d11ab","null","","","","null","","","","key","25.052826086957634","640","304.5","","","","","","","","","","","","","","","","","","","",""
"psychophysics","273","543737","0.0-18.0-1.9","6042c45fc5d9b623504e6a07","609a8bf73b2ac84e2732f618","609d7ce77a4253967b0d11ab","null","","","","null","","","","key","25.050500000000465","640","304.5","","","","","","","","","","","","","142","-1","6","true","","","",""
"psychophysics","274","544391","0.0-18.0-2.9","6042c45fc5d9b623504e6a07","609a8bf73b2ac84e2732f618","609d7ce77a4253967b0d11ab","651.0149999998976","","","","90","","","","key","25.05283999999985","640","304.5","","","","","","","","","","","","","","","","","","","",""
"psychophysics","275","545060","0.0-18.0-0.10","6042c45fc5d9b623504e6a07","609a8bf73b2ac84e2732f618","609d7ce77a4253967b0d11ab","null","","","","null","","","","key","25.056359999999405","640","304.5","","","","","","","","","","","","","","","","","","","",""
"psychophysics","276","545562","0.0-18.0-1.10","6042c45fc5d9b623504e6a07","609a8bf73b2ac84e2732f618","609d7ce77a4253967b0d11ab","null","","","","null","","","","key","25.049947368422227","640","304.5","","","","","","","","","","","","","142","1","0","true","","","",""
"psychophysics","277","546127","0.0-18.0-2.10","6042c45fc5d9b623504e6a07","609a8bf73b2ac84e2732f618","609d7ce77a4253967b0d11ab","559.2300000000978","","","","90","","","","key","25.05072727272901","640","304.5","","","","","","","","","","","","","","","","","","","",""
"psychophysics","278","547589","0.0-18.0-0.11","6042c45fc5d9b623504e6a07","609a8bf73b2ac84e2732f618","609d7ce77a4253967b0d11ab","null","","","","null","","","","key","25.05263157894737","640","304.5","","","","","","","","","","","","","","","","","","","",""
"psychophysics","279","548091","0.0-18.0-1.11","6042c45fc5d9b623504e6a07","609a8bf73b2ac84e2732f618","609d7ce77a4253967b0d11ab","null","","","","null","","","","key","25.056684210522736","640","304.5","","","","","","","","","","","","","142","-1","4","true","","","",""
"psychophysics","280","548418","0.0-18.0-2.11","6042c45fc5d9b623504e6a07","609a8bf73b2ac84e2732f618","609d7ce77a4253967b0d11ab","320.4399999999441","","","","90","","","","key","25.056749999998527","640","304.5","","","","","","","","","","","","","","","","","","","",""
"psychophysics","281","549912","0.0-18.0-0.12","6042c45fc5d9b623504e6a07","609a8bf73b2ac84e2732f618","609d7ce77a4253967b0d11ab","null","","","","null","","","","key","25.049898305083072","640","304.5","","","","","","","","","","","","","","","","","","","",""
"psychophysics","282","550414","0.0-18.0-1.12","6042c45fc5d9b623504e6a07","609a8bf73b2ac84e2732f618","609d7ce77a4253967b0d11ab","null","","","","null","","","","key","25.043736842105556","640","304.5","","","","","","","","","","","","","142","-1","0","true","","","",""
"psychophysics","283","550871","0.0-18.0-2.12","6042c45fc5d9b623504e6a07","609a8bf73b2ac84e2732f618","609d7ce77a4253967b0d11ab","454.8049999998184","","","","90","","","","key","25.042764705879723","640","304.5","","","","","","","","","","","","","","","","","","","",""
"psychophysics","284","552284","0.0-18.0-0.13","6042c45fc5d9b623504e6a07","609a8bf73b2ac84e2732f618","609d7ce77a4253967b0d11ab","null","","","","null","","","","key","25.05123214285829","640","304.5","","","","","","","","","","","","","","","","","","","",""
"psychophysics","285","552787","0.0-18.0-1.13","6042c45fc5d9b623504e6a07","609a8bf73b2ac84e2732f618","609d7ce77a4253967b0d11ab","null","","","","null","","","","key","25.056368421052436","640","304.5","","","","","","","","","","","","","142","-1","3","true","","","",""
"psychophysics","286","553077","0.0-18.0-2.13","6042c45fc5d9b623504e6a07","609a8bf73b2ac84e2732f618","609d7ce77a4253967b0d11ab","287.66500000015367","","","","90","","","","key","25.04429999999702","640","304.5","","","","","","","","","","","","","","","","","","","",""
"psychophysics","287","554542","0.0-18.0-0.14","6042c45fc5d9b623504e6a07","609a8bf73b2ac84e2732f618","609d7ce77a4253967b0d11ab","null","","","","null","","","","key","25.04903448275933","640","304.5","","","","","","","","","","","","","","","","","","","",""
"psychophysics","288","555044","0.0-18.0-1.14","6042c45fc5d9b623504e6a07","609a8bf73b2ac84e2732f618","609d7ce77a4253967b0d11ab","null","","","","null","","","","key","25.047842105262372","640","304.5","","","","","","","","","","","","","142","1","6","true","","","",""
"psychophysics","289","555494","0.0-18.0-2.14","6042c45fc5d9b623504e6a07","609a8bf73b2ac84e2732f618","609d7ce77a4253967b0d11ab","445.67499999993015","","","","90","","","","key","25.039411764708348","640","304.5","","","","","","","","","","","","","","","","","","","",""
"psychophysics","290","556039","0.0-18.0-0.15","6042c45fc5d9b623504e6a07","609a8bf73b2ac84e2732f618","609d7ce77a4253967b0d11ab","null","","","","null","","","","key","25.049904761902457","640","304.5","","","","","","","","","","","","","","","","","","","",""
"psychophysics","291","556541","0.0-18.0-1.15","6042c45fc5d9b623504e6a07","609a8bf73b2ac84e2732f618","609d7ce77a4253967b0d11ab","null","","","","null","","","","key","25.04805263157591","640","304.5","","","","","","","","","","","","","142","-1","6","true","","","",""
"psychophysics","292","556991","0.0-18.0-2.15","6042c45fc5d9b623504e6a07","609a8bf73b2ac84e2732f618","609d7ce77a4253967b0d11ab","447.5200000000186","","","","77","","","","key","25.04605882353259","640","304.5","","","","","","","","","","","","","","","","","","","",""
"psychophysics","293","558196","0.0-18.0-0.16","6042c45fc5d9b623504e6a07","609a8bf73b2ac84e2732f618","609d7ce77a4253967b0d11ab","null","","","","null","","","","key","25.05093617021215","640","304.5","","","","","","","","","","","","","","","","","","","",""
"psychophysics","294","558698","0.0-18.0-1.16","6042c45fc5d9b623504e6a07","609a8bf73b2ac84e2732f618","609d7ce77a4253967b0d11ab","null","","","","null","","","","key","25.05215789473885","640","304.5","","","","","","","","","","","","","142","1","0","true","","","",""
"psychophysics","295","559161","0.0-18.0-2.16","6042c45fc5d9b623504e6a07","609a8bf73b2ac84e2732f618","609d7ce77a4253967b0d11ab","460.7249999999767","","","","90","","","","key","25.04864705881953","640","304.5","","","","","","","","","","","","","","","","","","","",""
"psychophysics","296","560163","0.0-18.0-0.17","6042c45fc5d9b623504e6a07","609a8bf73b2ac84e2732f618","609d7ce77a4253967b0d11ab","null","","","","null","","","","key","25.051923076923675","640","304.5","","","","","","","","","","","","","","","","","","","",""
"psychophysics","297","560665","0.0-18.0-1.17","6042c45fc5d9b623504e6a07","609a8bf73b2ac84e2732f618","609d7ce77a4253967b0d11ab","null","","","","null","","","","key","25.05026315789253","640","304.5","","","","","","","","","","","","","142","-1","2","true","","","",""
"psychophysics","298","561086","0.0-18.0-2.17","6042c45fc5d9b623504e6a07","609a8bf73b2ac84e2732f618","609d7ce77a4253967b0d11ab","417.675000000163","","","","90","","","","key","25.04681249999703","640","304.5","","","","","","","","","","","","","","","","","","","",""
"psychophysics","299","561610","0.0-18.0-0.18","6042c45fc5d9b623504e6a07","609a8bf73b2ac84e2732f618","609d7ce77a4253967b0d11ab","null","","","","null","","","","key","25.060950000002048","640","304.5","","","","","","","","","","","","","","","","","","","",""
"psychophysics","300","562112","0.0-18.0-1.18","6042c45fc5d9b623504e6a07","609a8bf73b2ac84e2732f618","609d7ce77a4253967b0d11ab","null","","","","null","","","","key","25.054368421055475","640","304.5","","","","","","","","","","","","","142","-1","5","true","","","",""
"psychophysics","301","562570","0.0-18.0-2.18","6042c45fc5d9b623504e6a07","609a8bf73b2ac84e2732f618","609d7ce77a4253967b0d11ab","455.55999999982305","","","","77","","","","key","25.04811764706392","640","304.5","","","","","","","","","","","","","","","","","","","",""
"psychophysics","302","563078","0.0-18.0-0.19","6042c45fc5d9b623504e6a07","609a8bf73b2ac84e2732f618","609d7ce77a4253967b0d11ab","null","","","","null","","","","key","25.05265000000363","640","304.5","","","","","","","","","","","","","","","","","","","",""
"psychophysics","303","563580","0.0-18.0-1.19","6042c45fc5d9b623504e6a07","609a8bf73b2ac84e2732f618","609d7ce77a4253967b0d11ab","null","","","","null","","","","key","25.061684210527392","640","304.5","","","","","","","","","","","","","142","1","5","true","","","",""
"psychophysics","304","563836","0.0-18.0-2.19","6042c45fc5d9b623504e6a07","609a8bf73b2ac84e2732f618","609d7ce77a4253967b0d11ab","252.80500000005122","","","","77","","","","key","25.039999999998447","640","304.5","","","","","","","","","","","","","","","","","","","",""
"psychophysics","305","564951","0.0-18.0-0.20","6042c45fc5d9b623504e6a07","609a8bf73b2ac84e2732f618","609d7ce77a4253967b0d11ab","null","","","","null","","","","key","25.048627906974385","640","304.5","","","","","","","","","","","","","","","","","","","",""
"psychophysics","306","565457","0.0-18.0-1.20","6042c45fc5d9b623504e6a07","609a8bf73b2ac84e2732f618","609d7ce77a4253967b0d11ab","null","","","","null","","","","key","25.051449999999022","640","304.5","","","","","","","","","","","","","142","1","2","true","","","",""
"psychophysics","307","565774","0.0-18.0-2.20","6042c45fc5d9b623504e6a07","609a8bf73b2ac84e2732f618","609d7ce77a4253967b0d11ab","315.17499999993015","","","","90","","","","key","25.05218181818385","640","304.5","","","","","","","","","","","","","","","","","","","",""
"psychophysics","308","566606","0.0-18.0-0.21","6042c45fc5d9b623504e6a07","609a8bf73b2ac84e2732f618","609d7ce77a4253967b0d11ab","null","","","","null","","","","key","25.05225000000064","640","304.5","","","","","","","","","","","","","","","","","","","",""
"psychophysics","309","567110","0.0-18.0-1.21","6042c45fc5d9b623504e6a07","609a8bf73b2ac84e2732f618","609d7ce77a4253967b0d11ab","null","","","","null","","","","key","25.055450000002747","640","304.5","","","","","","","","","","","","","142","1","3","true","","","",""
"psychophysics","310","567553","0.0-18.0-2.21","6042c45fc5d9b623504e6a07","609a8bf73b2ac84e2732f618","609d7ce77a4253967b0d11ab","440.0850000001956","","","","90","","","","key","25.049749999998312","640","304.5","","","","","","","","","","","","","","","","","","","",""
"psychophysics","311","568877","0.0-18.0-0.22","6042c45fc5d9b623504e6a07","609a8bf73b2ac84e2732f618","609d7ce77a4253967b0d11ab","null","","","","null","","","","key","25.04953846153848","640","304.5","","","","","","","","","","","","","","","","","","","",""
"psychophysics","312","569379","0.0-18.0-1.22","6042c45fc5d9b623504e6a07","609a8bf73b2ac84e2732f618","609d7ce77a4253967b0d11ab","null","","","","null","","","","key","25.040473684209008","640","304.5","","","","","","","","","","","","","142","-1","4","true","","","",""
"psychophysics","313","569547","0.0-18.0-2.22","6042c45fc5d9b623504e6a07","609a8bf73b2ac84e2732f618","609d7ce77a4253967b0d11ab","165.9299999999348","","","","77","","","","key","25.046833333345905","640","304.5","","","","","","","","","","","","","","","","","","","",""
"psychophysics","314","570577","0.0-18.0-0.23","6042c45fc5d9b623504e6a07","609a8bf73b2ac84e2732f618","609d7ce77a4253967b0d11ab","null","","","","null","","","","key","25.05320000000065","640","304.5","","","","","","","","","","","","","","","","","","","",""
"psychophysics","315","571079","0.0-18.0-1.23","6042c45fc5d9b623504e6a07","609a8bf73b2ac84e2732f618","609d7ce77a4253967b0d11ab","null","","","","null","","","","key","25.059368421054003","640","304.5","","","","","","","","","","","","","142","1","4","true","","","",""
"psychophysics","316","571327","0.0-18.0-2.23","6042c45fc5d9b623504e6a07","609a8bf73b2ac84e2732f618","609d7ce77a4253967b0d11ab","244.62999999988824","","","","77","","","","key","25.061888888879267","640","304.5","","","","","","","","","","","","","","","","","","","",""
"psychophysics","317","572785","0.0-18.0-0.24","6042c45fc5d9b623504e6a07","609a8bf73b2ac84e2732f618","609d7ce77a4253967b0d11ab","null","","","","null","","","","key","25.049473684209627","640","304.5","","","","","","","","","","","","","","","","","","","",""
"psychophysics","318","573287","0.0-18.0-1.24","6042c45fc5d9b623504e6a07","609a8bf73b2ac84e2732f618","609d7ce77a4253967b0d11ab","null","","","","null","","","","key","25.05457894736288","640","304.5","","","","","","","","","","","","","142","1","6","true","","","",""
"psychophysics","319","573549","0.0-18.0-2.24","6042c45fc5d9b623504e6a07","609a8bf73b2ac84e2732f618","609d7ce77a4253967b0d11ab","260.20999999996275","","","","77","","","","key","25.054899999999908","640","304.5","","","","","","","","","","","","","","","","","","","",""
"psychophysics","320","574741","0.0-18.0-0.25","6042c45fc5d9b623504e6a07","609a8bf73b2ac84e2732f618","609d7ce77a4253967b0d11ab","null","","","","null","","","","key","25.052782608697232","640","304.5","","","","","","","","","","","","","","","","","","","",""
"psychophysics","321","575243","0.0-18.0-1.25","6042c45fc5d9b623504e6a07","609a8bf73b2ac84e2732f618","609d7ce77a4253967b0d11ab","null","","","","null","","","","key","25.045105263155786","640","304.5","","","","","","","","","","","","","142","1","5","true","","","",""
"psychophysics","322","575695","0.0-18.0-2.25","6042c45fc5d9b623504e6a07","609a8bf73b2ac84e2732f618","609d7ce77a4253967b0d11ab","450.0199999999022","","","","77","","","","key","25.052352941177293","640","304.5","","","","","","","","","","","","","","","","","","","",""
"psychophysics","323","576855","0.0-18.0-0.26","6042c45fc5d9b623504e6a07","609a8bf73b2ac84e2732f618","609d7ce77a4253967b0d11ab","null","","","","null","","","","key","25.054282608697616","640","304.5","","","","","","","","","","","","","","","","","","","",""
"psychophysics","324","577359","0.0-18.0-1.26","6042c45fc5d9b623504e6a07","609a8bf73b2ac84e2732f618","609d7ce77a4253967b0d11ab","null","","","","null","","","","key","25.04936842105082","640","304.5","","","","","","","","","","","","","142","1","0","true","","","",""
"psychophysics","325","577813","0.0-18.0-2.26","6042c45fc5d9b623504e6a07","609a8bf73b2ac84e2732f618","609d7ce77a4253967b0d11ab","452.25","","","","90","","","","key","25.039529411759062","640","304.5","","","","","","","","","","","","","","","","","","","",""
"psychophysics","326","578364","0.0-18.0-0.27","6042c45fc5d9b623504e6a07","609a8bf73b2ac84e2732f618","609d7ce77a4253967b0d11ab","null","","","","null","","","","key","25.05180952380899","640","304.5","","","","","","","","","","","","","","","","","","","",""
"psychophysics","327","578866","0.0-18.0-1.27","6042c45fc5d9b623504e6a07","609a8bf73b2ac84e2732f618","609d7ce77a4253967b0d11ab","null","","","","null","","","","key","25.035157894740177","640","304.5","","","","","","","","","","","","","142","-1","3","true","","","",""
"psychophysics","328","579279","0.0-18.0-2.27","6042c45fc5d9b623504e6a07","609a8bf73b2ac84e2732f618","609d7ce77a4253967b0d11ab","411.15500000002794","","","","77","","","","key","25.057866666667785","640","304.5","","","","","","","","","","","","","","","","","","","",""
"psychophysics","329","580312","0.0-18.0-0.28","6042c45fc5d9b623504e6a07","609a8bf73b2ac84e2732f618","609d7ce77a4253967b0d11ab","null","","","","null","","","","key","25.050414634147295","640","304.5","","","","","","","","","","","","","","","","","","","",""
