"trial_type","trial_index","time_elapsed","internal_node_id","PROLIFIC_PID","STUDY_ID","SESSION_ID","rt","stimulus","button_pressed","success","key_press","responses","isData","view_history","response_type","avg_frame_time","center_x","center_y","isSC","stim_side","trial_luminance","step_size","nReversal","correct","prev_ans","isThreshold","SC_threshold","final_threshold","isLuminance","FF_luminance","luminance","stimSide","ISInt","isFF","question_order","isSPQ","isCAPS","isAQ"
"pavlovia","0","6","0.0-0.0","60940e7600124bd7a1cb35f8","609a8bf73b2ac84e2732f618","609d729326f88f5240f980fd","","","","","","","","","","","","","","","","","","","","","","","","","","","","","","","",""
"html-button-response","1","47742","0.0-1.0","60940e7600124bd7a1cb35f8","609a8bf73b2ac84e2732f618","609d729326f88f5240f980fd","47737.69999999786","<div style='background-color: white; width:60%; margin: auto; padding: 50px; text-align: justify; text-justify: inter-word; margin-bottom: 20px;'><h1 style='text-align: center;'>Consent Form</h1><p>Please read this consent form carefully before deciding whether you would like to participate in this study. You have to be 18 years old or older to participate to this study.</p><p style='text-decoration: underline;'>Participation is voluntary:</p><p>It is your choice whether or not to participate in this research. If you choose to participate, you may change your mind and leave the study at any time. Refusal to participate or stopping your participation will involve no penalty or loss of benefits to which you are otherwise entitled.</p><p style='text-decoration: underline;'>Purpose of the Study:</p><p>To understand the mechanisms underlying human perception.</p><p style='text-decoration: underline;'>What you will do in this study:</p><p>You will be presented with a series of visual images and then you will press buttons on the keyboard of your computer to respond to simple questions about the images (e.g. Were one or two images presented?). In addition, you will be asked to complete a questionnaire concerning your beliefs and everyday mental and perceptual experiences.'</p><p style='text-decoration: underline;'> Time Required:</p><p>The study will take 40 minutes to complete. </p><p style='text-decoration: underline;'>Risks:</p><p>There are no anticipated risks associated with participating in this study that are beyond those experienced in everyday life. </p><p style='text-decoration: underline;'>Benefits:</p><p>There are no benefits to you in participating in the study. However, this study may lead to a better understanding of how different kinds of visual information are used.</p><p style='text-decoration: underline;'>Compensation:</p><p>You will be paid US$6.6/hour. </p><p style='text-decoration: underline;'>Privacy and Confidentiality:</p><p>Your participation in this study will be anonymous. No personal information about your name or identity will be asked or recorded. This anonymous data will be stored for several years and may be used for a variety of research purposes. The overall results of the study may be published, or the data files may be shared with other researchers, but your identity will not be revealed in any way. The online services we are using for this study may temporarily store your data, but this data will be downloaded and then promptly deleted from those services.Your data will not be permanently associated with your name, IP address, or any other identifiable information (e.g., your information will only be connected to your payment, not to any of your responses), though they may be temporarily stored together before we download and separate them. Even so, no guarantee of internet survey security can be given because, although unlikely, transmissions can be intercepted and IP addresses can be identified. The anonymous data may be shared publicly (for example, in conjunction with a resulting academic publication).</p><p style='text-decoration: underline;'>Participation and Withdrawal:</p><p>Your participation in this study is completely voluntary. You may stop responding to the stimuli or stop answering questions if you so choose and without penalty by exiting the full screen mode, closing this tab of your browser or redirecting it to a different website.</p><p style='text-decoration: underline;'>Contact Info of the Researcher: </p><p>If you have questions about this study, or if you would like to talk to the research team, please contact David Melcher (david.melcher@nyu.edu, md5050@nyu.edu) at the Perception and Active Cognition Laboratory, New York University Abu Dhabi, Computational Research Building, Saadiyat Island, Abu Dhabi, UAE.This research has been reviewed by the New York University Abu Dhabi Institutional Review Board (NYUAD IRB). To contact about your rights in this research, for questions, suggestions, or complaints that are not addressed by the researchers, please email IRBnyuad@nyu.edu, or call the NYUAD IRB at +971 2 628 4313. </p></div>","0","","","","","","","","","","","","","","","","","","","","","","","","","","","","",""
"fullscreen","2","52472","0.0-2.0","60940e7600124bd7a1cb35f8","609a8bf73b2ac84e2732f618","609d729326f88f5240f980fd","","","","true","","","","","","","","","","","","","","","","","","","","","","","","","","","",""
"html-keyboard-response","3","72676","0.0-3.0","60940e7600124bd7a1cb35f8","609a8bf73b2ac84e2732f618","609d729326f88f5240f980fd","20201.98499999242","<p>Welcome !</p><p>READ CAREFULLY THE FOLLOWING INDICATIONS:</p><p>From this moment you have ~40 minutes to complete the experiment.</p><p>During the experiment you will be prompted to take several breaks. Each break should not last longer than 2-3 minutes.</p><p>Make sure that your computer is plugged in and it's not running on battery power, even if the battery is already fully charged.</p><p>Turn off your phone and music, make sure that you are in a quiet room and that you will not be distracted for the next hour.</p><p>Failure to comply with the instructions and indications provided during the experiment will most likely result in the rejection of your data.<p>Press the spacebar to start.</p>","","","32","","","","","","","","","","","","","","","","","","","","","","","","","","",""
"survey-html-form","4","79438","0.0-4.0","60940e7600124bd7a1cb35f8","609a8bf73b2ac84e2732f618","609d729326f88f5240f980fd","6758.660000006785","","","","","{""age"":""28"",""sex"":""F""}","true","","","","","","","","","","","","","","","","","","","","","","","","",""
"instructions","5","607420","0.0-5.0","60940e7600124bd7a1cb35f8","609a8bf73b2ac84e2732f618","609d729326f88f5240f980fd","528036.0799999908","","","","","","","[{""page_index"":0,""viewing_time"":506984.5549999882},{""page_index"":1,""viewing_time"":15858.585000009043},{""page_index"":2,""viewing_time"":5192.530000000261}]","","","","","","","","","","","","","","","","","","","","","","","",""
"psychophysics","6","610844","0.0-6.0-0.0","60940e7600124bd7a1cb35f8","609a8bf73b2ac84e2732f618","609d729326f88f5240f980fd","2417.230000006384","","","","37","","","","key","16.690229268292555","676.5","381","true","1","180","30","0","1","","","","","","","","","","","","","",""
"psychophysics","7","612399","0.0-6.0-0.1","60940e7600124bd7a1cb35f8","609a8bf73b2ac84e2732f618","609d729326f88f5240f980fd","553.8850000011735","","","","37","","","","key","16.66599999999997","676.5","381","true","-1","210","30","0","-1","1","","","","","","","","","","","","",""
"psychophysics","8","614717","0.0-6.0-0.2","60940e7600124bd7a1cb35f8","609a8bf73b2ac84e2732f618","609d729326f88f5240f980fd","1315.6600000074832","","","","39","","","","key","16.66600000000039","676.5","381","true","1","210","24","1","-1","-1","","","","","","","","","","","","",""
"psychophysics","9","616171","0.0-6.0-0.3","60940e7600124bd7a1cb35f8","609a8bf73b2ac84e2732f618","609d729326f88f5240f980fd","452.33500000904314","","","","37","","","","key","16.666000000000448","676.5","381","true","-1","186","24","1","-1","-1","","","","","","","","","","","","",""
"psychophysics","10","617613","0.0-6.0-0.4","60940e7600124bd7a1cb35f8","609a8bf73b2ac84e2732f618","609d729326f88f5240f980fd","440.535000001546","","","","39","","","","key","16.74367058823597","676.5","381","true","1","186","24","1","-1","-1","","","","","","","","","","","","",""
"psychophysics","11","619066","0.0-6.0-0.5","60940e7600124bd7a1cb35f8","609a8bf73b2ac84e2732f618","609d729326f88f5240f980fd","451.50499998999294","","","","39","","","","key","16.66599999999947","676.5","381","true","1","162","24","1","-1","-1","","","","","","","","","","","","",""
"psychophysics","12","620498","0.0-6.0-0.6","60940e7600124bd7a1cb35f8","609a8bf73b2ac84e2732f618","609d729326f88f5240f980fd","430.54999999003485","","","","39","","","","key","16.665999999999837","676.5","381","true","1","162","24","1","-1","-1","","","","","","","","","","","","",""
"psychophysics","13","621998","0.0-6.0-0.7","60940e7600124bd7a1cb35f8","609a8bf73b2ac84e2732f618","609d729326f88f5240f980fd","498.6449999996694","","","","37","","","","key","16.665999999999727","676.5","381","true","-1","138","24","1","-1","-1","","","","","","","","","","","","",""
"psychophysics","14","623496","0.0-6.0-0.8","60940e7600124bd7a1cb35f8","609a8bf73b2ac84e2732f618","609d729326f88f5240f980fd","496.95499999506865","","","","37","","","","key","16.666000000001034","676.5","381","true","-1","138","24","1","-1","-1","","","","","","","","","","","","",""
"psychophysics","15","625537","0.0-6.0-0.9","60940e7600124bd7a1cb35f8","609a8bf73b2ac84e2732f618","609d729326f88f5240f980fd","1039.3350000085775","","","","37","","","","key","16.666000000000086","676.5","381","true","-1","129","24","1","-1","-1","","","","","","","","","","","","",""
"psychophysics","16","627384","0.0-6.0-0.10","60940e7600124bd7a1cb35f8","609a8bf73b2ac84e2732f618","609d729326f88f5240f980fd","844.9699999910081","","","","37","","","","key","16.666000000000086","676.5","381","true","1","129","19.2","2","1","-1","","","","","","","","","","","","",""
"psychophysics","17","628898","0.0-6.0-0.11","60940e7600124bd7a1cb35f8","609a8bf73b2ac84e2732f618","609d729326f88f5240f980fd","507.5100000103703","","","","37","","","","key","16.669000000000878","676.5","381","true","-1","148.2","19.2","2","-1","1","","","","","","","","","","","","",""
"psychophysics","18","630349","0.0-6.0-0.12","60940e7600124bd7a1cb35f8","609a8bf73b2ac84e2732f618","609d729326f88f5240f980fd","449.87499999115244","","","","37","","","","key","16.66599999999947","676.5","381","true","-1","148.2","15.36","3","-1","-1","","","","","","","","","","","","",""
"psychophysics","19","631873","0.0-6.0-0.13","60940e7600124bd7a1cb35f8","609a8bf73b2ac84e2732f618","609d729326f88f5240f980fd","522.3900000128197","","","","39","","","","key","16.66599999999938","676.5","381","true","1","132.83999999999997","15.36","3","-1","-1","","","","","","","","","","","","",""
"psychophysics","20","633307","0.0-6.0-0.14","60940e7600124bd7a1cb35f8","609a8bf73b2ac84e2732f618","609d729326f88f5240f980fd","432.01499999850057","","","","37","","","","key","16.666000000000825","676.5","381","true","-1","132.83999999999997","15.36","3","-1","-1","","","","","","","","","","","","",""
"psychophysics","21","634883","0.0-6.0-0.15","60940e7600124bd7a1cb35f8","609a8bf73b2ac84e2732f618","609d729326f88f5240f980fd","573.885000005248","","","","37","","","","key","16.66599999999963","676.5","381","true","1","129","12.287999999999998","4","1","-1","","","","","","","","","","","","",""
"psychophysics","22","636295","0.0-6.0-0.16","60940e7600124bd7a1cb35f8","609a8bf73b2ac84e2732f618","609d729326f88f5240f980fd","409.2499999969732","","","","39","","","","key","16.665999999998824","676.5","381","true","1","141.288","12.287999999999998","4","-1","1","","","","","","","","","","","","",""
"psychophysics","23","637737","0.0-6.0-0.17","60940e7600124bd7a1cb35f8","609a8bf73b2ac84e2732f618","609d729326f88f5240f980fd","439.71000000601634","","","","37","","","","key","16.669141176470337","676.5","381","true","-1","141.288","9.8304","5","-1","-1","","","","","","","","","","","","",""
"psychophysics","24","639380","0.0-6.0-0.18","60940e7600124bd7a1cb35f8","609a8bf73b2ac84e2732f618","609d729326f88f5240f980fd","641.3250000041444","","","","39","","","","key","16.66600000000041","676.5","381","true","-1","131.4576","7.864319999999999","6","1","-1","","","","","","","","","","","","",""
"psychophysics","25","640781","0.0-6.0-0.19","60940e7600124bd7a1cb35f8","609a8bf73b2ac84e2732f618","609d729326f88f5240f980fd","399.489999996149","","","","39","","","","key","16.666000000000594","676.5","381","true","1","139.32192","7.864319999999999","6","-1","1","","","","","","","","","","","","",""
"psychophysics","26","642131","0.0-6.0-0.20","60940e7600124bd7a1cb35f8","609a8bf73b2ac84e2732f618","609d729326f88f5240f980fd","348.3199999900535","","","","37","","","","key","16.66600000000035","676.5","381","true","-1","139.32192","6.291456","7","-1","-1","","","","","","","","","","","","",""
"psychophysics","27","643539","0.0-6.0-0.21","60940e7600124bd7a1cb35f8","609a8bf73b2ac84e2732f618","609d729326f88f5240f980fd","406.8200000037905","","","","37","","","","key","16.666000000000594","676.5","381","true","-1","133.030464","6.291456","7","-1","-1","","","","","","","","","","","","",""
"psychophysics","28","644963","0.0-6.0-0.22","60940e7600124bd7a1cb35f8","609a8bf73b2ac84e2732f618","609d729326f88f5240f980fd","422.0050000003539","","","","39","","","","key","16.665999999999837","676.5","381","true","1","133.030464","6.291456","7","-1","-1","","","","","","","","","","","","",""
"psychophysics","29","646334","0.0-6.0-0.23","60940e7600124bd7a1cb35f8","609a8bf73b2ac84e2732f618","609d729326f88f5240f980fd","370.1549999968847","","","","37","","","","key","16.665999999999954","676.5","381","true","1","129","5.033164800000001","8","1","-1","","","","","","","","","","","","",""
"psychophysics","30","647712","0.0-6.0-0.24","60940e7600124bd7a1cb35f8","609a8bf73b2ac84e2732f618","609d729326f88f5240f980fd","375.6699999939883","","","","37","","","","key","16.66917073170842","676.5","381","true","-1","134.0331648","5.033164800000001","8","-1","1","","","","","","","","","","","","",""
"psychophysics","31","649004","0.0-6.0-0.25","60940e7600124bd7a1cb35f8","609a8bf73b2ac84e2732f618","609d729326f88f5240f980fd","290.69999999774154","","","","37","","","","key","16.6660000000005","676.5","381","true","-1","134.0331648","4.0265318400000005","9","-1","-1","","","","","","","","","","","","",""
"psychophysics","32","650447","0.0-6.0-0.26","60940e7600124bd7a1cb35f8","609a8bf73b2ac84e2732f618","609d729326f88f5240f980fd","441.26500000129454","","","","37","","","","key","16.66599999999947","676.5","381","true","1","130.00663296000002","3.2212254720000004","10","1","-1","","","","","","","","","","","","",""
"psychophysics","33","651874","0.0-6.0-0.27","60940e7600124bd7a1cb35f8","609a8bf73b2ac84e2732f618","609d729326f88f5240f980fd","424.5749999972759","","","","37","","","","key","16.665999999999837","676.5","381","true","1","133.227858432","3.2212254720000004","10","1","1","","","","","","","","","","","","",""
"psychophysics","34","653012","0.0-6.0-0.28","60940e7600124bd7a1cb35f8","609a8bf73b2ac84e2732f618","609d729326f88f5240f980fd","136.2200000003213","","","","37","","","","key","16.66599999999961","676.5","381","true","-1","136.44908390400002","3.2212254720000004","10","-1","1","","","","","","","","","","","","",""
"psychophysics","35","654250","0.0-6.0-0.29","60940e7600124bd7a1cb35f8","609a8bf73b2ac84e2732f618","609d729326f88f5240f980fd","236.23500000394415","","","","39","","","","key","16.66600000000023","676.5","381","true","1","136.44908390400002","2.5769803776000004","11","-1","-1","","","","","","","","","","","","",""
"psychophysics","36","655568","0.0-6.0-0.30","60940e7600124bd7a1cb35f8","609a8bf73b2ac84e2732f618","609d729326f88f5240f980fd","314.23000000359025","","","","37","","","","key","16.665999999999677","676.5","381","true","-1","133.87210352640002","2.5769803776000004","11","-1","-1","","","","","","","","","","","","",""
"psychophysics","37","656862","0.0-6.0-0.31","60940e7600124bd7a1cb35f8","609a8bf73b2ac84e2732f618","609d729326f88f5240f980fd","292.51499999372754","","","","37","","","","key","16.666000000000086","676.5","381","true","-1","133.87210352640002","2.5769803776000004","11","-1","-1","","","","","","","","","","","","",""
"psychophysics","38","658478","0.0-6.0-0.32","60940e7600124bd7a1cb35f8","609a8bf73b2ac84e2732f618","609d729326f88f5240f980fd","614.5699999906356","","","","37","","","","key","16.668750000000728","676.5","381","true","1","131.29512314880003","2.0615843020800004","12","1","-1","","","","","","","","","","","","",""
"psychophysics","39","659853","0.0-6.0-0.33","60940e7600124bd7a1cb35f8","609a8bf73b2ac84e2732f618","609d729326f88f5240f980fd","373.59999999171123","","","","39","","","","key","16.665999999999954","676.5","381","true","1","133.35670745088004","2.0615843020800004","12","-1","1","","","","","","","","","","","","",""
"psychophysics","40","661529","0.0-6.0-0.34","60940e7600124bd7a1cb35f8","609a8bf73b2ac84e2732f618","609d729326f88f5240f980fd","673.6399999936111","","","","37","","","","key","16.665999999999766","676.5","381","true","-1","133.35670745088004","1.6492674416640005","13","-1","-1","","","","","","","","","","","","",""
"psychophysics","41","662967","0.0-6.0-0.35","60940e7600124bd7a1cb35f8","609a8bf73b2ac84e2732f618","609d729326f88f5240f980fd","436.9100000039907","","","","37","","","","key","16.665999999999837","676.5","381","true","-1","131.70744000921604","1.6492674416640005","13","-1","-1","","","","","","","","","","","","",""
"psychophysics","42","664476","0.0-6.0-0.36","60940e7600124bd7a1cb35f8","609a8bf73b2ac84e2732f618","609d729326f88f5240f980fd","507.62000000395346","","","","37","","","","key","16.666000000000672","676.5","381","true","-1","131.70744000921604","1.6492674416640005","13","-1","-1","","","","","","","","","","","","",""
"psychophysics","43","665880","0.0-6.0-0.37","60940e7600124bd7a1cb35f8","609a8bf73b2ac84e2732f618","609d729326f88f5240f980fd","402.5450000044657","","","","37","","","","key","16.66599999999919","676.5","381","true","1","130.05817256755205","1.3194139533312006","14","1","-1","","","","","","","","","","","","",""
"psychophysics","44","667253","0.0-6.0-0.38","60940e7600124bd7a1cb35f8","609a8bf73b2ac84e2732f618","609d729326f88f5240f980fd","371.7449999967357","","","","37","","","","key","16.665999999999954","676.5","381","true","1","131.37758652088326","1.3194139533312006","14","1","1","","","","","","","","","","","","",""
"psychophysics","45","668483","0.0-6.0-0.39","60940e7600124bd7a1cb35f8","609a8bf73b2ac84e2732f618","609d729326f88f5240f980fd","226.88000000198372","","","","39","","","","key","16.66973972602824","676.5","381","true","1","132.69700047421446","1.3194139533312006","14","-1","1","","","","","","","","","","","","",""
"html-keyboard-response","46","674932","0.0-7.0","60940e7600124bd7a1cb35f8","609a8bf73b2ac84e2732f618","609d729326f88f5240f980fd","6448.024999990594","<p>Well Done !</p><p>Prepare for a new block.</p><p>DON'T EXIT THE FULL SCREEN MODE</p><p>Press the Spacebar to start.</p>","","","32","","","","","","","","","","","","","","","true","132.89774724562946","","","","","","","","","","",""
"psychophysics","47","677105","0.0-8.0-0.0","60940e7600124bd7a1cb35f8","609a8bf73b2ac84e2732f618","609d729326f88f5240f980fd","1170.0950000085868","","","","39","","","","key","16.665999999999677","676.5","381","true","1","180","30","0","-1","","","","","","","","","","","","","",""
"psychophysics","48","678361","0.0-8.0-0.1","60940e7600124bd7a1cb35f8","609a8bf73b2ac84e2732f618","609d729326f88f5240f980fd","254.19000000692904","","","","39","","","","key","16.56974666666705","676.5","381","true","1","180","30","0","-1","-1","","","","","","","","","","","","",""
"psychophysics","49","679654","0.0-8.0-0.2","60940e7600124bd7a1cb35f8","609a8bf73b2ac84e2732f618","609d729326f88f5240f980fd","291.7250000027707","","","","37","","","","key","16.666000000000086","676.5","381","true","-1","150","30","0","-1","-1","","","","","","","","","","","","",""
"psychophysics","50","680774","0.0-8.0-0.3","60940e7600124bd7a1cb35f8","609a8bf73b2ac84e2732f618","609d729326f88f5240f980fd","118.59999998705462","","","","39","","","","key","16.666000000000086","676.5","381","true","1","150","30","0","-1","-1","","","","","","","","","","","","",""
"psychophysics","51","682198","0.0-8.0-0.4","60940e7600124bd7a1cb35f8","609a8bf73b2ac84e2732f618","609d729326f88f5240f980fd","422.39999999583233","","","","39","","","","key","16.66600000000021","676.5","381","true","1","129","30","0","-1","-1","","","","","","","","","","","","",""
"psychophysics","52","683722","0.0-8.0-0.5","60940e7600124bd7a1cb35f8","609a8bf73b2ac84e2732f618","609d729326f88f5240f980fd","522.5350000109756","","","","39","","","","key","16.666000000000317","676.5","381","true","-1","129","24","1","1","-1","","","","","","","","","","","","",""
"psychophysics","53","684994","0.0-8.0-0.6","60940e7600124bd7a1cb35f8","609a8bf73b2ac84e2732f618","609d729326f88f5240f980fd","270.844999991823","","","","39","","","","key","16.66599999999938","676.5","381","true","1","153","24","1","-1","1","","","","","","","","","","","","",""
"psychophysics","54","686314","0.0-8.0-0.7","60940e7600124bd7a1cb35f8","609a8bf73b2ac84e2732f618","609d729326f88f5240f980fd","316.69500000134576","","","","39","","","","key","16.665999999999677","676.5","381","true","1","153","19.2","2","-1","-1","","","","","","","","","","","","",""
"psychophysics","55","687638","0.0-8.0-0.8","60940e7600124bd7a1cb35f8","609a8bf73b2ac84e2732f618","609d729326f88f5240f980fd","322.24500000302214","","","","37","","","","key","16.666000000000754","676.5","381","true","-1","133.8","19.2","2","-1","-1","","","","","","","","","","","","",""
"psychophysics","56","688954","0.0-8.0-0.9","60940e7600124bd7a1cb35f8","609a8bf73b2ac84e2732f618","609d729326f88f5240f980fd","312.8500000020722","","","","39","","","","key","16.668910256410854","676.5","381","true","1","133.8","19.2","2","-1","-1","","","","","","","","","","","","",""
"psychophysics","57","690337","0.0-8.0-0.10","60940e7600124bd7a1cb35f8","609a8bf73b2ac84e2732f618","609d729326f88f5240f980fd","381.63999999233056","","","","37","","","","key","16.665999999999567","676.5","381","true","1","129","15.36","3","1","-1","","","","","","","","","","","","",""
"psychophysics","58","691694","0.0-8.0-0.11","60940e7600124bd7a1cb35f8","609a8bf73b2ac84e2732f618","609d729326f88f5240f980fd","355.2999999956228","","","","37","","","","key","16.66600000000035","676.5","381","true","-1","144.36","15.36","3","-1","1","","","","","","","","","","","","",""
"psychophysics","59","693019","0.0-8.0-0.12","60940e7600124bd7a1cb35f8","609a8bf73b2ac84e2732f618","609d729326f88f5240f980fd","323.1999999989057","","","","37","","","","key","16.666000000000754","676.5","381","true","-1","144.36","12.287999999999998","4","-1","-1","","","","","","","","","","","","",""
"psychophysics","60","694183","0.0-8.0-0.13","60940e7600124bd7a1cb35f8","609a8bf73b2ac84e2732f618","609d729326f88f5240f980fd","161.81999999389518","","","","39","","","","key","16.66600000000039","676.5","381","true","1","132.072","12.287999999999998","4","-1","-1","","","","","","","","","","","","",""
"psychophysics","61","695457","0.0-8.0-0.14","60940e7600124bd7a1cb35f8","609a8bf73b2ac84e2732f618","609d729326f88f5240f980fd","272.76000000711065","","","","37","","","","key","16.66600000000093","676.5","381","true","-1","132.072","12.287999999999998","4","-1","-1","","","","","","","","","","","","",""
"psychophysics","62","696805","0.0-8.0-0.15","60940e7600124bd7a1cb35f8","609a8bf73b2ac84e2732f618","609d729326f88f5240f980fd","345.7500000076834","","","","37","","","","key","16.66600000000035","676.5","381","true","-1","129","12.287999999999998","4","-1","-1","","","","","","","","","","","","",""
"psychophysics","63","698035","0.0-8.0-0.16","60940e7600124bd7a1cb35f8","609a8bf73b2ac84e2732f618","609d729326f88f5240f980fd","229.13000000698958","","","","37","","","","key","16.670082191780388","676.5","381","true","-1","129","12.287999999999998","4","-1","-1","","","","","","","","","","","","",""
"psychophysics","64","699418","0.0-8.0-0.17","60940e7600124bd7a1cb35f8","609a8bf73b2ac84e2732f618","609d729326f88f5240f980fd","381.0150000063004","","","","37","","","","key","16.666000000000988","676.5","381","true","1","129","9.8304","5","1","-1","","","","","","","","","","","","",""
"psychophysics","65","700604","0.0-8.0-0.18","60940e7600124bd7a1cb35f8","609a8bf73b2ac84e2732f618","609d729326f88f5240f980fd","185.0350000022445","","","","39","","","","key","16.665999999999933","676.5","381","true","1","138.8304","9.8304","5","-1","1","","","","","","","","","","","","",""
"psychophysics","66","701885","0.0-8.0-0.19","60940e7600124bd7a1cb35f8","609a8bf73b2ac84e2732f618","609d729326f88f5240f980fd","279.51999999640975","","","","37","","","","key","16.6660000000005","676.5","381","true","-1","138.8304","7.864319999999999","6","-1","-1","","","","","","","","","","","","",""
"psychophysics","67","703252","0.0-8.0-0.20","60940e7600124bd7a1cb35f8","609a8bf73b2ac84e2732f618","609d729326f88f5240f980fd","365.56999999447726","","","","37","","","","key","16.665999999999954","676.5","381","true","1","130.96608","6.291456","7","1","-1","","","","","","","","","","","","",""
"psychophysics","68","704585","0.0-8.0-0.21","60940e7600124bd7a1cb35f8","609a8bf73b2ac84e2732f618","609d729326f88f5240f980fd","331.06000001134817","","","","39","","","","key","16.66599999999928","676.5","381","true","1","137.25753600000002","6.291456","7","-1","1","","","","","","","","","","","","",""
"psychophysics","69","705892","0.0-8.0-0.22","60940e7600124bd7a1cb35f8","609a8bf73b2ac84e2732f618","609d729326f88f5240f980fd","306.01499999465887","","","","39","","","","key","16.666000000000086","676.5","381","true","1","137.25753600000002","5.033164800000001","8","-1","-1","","","","","","","","","","","","",""
"psychophysics","70","707281","0.0-8.0-0.23","60940e7600124bd7a1cb35f8","609a8bf73b2ac84e2732f618","609d729326f88f5240f980fd","387.3999999923399","","","","37","","","","key","16.665999999999567","676.5","381","true","-1","132.2243712","5.033164800000001","8","-1","-1","","","","","","","","","","","","",""
"psychophysics","71","708606","0.0-8.0-0.24","60940e7600124bd7a1cb35f8","609a8bf73b2ac84e2732f618","609d729326f88f5240f980fd","323.17499999771826","","","","37","","","","key","16.669455696202377","676.5","381","true","-1","132.2243712","5.033164800000001","8","-1","-1","","","","","","","","","","","","",""
"psychophysics","72","709954","0.0-8.0-0.25","60940e7600124bd7a1cb35f8","609a8bf73b2ac84e2732f618","609d729326f88f5240f980fd","346.2849999923492","","","","37","","","","key","16.665999999998895","676.5","381","true","-1","129","5.033164800000001","8","-1","-1","","","","","","","","","","","","",""
"psychophysics","73","711342","0.0-8.0-0.26","60940e7600124bd7a1cb35f8","609a8bf73b2ac84e2732f618","609d729326f88f5240f980fd","385.8850000106031","","","","37","","","","key","16.665999999999567","676.5","381","true","-1","129","5.033164800000001","8","-1","-1","","","","","","","","","","","","",""
"psychophysics","74","712694","0.0-8.0-0.27","60940e7600124bd7a1cb35f8","609a8bf73b2ac84e2732f618","609d729326f88f5240f980fd","350.5849999928614","","","","39","","","","key","16.66600000000035","676.5","381","true","1","129","5.033164800000001","8","-1","-1","","","","","","","","","","","","",""
"psychophysics","75","713825","0.0-8.0-0.28","60940e7600124bd7a1cb35f8","609a8bf73b2ac84e2732f618","609d729326f88f5240f980fd","128.28500001342036","","","","39","","","","key","16.66599999999961","676.5","381","true","1","129","5.033164800000001","8","-1","-1","","","","","","","","","","","","",""
"psychophysics","76","715129","0.0-8.0-0.29","60940e7600124bd7a1cb35f8","609a8bf73b2ac84e2732f618","609d729326f88f5240f980fd","300.10999999649357","","","","37","","","","key","16.666000000000086","676.5","381","true","1","129","4.0265318400000005","9","1","-1","","","","","","","","","","","","",""
"psychophysics","77","716351","0.0-8.0-0.30","60940e7600124bd7a1cb35f8","609a8bf73b2ac84e2732f618","609d729326f88f5240f980fd","220.18999999272637","","","","39","","","","key","16.66600000000023","676.5","381","true","1","133.02653184","4.0265318400000005","9","-1","1","","","","","","","","","","","","",""
"psychophysics","78","717692","0.0-8.0-0.31","60940e7600124bd7a1cb35f8","609a8bf73b2ac84e2732f618","609d729326f88f5240f980fd","339.85000000393484","","","","37","","","","key","16.66599999999928","676.5","381","true","-1","133.02653184","3.2212254720000004","10","-1","-1","","","","","","","","","","","","",""
"psychophysics","79","719022","0.0-8.0-0.32","60940e7600124bd7a1cb35f8","609a8bf73b2ac84e2732f618","609d729326f88f5240f980fd","327.74999999674037","","","","37","","","","key","16.669405063291528","676.5","381","true","1","129.805306368","2.5769803776000004","11","1","-1","","","","","","","","","","","","",""
"psychophysics","80","720313","0.0-8.0-0.33","60940e7600124bd7a1cb35f8","609a8bf73b2ac84e2732f618","609d729326f88f5240f980fd","287.22499999275897","","","","39","","","","key","16.66599999999897","676.5","381","true","-1","132.3822867456","2.5769803776000004","11","1","1","","","","","","","","","","","","",""
"psychophysics","81","721621","0.0-8.0-0.34","60940e7600124bd7a1cb35f8","609a8bf73b2ac84e2732f618","609d729326f88f5240f980fd","306.60500000522006","","","","39","","","","key","16.665999999999677","676.5","381","true","1","134.9592671232","2.5769803776000004","11","-1","1","","","","","","","","","","","","",""
"psychophysics","82","722871","0.0-8.0-0.35","60940e7600124bd7a1cb35f8","609a8bf73b2ac84e2732f618","609d729326f88f5240f980fd","248.71499999426305","","","","37","","","","key","16.665999999999798","676.5","381","true","-1","134.9592671232","2.0615843020800004","12","-1","-1","","","","","","","","","","","","",""
"psychophysics","83","724235","0.0-8.0-0.36","60940e7600124bd7a1cb35f8","609a8bf73b2ac84e2732f618","609d729326f88f5240f980fd","361.64499999722466","","","","37","","","","key","16.665999999999954","676.5","381","true","-1","132.89768282112","2.0615843020800004","12","-1","-1","","","","","","","","","","","","",""
"psychophysics","84","725553","0.0-8.0-0.37","60940e7600124bd7a1cb35f8","609a8bf73b2ac84e2732f618","609d729326f88f5240f980fd","316.6899999923771","","","","37","","","","key","16.665999999999677","676.5","381","true","-1","132.89768282112","2.0615843020800004","12","-1","-1","","","","","","","","","","","","",""
"psychophysics","85","727018","0.0-8.0-0.38","60940e7600124bd7a1cb35f8","609a8bf73b2ac84e2732f618","609d729326f88f5240f980fd","463.85000000009313","","","","37","","","","key","16.666000000000448","676.5","381","true","-1","130.83609851903998","2.0615843020800004","12","-1","-1","","","","","","","","","","","","",""
"psychophysics","86","728471","0.0-8.0-0.39","60940e7600124bd7a1cb35f8","609a8bf73b2ac84e2732f618","609d729326f88f5240f980fd","451.30000000062864","","","","37","","","","key","16.669093023255996","676.5","381","true","-1","130.83609851903998","2.0615843020800004","12","-1","-1","","","","","","","","","","","","",""
"html-keyboard-response","87","732241","0.0-9.0","60940e7600124bd7a1cb35f8","609a8bf73b2ac84e2732f618","609d729326f88f5240f980fd","3768.7999999907333","<p>Well Done !</p><p>Prepare for a new block.</p><p>DON'T EXIT THE FULL SCREEN MODE</p><p>Press the Spacebar to start.</p>","","","32","","","","","","","","","","","","","","","true","131.375116914688","","","","","","","","","","",""
"psychophysics","88","733502","0.0-10.0-0.0","60940e7600124bd7a1cb35f8","609a8bf73b2ac84e2732f618","609d729326f88f5240f980fd","259.24500000837725","","","","37","","","","key","16.66599999999897","676.5","381","true","-1","180","30","0","-1","","","","","","","","","","","","","",""
"psychophysics","89","734549","0.0-10.0-0.1","60940e7600124bd7a1cb35f8","609a8bf73b2ac84e2732f618","609d729326f88f5240f980fd","46.06500000227243","","","","37","","","","key","16.665999999998377","676.5","381","true","-1","180","30","0","-1","-1","","","","","","","","","","","","",""
"psychophysics","90","737075","0.0-10.0-0.2","60940e7600124bd7a1cb35f8","609a8bf73b2ac84e2732f618","609d729326f88f5240f980fd","1523.9050000091083","","","","37","","","","key","16.666000000000157","676.5","381","true","-1","150","30","0","-1","-1","","","","","","","","","","","","",""
"psychophysics","91","738396","0.0-10.0-0.3","60940e7600124bd7a1cb35f8","609a8bf73b2ac84e2732f618","609d729326f88f5240f980fd","319.91500000003725","","","","37","","","","key","16.735833333333574","676.5","381","true","-1","150","30","0","-1","-1","","","","","","","","","","","","",""
"psychophysics","92","739709","0.0-10.0-0.4","60940e7600124bd7a1cb35f8","609a8bf73b2ac84e2732f618","609d729326f88f5240f980fd","311.744999999064","","","","37","","","","key","16.665999999999677","676.5","381","true","1","129","24","1","1","-1","","","","","","","","","","","","",""
"psychophysics","93","741075","0.0-10.0-0.5","60940e7600124bd7a1cb35f8","609a8bf73b2ac84e2732f618","609d729326f88f5240f980fd","363.9700000057928","","","","37","","","","key","16.665999999999954","676.5","381","true","-1","153","24","1","-1","1","","","","","","","","","","","","",""
"psychophysics","94","742248","0.0-10.0-0.6","60940e7600124bd7a1cb35f8","609a8bf73b2ac84e2732f618","609d729326f88f5240f980fd","172.5449999939883","","","","39","","","","key","16.665999999998704","676.5","381","true","1","153","19.2","2","-1","-1","","","","","","","","","","","","",""
"psychophysics","95","743526","0.0-10.0-0.7","60940e7600124bd7a1cb35f8","609a8bf73b2ac84e2732f618","609d729326f88f5240f980fd","275.41000000201166","","","","37","","","","key","16.66599999999897","676.5","381","true","-1","133.8","19.2","2","-1","-1","","","","","","","","","","","","",""
"psychophysics","96","744824","0.0-10.0-0.8","60940e7600124bd7a1cb35f8","609a8bf73b2ac84e2732f618","609d729326f88f5240f980fd","297.08499999833293","","","","39","","","","key","16.666000000000086","676.5","381","true","1","133.8","19.2","2","-1","-1","","","","","","","","","","","","",""
"psychophysics","97","746384","0.0-10.0-0.9","60940e7600124bd7a1cb35f8","609a8bf73b2ac84e2732f618","609d729326f88f5240f980fd","557.955000011134","","","","39","","","","key","16.66599999999997","676.5","381","true","1","129","19.2","2","-1","-1","","","","","","","","","","","","",""
"psychophysics","98","747860","0.0-10.0-0.10","60940e7600124bd7a1cb35f8","609a8bf73b2ac84e2732f618","609d729326f88f5240f980fd","474.52000000339467","","","","37","","","","key","16.666000000000086","676.5","381","true","-1","129","19.2","2","-1","-1","","","","","","","","","","","","",""
"psychophysics","99","749369","0.0-10.0-0.11","60940e7600124bd7a1cb35f8","609a8bf73b2ac84e2732f618","609d729326f88f5240f980fd","508.00999999046326","","","","37","","","","key","16.66982022471977","676.5","381","true","-1","129","19.2","2","-1","-1","","","","","","","","","","","","",""
"psychophysics","100","750899","0.0-10.0-0.12","60940e7600124bd7a1cb35f8","609a8bf73b2ac84e2732f618","609d729326f88f5240f980fd","527.8799999941839","","","","37","","","","key","16.666000000000317","676.5","381","true","1","129","15.36","3","1","-1","","","","","","","","","","","","",""
"psychophysics","101","752199","0.0-10.0-0.13","60940e7600124bd7a1cb35f8","609a8bf73b2ac84e2732f618","609d729326f88f5240f980fd","298.6200000013923","","","","39","","","","key","16.666000000000086","676.5","381","true","1","144.36","15.36","3","-1","1","","","","","","","","","","","","",""
"psychophysics","102","753442","0.0-10.0-0.14","60940e7600124bd7a1cb35f8","609a8bf73b2ac84e2732f618","609d729326f88f5240f980fd","241.1349999892991","","","","37","","","","key","16.66600000000137","676.5","381","true","-1","144.36","12.287999999999998","4","-1","-1","","","","","","","","","","","","",""
"psychophysics","103","754839","0.0-10.0-0.15","60940e7600124bd7a1cb35f8","609a8bf73b2ac84e2732f618","609d729326f88f5240f980fd","394.5349999994505","","","","37","","","","key","16.66599999999919","676.5","381","true","-1","132.072","12.287999999999998","4","-1","-1","","","","","","","","","","","","",""
"psychophysics","104","756213","0.0-10.0-0.16","60940e7600124bd7a1cb35f8","609a8bf73b2ac84e2732f618","609d729326f88f5240f980fd","372.3899999895366","","","","39","","","","key","16.665999999999954","676.5","381","true","-1","132.072","9.8304","5","1","-1","","","","","","","","","","","","",""
"psychophysics","105","757495","0.0-10.0-0.17","60940e7600124bd7a1cb35f8","609a8bf73b2ac84e2732f618","609d729326f88f5240f980fd","279.22500000568107","","","","37","","","","key","16.6660000000005","676.5","381","true","-1","141.9024","9.8304","5","-1","1","","","","","","","","","","","","",""
"psychophysics","106","758824","0.0-10.0-0.18","60940e7600124bd7a1cb35f8","609a8bf73b2ac84e2732f618","609d729326f88f5240f980fd","326.45500000217","","","","37","","","","key","16.669303797468356","676.5","381","true","-1","141.9024","7.864319999999999","6","-1","-1","","","","","","","","","","","","",""
"psychophysics","107","760126","0.0-10.0-0.19","60940e7600124bd7a1cb35f8","609a8bf73b2ac84e2732f618","609d729326f88f5240f980fd","300.98500000895","","","","39","","","","key","16.666000000000086","676.5","381","true","1","134.03808","7.864319999999999","6","-1","-1","","","","","","","","","","","","",""
"psychophysics","108","761348","0.0-10.0-0.20","60940e7600124bd7a1cb35f8","609a8bf73b2ac84e2732f618","609d729326f88f5240f980fd","218.42499999911524","","","","39","","","","key","16.666000000000672","676.5","381","true","1","134.03808","7.864319999999999","6","-1","-1","","","","","","","","","","","","",""
"psychophysics","109","762708","0.0-10.0-0.21","60940e7600124bd7a1cb35f8","609a8bf73b2ac84e2732f618","609d729326f88f5240f980fd","357.6949999987846","","","","39","","","","key","16.665999999999954","676.5","381","true","-1","129","6.291456","7","1","-1","","","","","","","","","","","","",""
"psychophysics","110","763992","0.0-10.0-0.22","60940e7600124bd7a1cb35f8","609a8bf73b2ac84e2732f618","609d729326f88f5240f980fd","282.4150000087684","","","","39","","","","key","16.66599999999897","676.5","381","true","1","135.291456","6.291456","7","-1","1","","","","","","","","","","","","",""
"psychophysics","111","765341","0.0-10.0-0.23","60940e7600124bd7a1cb35f8","609a8bf73b2ac84e2732f618","609d729326f88f5240f980fd","347.6599999994505","","","","39","","","","key","16.665999999998895","676.5","381","true","1","135.291456","5.033164800000001","8","-1","-1","","","","","","","","","","","","",""
"psychophysics","112","766744","0.0-10.0-0.24","60940e7600124bd7a1cb35f8","609a8bf73b2ac84e2732f618","609d729326f88f5240f980fd","401.29999999771826","","","","39","","","","key","16.66599999999919","676.5","381","true","-1","130.2582912","4.0265318400000005","9","1","-1","","","","","","","","","","","","",""
"psychophysics","113","767958","0.0-10.0-0.25","60940e7600124bd7a1cb35f8","609a8bf73b2ac84e2732f618","609d729326f88f5240f980fd","212.22000000125263","","","","37","","","","key","16.666000000000672","676.5","381","true","-1","134.28482304","4.0265318400000005","9","-1","1","","","","","","","","","","","","",""
"psychophysics","114","769286","0.0-10.0-0.26","60940e7600124bd7a1cb35f8","609a8bf73b2ac84e2732f618","609d729326f88f5240f980fd","326.71499998832587","","","","37","","","","key","16.66897468354488","676.5","381","true","-1","134.28482304","3.2212254720000004","10","-1","-1","","","","","","","","","","","","",""
"psychophysics","115","770811","0.0-10.0-0.27","60940e7600124bd7a1cb35f8","609a8bf73b2ac84e2732f618","609d729326f88f5240f980fd","522.9050000052666","","","","37","","","","key","16.666000000000672","676.5","381","true","1","131.06359756799998","2.5769803776000004","11","1","-1","","","","","","","","","","","","",""
"psychophysics","116","772078","0.0-10.0-0.28","60940e7600124bd7a1cb35f8","609a8bf73b2ac84e2732f618","609d729326f88f5240f980fd","265.7550000003539","","","","39","","","","key","16.66599999999938","676.5","381","true","1","133.64057794559997","2.5769803776000004","11","-1","1","","","","","","","","","","","","",""
"psychophysics","117","773390","0.0-10.0-0.29","60940e7600124bd7a1cb35f8","609a8bf73b2ac84e2732f618","609d729326f88f5240f980fd","309.48999999964144","","","","37","","","","key","16.665999999999677","676.5","381","true","-1","133.64057794559997","2.0615843020800004","12","-1","-1","","","","","","","","","","","","",""
"psychophysics","118","774695","0.0-10.0-0.30","60940e7600124bd7a1cb35f8","609a8bf73b2ac84e2732f618","609d729326f88f5240f980fd","303.27499999839347","","","","39","","","","key","16.666000000000086","676.5","381","true","-1","131.57899364351996","1.6492674416640005","13","1","-1","","","","","","","","","","","","",""
"psychophysics","119","775945","0.0-10.0-0.31","60940e7600124bd7a1cb35f8","609a8bf73b2ac84e2732f618","609d729326f88f5240f980fd","247.83999999635853","","","","39","","","","key","16.665999999999798","676.5","381","true","1","133.22826108518396","1.6492674416640005","13","-1","1","","","","","","","","","","","","",""
"psychophysics","120","777274","0.0-10.0-0.32","60940e7600124bd7a1cb35f8","609a8bf73b2ac84e2732f618","609d729326f88f5240f980fd","327.9250000050524","","","","39","","","","key","16.66599999999928","676.5","381","true","1","133.22826108518396","1.3194139533312006","14","-1","-1","","","","","","","","","","","","",""
"psychophysics","121","778657","0.0-10.0-0.33","60940e7600124bd7a1cb35f8","609a8bf73b2ac84e2732f618","609d729326f88f5240f980fd","381.4600000041537","","","","39","","","","key","16.669707317074206","676.5","381","true","1","131.90884713185275","1.3194139533312006","14","-1","-1","","","","","","","","","","","","",""
"psychophysics","122","780058","0.0-10.0-0.34","60940e7600124bd7a1cb35f8","609a8bf73b2ac84e2732f618","609d729326f88f5240f980fd","400.02000000094995","","","","37","","","","key","16.666000000000594","676.5","381","true","-1","131.90884713185275","1.3194139533312006","14","-1","-1","","","","","","","","","","","","",""
"psychophysics","123","781694","0.0-10.0-0.35","60940e7600124bd7a1cb35f8","609a8bf73b2ac84e2732f618","609d729326f88f5240f980fd","634.1600000014296","","","","37","","","","key","16.66599999999954","676.5","381","true","1","130.58943317852155","1.0555311626649604","15","1","-1","","","","","","","","","","","","",""
"psychophysics","124","783015","0.0-10.0-0.36","60940e7600124bd7a1cb35f8","609a8bf73b2ac84e2732f618","609d729326f88f5240f980fd","318.4600000095088","","","","39","","","","key","16.66600000000117","676.5","381","true","1","131.6449643411865","1.0555311626649604","15","-1","1","","","","","","","","","","","","",""
"psychophysics","125","784419","0.0-10.0-0.37","60940e7600124bd7a1cb35f8","609a8bf73b2ac84e2732f618","609d729326f88f5240f980fd","402.63000001141336","","","","39","","","","key","16.66600000000021","676.5","381","true","1","131.6449643411865","1","16","-1","-1","","","","","","","","","","","","",""
"psychophysics","126","786068","0.0-10.0-0.38","60940e7600124bd7a1cb35f8","609a8bf73b2ac84e2732f618","609d729326f88f5240f980fd","647.2199999989243","","","","39","","","","key","16.66600000000041","676.5","381","true","1","130.6449643411865","1","16","-1","-1","","","","","","","","","","","","",""
"psychophysics","127","788607","0.0-10.0-0.39","60940e7600124bd7a1cb35f8","609a8bf73b2ac84e2732f618","609d729326f88f5240f980fd","1537.0550000079675","","","","39","","","","key","16.667761589404325","676.5","381","true","1","130.6449643411865","1","16","-1","-1","","","","","","","","","","","","",""
"html-keyboard-response","128","796262","0.0-11.0","60940e7600124bd7a1cb35f8","609a8bf73b2ac84e2732f618","609d729326f88f5240f980fd","7654.374999998254","<p>Well Done !</p><p>Prepare for a new block.</p><p>DON'T EXIT THE FULL SCREEN MODE</p><p>Press the Spacebar to start.</p>","","","32","","","","","","","","","","","","","","","true","132.26246001067074","","","","","","","","","","",""
"psychophysics","129","797495","0.0-12.0-0.0","60940e7600124bd7a1cb35f8","609a8bf73b2ac84e2732f618","609d729326f88f5240f980fd","230.1150000130292","","","","39","","","","key","16.66600000000137","676.5","381","true","1","180","30","0","-1","","","","","","","","","","","","","",""
"psychophysics","130","798670","0.0-12.0-0.1","60940e7600124bd7a1cb35f8","609a8bf73b2ac84e2732f618","609d729326f88f5240f980fd","173.41499999747612","","","","37","","","","key","16.764840579709794","676.5","381","true","-1","180","30","0","-1","-1","","","","","","","","","","","","",""
"psychophysics","131","800678","0.0-12.0-0.2","60940e7600124bd7a1cb35f8","609a8bf73b2ac84e2732f618","609d729326f88f5240f980fd","1006.005000002915","","","","37","","","","key","16.66600000000035","676.5","381","true","-1","150","30","0","-1","-1","","","","","","","","","","","","",""
"psychophysics","132","801983","0.0-12.0-0.3","60940e7600124bd7a1cb35f8","609a8bf73b2ac84e2732f618","609d729326f88f5240f980fd","303.4500000067055","","","","39","","","","key","16.666000000000086","676.5","381","true","1","150","30","0","-1","-1","","","","","","","","","","","","",""
"psychophysics","133","803461","0.0-12.0-0.4","60940e7600124bd7a1cb35f8","609a8bf73b2ac84e2732f618","609d729326f88f5240f980fd","474.4650000066031","","","","39","","","","key","16.666000000000086","676.5","381","true","1","129","30","0","-1","-1","","","","","","","","","","","","",""
"psychophysics","134","804738","0.0-12.0-0.5","60940e7600124bd7a1cb35f8","609a8bf73b2ac84e2732f618","609d729326f88f5240f980fd","276.3299999933224","","","","39","","","","key","16.66599999999938","676.5","381","true","-1","129","24","1","1","-1","","","","","","","","","","","","",""
"psychophysics","135","806046","0.0-12.0-0.6","60940e7600124bd7a1cb35f8","609a8bf73b2ac84e2732f618","609d729326f88f5240f980fd","305.56500000238884","","","","39","","","","key","16.66600000000117","676.5","381","true","1","153","24","1","-1","1","","","","","","","","","","","","",""
"psychophysics","136","807312","0.0-12.0-0.7","60940e7600124bd7a1cb35f8","609a8bf73b2ac84e2732f618","609d729326f88f5240f980fd","264.3850000022212","","","","39","","","","key","16.66599999999938","676.5","381","true","1","153","19.2","2","-1","-1","","","","","","","","","","","","",""
"psychophysics","137","808648","0.0-12.0-0.8","60940e7600124bd7a1cb35f8","609a8bf73b2ac84e2732f618","609d729326f88f5240f980fd","334.8649999970803","","","","37","","","","key","16.668468354430487","676.5","381","true","-1","133.8","19.2","2","-1","-1","","","","","","","","","","","","",""
"psychophysics","138","809950","0.0-12.0-0.9","60940e7600124bd7a1cb35f8","609a8bf73b2ac84e2732f618","609d729326f88f5240f980fd","299.76999999780674","","","","39","","","","key","16.666000000000086","676.5","381","true","1","133.8","19.2","2","-1","-1","","","","","","","","","","","","",""
"psychophysics","139","811366","0.0-12.0-0.10","60940e7600124bd7a1cb35f8","609a8bf73b2ac84e2732f618","609d729326f88f5240f980fd","414.22000000602566","","","","37","","","","key","16.66600000000021","676.5","381","true","1","129","15.36","3","1","-1","","","","","","","","","","","","",""
"psychophysics","140","812690","0.0-12.0-0.11","60940e7600124bd7a1cb35f8","609a8bf73b2ac84e2732f618","609d729326f88f5240f980fd","322.1800000028452","","","","37","","","","key","16.66599999999928","676.5","381","true","-1","144.36","15.36","3","-1","1","","","","","","","","","","","","",""
"psychophysics","141","814032","0.0-12.0-0.12","60940e7600124bd7a1cb35f8","609a8bf73b2ac84e2732f618","609d729326f88f5240f980fd","339.7850000037579","","","","39","","","","key","16.66599999999928","676.5","381","true","1","144.36","12.287999999999998","4","-1","-1","","","","","","","","","","","","",""
"psychophysics","142","815509","0.0-12.0-0.13","60940e7600124bd7a1cb35f8","609a8bf73b2ac84e2732f618","609d729326f88f5240f980fd","475.31500000332016","","","","39","","","","key","16.66599999999876","676.5","381","true","-1","132.072","9.8304","5","1","-1","","","","","","","","","","","","",""
"psychophysics","143","816872","0.0-12.0-0.14","60940e7600124bd7a1cb35f8","609a8bf73b2ac84e2732f618","609d729326f88f5240f980fd","361.7450000019744","","","","37","","","","key","16.665999999998895","676.5","381","true","-1","141.9024","9.8304","5","-1","1","","","","","","","","","","","","",""
"psychophysics","144","818198","0.0-12.0-0.15","60940e7600124bd7a1cb35f8","609a8bf73b2ac84e2732f618","609d729326f88f5240f980fd","324.9749999959022","","","","39","","","","key","16.66599999999928","676.5","381","true","1","141.9024","7.864319999999999","6","-1","-1","","","","","","","","","","","","",""
"psychophysics","145","819635","0.0-12.0-0.16","60940e7600124bd7a1cb35f8","609a8bf73b2ac84e2732f618","609d729326f88f5240f980fd","434.834999992745","","","","37","","","","key","16.666000000001205","676.5","381","true","-1","134.03808","7.864319999999999","6","-1","-1","","","","","","","","","","","","",""
"psychophysics","146","820993","0.0-12.0-0.17","60940e7600124bd7a1cb35f8","609a8bf73b2ac84e2732f618","609d729326f88f5240f980fd","356.8899999954738","","","","37","","","","key","16.665999999999954","676.5","381","true","-1","134.03808","7.864319999999999","6","-1","-1","","","","","","","","","","","","",""
"psychophysics","147","822363","0.0-12.0-0.18","60940e7600124bd7a1cb35f8","609a8bf73b2ac84e2732f618","609d729326f88f5240f980fd","368.86499999673106","","","","37","","","","key","16.665999999999954","676.5","381","true","1","129","6.291456","7","1","-1","","","","","","","","","","","","",""
"psychophysics","148","823693","0.0-12.0-0.19","60940e7600124bd7a1cb35f8","609a8bf73b2ac84e2732f618","609d729326f88f5240f980fd","328.32000000053085","","","","39","","","","key","16.666000000000754","676.5","381","true","1","135.291456","6.291456","7","-1","1","","","","","","","","","","","","",""
"psychophysics","149","825039","0.0-12.0-0.20","60940e7600124bd7a1cb35f8","609a8bf73b2ac84e2732f618","609d729326f88f5240f980fd","344.3299999926239","","","","37","","","","key","16.66600000000035","676.5","381","true","-1","135.291456","5.033164800000001","8","-1","-1","","","","","","","","","","","","",""
"psychophysics","150","826627","0.0-12.0-0.21","60940e7600124bd7a1cb35f8","609a8bf73b2ac84e2732f618","609d729326f88f5240f980fd","587.3149999970337","","","","37","","","","key","16.666000000000533","676.5","381","true","1","130.2582912","4.0265318400000005","9","1","-1","","","","","","","","","","","","",""
"psychophysics","151","827929","0.0-12.0-0.22","60940e7600124bd7a1cb35f8","609a8bf73b2ac84e2732f618","609d729326f88f5240f980fd","300.29499999363907","","","","39","","","","key","16.666000000000086","676.5","381","true","1","134.28482304","4.0265318400000005","9","-1","1","","","","","","","","","","","","",""
"psychophysics","152","829331","0.0-12.0-0.23","60940e7600124bd7a1cb35f8","609a8bf73b2ac84e2732f618","609d729326f88f5240f980fd","400.48499999102205","","","","37","","","","key","16.669216867470386","676.5","381","true","-1","134.28482304","3.2212254720000004","10","-1","-1","","","","","","","","","","","","",""
"psychophysics","153","830700","0.0-12.0-0.24","60940e7600124bd7a1cb35f8","609a8bf73b2ac84e2732f618","609d729326f88f5240f980fd","367.47500000637956","","","","37","","","","key","16.665999999999954","676.5","381","true","1","131.06359756799998","2.5769803776000004","11","1","-1","","","","","","","","","","","","",""
"psychophysics","154","832097","0.0-12.0-0.25","60940e7600124bd7a1cb35f8","609a8bf73b2ac84e2732f618","609d729326f88f5240f980fd","395.554999995511","","","","37","","","","key","16.666000000000594","676.5","381","true","-1","133.64057794559997","2.5769803776000004","11","-1","1","","","","","","","","","","","","",""
"psychophysics","155","833445","0.0-12.0-0.26","60940e7600124bd7a1cb35f8","609a8bf73b2ac84e2732f618","609d729326f88f5240f980fd","346.7700000037439","","","","37","","","","key","16.66600000000035","676.5","381","true","-1","133.64057794559997","2.0615843020800004","12","-1","-1","","","","","","","","","","","","",""
"psychophysics","156","834862","0.0-12.0-0.27","60940e7600124bd7a1cb35f8","609a8bf73b2ac84e2732f618","609d729326f88f5240f980fd","415.3050000022631","","","","37","","","","key","16.66600000000021","676.5","381","true","-1","131.57899364351996","2.0615843020800004","12","-1","-1","","","","","","","","","","","","",""
"psychophysics","157","836244","0.0-12.0-0.28","60940e7600124bd7a1cb35f8","609a8bf73b2ac84e2732f618","609d729326f88f5240f980fd","381.82500000402797","","","","37","","","","key","16.666000000000988","676.5","381","true","-1","131.57899364351996","2.0615843020800004","12","-1","-1","","","","","","","","","","","","",""
"psychophysics","158","837643","0.0-12.0-0.29","60940e7600124bd7a1cb35f8","609a8bf73b2ac84e2732f618","609d729326f88f5240f980fd","397.37500000046566","","","","39","","","","key","16.666000000000594","676.5","381","true","1","129.51740934143996","2.0615843020800004","12","-1","-1","","","","","","","","","","","","",""
"psychophysics","159","839386","0.0-12.0-0.30","60940e7600124bd7a1cb35f8","609a8bf73b2ac84e2732f618","609d729326f88f5240f980fd","742.275000011432","","","","37","","","","key","16.668223300970215","676.5","381","true","-1","129.51740934143996","2.0615843020800004","12","-1","-1","","","","","","","","","","","","",""
"psychophysics","160","840765","0.0-12.0-0.31","60940e7600124bd7a1cb35f8","609a8bf73b2ac84e2732f618","609d729326f88f5240f980fd","377.5399999867659","","","","39","","","","key","16.665999999999567","676.5","381","true","1","129","2.0615843020800004","12","-1","-1","","","","","","","","","","","","",""
"psychophysics","161","842393","0.0-12.0-0.32","60940e7600124bd7a1cb35f8","609a8bf73b2ac84e2732f618","609d729326f88f5240f980fd","626.2549999955809","","","","37","","","","key","16.66600000000074","676.5","381","true","-1","129","2.0615843020800004","12","-1","-1","","","","","","","","","","","","",""
"psychophysics","162","843921","0.0-12.0-0.33","60940e7600124bd7a1cb35f8","609a8bf73b2ac84e2732f618","609d729326f88f5240f980fd","526.849999994738","","","","37","","","","key","16.666000000000317","676.5","381","true","-1","129","2.0615843020800004","12","-1","-1","","","","","","","","","","","","",""
"psychophysics","163","845474","0.0-12.0-0.34","60940e7600124bd7a1cb35f8","609a8bf73b2ac84e2732f618","609d729326f88f5240f980fd","552.2750000091037","","","","39","","","","key","16.66599999999997","676.5","381","true","1","129","2.0615843020800004","12","-1","-1","","","","","","","","","","","","",""
"psychophysics","164","846908","0.0-12.0-0.35","60940e7600124bd7a1cb35f8","609a8bf73b2ac84e2732f618","609d729326f88f5240f980fd","431.3699999911478","","","","37","","","","key","16.665999999999837","676.5","381","true","1","129","1.6492674416640005","13","1","-1","","","","","","","","","","","","",""
"psychophysics","165","849077","0.0-12.0-0.36","60940e7600124bd7a1cb35f8","609a8bf73b2ac84e2732f618","609d729326f88f5240f980fd","1168.390000006184","","","","37","","","","key","16.668341085271432","676.5","381","true","-1","130.649267441664","1.6492674416640005","13","-1","1","","","","","","","","","","","","",""
"psychophysics","166","850458","0.0-12.0-0.37","60940e7600124bd7a1cb35f8","609a8bf73b2ac84e2732f618","609d729326f88f5240f980fd","379.704999999376","","","","39","","","","key","16.665999999999567","676.5","381","true","1","130.649267441664","1.3194139533312006","14","-1","-1","","","","","","","","","","","","",""
"psychophysics","167","851875","0.0-12.0-0.38","60940e7600124bd7a1cb35f8","609a8bf73b2ac84e2732f618","609d729326f88f5240f980fd","416.31000000052154","","","","37","","","","key","16.66600000000021","676.5","381","true","1","129.3298534883328","1.0555311626649604","15","1","-1","","","","","","","","","","","","",""
"psychophysics","168","854040","0.0-12.0-0.39","60940e7600124bd7a1cb35f8","609a8bf73b2ac84e2732f618","609d729326f88f5240f980fd","1163.0200000072364","","","","39","","","","key","16.665999999999922","676.5","381","true","-1","130.38538465099774","1.0555311626649604","15","1","1","","","","","","","","","","","","",""
"html-keyboard-response","169","856386","0.0-13.0","60940e7600124bd7a1cb35f8","609a8bf73b2ac84e2732f618","609d729326f88f5240f980fd","2345.0250000023516","<p>Well Done !</p><p>Prepare for a new block.</p><p>DON'T EXIT THE FULL SCREEN MODE</p><p>Press the Spacebar to start.</p>","","","32","","","","","","","","","","","","","","","true","130.3658489922519","","","","","","","","","","",""
"html-keyboard-response","170","856489","0.0-14.0","60940e7600124bd7a1cb35f8","609a8bf73b2ac84e2732f618","609d729326f88f5240f980fd","null","","","","null","","","","","","","","","","","","","","","","","131.72529329081001","true","135.45058658162003","","","","","","","",""
"instructions","171","879550","0.0-15.0","60940e7600124bd7a1cb35f8","609a8bf73b2ac84e2732f618","609d729326f88f5240f980fd","23060.505000001285","","","","","","","[{""page_index"":0,""viewing_time"":16951.679999998305},{""page_index"":1,""viewing_time"":1875.5000000091968},{""page_index"":2,""viewing_time"":4232.844999991357}]","","","","","","","","","","","","","","","","","","","","","","","",""
"psychophysics","172","882339","0.0-16.0-0.0","60940e7600124bd7a1cb35f8","609a8bf73b2ac84e2732f618","609d729326f88f5240f980fd","null","","","","null","","","","key","16.7706595744685","676.5","381","","","","","","","","","","","","","","","","","","","",""
"psychophysics","173","882843","0.0-16.0-1.0","60940e7600124bd7a1cb35f8","609a8bf73b2ac84e2732f618","609d729326f88f5240f980fd","null","","","","null","","","","key","16.666000000000448","676.5","381","","","","","","","","","","","","","135","-1","0","false","","","",""
"psychophysics","174","884090","0.0-16.0-2.0","60940e7600124bd7a1cb35f8","609a8bf73b2ac84e2732f618","609d729326f88f5240f980fd","1244.4700000050943","","","","90","","","","key","16.665999999999798","676.5","381","","","","","","","","","","","","","","","","","","","",""
"psychophysics","175","885491","0.0-16.0-0.1","60940e7600124bd7a1cb35f8","609a8bf73b2ac84e2732f618","609d729326f88f5240f980fd","null","","","","null","","","","key","16.66599999999919","676.5","381","","","","","","","","","","","","","","","","","","","",""
"psychophysics","176","885995","0.0-16.0-1.1","60940e7600124bd7a1cb35f8","609a8bf73b2ac84e2732f618","609d729326f88f5240f980fd","null","","","","null","","","","key","16.665999999996437","676.5","381","","","","","","","","","","","","","135","1","2","false","","","",""
"psychophysics","177","886878","0.0-16.0-2.1","60940e7600124bd7a1cb35f8","609a8bf73b2ac84e2732f618","609d729326f88f5240f980fd","878.6050000053365","","","","77","","","","key","16.665999999999677","676.5","381","","","","","","","","","","","","","","","","","","","",""
"psychophysics","178","887773","0.0-16.0-0.2","60940e7600124bd7a1cb35f8","609a8bf73b2ac84e2732f618","609d729326f88f5240f980fd","null","","","","null","","","","key","16.666000000001283","676.5","381","","","","","","","","","","","","","","","","","","","",""
"psychophysics","179","888277","0.0-16.0-1.2","60940e7600124bd7a1cb35f8","609a8bf73b2ac84e2732f618","609d729326f88f5240f980fd","null","","","","null","","","","key","16.666000000000448","676.5","381","","","","","","","","","","","","","135","1","0","false","","","",""
"psychophysics","180","891701","0.0-16.0-2.2","60940e7600124bd7a1cb35f8","609a8bf73b2ac84e2732f618","609d729326f88f5240f980fd","3419.1500000015367","","","","90","","","","key","16.684697560975668","676.5","381","","","","","","","","","","","","","","","","","","","",""
"psychophysics","181","892433","0.0-16.0-0.3","60940e7600124bd7a1cb35f8","609a8bf73b2ac84e2732f618","609d729326f88f5240f980fd","null","","","","null","","","","key","16.666000000000825","676.5","381","","","","","","","","","","","","","","","","","","","",""
"psychophysics","182","892936","0.0-16.0-1.3","60940e7600124bd7a1cb35f8","609a8bf73b2ac84e2732f618","609d729326f88f5240f980fd","null","","","","null","","","","key","16.666000000000448","676.5","381","","","","","","","","","","","","","135","1","5","false","","","",""
"psychophysics","183","894004","0.0-16.0-2.3","60940e7600124bd7a1cb35f8","609a8bf73b2ac84e2732f618","609d729326f88f5240f980fd","1066.0849999985658","","","","77","","","","key","16.665999999999748","676.5","381","","","","","","","","","","","","","","","","","","","",""
"psychophysics","184","895286","0.0-16.0-0.4","60940e7600124bd7a1cb35f8","609a8bf73b2ac84e2732f618","609d729326f88f5240f980fd","null","","","","null","","","","key","16.66599999999897","676.5","381","","","","","","","","","","","","","","","","","","","",""
"psychophysics","185","895788","0.0-16.0-1.4","60940e7600124bd7a1cb35f8","609a8bf73b2ac84e2732f618","609d729326f88f5240f980fd","null","","","","null","","","","key","16.666000000000448","676.5","381","","","","","","","","","","","","","135","1","3","false","","","",""
"psychophysics","186","896363","0.0-16.0-2.4","60940e7600124bd7a1cb35f8","609a8bf73b2ac84e2732f618","609d729326f88f5240f980fd","573.210000002291","","","","77","","","","key","16.666000000000086","676.5","381","","","","","","","","","","","","","","","","","","","",""
"psychophysics","187","897193","0.0-16.0-0.5","60940e7600124bd7a1cb35f8","609a8bf73b2ac84e2732f618","609d729326f88f5240f980fd","null","","","","null","","","","key","16.665999999999222","676.5","381","","","","","","","","","","","","","","","","","","","",""
"psychophysics","188","897697","0.0-16.0-1.5","60940e7600124bd7a1cb35f8","609a8bf73b2ac84e2732f618","609d729326f88f5240f980fd","null","","","","null","","","","key","16.666000000000448","676.5","381","","","","","","","","","","","","","135","-1","3","false","","","",""
"psychophysics","189","898586","0.0-16.0-2.5","60940e7600124bd7a1cb35f8","609a8bf73b2ac84e2732f618","609d729326f88f5240f980fd","884.7450000030221","","","","90","","","","key","16.665999999999087","676.5","381","","","","","","","","","","","","","","","","","","","",""
"psychophysics","190","899734","0.0-16.0-0.6","60940e7600124bd7a1cb35f8","609a8bf73b2ac84e2732f618","609d729326f88f5240f980fd","null","","","","null","","","","key","16.666000000000864","676.5","381","","","","","","","","","","","","","","","","","","","",""
"psychophysics","191","900237","0.0-16.0-1.6","60940e7600124bd7a1cb35f8","609a8bf73b2ac84e2732f618","609d729326f88f5240f980fd","null","","","","null","","","","key","16.666000000000448","676.5","381","","","","","","","","","","","","","135","-1","6","false","","","",""
"psychophysics","192","900804","0.0-16.0-2.6","60940e7600124bd7a1cb35f8","609a8bf73b2ac84e2732f618","609d729326f88f5240f980fd","564.3200000049546","","","","77","","","","key","16.666000000000086","676.5","381","","","","","","","","","","","","","","","","","","","",""
"psychophysics","193","901526","0.0-16.0-0.7","60940e7600124bd7a1cb35f8","609a8bf73b2ac84e2732f618","609d729326f88f5240f980fd","null","","","","null","","","","key","16.665999999998824","676.5","381","","","","","","","","","","","","","","","","","","","",""
"psychophysics","194","902029","0.0-16.0-1.7","60940e7600124bd7a1cb35f8","609a8bf73b2ac84e2732f618","609d729326f88f5240f980fd","null","","","","null","","","","key","16.675448275861683","676.5","381","","","","","","","","","","","","","135","-1","5","false","","","",""
"psychophysics","195","902556","0.0-16.0-2.7","60940e7600124bd7a1cb35f8","609a8bf73b2ac84e2732f618","609d729326f88f5240f980fd","525.0299999897834","","","","77","","","","key","16.665999999998377","676.5","381","","","","","","","","","","","","","","","","","","","",""
"psychophysics","196","903979","0.0-16.0-0.8","60940e7600124bd7a1cb35f8","609a8bf73b2ac84e2732f618","609d729326f88f5240f980fd","null","","","","null","","","","key","16.66600000000021","676.5","381","","","","","","","","","","","","","","","","","","","",""
"psychophysics","197","904482","0.0-16.0-1.8","60940e7600124bd7a1cb35f8","609a8bf73b2ac84e2732f618","609d729326f88f5240f980fd","null","","","","null","","","","key","16.665999999996437","676.5","381","","","","","","","","","","","","","135","1","6","false","","","",""
"psychophysics","198","905105","0.0-16.0-2.8","60940e7600124bd7a1cb35f8","609a8bf73b2ac84e2732f618","609d729326f88f5240f980fd","619.1499999986263","","","","77","","","","key","16.665999999999798","676.5","381","","","","","","","","","","","","","","","","","","","",""
"psychophysics","199","906579","0.0-16.0-0.9","60940e7600124bd7a1cb35f8","609a8bf73b2ac84e2732f618","609d729326f88f5240f980fd","null","","","","null","","","","key","16.666000000000448","676.5","381","","","","","","","","","","","","","","","","","","","",""
"psychophysics","200","907082","0.0-16.0-1.9","60940e7600124bd7a1cb35f8","609a8bf73b2ac84e2732f618","609d729326f88f5240f980fd","null","","","","null","","","","key","16.666000000000448","676.5","381","","","","","","","","","","","","","135","-1","2","false","","","",""
"psychophysics","201","907656","0.0-16.0-2.9","60940e7600124bd7a1cb35f8","609a8bf73b2ac84e2732f618","609d729326f88f5240f980fd","569.2149999958929","","","","90","","","","key","16.66599999999915","676.5","381","","","","","","","","","","","","","","","","","","","",""
"psychophysics","202","908632","0.0-16.0-0.10","60940e7600124bd7a1cb35f8","609a8bf73b2ac84e2732f618","609d729326f88f5240f980fd","null","","","","null","","","","key","16.66599999999844","676.5","381","","","","","","","","","","","","","","","","","","","",""
"psychophysics","203","909135","0.0-16.0-1.10","60940e7600124bd7a1cb35f8","609a8bf73b2ac84e2732f618","609d729326f88f5240f980fd","null","","","","null","","","","key","16.666000000000448","676.5","381","","","","","","","","","","","","","135","-1","4","false","","","",""
"psychophysics","204","909648","0.0-16.0-2.10","60940e7600124bd7a1cb35f8","609a8bf73b2ac84e2732f618","609d729326f88f5240f980fd","510.8299999992596","","","","77","","","","key","16.666000000000448","676.5","381","","","","","","","","","","","","","","","","","","","",""
"psychophysics","205","910331","0.0-16.0-0.11","60940e7600124bd7a1cb35f8","609a8bf73b2ac84e2732f618","609d729326f88f5240f980fd","null","","","","null","","","","key","16.66600000000035","676.5","381","","","","","","","","","","","","","","","","","","","",""
"psychophysics","206","910832","0.0-16.0-1.11","60940e7600124bd7a1cb35f8","609a8bf73b2ac84e2732f618","609d729326f88f5240f980fd","null","","","","null","","","","key","16.66599999999938","676.5","381","","","","","","","","","","","","","135","1","4","false","","","",""
"psychophysics","207","911254","0.0-16.0-2.11","60940e7600124bd7a1cb35f8","609a8bf73b2ac84e2732f618","609d729326f88f5240f980fd","419.47999999683816","","","","77","","","","key","16.66599999999744","676.5","381","","","","","","","","","","","","","","","","","","","",""
"psychophysics","208","912498","0.0-16.0-0.12","60940e7600124bd7a1cb35f8","609a8bf73b2ac84e2732f618","609d729326f88f5240f980fd","null","","","","null","","","","key","16.670739726027893","676.5","381","","","","","","","","","","","","","","","","","","","",""
"psychophysics","209","913000","0.0-16.0-1.12","60940e7600124bd7a1cb35f8","609a8bf73b2ac84e2732f618","609d729326f88f5240f980fd","null","","","","null","","","","key","16.666000000003258","676.5","381","","","","","","","","","","","","","135","1","2","false","","","",""
"psychophysics","210","913580","0.0-16.0-2.12","60940e7600124bd7a1cb35f8","609a8bf73b2ac84e2732f618","609d729326f88f5240f980fd","578.0200000008335","","","","90","","","","key","16.666000000000086","676.5","381","","","","","","","","","","","","","","","","","","","",""
"psychophysics","211","914614","0.0-16.0-0.13","60940e7600124bd7a1cb35f8","609a8bf73b2ac84e2732f618","609d729326f88f5240f980fd","null","","","","null","","","","key","16.66600000000078","676.5","381","","","","","","","","","","","","","","","","","","","",""
"psychophysics","212","915116","0.0-16.0-1.13","60940e7600124bd7a1cb35f8","609a8bf73b2ac84e2732f618","609d729326f88f5240f980fd","null","","","","null","","","","key","16.66599999999938","676.5","381","","","","","","","","","","","","","135","1","4","false","","","",""
"psychophysics","213","915653","0.0-16.0-2.13","60940e7600124bd7a1cb35f8","609a8bf73b2ac84e2732f618","609d729326f88f5240f980fd","534.6799999970244","","","","77","","","","key","16.666000000002132","676.5","381","","","","","","","","","","","","","","","","","","","",""
"psychophysics","214","916450","0.0-16.0-0.14","60940e7600124bd7a1cb35f8","609a8bf73b2ac84e2732f618","609d729326f88f5240f980fd","null","","","","null","","","","key","16.666000000000533","676.5","381","","","","","","","","","","","","","","","","","","","",""
"psychophysics","215","916952","0.0-16.0-1.14","60940e7600124bd7a1cb35f8","609a8bf73b2ac84e2732f618","609d729326f88f5240f980fd","null","","","","null","","","","key","16.666000000000448","676.5","381","","","","","","","","","","","","","135","1","6","false","","","",""
"psychophysics","216","917397","0.0-16.0-2.14","60940e7600124bd7a1cb35f8","609a8bf73b2ac84e2732f618","609d729326f88f5240f980fd","442.5550000014482","","","","77","","","","key","16.66600000000093","676.5","381","","","","","","","","","","","","","","","","","","","",""
"psychophysics","217","918149","0.0-16.0-0.15","60940e7600124bd7a1cb35f8","609a8bf73b2ac84e2732f618","609d729326f88f5240f980fd","null","","","","null","","","","key","16.666000000001965","676.5","381","","","","","","","","","","","","","","","","","","","",""
"psychophysics","218","918652","0.0-16.0-1.15","60940e7600124bd7a1cb35f8","609a8bf73b2ac84e2732f618","609d729326f88f5240f980fd","null","","","","null","","","","key","16.666000000000448","676.5","381","","","","","","","","","","","","","135","1","0","false","","","",""
"psychophysics","219","919050","0.0-16.0-2.15","60940e7600124bd7a1cb35f8","609a8bf73b2ac84e2732f618","609d729326f88f5240f980fd","396.22500000405125","","","","77","","","","key","16.665999999998704","676.5","381","","","","","","","","","","","","","","","","","","","",""
"psychophysics","220","920526","0.0-16.0-0.16","60940e7600124bd7a1cb35f8","609a8bf73b2ac84e2732f618","609d729326f88f5240f980fd","null","","","","null","","","","key","16.665999999999112","676.5","381","","","","","","","","","","","","","","","","","","","",""
"psychophysics","221","921028","0.0-16.0-1.16","60940e7600124bd7a1cb35f8","609a8bf73b2ac84e2732f618","609d729326f88f5240f980fd","null","","","","null","","","","key","16.666000000000448","676.5","381","","","","","","","","","","","","","135","1","3","false","","","",""
"psychophysics","222","921586","0.0-16.0-2.16","60940e7600124bd7a1cb35f8","609a8bf73b2ac84e2732f618","609d729326f88f5240f980fd","555.8549999987008","","","","90","","","","key","16.666000000000086","676.5","381","","","","","","","","","","","","","","","","","","","",""
"psychophysics","223","923597","0.0-16.0-0.17","60940e7600124bd7a1cb35f8","609a8bf73b2ac84e2732f618","609d729326f88f5240f980fd","null","","","","null","","","","key","16.669109756097185","676.5","381","","","","","","","","","","","","","","","","","","","",""
"psychophysics","224","924100","0.0-16.0-1.17","60940e7600124bd7a1cb35f8","609a8bf73b2ac84e2732f618","609d729326f88f5240f980fd","null","","","","null","","","","key","21.0517894736871","676.5","381","","","","","","","","","","","","","135","1","5","false","","","",""
"psychophysics","225","925366","0.0-16.0-2.17","60940e7600124bd7a1cb35f8","609a8bf73b2ac84e2732f618","609d729326f88f5240f980fd","1263.5450000088895","","","","77","","","","key","16.665999999999933","676.5","381","","","","","","","","","","","","","","","","","","","",""
"psychophysics","226","926398","0.0-16.0-0.18","60940e7600124bd7a1cb35f8","609a8bf73b2ac84e2732f618","609d729326f88f5240f980fd","null","","","","null","","","","key","16.66599999999887","676.5","381","","","","","","","","","","","","","","","","","","","",""
"psychophysics","227","926901","0.0-16.0-1.18","60940e7600124bd7a1cb35f8","609a8bf73b2ac84e2732f618","609d729326f88f5240f980fd","null","","","","null","","","","key","16.666000000000448","676.5","381","","","","","","","","","","","","","135","-1","5","false","","","",""
"psychophysics","228","927355","0.0-16.0-2.18","60940e7600124bd7a1cb35f8","609a8bf73b2ac84e2732f618","609d729326f88f5240f980fd","452.1400000085123","","","","77","","","","key","16.665999999999677","676.5","381","","","","","","","","","","","","","","","","","","","",""
"psychophysics","229","928264","0.0-16.0-0.19","60940e7600124bd7a1cb35f8","609a8bf73b2ac84e2732f618","609d729326f88f5240f980fd","null","","","","null","","","","key","16.665999999999087","676.5","381","","","","","","","","","","","","","","","","","","","",""
"psychophysics","230","928766","0.0-16.0-1.19","60940e7600124bd7a1cb35f8","609a8bf73b2ac84e2732f618","609d729326f88f5240f980fd","null","","","","null","","","","key","16.66599999999938","676.5","381","","","","","","","","","","","","","135","-1","4","false","","","",""
"psychophysics","231","929189","0.0-16.0-2.19","60940e7600124bd7a1cb35f8","609a8bf73b2ac84e2732f618","609d729326f88f5240f980fd","421.0200000088662","","","","77","","","","key","16.665999999998704","676.5","381","","","","","","","","","","","","","","","","","","","",""
"psychophysics","232","930671","0.0-16.0-0.20","60940e7600124bd7a1cb35f8","609a8bf73b2ac84e2732f618","609d729326f88f5240f980fd","null","","","","null","","","","key","16.665999999999727","676.5","381","","","","","","","","","","","","","","","","","","","",""
"psychophysics","233","931173","0.0-16.0-1.20","60940e7600124bd7a1cb35f8","609a8bf73b2ac84e2732f618","609d729326f88f5240f980fd","null","","","","null","","","","key","16.666000000000448","676.5","381","","","","","","","","","","","","","135","-1","6","false","","","",""
"psychophysics","234","931586","0.0-16.0-2.20","60940e7600124bd7a1cb35f8","609a8bf73b2ac84e2732f618","609d729326f88f5240f980fd","411.0050000017509","","","","77","","","","key","16.66600000000229","676.5","381","","","","","","","","","","","","","","","","","","","",""
"psychophysics","235","932748","0.0-16.0-0.21","60940e7600124bd7a1cb35f8","609a8bf73b2ac84e2732f618","609d729326f88f5240f980fd","null","","","","null","","","","key","16.669855072463363","676.5","381","","","","","","","","","","","","","","","","","","","",""
"psychophysics","236","933250","0.0-16.0-1.21","60940e7600124bd7a1cb35f8","609a8bf73b2ac84e2732f618","609d729326f88f5240f980fd","null","","","","null","","","","key","16.665999999996437","676.5","381","","","","","","","","","","","","","135","-1","2","false","","","",""
"psychophysics","237","933721","0.0-16.0-2.21","60940e7600124bd7a1cb35f8","609a8bf73b2ac84e2732f618","609d729326f88f5240f980fd","469.4949999975506","","","","90","","","","key","16.665999999998515","676.5","381","","","","","","","","","","","","","","","","","","","",""
"psychophysics","238","934430","0.0-16.0-0.22","60940e7600124bd7a1cb35f8","609a8bf73b2ac84e2732f618","609d729326f88f5240f980fd","null","","","","null","","","","key","16.665999999999567","676.5","381","","","","","","","","","","","","","","","","","","","",""
"psychophysics","239","934932","0.0-16.0-1.22","60940e7600124bd7a1cb35f8","609a8bf73b2ac84e2732f618","609d729326f88f5240f980fd","null","","","","null","","","","key","16.66599999999938","676.5","381","","","","","","","","","","","","","135","-1","0","false","","","",""
"psychophysics","240","935422","0.0-16.0-2.22","60940e7600124bd7a1cb35f8","609a8bf73b2ac84e2732f618","609d729326f88f5240f980fd","487.6399999920977","","","","77","","","","key","16.666000000001596","676.5","381","","","","","","","","","","","","","","","","","","","",""
"psychophysics","241","936650","0.0-16.0-0.23","60940e7600124bd7a1cb35f8","609a8bf73b2ac84e2732f618","609d729326f88f5240f980fd","null","","","","null","","","","key","16.66600000000023","676.5","381","","","","","","","","","","","","","","","","","","","",""
"psychophysics","242","937152","0.0-16.0-1.23","60940e7600124bd7a1cb35f8","609a8bf73b2ac84e2732f618","609d729326f88f5240f980fd","null","","","","null","","","","key","16.666000000000448","676.5","381","","","","","","","","","","","","","135","-1","3","false","","","",""
"psychophysics","243","937635","0.0-16.0-2.23","60940e7600124bd7a1cb35f8","609a8bf73b2ac84e2732f618","609d729326f88f5240f980fd","481.4299999998184","","","","90","","","","key","16.666000000001596","676.5","381","","","","","","","","","","","","","","","","","","","",""
"html-keyboard-response","244","942452","0.0-17.0","60940e7600124bd7a1cb35f8","609a8bf73b2ac84e2732f618","609d729326f88f5240f980fd","4815.710000009858","<p>Well Done !</p><p>Training Complete. Press the spacebar to start.</p><p>DON'T EXIT THE FULL SCREEN MODE</p>","","","32","","","","","","","","","","","","","","","","","","","","","","","","","","",""
"psychophysics","245","945123","0.0-18.0-0.0","60940e7600124bd7a1cb35f8","609a8bf73b2ac84e2732f618","609d729326f88f5240f980fd","null","","","","null","","","","key","16.673024999999324","676.5","381","","","","","","","","","","","","","","","","","","","",""
"psychophysics","246","945625","0.0-18.0-1.0","60940e7600124bd7a1cb35f8","609a8bf73b2ac84e2732f618","609d729326f88f5240f980fd","null","","","","null","","","","key","16.666000000000448","676.5","381","","","","","","","","","","","","","135","1","6","true","","","",""
"psychophysics","247","946049","0.0-18.0-2.0","60940e7600124bd7a1cb35f8","609a8bf73b2ac84e2732f618","609d729326f88f5240f980fd","421.38500000874046","","","","77","","","","key","16.66600000000093","676.5","381","","","","","","","","","","","","","","","","","","","",""
"psychophysics","248","947495","0.0-18.0-0.1","60940e7600124bd7a1cb35f8","609a8bf73b2ac84e2732f618","609d729326f88f5240f980fd","null","","","","null","","","","key","16.665999999999837","676.5","381","","","","","","","","","","","","","","","","","","","",""
"psychophysics","249","947997","0.0-18.0-1.1","60940e7600124bd7a1cb35f8","609a8bf73b2ac84e2732f618","609d729326f88f5240f980fd","null","","","","null","","","","key","16.666000000000448","676.5","381","","","","","","","","","","","","","135","1","4","true","","","",""
"psychophysics","250","948198","0.0-18.0-2.1","60940e7600124bd7a1cb35f8","609a8bf73b2ac84e2732f618","609d729326f88f5240f980fd","197.42500000575092","","","","77","","","","key","16.66599999999744","676.5","381","","","","","","","","","","","","","","","","","","","",""
"psychophysics","251","949014","0.0-18.0-0.2","60940e7600124bd7a1cb35f8","609a8bf73b2ac84e2732f618","609d729326f88f5240f980fd","null","","","","null","","","","key","16.666000000000533","676.5","381","","","","","","","","","","","","","","","","","","","",""
"psychophysics","252","949515","0.0-18.0-1.2","60940e7600124bd7a1cb35f8","609a8bf73b2ac84e2732f618","609d729326f88f5240f980fd","null","","","","null","","","","key","16.66599999999938","676.5","381","","","","","","","","","","","","","135","-1","6","true","","","",""
"psychophysics","253","950151","0.0-18.0-2.2","60940e7600124bd7a1cb35f8","609a8bf73b2ac84e2732f618","609d729326f88f5240f980fd","633.5899999976391","","","","77","","","","key","16.665999999999798","676.5","381","","","","","","","","","","","","","","","","","","","",""
"psychophysics","254","951331","0.0-18.0-0.3","60940e7600124bd7a1cb35f8","609a8bf73b2ac84e2732f618","609d729326f88f5240f980fd","null","","","","null","","","","key","16.66600000000039","676.5","381","","","","","","","","","","","","","","","","","","","",""
"psychophysics","255","951832","0.0-18.0-1.3","60940e7600124bd7a1cb35f8","609a8bf73b2ac84e2732f618","609d729326f88f5240f980fd","null","","","","null","","","","key","16.66599999999938","676.5","381","","","","","","","","","","","","","135","-1","5","true","","","",""
"psychophysics","256","952258","0.0-18.0-2.3","60940e7600124bd7a1cb35f8","609a8bf73b2ac84e2732f618","609d729326f88f5240f980fd","423.46000000543427","","","","77","","","","key","16.66600000000229","676.5","381","","","","","","","","","","","","","","","","","","","",""
"psychophysics","257","953544","0.0-18.0-0.4","60940e7600124bd7a1cb35f8","609a8bf73b2ac84e2732f618","609d729326f88f5240f980fd","null","","","","null","","","","key","16.598428571428922","676.5","381","","","","","","","","","","","","","","","","","","","",""
"psychophysics","258","954046","0.0-18.0-1.4","60940e7600124bd7a1cb35f8","609a8bf73b2ac84e2732f618","609d729326f88f5240f980fd","null","","","","null","","","","key","16.666000000000448","676.5","381","","","","","","","","","","","","","135","1","2","true","","","",""
"psychophysics","259","954482","0.0-18.0-2.4","60940e7600124bd7a1cb35f8","609a8bf73b2ac84e2732f618","609d729326f88f5240f980fd","434.7799999959534","","","","90","","","","key","16.66600000000093","676.5","381","","","","","","","","","","","","","","","","","","","",""
"psychophysics","260","955029","0.0-18.0-0.5","60940e7600124bd7a1cb35f8","609a8bf73b2ac84e2732f618","609d729326f88f5240f980fd","null","","","","null","","","","key","16.666000000001077","676.5","381","","","","","","","","","","","","","","","","","","","",""
"psychophysics","261","955531","0.0-18.0-1.5","60940e7600124bd7a1cb35f8","609a8bf73b2ac84e2732f618","609d729326f88f5240f980fd","null","","","","null","","","","key","16.666000000000448","676.5","381","","","","","","","","","","","","","135","1","3","true","","","",""
"psychophysics","262","957540","0.0-18.0-2.5","60940e7600124bd7a1cb35f8","609a8bf73b2ac84e2732f618","609d729326f88f5240f980fd","2007.4449999956414","","","","90","","","","key","16.66599999999964","676.5","381","","","","","","","","","","","","","","","","","","","",""
"psychophysics","263","958080","0.0-18.0-0.6","60940e7600124bd7a1cb35f8","609a8bf73b2ac84e2732f618","609d729326f88f5240f980fd","null","","","","null","","","","key","16.666000000001077","676.5","381","","","","","","","","","","","","","","","","","","","",""
"psychophysics","264","958581","0.0-18.0-1.6","60940e7600124bd7a1cb35f8","609a8bf73b2ac84e2732f618","609d729326f88f5240f980fd","null","","","","null","","","","key","16.666000000000448","676.5","381","","","","","","","","","","","","","135","1","0","true","","","",""
"psychophysics","265","959157","0.0-18.0-2.6","60940e7600124bd7a1cb35f8","609a8bf73b2ac84e2732f618","609d729326f88f5240f980fd","573.0949999997392","","","","90","","","","key","16.666000000000086","676.5","381","","","","","","","","","","","","","","","","","","","",""
"psychophysics","266","959851","0.0-18.0-0.7","60940e7600124bd7a1cb35f8","609a8bf73b2ac84e2732f618","609d729326f88f5240f980fd","null","","","","null","","","","key","16.665999999999567","676.5","381","","","","","","","","","","","","","","","","","","","",""
"psychophysics","267","960355","0.0-18.0-1.7","60940e7600124bd7a1cb35f8","609a8bf73b2ac84e2732f618","609d729326f88f5240f980fd","null","","","","null","","","","key","16.666000000000448","676.5","381","","","","","","","","","","","","","135","-1","3","true","","","",""
"psychophysics","268","960829","0.0-18.0-2.7","60940e7600124bd7a1cb35f8","609a8bf73b2ac84e2732f618","609d729326f88f5240f980fd","472.70500000740867","","","","90","","","","key","16.666000000001596","676.5","381","","","","","","","","","","","","","","","","","","","",""
"psychophysics","269","961422","0.0-18.0-0.8","60940e7600124bd7a1cb35f8","609a8bf73b2ac84e2732f618","609d729326f88f5240f980fd","null","","","","null","","","","key","16.66599999999915","676.5","381","","","","","","","","","","","","","","","","","","","",""
"psychophysics","270","961924","0.0-18.0-1.8","60940e7600124bd7a1cb35f8","609a8bf73b2ac84e2732f618","609d729326f88f5240f980fd","null","","","","null","","","","key","16.665999999996437","676.5","381","","","","","","","","","","","","","135","-1","0","true","","","",""
"psychophysics","271","962231","0.0-18.0-2.8","60940e7600124bd7a1cb35f8","609a8bf73b2ac84e2732f618","609d729326f88f5240f980fd","302.7600000059465","","","","77","","","","key","16.666000000000672","676.5","381","","","","","","","","","","","","","","","","","","","",""
"psychophysics","272","963023","0.0-18.0-0.9","60940e7600124bd7a1cb35f8","609a8bf73b2ac84e2732f618","609d729326f88f5240f980fd","null","","","","null","","","","key","16.67156521739114","676.5","381","","","","","","","","","","","","","","","","","","","",""
"psychophysics","273","963525","0.0-18.0-1.9","60940e7600124bd7a1cb35f8","609a8bf73b2ac84e2732f618","609d729326f88f5240f980fd","null","","","","null","","","","key","16.66599999999938","676.5","381","","","","","","","","","","","","","135","-1","2","true","","","",""
"psychophysics","274","964488","0.0-18.0-2.9","60940e7600124bd7a1cb35f8","609a8bf73b2ac84e2732f618","609d729326f88f5240f980fd","960.1549999933923","","","","77","","","","key","16.665999999999517","676.5","381","","","","","","","","","","","","","","","","","","","",""
"psychophysics","275","965531","0.0-18.0-0.10","60940e7600124bd7a1cb35f8","609a8bf73b2ac84e2732f618","609d729326f88f5240f980fd","null","","","","null","","","","key","16.666000000000256","676.5","381","","","","","","","","","","","","","","","","","","","",""
"psychophysics","276","966033","0.0-18.0-1.10","60940e7600124bd7a1cb35f8","609a8bf73b2ac84e2732f618","609d729326f88f5240f980fd","null","","","","null","","","","key","16.666000000000448","676.5","381","","","","","","","","","","","","","135","1","5","true","","","",""
"psychophysics","277","966414","0.0-18.0-2.10","60940e7600124bd7a1cb35f8","609a8bf73b2ac84e2732f618","609d729326f88f5240f980fd","378.4400000004098","","","","77","","","","key","16.666000000000086","676.5","381","","","","","","","","","","","","","","","","","","","",""
"psychophysics","278","967541","0.0-18.0-0.11","60940e7600124bd7a1cb35f8","609a8bf73b2ac84e2732f618","609d729326f88f5240f980fd","null","","","","null","","","","key","16.666000000000086","676.5","381","","","","","","","","","","","","","","","","","","","",""
"psychophysics","279","968043","0.0-18.0-1.11","60940e7600124bd7a1cb35f8","609a8bf73b2ac84e2732f618","609d729326f88f5240f980fd","null","","","","null","","","","key","16.66599999999938","676.5","381","","","","","","","","","","","","","135","-1","4","true","","","",""
"psychophysics","280","968354","0.0-18.0-2.11","60940e7600124bd7a1cb35f8","609a8bf73b2ac84e2732f618","609d729326f88f5240f980fd","309.63999999221414","","","","77","","","","key","16.666000000002576","676.5","381","","","","","","","","","","","","","","","","","","","",""
"psychophysics","281","968993","0.0-18.0-0.12","60940e7600124bd7a1cb35f8","609a8bf73b2ac84e2732f618","609d729326f88f5240f980fd","null","","","","null","","","","key","16.666000000002033","676.5","381","","","","","","","","","","","","","","","","","","","",""
"psychophysics","282","969496","0.0-18.0-1.12","60940e7600124bd7a1cb35f8","609a8bf73b2ac84e2732f618","609d729326f88f5240f980fd","null","","","","null","","","","key","16.666000000000448","676.5","381","","","","","","","","","","","","","135","-1","6","true","","","",""
"psychophysics","283","970012","0.0-18.0-2.12","60940e7600124bd7a1cb35f8","609a8bf73b2ac84e2732f618","609d729326f88f5240f980fd","515.1699999987613","","","","77","","","","key","16.66599999999938","676.5","381","","","","","","","","","","","","","","","","","","","",""
"psychophysics","284","971289","0.0-18.0-0.13","60940e7600124bd7a1cb35f8","609a8bf73b2ac84e2732f618","609d729326f88f5240f980fd","null","","","","null","","","","key","16.66600000000093","676.5","381","","","","","","","","","","","","","","","","","","","",""
"psychophysics","285","971791","0.0-18.0-1.13","60940e7600124bd7a1cb35f8","609a8bf73b2ac84e2732f618","609d729326f88f5240f980fd","null","","","","null","","","","key","16.666000000000448","676.5","381","","","","","","","","","","","","","135","1","2","true","","","",""
"psychophysics","286","972200","0.0-18.0-2.13","60940e7600124bd7a1cb35f8","609a8bf73b2ac84e2732f618","609d729326f88f5240f980fd","404.05499999178573","","","","90","","","","key","16.66600000000229","676.5","381","","","","","","","","","","","","","","","","","","","",""
"psychophysics","287","973159","0.0-18.0-0.14","60940e7600124bd7a1cb35f8","609a8bf73b2ac84e2732f618","609d729326f88f5240f980fd","null","","","","null","","","","key","16.67154385964999","676.5","381","","","","","","","","","","","","","","","","","","","",""
"psychophysics","288","973661","0.0-18.0-1.14","60940e7600124bd7a1cb35f8","609a8bf73b2ac84e2732f618","609d729326f88f5240f980fd","null","","","","null","","","","key","16.666000000000448","676.5","381","","","","","","","","","","","","","135","-1","4","true","","","",""
"psychophysics","289","974047","0.0-18.0-2.14","60940e7600124bd7a1cb35f8","609a8bf73b2ac84e2732f618","609d729326f88f5240f980fd","382.46999999682885","","","","77","","","","key","16.666000000000086","676.5","381","","","","","","","","","","","","","","","","","","","",""
"psychophysics","290","974880","0.0-18.0-0.15","60940e7600124bd7a1cb35f8","609a8bf73b2ac84e2732f618","609d729326f88f5240f980fd","null","","","","null","","","","key","16.666000000001596","676.5","381","","","","","","","","","","","","","","","","","","","",""
"psychophysics","291","975382","0.0-18.0-1.15","60940e7600124bd7a1cb35f8","609a8bf73b2ac84e2732f618","609d729326f88f5240f980fd","null","","","","null","","","","key","16.666000000000448","676.5","381","","","","","","","","","","","","","135","1","5","true","","","",""
"psychophysics","292","975780","0.0-18.0-2.15","60940e7600124bd7a1cb35f8","609a8bf73b2ac84e2732f618","609d729326f88f5240f980fd","396.77999999548774","","","","77","","","","key","16.665999999998704","676.5","381","","","","","","","","","","","","","","","","","","","",""
"psychophysics","293","976424","0.0-18.0-0.16","60940e7600124bd7a1cb35f8","609a8bf73b2ac84e2732f618","609d729326f88f5240f980fd","null","","","","null","","","","key","16.665999999999798","676.5","381","","","","","","","","","","","","","","","","","","","",""
"psychophysics","294","976926","0.0-18.0-1.16","60940e7600124bd7a1cb35f8","609a8bf73b2ac84e2732f618","609d729326f88f5240f980fd","null","","","","null","","","","key","16.66599999999938","676.5","381","","","","","","","","","","","","","135","-1","5","true","","","",""
"psychophysics","295","977340","0.0-18.0-2.16","60940e7600124bd7a1cb35f8","609a8bf73b2ac84e2732f618","609d729326f88f5240f980fd","411.62500000791624","","","","77","","","","key","16.666000000003766","676.5","381","","","","","","","","","","","","","","","","","","","",""
"psychophysics","296","978169","0.0-18.0-0.17","60940e7600124bd7a1cb35f8","609a8bf73b2ac84e2732f618","609d729326f88f5240f980fd","null","","","","null","","","","key","16.665999999999222","676.5","381","","","","","","","","","","","","","","","","","","","",""
"psychophysics","297","978673","0.0-18.0-1.17","60940e7600124bd7a1cb35f8","609a8bf73b2ac84e2732f618","609d729326f88f5240f980fd","null","","","","null","","","","key","16.665999999996437","676.5","381","","","","","","","","","","","","","135","-1","2","true","","","",""
"psychophysics","298","979148","0.0-18.0-2.17","60940e7600124bd7a1cb35f8","609a8bf73b2ac84e2732f618","609d729326f88f5240f980fd","472.59499999927357","","","","90","","","","key","16.66599999999744","676.5","381","","","","","","","","","","","","","","","","","","","",""
"psychophysics","299","980245","0.0-18.0-0.18","60940e7600124bd7a1cb35f8","609a8bf73b2ac84e2732f618","609d729326f88f5240f980fd","null","","","","null","","","","key","16.665999999998782","676.5","381","","","","","","","","","","","","","","","","","","","",""
"psychophysics","300","980746","0.0-18.0-1.18","60940e7600124bd7a1cb35f8","609a8bf73b2ac84e2732f618","609d729326f88f5240f980fd","null","","","","null","","","","key","16.665999999996437","676.5","381","","","","","","","","","","","","","135","1","6","true","","","",""
"psychophysics","301","981085","0.0-18.0-2.18","60940e7600124bd7a1cb35f8","609a8bf73b2ac84e2732f618","609d729326f88f5240f980fd","336.3099999987753","","","","77","","","","key","16.66599999999897","676.5","381","","","","","","","","","","","","","","","","","","","",""
"psychophysics","302","981757","0.0-18.0-0.19","60940e7600124bd7a1cb35f8","609a8bf73b2ac84e2732f618","609d729326f88f5240f980fd","null","","","","null","","","","key","16.66600000000117","676.5","381","","","","","","","","","","","","","","","","","","","",""
"psychophysics","303","982260","0.0-18.0-1.19","60940e7600124bd7a1cb35f8","609a8bf73b2ac84e2732f618","609d729326f88f5240f980fd","null","","","","null","","","","key","16.66599999999938","676.5","381","","","","","","","","","","","","","135","1","3","true","","","",""
"psychophysics","304","982798","0.0-18.0-2.19","60940e7600124bd7a1cb35f8","609a8bf73b2ac84e2732f618","609d729326f88f5240f980fd","536.2350000068545","","","","90","","","","key","16.672322580647172","676.5","381","","","","","","","","","","","","","","","","","","","",""
"psychophysics","305","983789","0.0-18.0-0.20","60940e7600124bd7a1cb35f8","609a8bf73b2ac84e2732f618","609d729326f88f5240f980fd","null","","","","null","","","","key","16.666000000000448","676.5","381","","","","","","","","","","","","","","","","","","","",""
"psychophysics","306","984291","0.0-18.0-1.20","60940e7600124bd7a1cb35f8","609a8bf73b2ac84e2732f618","609d729326f88f5240f980fd","null","","","","null","","","","key","16.666000000000448","676.5","381","","","","","","","","","","","","","135","-1","3","true","","","",""
"psychophysics","307","984791","0.0-18.0-2.20","60940e7600124bd7a1cb35f8","609a8bf73b2ac84e2732f618","609d729326f88f5240f980fd","495.7849999918835","","","","77","","","","key","16.666000000000448","676.5","381","","","","","","","","","","","","","","","","","","","",""
"psychophysics","308","985513","0.0-18.0-0.21","60940e7600124bd7a1cb35f8","609a8bf73b2ac84e2732f618","609d729326f88f5240f980fd","null","","","","null","","","","key","16.665999999998117","676.5","381","","","","","","","","","","","","","","","","","","","",""
"psychophysics","309","986016","0.0-18.0-1.21","60940e7600124bd7a1cb35f8","609a8bf73b2ac84e2732f618","609d729326f88f5240f980fd","null","","","","null","","","","key","16.665999999996437","676.5","381","","","","","","","","","","","","","135","1","4","true","","","",""
"psychophysics","310","986582","0.0-18.0-2.21","60940e7600124bd7a1cb35f8","609a8bf73b2ac84e2732f618","609d729326f88f5240f980fd","564.8150000051828","","","","77","","","","key","16.666000000000086","676.5","381","","","","","","","","","","","","","","","","","","","",""
"psychophysics","311","987208","0.0-18.0-0.22","60940e7600124bd7a1cb35f8","609a8bf73b2ac84e2732f618","609d729326f88f5240f980fd","null","","","","null","","","","key","16.665999999999798","676.5","381","","","","","","","","","","","","","","","","","","","",""
"psychophysics","312","987715","0.0-18.0-1.22","60940e7600124bd7a1cb35f8","609a8bf73b2ac84e2732f618","609d729326f88f5240f980fd","null","","","","null","","","","key","16.666000000000448","676.5","381","","","","","","","","","","","","","135","-1","0","true","","","",""
"psychophysics","313","988395","0.0-18.0-2.22","60940e7600124bd7a1cb35f8","609a8bf73b2ac84e2732f618","609d729326f88f5240f980fd","675.5800000100862","","","","77","","","","key","16.66600000000035","676.5","381","","","","","","","","","","","","","","","","","","","",""
"psychophysics","314","989308","0.0-18.0-0.23","60940e7600124bd7a1cb35f8","609a8bf73b2ac84e2732f618","609d729326f88f5240f980fd","null","","","","null","","","","key","16.665999999998515","676.5","381","","","","","","","","","","","","","","","","","","","",""
"psychophysics","315","989809","0.0-18.0-1.23","60940e7600124bd7a1cb35f8","609a8bf73b2ac84e2732f618","609d729326f88f5240f980fd","null","","","","null","","","","key","16.665999999996437","676.5","381","","","","","","","","","","","","","135","1","0","true","","","",""
"psychophysics","316","990198","0.0-18.0-2.23","60940e7600124bd7a1cb35f8","609a8bf73b2ac84e2732f618","609d729326f88f5240f980fd","386.4049999974668","","","","77","","","","key","16.666000000000086","676.5","381","","","","","","","","","","","","","","","","","","","",""
"psychophysics","317","991261","0.0-18.0-0.24","60940e7600124bd7a1cb35f8","609a8bf73b2ac84e2732f618","609d729326f88f5240f980fd","null","","","","null","","","","key","16.665999999999748","676.5","381","","","","","","","","","","","","","","","","","","","",""
"psychophysics","318","991763","0.0-18.0-1.24","60940e7600124bd7a1cb35f8","609a8bf73b2ac84e2732f618","609d729326f88f5240f980fd","null","","","","null","","","","key","16.666000000000448","676.5","381","","","","","","","","","","","","","135","1","2","true","","","",""
"psychophysics","319","992250","0.0-18.0-2.24","60940e7600124bd7a1cb35f8","609a8bf73b2ac84e2732f618","609d729326f88f5240f980fd","484.56500000611413","","","","90","","","","key","16.66599999999744","676.5","381","","","","","","","","","","","","","","","","","","","",""
"psychophysics","320","993007","0.0-18.0-0.25","60940e7600124bd7a1cb35f8","609a8bf73b2ac84e2732f618","609d729326f88f5240f980fd","null","","","","null","","","","key","16.67186363636442","676.5","381","","","","","","","","","","","","","","","","","","","",""
"psychophysics","321","993508","0.0-18.0-1.25","60940e7600124bd7a1cb35f8","609a8bf73b2ac84e2732f618","609d729326f88f5240f980fd","null","","","","null","","","","key","16.666000000003258","676.5","381","","","","","","","","","","","","","135","1","5","true","","","",""
"psychophysics","322","993796","0.0-18.0-2.25","60940e7600124bd7a1cb35f8","609a8bf73b2ac84e2732f618","609d729326f88f5240f980fd","285.4349999979604","","","","77","","","","key","16.66599999999744","676.5","381","","","","","","","","","","","","","","","","","","","",""
"psychophysics","323","995291","0.0-18.0-0.26","60940e7600124bd7a1cb35f8","609a8bf73b2ac84e2732f618","609d729326f88f5240f980fd","null","","","","null","","","","key","16.666000000000086","676.5","381","","","","","","","","","","","","","","","","","","","",""
"psychophysics","324","995793","0.0-18.0-1.26","60940e7600124bd7a1cb35f8","609a8bf73b2ac84e2732f618","609d729326f88f5240f980fd","null","","","","null","","","","key","16.66599999999938","676.5","381","","","","","","","","","","","","","135","-1","5","true","","","",""
"psychophysics","325","996608","0.0-18.0-2.26","60940e7600124bd7a1cb35f8","609a8bf73b2ac84e2732f618","609d729326f88f5240f980fd","812.804999994114","","","","77","","","","key","16.665999999999865","676.5","381","","","","","","","","","","","","","","","","","","","",""
"psychophysics","326","997750","0.0-18.0-0.27","60940e7600124bd7a1cb35f8","609a8bf73b2ac84e2732f618","609d729326f88f5240f980fd","null","","","","null","","","","key","16.666000000001347","676.5","381","","","","","","","","","","","","","","","","","","","",""
"psychophysics","327","998251","0.0-18.0-1.27","60940e7600124bd7a1cb35f8","609a8bf73b2ac84e2732f618","609d729326f88f5240f980fd","null","","","","null","","","","key","16.666000000000448","676.5","381","","","","","","","","","","","","","135","1","3","true","","","",""
"psychophysics","328","998982","0.0-18.0-2.27","60940e7600124bd7a1cb35f8","609a8bf73b2ac84e2732f618","609d729326f88f5240f980fd","728.9049999963026","","","","90","","","","key","16.666000000000825","676.5","381","","","","","","","","","","","","","","","","","","","",""
