"trial_type","trial_index","time_elapsed","internal_node_id","PROLIFIC_PID","STUDY_ID","SESSION_ID","rt","stimulus","button_pressed","success","key_press","responses","isData","view_history","response_type","avg_frame_time","center_x","center_y","isSC","stim_side","trial_luminance","step_size","nReversal","correct","prev_ans","isThreshold","SC_threshold","final_threshold","isLuminance","FF_luminance","luminance","stimSide","ISInt","isFF","question_order","isSPQ","isCAPS","isAQ"
"pavlovia","0","5","0.0-0.0","5d30dfa68b1523000134878f","609a8bf73b2ac84e2732f618","609d7144e0decaa3d8a0a44f","","","","","","","","","","","","","","","","","","","","","","","","","","","","","","","",""
"html-button-response","1","7563","0.0-1.0","5d30dfa68b1523000134878f","609a8bf73b2ac84e2732f618","609d7144e0decaa3d8a0a44f","7556.134999962524","<div style='background-color: white; width:60%; margin: auto; padding: 50px; text-align: justify; text-justify: inter-word; margin-bottom: 20px;'><h1 style='text-align: center;'>Consent Form</h1><p>Please read this consent form carefully before deciding whether you would like to participate in this study. You have to be 18 years old or older to participate to this study.</p><p style='text-decoration: underline;'>Participation is voluntary:</p><p>It is your choice whether or not to participate in this research. If you choose to participate, you may change your mind and leave the study at any time. Refusal to participate or stopping your participation will involve no penalty or loss of benefits to which you are otherwise entitled.</p><p style='text-decoration: underline;'>Purpose of the Study:</p><p>To understand the mechanisms underlying human perception.</p><p style='text-decoration: underline;'>What you will do in this study:</p><p>You will be presented with a series of visual images and then you will press buttons on the keyboard of your computer to respond to simple questions about the images (e.g. Were one or two images presented?). In addition, you will be asked to complete a questionnaire concerning your beliefs and everyday mental and perceptual experiences.'</p><p style='text-decoration: underline;'> Time Required:</p><p>The study will take 40 minutes to complete. </p><p style='text-decoration: underline;'>Risks:</p><p>There are no anticipated risks associated with participating in this study that are beyond those experienced in everyday life. </p><p style='text-decoration: underline;'>Benefits:</p><p>There are no benefits to you in participating in the study. However, this study may lead to a better understanding of how different kinds of visual information are used.</p><p style='text-decoration: underline;'>Compensation:</p><p>You will be paid US$6.6/hour. </p><p style='text-decoration: underline;'>Privacy and Confidentiality:</p><p>Your participation in this study will be anonymous. No personal information about your name or identity will be asked or recorded. This anonymous data will be stored for several years and may be used for a variety of research purposes. The overall results of the study may be published, or the data files may be shared with other researchers, but your identity will not be revealed in any way. The online services we are using for this study may temporarily store your data, but this data will be downloaded and then promptly deleted from those services.Your data will not be permanently associated with your name, IP address, or any other identifiable information (e.g., your information will only be connected to your payment, not to any of your responses), though they may be temporarily stored together before we download and separate them. Even so, no guarantee of internet survey security can be given because, although unlikely, transmissions can be intercepted and IP addresses can be identified. The anonymous data may be shared publicly (for example, in conjunction with a resulting academic publication).</p><p style='text-decoration: underline;'>Participation and Withdrawal:</p><p>Your participation in this study is completely voluntary. You may stop responding to the stimuli or stop answering questions if you so choose and without penalty by exiting the full screen mode, closing this tab of your browser or redirecting it to a different website.</p><p style='text-decoration: underline;'>Contact Info of the Researcher: </p><p>If you have questions about this study, or if you would like to talk to the research team, please contact David Melcher (david.melcher@nyu.edu, md5050@nyu.edu) at the Perception and Active Cognition Laboratory, New York University Abu Dhabi, Computational Research Building, Saadiyat Island, Abu Dhabi, UAE.This research has been reviewed by the New York University Abu Dhabi Institutional Review Board (NYUAD IRB). To contact about your rights in this research, for questions, suggestions, or complaints that are not addressed by the researchers, please email IRBnyuad@nyu.edu, or call the NYUAD IRB at +971 2 628 4313. </p></div>","0","","","","","","","","","","","","","","","","","","","","","","","","","","","","",""
"fullscreen","2","9302","0.0-2.0","5d30dfa68b1523000134878f","609a8bf73b2ac84e2732f618","609d7144e0decaa3d8a0a44f","","","","true","","","","","","","","","","","","","","","","","","","","","","","","","","","",""
"html-keyboard-response","3","22558","0.0-3.0","5d30dfa68b1523000134878f","609a8bf73b2ac84e2732f618","609d7144e0decaa3d8a0a44f","13255.110000027344","<p>Welcome !</p><p>READ CAREFULLY THE FOLLOWING INDICATIONS:</p><p>From this moment you have ~40 minutes to complete the experiment.</p><p>During the experiment you will be prompted to take several breaks. Each break should not last longer than 2-3 minutes.</p><p>Make sure that your computer is plugged in and it's not running on battery power, even if the battery is already fully charged.</p><p>Turn off your phone and music, make sure that you are in a quiet room and that you will not be distracted for the next hour.</p><p>Failure to comply with the instructions and indications provided during the experiment will most likely result in the rejection of your data.<p>Press the spacebar to start.</p>","","","32","","","","","","","","","","","","","","","","","","","","","","","","","","",""
"survey-html-form","4","27098","0.0-4.0","5d30dfa68b1523000134878f","609a8bf73b2ac84e2732f618","609d7144e0decaa3d8a0a44f","4538.85000012815","","","","","{""age"":""27"",""sex"":""M""}","true","","","","","","","","","","","","","","","","","","","","","","","","",""
"instructions","5","56801","0.0-5.0","5d30dfa68b1523000134878f","609a8bf73b2ac84e2732f618","609d7144e0decaa3d8a0a44f","29702.82500004396","","","","","","","[{""page_index"":0,""viewing_time"":20510.340000037104},{""page_index"":1,""viewing_time"":4898.429999826476},{""page_index"":2,""viewing_time"":4293.65500016138}]","","","","","","","","","","","","","","","","","","","","","","","",""
"psychophysics","6","61937","0.0-6.0-0.0","5d30dfa68b1523000134878f","609a8bf73b2ac84e2732f618","609d7144e0decaa3d8a0a44f","4131.919999839738","","","","39","","","","key","16.667899022801297","960","468.5","true","1","180","30","0","-1","","","","","","","","","","","","","",""
"psychophysics","7","64833","0.0-6.0-0.1","5d30dfa68b1523000134878f","609a8bf73b2ac84e2732f618","609d7144e0decaa3d8a0a44f","1893.7349999323487","","","","39","","","","key","16.667179190751437","960","468.5","true","1","180","30","0","-1","-1","","","","","","","","","","","","",""
"psychophysics","8","66188","0.0-6.0-0.2","5d30dfa68b1523000134878f","609a8bf73b2ac84e2732f618","609d7144e0decaa3d8a0a44f","353.69499982334673","","","","37","","","","key","16.66713749999999","960","468.5","true","-1","150","30","0","-1","-1","","","","","","","","","","","","",""
"psychophysics","9","67315","0.0-6.0-0.3","5d30dfa68b1523000134878f","609a8bf73b2ac84e2732f618","609d7144e0decaa3d8a0a44f","123.84000001475215","","","","39","","","","key","16.666820895522328","960","468.5","true","1","150","30","0","-1","-1","","","","","","","","","","","","",""
"psychophysics","10","72248","0.0-6.0-0.4","5d30dfa68b1523000134878f","609a8bf73b2ac84e2732f618","609d7144e0decaa3d8a0a44f","3931.1499998439103","","","","39","","","","key","16.667722033898265","960","468.5","true","1","129","30","0","-1","-1","","","","","","","","","","","","",""
"psychophysics","11","74701","0.0-6.0-0.5","5d30dfa68b1523000134878f","609a8bf73b2ac84e2732f618","609d7144e0decaa3d8a0a44f","1451.9599999766797","","","","37","","","","key","16.666876712328776","960","468.5","true","1","129","24","1","1","-1","","","","","","","","","","","","",""
"psychophysics","12","75961","0.0-6.0-0.6","5d30dfa68b1523000134878f","609a8bf73b2ac84e2732f618","609d7144e0decaa3d8a0a44f","257.3650002013892","","","","39","","","","key","16.667319999999986","960","468.5","true","1","153","24","1","-1","1","","","","","","","","","","","","",""
"psychophysics","13","77109","0.0-6.0-0.7","5d30dfa68b1523000134878f","609a8bf73b2ac84e2732f618","609d7144e0decaa3d8a0a44f","145.31499985605478","","","","37","","","","key","16.66734328358208","960","468.5","true","-1","153","19.2","2","-1","-1","","","","","","","","","","","","",""
"psychophysics","14","78153","0.0-6.0-0.8","5d30dfa68b1523000134878f","609a8bf73b2ac84e2732f618","609d7144e0decaa3d8a0a44f","42.000000132247806","","","","39","","","","key","16.668935483871","960","468.5","true","1","133.8","19.2","2","-1","-1","","","","","","","","","","","","",""
"psychophysics","15","79330","0.0-6.0-0.9","5d30dfa68b1523000134878f","609a8bf73b2ac84e2732f618","609d7144e0decaa3d8a0a44f","175.46000005677342","","","","37","","","","key","16.66781428571433","960","468.5","true","-1","133.8","19.2","2","-1","-1","","","","","","","","","","","","",""
"psychophysics","16","81183","0.0-6.0-0.10","5d30dfa68b1523000134878f","609a8bf73b2ac84e2732f618","609d7144e0decaa3d8a0a44f","851.8950000870973","","","","39","","","","key","16.667936363636347","960","468.5","true","-1","129","15.36","3","1","-1","","","","","","","","","","","","",""
"psychophysics","17","82285","0.0-6.0-0.11","5d30dfa68b1523000134878f","609a8bf73b2ac84e2732f618","609d7144e0decaa3d8a0a44f","101.31999989971519","","","","37","","","","key","16.668446153846276","960","468.5","true","-1","144.36","15.36","3","-1","1","","","","","","","","","","","","",""
"psychophysics","18","83352","0.0-6.0-0.12","5d30dfa68b1523000134878f","609a8bf73b2ac84e2732f618","609d7144e0decaa3d8a0a44f","65.54499990306795","","","","37","","","","key","16.668666666666496","960","468.5","true","-1","144.36","12.287999999999998","4","-1","-1","","","","","","","","","","","","",""
"psychophysics","19","85541","0.0-6.0-0.13","5d30dfa68b1523000134878f","609a8bf73b2ac84e2732f618","609d7144e0decaa3d8a0a44f","1187.9600000102073","","","","37","","","","key","16.667576923076837","960","468.5","true","1","132.072","9.8304","5","1","-1","","","","","","","","","","","","",""
"psychophysics","20","86695","0.0-6.0-0.14","5d30dfa68b1523000134878f","609a8bf73b2ac84e2732f618","609d7144e0decaa3d8a0a44f","152.66999998129904","","","","39","","","","key","16.66675362318853","960","468.5","true","1","141.9024","9.8304","5","-1","1","","","","","","","","","","","","",""
"psychophysics","21","87821","0.0-6.0-0.15","5d30dfa68b1523000134878f","609a8bf73b2ac84e2732f618","609d7144e0decaa3d8a0a44f","124.5649999473244","","","","39","","","","key","16.667469696969697","960","468.5","true","1","141.9024","7.864319999999999","6","-1","-1","","","","","","","","","","","","",""
"psychophysics","22","88919","0.0-6.0-0.16","5d30dfa68b1523000134878f","609a8bf73b2ac84e2732f618","609d7144e0decaa3d8a0a44f","96.82000009343028","","","","37","","","","key","16.667246153846364","960","468.5","true","-1","134.03808","7.864319999999999","6","-1","-1","","","","","","","","","","","","",""
"psychophysics","23","90005","0.0-6.0-0.17","5d30dfa68b1523000134878f","609a8bf73b2ac84e2732f618","609d7144e0decaa3d8a0a44f","84.86000006087124","","","","37","","","","key","16.66709375000005","960","468.5","true","-1","134.03808","7.864319999999999","6","-1","-1","","","","","","","","","","","","",""
"psychophysics","24","92097","0.0-6.0-0.18","5d30dfa68b1523000134878f","609a8bf73b2ac84e2732f618","609d7144e0decaa3d8a0a44f","1090.4549998231232","","","","37","","","","key","16.667040000000036","960","468.5","true","-1","129","7.864319999999999","6","-1","-1","","","","","","","","","","","","",""
"psychophysics","25","93708","0.0-6.0-0.19","5d30dfa68b1523000134878f","609a8bf73b2ac84e2732f618","609d7144e0decaa3d8a0a44f","610.5700000189245","","","","37","","","","key","16.66850526315791","960","468.5","true","-1","129","7.864319999999999","6","-1","-1","","","","","","","","","","","","",""
"psychophysics","26","95663","0.0-6.0-0.20","5d30dfa68b1523000134878f","609a8bf73b2ac84e2732f618","609d7144e0decaa3d8a0a44f","953.6349999252707","","","","39","","","","key","16.66784615384608","960","468.5","true","1","129","7.864319999999999","6","-1","-1","","","","","","","","","","","","",""
"psychophysics","27","97514","0.0-6.0-0.21","5d30dfa68b1523000134878f","609a8bf73b2ac84e2732f618","609d7144e0decaa3d8a0a44f","848.2800000347197","","","","39","","","","key","16.66658181818189","960","468.5","true","-1","129","6.291456","7","1","-1","","","","","","","","","","","","",""
"psychophysics","28","99579","0.0-6.0-0.22","5d30dfa68b1523000134878f","609a8bf73b2ac84e2732f618","609d7144e0decaa3d8a0a44f","1063.9750000555068","","","","39","","","","key","16.667770491803346","960","468.5","true","-1","135.291456","6.291456","7","1","1","","","","","","","","","","","","",""
"psychophysics","29","100805","0.0-6.0-0.23","5d30dfa68b1523000134878f","609a8bf73b2ac84e2732f618","609d7144e0decaa3d8a0a44f","224.85500015318394","","","","39","","","","key","16.667712328767152","960","468.5","true","1","141.58291200000002","6.291456","7","-1","1","","","","","","","","","","","","",""
"psychophysics","30","102368","0.0-6.0-0.24","5d30dfa68b1523000134878f","609a8bf73b2ac84e2732f618","609d7144e0decaa3d8a0a44f","560.4699999094009","","","","37","","","","key","16.666763440860116","960","468.5","true","-1","141.58291200000002","5.033164800000001","8","-1","-1","","","","","","","","","","","","",""
"psychophysics","31","103871","0.0-6.0-0.25","5d30dfa68b1523000134878f","609a8bf73b2ac84e2732f618","609d7144e0decaa3d8a0a44f","500.68499986082315","","","","39","","","","key","16.66761797752815","960","468.5","true","1","136.5497472","5.033164800000001","8","-1","-1","","","","","","","","","","","","",""
"psychophysics","32","105016","0.0-6.0-0.26","5d30dfa68b1523000134878f","609a8bf73b2ac84e2732f618","609d7144e0decaa3d8a0a44f","142.1650000847876","","","","39","","","","key","16.666132352941265","960","468.5","true","1","136.5497472","5.033164800000001","8","-1","-1","","","","","","","","","","","","",""
"psychophysics","33","106577","0.0-6.0-0.27","5d30dfa68b1523000134878f","609a8bf73b2ac84e2732f618","609d7144e0decaa3d8a0a44f","558.0149998422712","","","","39","","","","key","16.666641304347888","960","468.5","true","1","131.5165824","5.033164800000001","8","-1","-1","","","","","","","","","","","","",""
"psychophysics","34","108041","0.0-6.0-0.28","5d30dfa68b1523000134878f","609a8bf73b2ac84e2732f618","609d7144e0decaa3d8a0a44f","462.80999993905425","","","","37","","","","key","16.66754022988507","960","468.5","true","-1","131.5165824","5.033164800000001","8","-1","-1","","","","","","","","","","","","",""
"psychophysics","35","109278","0.0-6.0-0.29","5d30dfa68b1523000134878f","609a8bf73b2ac84e2732f618","609d7144e0decaa3d8a0a44f","236.0400001052767","","","","39","","","","key","16.667041095890255","960","468.5","true","-1","129","4.0265318400000005","9","1","-1","","","","","","","","","","","","",""
"psychophysics","36","111066","0.0-6.0-0.30","5d30dfa68b1523000134878f","609a8bf73b2ac84e2732f618","609d7144e0decaa3d8a0a44f","785.7649999205023","","","","37","","","","key","16.667803738317772","960","468.5","true","-1","133.02653184","4.0265318400000005","9","-1","1","","","","","","","","","","","","",""
"psychophysics","37","112568","0.0-6.0-0.31","5d30dfa68b1523000134878f","609a8bf73b2ac84e2732f618","609d7144e0decaa3d8a0a44f","501.55499996617436","","","","39","","","","key","16.66816853932589","960","468.5","true","-1","133.02653184","3.2212254720000004","10","1","-1","","","","","","","","","","","","",""
"psychophysics","38","114129","0.0-6.0-0.32","5d30dfa68b1523000134878f","609a8bf73b2ac84e2732f618","609d7144e0decaa3d8a0a44f","559.6300000324845","","","","39","","","","key","16.667489130434777","960","468.5","true","1","136.24775731199998","3.2212254720000004","10","-1","1","","","","","","","","","","","","",""
"psychophysics","39","115247","0.0-6.0-0.33","5d30dfa68b1523000134878f","609a8bf73b2ac84e2732f618","609d7144e0decaa3d8a0a44f","116.94999993778765","","","","37","","","","key","16.668910447761125","960","468.5","true","-1","136.24775731199998","2.5769803776000004","11","-1","-1","","","","","","","","","","","","",""
"psychophysics","40","116435","0.0-6.0-0.34","5d30dfa68b1523000134878f","609a8bf73b2ac84e2732f618","609d7144e0decaa3d8a0a44f","186.06500001624227","","","","39","","","","key","16.667557142857238","960","468.5","true","1","133.67077693439998","2.5769803776000004","11","-1","-1","","","","","","","","","","","","",""
"psychophysics","41","117437","0.0-6.0-0.35","5d30dfa68b1523000134878f","609a8bf73b2ac84e2732f618","609d7144e0decaa3d8a0a44f","0.46500004827976227","","","","37","","","","key","16.668406779661044","960","468.5","true","-1","133.67077693439998","2.5769803776000004","11","-1","-1","","","","","","","","","","","","",""
"psychophysics","42","119135","0.0-6.0-0.36","5d30dfa68b1523000134878f","609a8bf73b2ac84e2732f618","609d7144e0decaa3d8a0a44f","697.2199999727309","","","","37","","","","key","16.666999999999984","960","468.5","true","1","131.0937965568","2.0615843020800004","12","1","-1","","","","","","","","","","","","",""
"psychophysics","43","120749","0.0-6.0-0.37","5d30dfa68b1523000134878f","609a8bf73b2ac84e2732f618","609d7144e0decaa3d8a0a44f","612.2500000055879","","","","39","","","","key","16.666843749999924","960","468.5","true","1","133.15538085888","2.0615843020800004","12","-1","1","","","","","","","","","","","","",""
"psychophysics","44","122394","0.0-6.0-0.38","5d30dfa68b1523000134878f","609a8bf73b2ac84e2732f618","609d7144e0decaa3d8a0a44f","644.7350000962615","","","","39","","","","key","16.667484536082615","960","468.5","true","1","133.15538085888","1.6492674416640005","13","-1","-1","","","","","","","","","","","","",""
"psychophysics","45","123454","0.0-6.0-0.39","5d30dfa68b1523000134878f","609a8bf73b2ac84e2732f618","609d7144e0decaa3d8a0a44f","58.47999989055097","","","","37","","","","key","16.668634920634858","960","468.5","true","-1","131.506113417216","1.6492674416640005","13","-1","-1","","","","","","","","","","","","",""
"html-keyboard-response","46","127535","0.0-7.0","5d30dfa68b1523000134878f","609a8bf73b2ac84e2732f618","609d7144e0decaa3d8a0a44f","4080.7449999265373","<p>Well Done !</p><p>Prepare for a new block.</p><p>DON'T EXIT THE FULL SCREEN MODE</p><p>Press the Spacebar to start.</p>","","","32","","","","","","","","","","","","","","","true","133.32889753763843","","","","","","","","","","",""
"psychophysics","47","129243","0.0-8.0-0.0","5d30dfa68b1523000134878f","609a8bf73b2ac84e2732f618","609d7144e0decaa3d8a0a44f","705.555000109598","","","","37","","","","key","16.668254901960893","960","468.5","true","-1","180","30","0","-1","","","","","","","","","","","","","",""
"psychophysics","48","130561","0.0-8.0-0.1","5d30dfa68b1523000134878f","609a8bf73b2ac84e2732f618","609d7144e0decaa3d8a0a44f","317.16500013135374","","","","37","","","","key","16.666551282051213","960","468.5","true","-1","180","30","0","-1","-1","","","","","","","","","","","","",""
"psychophysics","49","131884","0.0-8.0-0.2","5d30dfa68b1523000134878f","609a8bf73b2ac84e2732f618","609d7144e0decaa3d8a0a44f","321.2349999230355","","","","39","","","","key","16.666632911392643","960","468.5","true","1","150","30","0","-1","-1","","","","","","","","","","","","",""
"psychophysics","50","133159","0.0-8.0-0.3","5d30dfa68b1523000134878f","609a8bf73b2ac84e2732f618","609d7144e0decaa3d8a0a44f","273.77500012516975","","","","37","","","","key","16.668319999999756","960","468.5","true","-1","150","30","0","-1","-1","","","","","","","","","","","","",""
"psychophysics","51","134401","0.0-8.0-0.4","5d30dfa68b1523000134878f","609a8bf73b2ac84e2732f618","609d7144e0decaa3d8a0a44f","240.56500010192394","","","","37","","","","key","16.6673243243241","960","468.5","true","1","129","24","1","1","-1","","","","","","","","","","","","",""
"psychophysics","52","135734","0.0-8.0-0.5","5d30dfa68b1523000134878f","609a8bf73b2ac84e2732f618","609d7144e0decaa3d8a0a44f","330.0000000745058","","","","37","","","","key","16.66934177215186","960","468.5","true","-1","153","24","1","-1","1","","","","","","","","","","","","",""
"psychophysics","53","136951","0.0-8.0-0.6","5d30dfa68b1523000134878f","609a8bf73b2ac84e2732f618","609d7144e0decaa3d8a0a44f","216.96999995037913","","","","37","","","","key","16.667291666666845","960","468.5","true","-1","153","19.2","2","-1","-1","","","","","","","","","","","","",""
"psychophysics","54","138248","0.0-8.0-0.7","5d30dfa68b1523000134878f","609a8bf73b2ac84e2732f618","609d7144e0decaa3d8a0a44f","294.51500019058585","","","","39","","","","key","16.66710389610425","960","468.5","true","1","133.8","19.2","2","-1","-1","","","","","","","","","","","","",""
"psychophysics","55","139416","0.0-8.0-0.8","5d30dfa68b1523000134878f","609a8bf73b2ac84e2732f618","609d7144e0decaa3d8a0a44f","166.01000004447997","","","","39","","","","key","16.667391304347657","960","468.5","true","1","133.8","19.2","2","-1","-1","","","","","","","","","","","","",""
"psychophysics","56","140610","0.0-8.0-0.9","5d30dfa68b1523000134878f","609a8bf73b2ac84e2732f618","609d7144e0decaa3d8a0a44f","192.1399999409914","","","","39","","","","key","16.668485714285634","960","468.5","true","1","129","19.2","2","-1","-1","","","","","","","","","","","","",""
"psychophysics","57","141954","0.0-8.0-0.10","5d30dfa68b1523000134878f","609a8bf73b2ac84e2732f618","609d7144e0decaa3d8a0a44f","341.44499991089106","","","","39","","","","key","16.667449999999736","960","468.5","true","-1","129","15.36","3","1","-1","","","","","","","","","","","","",""
"psychophysics","58","143317","0.0-8.0-0.11","5d30dfa68b1523000134878f","609a8bf73b2ac84e2732f618","609d7144e0decaa3d8a0a44f","361.82500002905726","","","","37","","","","key","16.667814814815095","960","468.5","true","-1","144.36","15.36","3","-1","1","","","","","","","","","","","","",""
"psychophysics","59","144549","0.0-8.0-0.12","5d30dfa68b1523000134878f","609a8bf73b2ac84e2732f618","609d7144e0decaa3d8a0a44f","231.20999988168478","","","","37","","","","key","16.667506849315107","960","468.5","true","-1","144.36","12.287999999999998","4","-1","-1","","","","","","","","","","","","",""
"psychophysics","60","145865","0.0-8.0-0.13","5d30dfa68b1523000134878f","609a8bf73b2ac84e2732f618","609d7144e0decaa3d8a0a44f","314.30500000715256","","","","37","","","","key","16.666525641025657","960","468.5","true","1","132.072","9.8304","5","1","-1","","","","","","","","","","","","",""
"psychophysics","61","147247","0.0-8.0-0.14","5d30dfa68b1523000134878f","609a8bf73b2ac84e2732f618","609d7144e0decaa3d8a0a44f","380.040000192821","","","","39","","","","key","16.666901234567906","960","468.5","true","1","141.9024","9.8304","5","-1","1","","","","","","","","","","","","",""
"psychophysics","62","148421","0.0-8.0-0.15","5d30dfa68b1523000134878f","609a8bf73b2ac84e2732f618","609d7144e0decaa3d8a0a44f","172.30999981984496","","","","39","","","","key","16.667357142857092","960","468.5","true","1","141.9024","7.864319999999999","6","-1","-1","","","","","","","","","","","","",""
"psychophysics","63","149685","0.0-8.0-0.16","5d30dfa68b1523000134878f","609a8bf73b2ac84e2732f618","609d7144e0decaa3d8a0a44f","263.4799999650568","","","","39","","","","key","16.667480000000214","960","468.5","true","1","134.03808","7.864319999999999","6","-1","-1","","","","","","","","","","","","",""
"psychophysics","64","150897","0.0-8.0-0.17","5d30dfa68b1523000134878f","609a8bf73b2ac84e2732f618","609d7144e0decaa3d8a0a44f","210.59500006958842","","","","37","","","","key","16.666267605633703","960","468.5","true","-1","134.03808","7.864319999999999","6","-1","-1","","","","","","","","","","","","",""
"psychophysics","65","152011","0.0-8.0-0.18","5d30dfa68b1523000134878f","609a8bf73b2ac84e2732f618","609d7144e0decaa3d8a0a44f","111.86500010080636","","","","39","","","","key","16.667530303030315","960","468.5","true","-1","129","6.291456","7","1","-1","","","","","","","","","","","","",""
"psychophysics","66","153166","0.0-8.0-0.19","5d30dfa68b1523000134878f","609a8bf73b2ac84e2732f618","609d7144e0decaa3d8a0a44f","153.44999986700714","","","","37","","","","key","16.667507246376665","960","468.5","true","-1","135.291456","6.291456","7","-1","1","","","","","","","","","","","","",""
"psychophysics","67","154204","0.0-8.0-0.20","5d30dfa68b1523000134878f","609a8bf73b2ac84e2732f618","609d7144e0decaa3d8a0a44f","36.490000085905194","","","","39","","","","key","16.668442622950725","960","468.5","true","1","135.291456","5.033164800000001","8","-1","-1","","","","","","","","","","","","",""
"psychophysics","68","155862","0.0-8.0-0.21","5d30dfa68b1523000134878f","609a8bf73b2ac84e2732f618","609d7144e0decaa3d8a0a44f","656.5749999135733","","","","39","","","","key","16.668367346938776","960","468.5","true","-1","130.2582912","4.0265318400000005","9","1","-1","","","","","","","","","","","","",""
"psychophysics","69","156984","0.0-8.0-0.22","5d30dfa68b1523000134878f","609a8bf73b2ac84e2732f618","609d7144e0decaa3d8a0a44f","121.33999983780086","","","","39","","","","key","16.66738805970144","960","468.5","true","1","134.28482304","4.0265318400000005","9","-1","1","","","","","","","","","","","","",""
"psychophysics","70","158194","0.0-8.0-0.23","5d30dfa68b1523000134878f","609a8bf73b2ac84e2732f618","609d7144e0decaa3d8a0a44f","207.89499999955297","","","","39","","","","key","16.667816901408155","960","468.5","true","1","134.28482304","3.2212254720000004","10","-1","-1","","","","","","","","","","","","",""
"psychophysics","71","159430","0.0-8.0-0.24","5d30dfa68b1523000134878f","609a8bf73b2ac84e2732f618","609d7144e0decaa3d8a0a44f","234.3999999575317","","","","39","","","","key","16.66742465753437","960","468.5","true","-1","131.06359756799998","2.5769803776000004","11","1","-1","","","","","","","","","","","","",""
"psychophysics","72","160825","0.0-8.0-0.25","5d30dfa68b1523000134878f","609a8bf73b2ac84e2732f618","609d7144e0decaa3d8a0a44f","394.2699998151511","","","","37","","","","key","16.667301204819612","960","468.5","true","1","133.64057794559997","2.5769803776000004","11","1","1","","","","","","","","","","","","",""
"psychophysics","73","162277","0.0-8.0-0.26","5d30dfa68b1523000134878f","609a8bf73b2ac84e2732f618","609d7144e0decaa3d8a0a44f","448.61500011757016","","","","37","","","","key","16.667488372093135","960","468.5","true","-1","136.21755832319997","2.5769803776000004","11","-1","1","","","","","","","","","","","","",""
"psychophysics","74","168577","0.0-8.0-0.27","5d30dfa68b1523000134878f","609a8bf73b2ac84e2732f618","609d7144e0decaa3d8a0a44f","5299.145000055432","","","","37","","","","key","16.667649867374","960","468.5","true","-1","136.21755832319997","2.0615843020800004","12","-1","-1","","","","","","","","","","","","",""
"psychophysics","75","169866","0.0-8.0-0.28","5d30dfa68b1523000134878f","609a8bf73b2ac84e2732f618","609d7144e0decaa3d8a0a44f","285.47500004060566","","","","37","","","","key","16.668513157894747","960","468.5","true","-1","134.15597402111996","2.0615843020800004","12","-1","-1","","","","","","","","","","","","",""
"psychophysics","76","171378","0.0-8.0-0.29","5d30dfa68b1523000134878f","609a8bf73b2ac84e2732f618","609d7144e0decaa3d8a0a44f","511.2850000150502","","","","39","","","","key","16.668011111111262","960","468.5","true","1","134.15597402111996","2.0615843020800004","12","-1","-1","","","","","","","","","","","","",""
"psychophysics","77","172380","0.0-8.0-0.30","5d30dfa68b1523000134878f","609a8bf73b2ac84e2732f618","609d7144e0decaa3d8a0a44f","0.7400000467896461","","","","37","","","","key","16.66562711864402","960","468.5","true","-1","132.09438971903995","2.0615843020800004","12","-1","-1","","","","","","","","","","","","",""
"psychophysics","78","173411","0.0-8.0-0.31","5d30dfa68b1523000134878f","609a8bf73b2ac84e2732f618","609d7144e0decaa3d8a0a44f","29.66500003822148","","","","37","","","","key","16.66747540983631","960","468.5","true","1","132.09438971903995","1.6492674416640005","13","1","-1","","","","","","","","","","","","",""
"psychophysics","79","174739","0.0-8.0-0.32","5d30dfa68b1523000134878f","609a8bf73b2ac84e2732f618","609d7144e0decaa3d8a0a44f","325.58499998413026","","","","37","","","","key","16.667544303797158","960","468.5","true","-1","133.74365716070395","1.6492674416640005","13","-1","1","","","","","","","","","","","","",""
"psychophysics","80","175929","0.0-8.0-0.33","5d30dfa68b1523000134878f","609a8bf73b2ac84e2732f618","609d7144e0decaa3d8a0a44f","186.58500001765788","","","","37","","","","key","16.667242857142785","960","468.5","true","-1","133.74365716070395","1.3194139533312006","14","-1","-1","","","","","","","","","","","","",""
"psychophysics","81","177197","0.0-8.0-0.34","5d30dfa68b1523000134878f","609a8bf73b2ac84e2732f618","609d7144e0decaa3d8a0a44f","266.4850000292063","","","","37","","","","key","16.66698666666673","960","468.5","true","1","132.42424320737274","1.0555311626649604","15","1","-1","","","","","","","","","","","","",""
"psychophysics","82","178535","0.0-8.0-0.35","5d30dfa68b1523000134878f","609a8bf73b2ac84e2732f618","609d7144e0decaa3d8a0a44f","336.3300000783056","","","","39","","","","key","16.669124999999987","960","468.5","true","1","133.4797743700377","1.0555311626649604","15","-1","1","","","","","","","","","","","","",""
"psychophysics","83","179722","0.0-8.0-0.36","5d30dfa68b1523000134878f","609a8bf73b2ac84e2732f618","609d7144e0decaa3d8a0a44f","184.54000004567206","","","","37","","","","key","16.66729999999973","960","468.5","true","1","133.4797743700377","1","16","1","-1","","","","","","","","","","","","",""
"psychophysics","84","181061","0.0-8.0-0.37","5d30dfa68b1523000134878f","609a8bf73b2ac84e2732f618","609d7144e0decaa3d8a0a44f","338.1649998482317","","","","37","","","","key","16.667556962025238","960","468.5","true","-1","134.4797743700377","1","16","-1","1","","","","","","","","","","","","",""
"psychophysics","85","182203","0.0-8.0-0.38","5d30dfa68b1523000134878f","609a8bf73b2ac84e2732f618","609d7144e0decaa3d8a0a44f","139.99000005424023","","","","39","","","","key","16.667147058823662","960","468.5","true","1","134.4797743700377","1","17","-1","-1","","","","","","","","","","","","",""
"psychophysics","86","183537","0.0-8.0-0.39","5d30dfa68b1523000134878f","609a8bf73b2ac84e2732f618","609d7144e0decaa3d8a0a44f","333.4349999204278","","","","39","","","","key","16.666797468354382","960","468.5","true","1","133.4797743700377","1","17","-1","-1","","","","","","","","","","","","",""
"html-keyboard-response","87","185306","0.0-9.0","5d30dfa68b1523000134878f","609a8bf73b2ac84e2732f618","609d7144e0decaa3d8a0a44f","1767.6949999295175","<p>Well Done !</p><p>Prepare for a new block.</p><p>DON'T EXIT THE FULL SCREEN MODE</p><p>Press the Spacebar to start.</p>","","","32","","","","","","","","","","","","","","","true","133.85912343008587","","","","","","","","","","",""
"psychophysics","88","186558","0.0-10.0-0.0","5d30dfa68b1523000134878f","609a8bf73b2ac84e2732f618","609d7144e0decaa3d8a0a44f","248.810000019148","","","","39","","","","key","16.66996000000004","960","468.5","true","1","180","30","0","-1","","","","","","","","","","","","","",""
"psychophysics","89","187733","0.0-10.0-0.1","5d30dfa68b1523000134878f","609a8bf73b2ac84e2732f618","609d7144e0decaa3d8a0a44f","173.07000001892447","","","","39","","","","key","16.668289855072793","960","468.5","true","1","180","30","0","-1","-1","","","","","","","","","","","","",""
"psychophysics","90","188875","0.0-10.0-0.2","5d30dfa68b1523000134878f","609a8bf73b2ac84e2732f618","609d7144e0decaa3d8a0a44f","140.52999997511506","","","","37","","","","key","16.668691176470446","960","468.5","true","-1","150","30","0","-1","-1","","","","","","","","","","","","",""
"psychophysics","91","190150","0.0-10.0-0.3","5d30dfa68b1523000134878f","609a8bf73b2ac84e2732f618","609d7144e0decaa3d8a0a44f","272.9049997869879","","","","39","","","","key","16.66702666666669","960","468.5","true","1","150","30","0","-1","-1","","","","","","","","","","","","",""
"psychophysics","92","191543","0.0-10.0-0.4","5d30dfa68b1523000134878f","609a8bf73b2ac84e2732f618","609d7144e0decaa3d8a0a44f","391.64000004529953","","","","39","","","","key","16.66798795180722","960","468.5","true","1","129","30","0","-1","-1","","","","","","","","","","","","",""
"psychophysics","93","192869","0.0-10.0-0.5","5d30dfa68b1523000134878f","609a8bf73b2ac84e2732f618","609d7144e0decaa3d8a0a44f","324.155000038445","","","","37","","","","key","16.667734177215053","960","468.5","true","1","129","24","1","1","-1","","","","","","","","","","","","",""
"psychophysics","94","194112","0.0-10.0-0.6","5d30dfa68b1523000134878f","609a8bf73b2ac84e2732f618","609d7144e0decaa3d8a0a44f","239.58500009030104","","","","39","","","","key","16.66675342465727","960","468.5","true","1","153","24","1","-1","1","","","","","","","","","","","","",""
"psychophysics","95","195196","0.0-10.0-0.7","5d30dfa68b1523000134878f","609a8bf73b2ac84e2732f618","609d7144e0decaa3d8a0a44f","83.199999993667","","","","39","","","","key","16.66704687499987","960","468.5","true","1","153","19.2","2","-1","-1","","","","","","","","","","","","",""
"psychophysics","96","196660","0.0-10.0-0.8","5d30dfa68b1523000134878f","609a8bf73b2ac84e2732f618","609d7144e0decaa3d8a0a44f","462.1599998790771","","","","39","","","","key","16.667045977011448","960","468.5","true","-1","133.8","15.36","3","1","-1","","","","","","","","","","","","",""
"psychophysics","97","197771","0.0-10.0-0.9","5d30dfa68b1523000134878f","609a8bf73b2ac84e2732f618","609d7144e0decaa3d8a0a44f","109.92499999701977","","","","37","","","","key","16.667090909090774","960","468.5","true","-1","149.16000000000003","15.36","3","-1","1","","","","","","","","","","","","",""
"psychophysics","98","199136","0.0-10.0-0.10","5d30dfa68b1523000134878f","609a8bf73b2ac84e2732f618","609d7144e0decaa3d8a0a44f","363.66500006988645","","","","39","","","","key","16.667802469135495","960","468.5","true","1","149.16000000000003","12.287999999999998","4","-1","-1","","","","","","","","","","","","",""
"psychophysics","99","200160","0.0-10.0-0.11","5d30dfa68b1523000134878f","609a8bf73b2ac84e2732f618","609d7144e0decaa3d8a0a44f","21.13500004634261","","","","37","","","","key","16.66879999999995","960","468.5","true","1","136.872","9.8304","5","1","-1","","","","","","","","","","","","",""
"psychophysics","100","201607","0.0-10.0-0.12","5d30dfa68b1523000134878f","609a8bf73b2ac84e2732f618","609d7144e0decaa3d8a0a44f","446.55999983660877","","","","37","","","","key","16.66837209302338","960","468.5","true","-1","146.7024","9.8304","5","-1","1","","","","","","","","","","","","",""
"psychophysics","101","202728","0.0-10.0-0.13","5d30dfa68b1523000134878f","609a8bf73b2ac84e2732f618","609d7144e0decaa3d8a0a44f","118.4449999127537","","","","39","","","","key","16.666075757575914","960","468.5","true","1","146.7024","7.864319999999999","6","-1","-1","","","","","","","","","","","","",""
"psychophysics","102","204623","0.0-10.0-0.14","5d30dfa68b1523000134878f","609a8bf73b2ac84e2732f618","609d7144e0decaa3d8a0a44f","892.8000000305474","","","","39","","","","key","16.666911504424817","960","468.5","true","1","138.83808000000002","7.864319999999999","6","-1","-1","","","","","","","","","","","","",""
"psychophysics","103","205870","0.0-10.0-0.15","5d30dfa68b1523000134878f","609a8bf73b2ac84e2732f618","609d7144e0decaa3d8a0a44f","245.54999987594783","","","","39","","","","key","16.66668918918908","960","468.5","true","-1","138.83808000000002","6.291456","7","1","-1","","","","","","","","","","","","",""
"psychophysics","104","207225","0.0-10.0-0.16","5d30dfa68b1523000134878f","609a8bf73b2ac84e2732f618","609d7144e0decaa3d8a0a44f","352.659999858588","","","","37","","","","key","16.667512500000157","960","468.5","true","-1","145.12953600000003","6.291456","7","-1","1","","","","","","","","","","","","",""
"psychophysics","105","208341","0.0-10.0-0.17","5d30dfa68b1523000134878f","609a8bf73b2ac84e2732f618","609d7144e0decaa3d8a0a44f","114.46499987505376","","","","37","","","","key","16.66724242424243","960","468.5","true","-1","145.12953600000003","5.033164800000001","8","-1","-1","","","","","","","","","","","","",""
"psychophysics","106","209660","0.0-10.0-0.18","5d30dfa68b1523000134878f","609a8bf73b2ac84e2732f618","609d7144e0decaa3d8a0a44f","316.4200000464916","","","","39","","","","key","16.6670256410259","960","468.5","true","1","140.09637120000002","5.033164800000001","8","-1","-1","","","","","","","","","","","","",""
"psychophysics","107","210822","0.0-10.0-0.19","5d30dfa68b1523000134878f","609a8bf73b2ac84e2732f618","609d7144e0decaa3d8a0a44f","161.42000001855195","","","","37","","","","key","16.667855072463695","960","468.5","true","-1","140.09637120000002","5.033164800000001","8","-1","-1","","","","","","","","","","","","",""
"psychophysics","108","211939","0.0-10.0-0.20","5d30dfa68b1523000134878f","609a8bf73b2ac84e2732f618","609d7144e0decaa3d8a0a44f","115.31999986618757","","","","37","","","","key","16.668318181818133","960","468.5","true","-1","135.0632064","5.033164800000001","8","-1","-1","","","","","","","","","","","","",""
"psychophysics","109","213065","0.0-10.0-0.21","5d30dfa68b1523000134878f","609a8bf73b2ac84e2732f618","609d7144e0decaa3d8a0a44f","124.42000000737607","","","","39","","","","key","16.66653030303044","960","468.5","true","1","135.0632064","5.033164800000001","8","-1","-1","","","","","","","","","","","","",""
"psychophysics","110","214135","0.0-10.0-0.22","5d30dfa68b1523000134878f","609a8bf73b2ac84e2732f618","609d7144e0decaa3d8a0a44f","69.04500001110137","","","","39","","","","key","16.667603174602846","960","468.5","true","-1","130.0300416","4.0265318400000005","9","1","-1","","","","","","","","","","","","",""
"psychophysics","111","215237","0.0-10.0-0.23","5d30dfa68b1523000134878f","609a8bf73b2ac84e2732f618","609d7144e0decaa3d8a0a44f","99.50999985449016","","","","37","","","","key","16.66810606060608","960","468.5","true","-1","134.05657344","4.0265318400000005","9","-1","1","","","","","","","","","","","","",""
"psychophysics","112","216273","0.0-10.0-0.24","5d30dfa68b1523000134878f","609a8bf73b2ac84e2732f618","609d7144e0decaa3d8a0a44f","34.059999976307154","","","","37","","","","key","16.667819672131046","960","468.5","true","-1","134.05657344","3.2212254720000004","10","-1","-1","","","","","","","","","","","","",""
"psychophysics","113","217462","0.0-10.0-0.25","5d30dfa68b1523000134878f","609a8bf73b2ac84e2732f618","609d7144e0decaa3d8a0a44f","187.0649999473244","","","","37","","","","key","16.66697142857135","960","468.5","true","-1","130.835347968","3.2212254720000004","10","-1","-1","","","","","","","","","","","","",""
"psychophysics","114","218560","0.0-10.0-0.26","5d30dfa68b1523000134878f","609a8bf73b2ac84e2732f618","609d7144e0decaa3d8a0a44f","96.46999998949468","","","","37","","","","key","16.66638461538465","960","468.5","true","1","130.835347968","2.5769803776000004","11","1","-1","","","","","","","","","","","","",""
"psychophysics","115","219741","0.0-10.0-0.27","5d30dfa68b1523000134878f","609a8bf73b2ac84e2732f618","609d7144e0decaa3d8a0a44f","180.3550000768155","","","","39","","","","key","16.667300000000147","960","468.5","true","1","133.4123283456","2.5769803776000004","11","-1","1","","","","","","","","","","","","",""
"psychophysics","116","220893","0.0-10.0-0.28","5d30dfa68b1523000134878f","609a8bf73b2ac84e2732f618","609d7144e0decaa3d8a0a44f","149.94000014849007","","","","39","","","","key","16.66651470588241","960","468.5","true","1","133.4123283456","2.0615843020800004","12","-1","-1","","","","","","","","","","","","",""
"psychophysics","117","222150","0.0-10.0-0.29","5d30dfa68b1523000134878f","609a8bf73b2ac84e2732f618","609d7144e0decaa3d8a0a44f","255.02999988384545","","","","39","","","","key","16.66814864864864","960","468.5","true","-1","131.35074404352","1.6492674416640005","13","1","-1","","","","","","","","","","","","",""
"psychophysics","118","223738","0.0-10.0-0.30","5d30dfa68b1523000134878f","609a8bf73b2ac84e2732f618","609d7144e0decaa3d8a0a44f","587.715000147","","","","37","","","","key","16.667652631578907","960","468.5","true","-1","133.000011485184","1.6492674416640005","13","-1","1","","","","","","","","","","","","",""
"psychophysics","119","225195","0.0-10.0-0.31","5d30dfa68b1523000134878f","609a8bf73b2ac84e2732f618","609d7144e0decaa3d8a0a44f","455.3400001022965","","","","37","","","","key","16.66682558139545","960","468.5","true","-1","133.000011485184","1.3194139533312006","14","-1","-1","","","","","","","","","","","","",""
"psychophysics","120","226811","0.0-10.0-0.32","5d30dfa68b1523000134878f","609a8bf73b2ac84e2732f618","609d7144e0decaa3d8a0a44f","613.6300000362098","","","","37","","","","key","16.667343750000025","960","468.5","true","-1","131.68059753185278","1.3194139533312006","14","-1","-1","","","","","","","","","","","","",""
"psychophysics","121","227908","0.0-10.0-0.33","5d30dfa68b1523000134878f","609a8bf73b2ac84e2732f618","609d7144e0decaa3d8a0a44f","94.99000012874603","","","","39","","","","key","16.667846153846206","960","468.5","true","-1","131.68059753185278","1.0555311626649604","15","1","-1","","","","","","","","","","","","",""
"psychophysics","122","229316","0.0-10.0-0.34","5d30dfa68b1523000134878f","609a8bf73b2ac84e2732f618","609d7144e0decaa3d8a0a44f","405.144999967888","","","","39","","","","key","16.667903614458027","960","468.5","true","1","132.73612869451773","1.0555311626649604","15","-1","1","","","","","","","","","","","","",""
"psychophysics","123","230452","0.0-10.0-0.35","5d30dfa68b1523000134878f","609a8bf73b2ac84e2732f618","609d7144e0decaa3d8a0a44f","134.15500009432435","","","","39","","","","key","16.667970588235168","960","468.5","true","1","132.73612869451773","1","16","-1","-1","","","","","","","","","","","","",""
"psychophysics","124","231732","0.0-10.0-0.36","5d30dfa68b1523000134878f","609a8bf73b2ac84e2732f618","609d7144e0decaa3d8a0a44f","277.16999989934266","","","","39","","","","key","16.6672133333333","960","468.5","true","-1","131.73612869451773","1","17","1","-1","","","","","","","","","","","","",""
"psychophysics","125","233069","0.0-10.0-0.37","5d30dfa68b1523000134878f","609a8bf73b2ac84e2732f618","609d7144e0decaa3d8a0a44f","334.7800001502037","","","","39","","","","key","16.667387499999677","960","468.5","true","1","132.73612869451773","1","17","-1","1","","","","","","","","","","","","",""
"psychophysics","126","234368","0.0-10.0-0.38","5d30dfa68b1523000134878f","609a8bf73b2ac84e2732f618","609d7144e0decaa3d8a0a44f","296.30000004544854","","","","37","","","","key","16.66731578947388","960","468.5","true","-1","132.73612869451773","1","18","-1","-1","","","","","","","","","","","","",""
"psychophysics","127","235843","0.0-10.0-0.39","5d30dfa68b1523000134878f","609a8bf73b2ac84e2732f618","609d7144e0decaa3d8a0a44f","474.53000000678","","","","37","","","","key","16.668443181817896","960","468.5","true","1","131.73612869451773","1","19","1","-1","","","","","","","","","","","","",""
"html-keyboard-response","128","368759","0.0-11.0","5d30dfa68b1523000134878f","609a8bf73b2ac84e2732f618","609d7144e0decaa3d8a0a44f","132914.51000003144","<p>Well Done !</p><p>Prepare for a new block.</p><p>DON'T EXIT THE FULL SCREEN MODE</p><p>Press the Spacebar to start.</p>","","","32","","","","","","","","","","","","","","","true","132.24160579146","","","","","","","","","","",""
"psychophysics","129","370323","0.0-12.0-0.0","5d30dfa68b1523000134878f","609a8bf73b2ac84e2732f618","609d7144e0decaa3d8a0a44f","562.3500000219792","","","","37","","","","key","16.794268817204596","960","468.5","true","-1","180","30","0","-1","","","","","","","","","","","","","",""
"psychophysics","130","371413","0.0-12.0-0.1","5d30dfa68b1523000134878f","609a8bf73b2ac84e2732f618","609d7144e0decaa3d8a0a44f","87.58000005036592","","","","39","","","","key","16.667107692308043","960","468.5","true","1","180","30","0","-1","-1","","","","","","","","","","","","",""
"psychophysics","131","372421","0.0-12.0-0.2","5d30dfa68b1523000134878f","609a8bf73b2ac84e2732f618","609d7144e0decaa3d8a0a44f","7.035000016912818","","","","37","","","","key","16.66906779661076","960","468.5","true","-1","150","30","0","-1","-1","","","","","","","","","","","","",""
"psychophysics","132","373477","0.0-12.0-0.3","5d30dfa68b1523000134878f","609a8bf73b2ac84e2732f618","609d7144e0decaa3d8a0a44f","53.580000065267086","","","","39","","","","key","16.667492063492464","960","468.5","true","1","150","30","0","-1","-1","","","","","","","","","","","","",""
"psychophysics","133","374784","0.0-12.0-0.4","5d30dfa68b1523000134878f","609a8bf73b2ac84e2732f618","609d7144e0decaa3d8a0a44f","304.83499984256923","","","","39","","","","key","16.667584415584162","960","468.5","true","-1","129","24","1","1","-1","","","","","","","","","","","","",""
"psychophysics","134","376056","0.0-12.0-0.5","5d30dfa68b1523000134878f","609a8bf73b2ac84e2732f618","609d7144e0decaa3d8a0a44f","270.61000000685453","","","","39","","","","key","16.667653333332854","960","468.5","true","-1","153","24","1","1","1","","","","","","","","","","","","",""
"psychophysics","135","377059","0.0-12.0-0.6","5d30dfa68b1523000134878f","609a8bf73b2ac84e2732f618","609d7144e0decaa3d8a0a44f","1.4749998226761818","","","","39","","","","key","16.667203389831336","960","468.5","true","1","177","24","1","-1","1","","","","","","","","","","","","",""
"psychophysics","136","378103","0.0-12.0-0.7","5d30dfa68b1523000134878f","609a8bf73b2ac84e2732f618","609d7144e0decaa3d8a0a44f","43.74000011011958","","","","37","","","","key","16.666919354838505","960","468.5","true","-1","177","19.2","2","-1","-1","","","","","","","","","","","","",""
"psychophysics","137","379106","0.0-12.0-0.8","5d30dfa68b1523000134878f","609a8bf73b2ac84e2732f618","609d7144e0decaa3d8a0a44f","0.18500001169741154","","","","39","","","","key","16.6681186440677","960","468.5","true","1","157.8","19.2","2","-1","-1","","","","","","","","","","","","",""
"psychophysics","138","380571","0.0-12.0-0.9","5d30dfa68b1523000134878f","609a8bf73b2ac84e2732f618","609d7144e0decaa3d8a0a44f","464.66000005602837","","","","39","","","","key","16.666620689654994","960","468.5","true","1","157.8","19.2","2","-1","-1","","","","","","","","","","","","",""
"psychophysics","139","381907","0.0-12.0-0.10","5d30dfa68b1523000134878f","609a8bf73b2ac84e2732f618","609d7144e0decaa3d8a0a44f","333.57000001706183","","","","39","","","","key","16.667278481012247","960","468.5","true","1","138.60000000000002","19.2","2","-1","-1","","","","","","","","","","","","",""
"psychophysics","140","383180","0.0-12.0-0.11","5d30dfa68b1523000134878f","609a8bf73b2ac84e2732f618","609d7144e0decaa3d8a0a44f","272.8500000666827","","","","37","","","","key","16.667855263157673","960","468.5","true","-1","138.60000000000002","19.2","2","-1","-1","","","","","","","","","","","","",""
"psychophysics","141","384193","0.0-12.0-0.12","5d30dfa68b1523000134878f","609a8bf73b2ac84e2732f618","609d7144e0decaa3d8a0a44f","10.244999779388309","","","","37","","","","key","16.66673333333359","960","468.5","true","-1","129","19.2","2","-1","-1","","","","","","","","","","","","",""
"psychophysics","142","385304","0.0-12.0-0.13","5d30dfa68b1523000134878f","609a8bf73b2ac84e2732f618","609d7144e0decaa3d8a0a44f","109.94999995455146","","","","39","","","","key","16.66669230769263","960","468.5","true","-1","129","15.36","3","1","-1","","","","","","","","","","","","",""
"psychophysics","143","386572","0.0-12.0-0.14","5d30dfa68b1523000134878f","609a8bf73b2ac84e2732f618","609d7144e0decaa3d8a0a44f","265.98999998532236","","","","39","","","","key","16.66693333333358","960","468.5","true","1","144.36","15.36","3","-1","1","","","","","","","","","","","","",""
"psychophysics","144","387793","0.0-12.0-0.15","5d30dfa68b1523000134878f","609a8bf73b2ac84e2732f618","609d7144e0decaa3d8a0a44f","220.12499999254942","","","","37","","","","key","16.668260273972546","960","468.5","true","-1","144.36","12.287999999999998","4","-1","-1","","","","","","","","","","","","",""
"psychophysics","145","388934","0.0-12.0-0.16","5d30dfa68b1523000134878f","609a8bf73b2ac84e2732f618","609d7144e0decaa3d8a0a44f","139.31500003673136","","","","39","","","","key","16.66673134328318","960","468.5","true","1","132.072","12.287999999999998","4","-1","-1","","","","","","","","","","","","",""
"psychophysics","146","390181","0.0-12.0-0.17","5d30dfa68b1523000134878f","609a8bf73b2ac84e2732f618","609d7144e0decaa3d8a0a44f","244.28999982774258","","","","39","","","","key","16.666918918918316","960","468.5","true","-1","132.072","9.8304","5","1","-1","","","","","","","","","","","","",""
"psychophysics","147","391402","0.0-12.0-0.18","5d30dfa68b1523000134878f","609a8bf73b2ac84e2732f618","609d7144e0decaa3d8a0a44f","220.1499999500811","","","","37","","","","key","16.66656944444387","960","468.5","true","-1","141.9024","9.8304","5","-1","1","","","","","","","","","","","","",""
"psychophysics","148","392672","0.0-12.0-0.19","5d30dfa68b1523000134878f","609a8bf73b2ac84e2732f618","609d7144e0decaa3d8a0a44f","267.4449998885393","","","","37","","","","key","16.664226666666412","960","468.5","true","-1","141.9024","7.864319999999999","6","-1","-1","","","","","","","","","","","","",""
"psychophysics","149","394059","0.0-12.0-0.20","5d30dfa68b1523000134878f","609a8bf73b2ac84e2732f618","609d7144e0decaa3d8a0a44f","384.40999994054437","","","","37","","","","key","16.667268292683108","960","468.5","true","1","134.03808","6.291456","7","1","-1","","","","","","","","","","","","",""
"psychophysics","150","395107","0.0-12.0-0.21","5d30dfa68b1523000134878f","609a8bf73b2ac84e2732f618","609d7144e0decaa3d8a0a44f","47.32000012882054","","","","39","","","","key","16.669258064516228","960","468.5","true","1","140.32953600000002","6.291456","7","-1","1","","","","","","","","","","","","",""
"psychophysics","151","396160","0.0-12.0-0.22","5d30dfa68b1523000134878f","609a8bf73b2ac84e2732f618","609d7144e0decaa3d8a0a44f","51.64999980479479","","","","39","","","","key","16.669015873016583","960","468.5","true","1","140.32953600000002","5.033164800000001","8","-1","-1","","","","","","","","","","","","",""
"psychophysics","152","397230","0.0-12.0-0.23","5d30dfa68b1523000134878f","609a8bf73b2ac84e2732f618","609d7144e0decaa3d8a0a44f","68.42000014148653","","","","37","","","","key","16.668333333333038","960","468.5","true","-1","135.2963712","5.033164800000001","8","-1","-1","","","","","","","","","","","","",""
"psychophysics","153","398319","0.0-12.0-0.24","5d30dfa68b1523000134878f","609a8bf73b2ac84e2732f618","609d7144e0decaa3d8a0a44f","86.34499995969236","","","","39","","","","key","16.6669218750003","960","468.5","true","1","135.2963712","5.033164800000001","8","-1","-1","","","","","","","","","","","","",""
"psychophysics","154","399860","0.0-12.0-0.25","5d30dfa68b1523000134878f","609a8bf73b2ac84e2732f618","609d7144e0decaa3d8a0a44f","539.7850000299513","","","","37","","","","key","16.66779120879089","960","468.5","true","1","130.2632064","4.0265318400000005","9","1","-1","","","","","","","","","","","","",""
"psychophysics","155","401100","0.0-12.0-0.26","5d30dfa68b1523000134878f","609a8bf73b2ac84e2732f618","609d7144e0decaa3d8a0a44f","237.27499996311963","","","","39","","","","key","16.66878378378366","960","468.5","true","1","134.28973824","4.0265318400000005","9","-1","1","","","","","","","","","","","","",""
"psychophysics","156","402358","0.0-12.0-0.27","5d30dfa68b1523000134878f","609a8bf73b2ac84e2732f618","609d7144e0decaa3d8a0a44f","255.3250000346452","","","","37","","","","key","16.66747297297273","960","468.5","true","-1","134.28973824","3.2212254720000004","10","-1","-1","","","","","","","","","","","","",""
"psychophysics","157","403708","0.0-12.0-0.28","5d30dfa68b1523000134878f","609a8bf73b2ac84e2732f618","609d7144e0decaa3d8a0a44f","347.86500013433397","","","","39","","","","key","16.667625000000406","960","468.5","true","1","131.068512768","3.2212254720000004","10","-1","-1","","","","","","","","","","","","",""
"psychophysics","158","405268","0.0-12.0-0.29","5d30dfa68b1523000134878f","609a8bf73b2ac84e2732f618","609d7144e0decaa3d8a0a44f","557.6150000561029","","","","37","","","","key","16.667258064516055","960","468.5","true","-1","131.068512768","3.2212254720000004","10","-1","-1","","","","","","","","","","","","",""
"psychophysics","159","406604","0.0-12.0-0.30","5d30dfa68b1523000134878f","609a8bf73b2ac84e2732f618","609d7144e0decaa3d8a0a44f","335.1849999744445","","","","39","","","","key","16.667544303797893","960","468.5","true","1","129","3.2212254720000004","10","-1","-1","","","","","","","","","","","","",""
"psychophysics","160","408144","0.0-12.0-0.31","5d30dfa68b1523000134878f","609a8bf73b2ac84e2732f618","609d7144e0decaa3d8a0a44f","537.8550000023097","","","","37","","","","key","16.66829670329673","960","468.5","true","-1","129","3.2212254720000004","10","-1","-1","","","","","","","","","","","","",""
"psychophysics","161","409715","0.0-12.0-0.32","5d30dfa68b1523000134878f","609a8bf73b2ac84e2732f618","609d7144e0decaa3d8a0a44f","570.10000012815","","","","37","","","","key","16.668095744680613","960","468.5","true","-1","129","3.2212254720000004","10","-1","-1","","","","","","","","","","","","",""
"psychophysics","162","411036","0.0-12.0-0.33","5d30dfa68b1523000134878f","609a8bf73b2ac84e2732f618","609d7144e0decaa3d8a0a44f","319.8850001208484","","","","37","","","","key","16.666756410256195","960","468.5","true","-1","129","3.2212254720000004","10","-1","-1","","","","","","","","","","","","",""
"psychophysics","163","412538","0.0-12.0-0.34","5d30dfa68b1523000134878f","609a8bf73b2ac84e2732f618","609d7144e0decaa3d8a0a44f","501.44500005990267","","","","39","","","","key","16.6669438202248","960","468.5","true","-1","129","2.5769803776000004","11","1","-1","","","","","","","","","","","","",""
"psychophysics","164","413804","0.0-12.0-0.35","5d30dfa68b1523000134878f","609a8bf73b2ac84e2732f618","609d7144e0decaa3d8a0a44f","264.88000014796853","","","","39","","","","key","16.66782666666666","960","468.5","true","1","131.5769803776","2.5769803776000004","11","-1","1","","","","","","","","","","","","",""
"psychophysics","165","415791","0.0-12.0-0.36","5d30dfa68b1523000134878f","609a8bf73b2ac84e2732f618","609d7144e0decaa3d8a0a44f","985.7499999925494","","","","39","","","","key","16.66738135593211","960","468.5","true","1","131.5769803776","2.0615843020800004","12","-1","-1","","","","","","","","","","","","",""
"psychophysics","166","417176","0.0-12.0-0.37","5d30dfa68b1523000134878f","609a8bf73b2ac84e2732f618","609d7144e0decaa3d8a0a44f","383.2799999509007","","","","37","","","","key","16.668219512195762","960","468.5","true","1","129.51539607552","1.6492674416640005","13","1","-1","","","","","","","","","","","","",""
"psychophysics","167","418901","0.0-12.0-0.38","5d30dfa68b1523000134878f","609a8bf73b2ac84e2732f618","609d7144e0decaa3d8a0a44f","724.0500000771135","","","","37","","","","key","16.667582524271833","960","468.5","true","1","131.16466351718398","1.6492674416640005","13","1","1","","","","","","","","","","","","",""
"psychophysics","168","420042","0.0-12.0-0.39","5d30dfa68b1523000134878f","609a8bf73b2ac84e2732f618","609d7144e0decaa3d8a0a44f","139.90500010550022","","","","39","","","","key","16.66722388059655","960","468.5","true","-1","132.81393095884798","1.6492674416640005","13","1","1","","","","","","","","","","","","",""
"html-keyboard-response","169","422284","0.0-13.0","5d30dfa68b1523000134878f","609a8bf73b2ac84e2732f618","609d7144e0decaa3d8a0a44f","2240.585000021383","<p>Well Done !</p><p>Prepare for a new block.</p><p>DON'T EXIT THE FULL SCREEN MODE</p><p>Press the Spacebar to start.</p>","","","32","","","","","","","","","","","","","","","true","130.84184398151677","","","","","","","","","","",""
"html-keyboard-response","170","422385","0.0-14.0","5d30dfa68b1523000134878f","609a8bf73b2ac84e2732f618","609d7144e0decaa3d8a0a44f","null","","","","null","","","","","","","","","","","","","","","","","132.56786768517526","true","137.13573537035052","","","","","","","",""
"instructions","171","443406","0.0-15.0","5d30dfa68b1523000134878f","609a8bf73b2ac84e2732f618","609d7144e0decaa3d8a0a44f","21020.215000025928","","","","","","","[{""page_index"":0,""viewing_time"":15442.830000072718},{""page_index"":1,""viewing_time"":1223.909999942407},{""page_index"":2,""viewing_time"":4353.219999931753}]","","","","","","","","","","","","","","","","","","","","","","","",""
"psychophysics","172","446847","0.0-16.0-0.0","5d30dfa68b1523000134878f","609a8bf73b2ac84e2732f618","609d7144e0decaa3d8a0a44f","null","","","","null","","","","key","16.667839080459924","960","468.5","","","","","","","","","","","","","","","","","","","",""
"psychophysics","173","447349","0.0-16.0-1.0","5d30dfa68b1523000134878f","609a8bf73b2ac84e2732f618","609d7144e0decaa3d8a0a44f","null","","","","null","","","","key","16.666241379310215","960","468.5","","","","","","","","","","","","","137","-1","4","false","","","",""
"psychophysics","174","453618","0.0-16.0-2.0","5d30dfa68b1523000134878f","609a8bf73b2ac84e2732f618","609d7144e0decaa3d8a0a44f","6266.51500002481","","","","77","","","","key","16.66767733333322","960","468.5","","","","","","","","","","","","","","","","","","","",""
"psychophysics","175","454457","0.0-16.0-0.1","5d30dfa68b1523000134878f","609a8bf73b2ac84e2732f618","609d7144e0decaa3d8a0a44f","null","","","","null","","","","key","16.668979591837306","960","468.5","","","","","","","","","","","","","","","","","","","",""
"psychophysics","176","454959","0.0-16.0-1.1","5d30dfa68b1523000134878f","609a8bf73b2ac84e2732f618","609d7144e0decaa3d8a0a44f","null","","","","null","","","","key","16.667793103449593","960","468.5","","","","","","","","","","","","","137","-1","5","false","","","",""
"psychophysics","177","455136","0.0-16.0-2.1","5d30dfa68b1523000134878f","609a8bf73b2ac84e2732f618","609d7144e0decaa3d8a0a44f","175.10999995283782","","","","77","","","","key","16.664299999998185","960","468.5","","","","","","","","","","","","","","","","","","","",""
"psychophysics","178","456488","0.0-16.0-0.2","5d30dfa68b1523000134878f","609a8bf73b2ac84e2732f618","609d7144e0decaa3d8a0a44f","null","","","","null","","","","key","16.669112499999756","960","468.5","","","","","","","","","","","","","","","","","","","",""
"psychophysics","179","456990","0.0-16.0-1.2","5d30dfa68b1523000134878f","609a8bf73b2ac84e2732f618","609d7144e0decaa3d8a0a44f","null","","","","null","","","","key","16.66593103448194","960","468.5","","","","","","","","","","","","","137","1","5","false","","","",""
"psychophysics","180","457393","0.0-16.0-2.2","5d30dfa68b1523000134878f","609a8bf73b2ac84e2732f618","609d7144e0decaa3d8a0a44f","400.3649998921901","","","","77","","","","key","16.667695652174704","960","468.5","","","","","","","","","","","","","","","","","","","",""
"psychophysics","181","457974","0.0-16.0-0.3","5d30dfa68b1523000134878f","609a8bf73b2ac84e2732f618","609d7144e0decaa3d8a0a44f","null","","","","null","","","","key","16.66782352941193","960","468.5","","","","","","","","","","","","","","","","","","","",""
"psychophysics","182","458475","0.0-16.0-1.3","5d30dfa68b1523000134878f","609a8bf73b2ac84e2732f618","609d7144e0decaa3d8a0a44f","null","","","","null","","","","key","16.66586206896544","960","468.5","","","","","","","","","","","","","137","-1","2","false","","","",""
"psychophysics","183","458814","0.0-16.0-2.3","5d30dfa68b1523000134878f","609a8bf73b2ac84e2732f618","609d7144e0decaa3d8a0a44f","337.2599999420345","","","","90","","","","key","16.668249999999535","960","468.5","","","","","","","","","","","","","","","","","","","",""
"psychophysics","184","459477","0.0-16.0-0.4","5d30dfa68b1523000134878f","609a8bf73b2ac84e2732f618","609d7144e0decaa3d8a0a44f","null","","","","null","","","","key","16.669473684210587","960","468.5","","","","","","","","","","","","","","","","","","","",""
"psychophysics","185","459979","0.0-16.0-1.4","5d30dfa68b1523000134878f","609a8bf73b2ac84e2732f618","609d7144e0decaa3d8a0a44f","null","","","","null","","","","key","16.667965517242855","960","468.5","","","","","","","","","","","","","137","1","2","false","","","",""
"psychophysics","186","460157","0.0-16.0-2.4","5d30dfa68b1523000134878f","609a8bf73b2ac84e2732f618","609d7144e0decaa3d8a0a44f","176.02999997325242","","","","90","","","","key","16.666800000000514","960","468.5","","","","","","","","","","","","","","","","","","","",""
"psychophysics","187","461183","0.0-16.0-0.5","5d30dfa68b1523000134878f","609a8bf73b2ac84e2732f618","609d7144e0decaa3d8a0a44f","null","","","","null","","","","key","16.665639344262164","960","468.5","","","","","","","","","","","","","","","","","","","",""
"psychophysics","188","461686","0.0-16.0-1.5","5d30dfa68b1523000134878f","609a8bf73b2ac84e2732f618","609d7144e0decaa3d8a0a44f","null","","","","null","","","","key","16.66962068965498","960","468.5","","","","","","","","","","","","","137","-1","0","false","","","",""
"psychophysics","189","462069","0.0-16.0-2.5","5d30dfa68b1523000134878f","609a8bf73b2ac84e2732f618","609d7144e0decaa3d8a0a44f","381.349999923259","","","","77","","","","key","16.666227272724925","960","468.5","","","","","","","","","","","","","","","","","","","",""
"psychophysics","190","463347","0.0-16.0-0.6","5d30dfa68b1523000134878f","609a8bf73b2ac84e2732f618","609d7144e0decaa3d8a0a44f","null","","","","null","","","","key","16.667802631578525","960","468.5","","","","","","","","","","","","","","","","","","","",""
"psychophysics","191","463849","0.0-16.0-1.6","5d30dfa68b1523000134878f","609a8bf73b2ac84e2732f618","609d7144e0decaa3d8a0a44f","null","","","","null","","","","key","16.668034482757353","960","468.5","","","","","","","","","","","","","137","-1","3","false","","","",""
"psychophysics","192","463985","0.0-16.0-2.6","5d30dfa68b1523000134878f","609a8bf73b2ac84e2732f618","609d7144e0decaa3d8a0a44f","133.22499999776483","","","","77","","","","key","16.757999999997473","960","468.5","","","","","","","","","","","","","","","","","","","",""
"psychophysics","193","465458","0.0-16.0-0.7","5d30dfa68b1523000134878f","609a8bf73b2ac84e2732f618","609d7144e0decaa3d8a0a44f","null","","","","null","","","","key","16.66720689655196","960","468.5","","","","","","","","","","","","","","","","","","","",""
"psychophysics","194","465960","0.0-16.0-1.7","5d30dfa68b1523000134878f","609a8bf73b2ac84e2732f618","609d7144e0decaa3d8a0a44f","null","","","","null","","","","key","16.671103448275847","960","468.5","","","","","","","","","","","","","137","1","0","false","","","",""
"psychophysics","195","466742","0.0-16.0-2.7","5d30dfa68b1523000134878f","609a8bf73b2ac84e2732f618","609d7144e0decaa3d8a0a44f","779.4049999210984","","","","77","","","","key","16.669630434781656","960","468.5","","","","","","","","","","","","","","","","","","","",""
"psychophysics","196","467297","0.0-16.0-0.8","5d30dfa68b1523000134878f","609a8bf73b2ac84e2732f618","609d7144e0decaa3d8a0a44f","null","","","","null","","","","key","16.668272727273166","960","468.5","","","","","","","","","","","","","","","","","","","",""
"psychophysics","197","467800","0.0-16.0-1.8","5d30dfa68b1523000134878f","609a8bf73b2ac84e2732f618","609d7144e0decaa3d8a0a44f","null","","","","null","","","","key","16.668068965517612","960","468.5","","","","","","","","","","","","","137","1","4","false","","","",""
"psychophysics","198","468467","0.0-16.0-2.8","5d30dfa68b1523000134878f","609a8bf73b2ac84e2732f618","609d7144e0decaa3d8a0a44f","665.0799999479204","","","","77","","","","key","16.667256410256066","960","468.5","","","","","","","","","","","","","","","","","","","",""
"psychophysics","199","469321","0.0-16.0-0.9","5d30dfa68b1523000134878f","609a8bf73b2ac84e2732f618","609d7144e0decaa3d8a0a44f","null","","","","null","","","","key","16.667900000000373","960","468.5","","","","","","","","","","","","","","","","","","","",""
"psychophysics","200","469823","0.0-16.0-1.9","5d30dfa68b1523000134878f","609a8bf73b2ac84e2732f618","609d7144e0decaa3d8a0a44f","null","","","","null","","","","key","16.667758620689334","960","468.5","","","","","","","","","","","","","137","-1","6","false","","","",""
"psychophysics","201","470011","0.0-16.0-2.9","5d30dfa68b1523000134878f","609a8bf73b2ac84e2732f618","609d7144e0decaa3d8a0a44f","185.36999984644353","","","","77","","","","key","16.666900000005263","960","468.5","","","","","","","","","","","","","","","","","","","",""
"psychophysics","202","470662","0.0-16.0-0.10","5d30dfa68b1523000134878f","609a8bf73b2ac84e2732f618","609d7144e0decaa3d8a0a44f","null","","","","null","","","","key","16.669131578946498","960","468.5","","","","","","","","","","","","","","","","","","","",""
"psychophysics","203","471164","0.0-16.0-1.10","5d30dfa68b1523000134878f","609a8bf73b2ac84e2732f618","609d7144e0decaa3d8a0a44f","null","","","","null","","","","key","16.66739999999991","960","468.5","","","","","","","","","","","","","137","1","6","false","","","",""
"psychophysics","204","471566","0.0-16.0-2.10","5d30dfa68b1523000134878f","609a8bf73b2ac84e2732f618","609d7144e0decaa3d8a0a44f","399.5449999347329","","","","90","","","","key","16.66743478260975","960","468.5","","","","","","","","","","","","","","","","","","","",""
"psychophysics","205","472312","0.0-16.0-0.11","5d30dfa68b1523000134878f","609a8bf73b2ac84e2732f618","609d7144e0decaa3d8a0a44f","null","","","","null","","","","key","16.668232558139458","960","468.5","","","","","","","","","","","","","","","","","","","",""
"psychophysics","206","472813","0.0-16.0-1.11","5d30dfa68b1523000134878f","609a8bf73b2ac84e2732f618","609d7144e0decaa3d8a0a44f","null","","","","null","","","","key","16.66831034482738","960","468.5","","","","","","","","","","","","","137","1","3","false","","","",""
"psychophysics","207","473090","0.0-16.0-2.11","5d30dfa68b1523000134878f","609a8bf73b2ac84e2732f618","609d7144e0decaa3d8a0a44f","274.32000008411705","","","","90","","","","key","16.665874999998778","960","468.5","","","","","","","","","","","","","","","","","","","",""
"psychophysics","208","474105","0.0-16.0-0.12","5d30dfa68b1523000134878f","609a8bf73b2ac84e2732f618","609d7144e0decaa3d8a0a44f","null","","","","null","","","","key","16.666499999999846","960","468.5","","","","","","","","","","","","","","","","","","","",""
"psychophysics","209","474607","0.0-16.0-1.12","5d30dfa68b1523000134878f","609a8bf73b2ac84e2732f618","609d7144e0decaa3d8a0a44f","null","","","","null","","","","key","16.6679999999991","960","468.5","","","","","","","","","","","","","137","1","2","false","","","",""
"psychophysics","210","475171","0.0-16.0-2.12","5d30dfa68b1523000134878f","609a8bf73b2ac84e2732f618","609d7144e0decaa3d8a0a44f","562.1549999341369","","","","90","","","","key","16.669333333332993","960","468.5","","","","","","","","","","","","","","","","","","","",""
"psychophysics","211","476371","0.0-16.0-0.13","5d30dfa68b1523000134878f","609a8bf73b2ac84e2732f618","609d7144e0decaa3d8a0a44f","null","","","","null","","","","key","16.666830985915098","960","468.5","","","","","","","","","","","","","","","","","","","",""
"psychophysics","212","476873","0.0-16.0-1.13","5d30dfa68b1523000134878f","609a8bf73b2ac84e2732f618","609d7144e0decaa3d8a0a44f","null","","","","null","","","","key","16.667862068966095","960","468.5","","","","","","","","","","","","","137","1","3","false","","","",""
"psychophysics","213","477502","0.0-16.0-2.13","5d30dfa68b1523000134878f","609a8bf73b2ac84e2732f618","609d7144e0decaa3d8a0a44f","627.4350001476705","","","","90","","","","key","16.6656756756758","960","468.5","","","","","","","","","","","","","","","","","","","",""
"psychophysics","214","478744","0.0-16.0-0.14","5d30dfa68b1523000134878f","609a8bf73b2ac84e2732f618","609d7144e0decaa3d8a0a44f","null","","","","null","","","","key","16.668219178082573","960","468.5","","","","","","","","","","","","","","","","","","","",""
"psychophysics","215","479246","0.0-16.0-1.14","5d30dfa68b1523000134878f","609a8bf73b2ac84e2732f618","609d7144e0decaa3d8a0a44f","null","","","","null","","","","key","16.664965517240866","960","468.5","","","","","","","","","","","","","137","1","4","false","","","",""
"psychophysics","216","479940","0.0-16.0-2.14","5d30dfa68b1523000134878f","609a8bf73b2ac84e2732f618","609d7144e0decaa3d8a0a44f","691.2299999967217","","","","77","","","","key","16.667146341463482","960","468.5","","","","","","","","","","","","","","","","","","","",""
"psychophysics","217","480612","0.0-16.0-0.15","5d30dfa68b1523000134878f","609a8bf73b2ac84e2732f618","609d7144e0decaa3d8a0a44f","null","","","","null","","","","key","16.668410256410986","960","468.5","","","","","","","","","","","","","","","","","","","",""
"psychophysics","218","481114","0.0-16.0-1.15","5d30dfa68b1523000134878f","609a8bf73b2ac84e2732f618","609d7144e0decaa3d8a0a44f","null","","","","null","","","","key","16.668241379308867","960","468.5","","","","","","","","","","","","","137","1","5","false","","","",""
"psychophysics","219","481286","0.0-16.0-2.15","5d30dfa68b1523000134878f","609a8bf73b2ac84e2732f618","609d7144e0decaa3d8a0a44f","170.48000008799136","","","","77","","","","key","16.656599999999163","960","468.5","","","","","","","","","","","","","","","","","","","",""
"psychophysics","220","482030","0.0-16.0-0.16","5d30dfa68b1523000134878f","609a8bf73b2ac84e2732f618","609d7144e0decaa3d8a0a44f","null","","","","null","","","","key","16.673046511627714","960","468.5","","","","","","","","","","","","","","","","","","","",""
"psychophysics","221","482531","0.0-16.0-1.16","5d30dfa68b1523000134878f","609a8bf73b2ac84e2732f618","609d7144e0decaa3d8a0a44f","null","","","","null","","","","key","16.66673333333456","960","468.5","","","","","","","","","","","","","137","-1","0","false","","","",""
"psychophysics","222","482789","0.0-16.0-2.16","5d30dfa68b1523000134878f","609a8bf73b2ac84e2732f618","609d7144e0decaa3d8a0a44f","255.37000014446676","","","","90","","","","key","16.666857142857875","960","468.5","","","","","","","","","","","","","","","","","","","",""
"psychophysics","223","483739","0.0-16.0-0.17","5d30dfa68b1523000134878f","609a8bf73b2ac84e2732f618","609d7144e0decaa3d8a0a44f","null","","","","null","","","","key","16.668464285714435","960","468.5","","","","","","","","","","","","","","","","","","","",""
"psychophysics","224","484241","0.0-16.0-1.17","5d30dfa68b1523000134878f","609a8bf73b2ac84e2732f618","609d7144e0decaa3d8a0a44f","null","","","","null","","","","key","16.66848275862064","960","468.5","","","","","","","","","","","","","137","-1","3","false","","","",""
"psychophysics","225","484429","0.0-16.0-2.17","5d30dfa68b1523000134878f","609a8bf73b2ac84e2732f618","609d7144e0decaa3d8a0a44f","185.5750000104308","","","","77","","","","key","16.657600000000095","960","468.5","","","","","","","","","","","","","","","","","","","",""
"psychophysics","226","485876","0.0-16.0-0.18","5d30dfa68b1523000134878f","609a8bf73b2ac84e2732f618","609d7144e0decaa3d8a0a44f","null","","","","null","","","","key","16.667093023256438","960","468.5","","","","","","","","","","","","","","","","","","","",""
"psychophysics","227","486377","0.0-16.0-1.18","5d30dfa68b1523000134878f","609a8bf73b2ac84e2732f618","609d7144e0decaa3d8a0a44f","null","","","","null","","","","key","16.66755172413782","960","468.5","","","","","","","","","","","","","137","1","6","false","","","",""
"psychophysics","228","486528","0.0-16.0-2.18","5d30dfa68b1523000134878f","609a8bf73b2ac84e2732f618","609d7144e0decaa3d8a0a44f","148.27499981038272","","","","77","","","","key","16.666750000003958","960","468.5","","","","","","","","","","","","","","","","","","","",""
"psychophysics","229","487935","0.0-16.0-0.19","5d30dfa68b1523000134878f","609a8bf73b2ac84e2732f618","609d7144e0decaa3d8a0a44f","null","","","","null","","","","key","16.666999999999895","960","468.5","","","","","","","","","","","","","","","","","","","",""
"psychophysics","230","488438","0.0-16.0-1.19","5d30dfa68b1523000134878f","609a8bf73b2ac84e2732f618","609d7144e0decaa3d8a0a44f","null","","","","null","","","","key","16.671482758620627","960","468.5","","","","","","","","","","","","","137","-1","6","false","","","",""
"psychophysics","231","488609","0.0-16.0-2.19","5d30dfa68b1523000134878f","609a8bf73b2ac84e2732f618","609d7144e0decaa3d8a0a44f","169.3450000602752","","","","77","","","","key","16.66199999999824","960","468.5","","","","","","","","","","","","","","","","","","","",""
"psychophysics","232","489175","0.0-16.0-0.20","5d30dfa68b1523000134878f","609a8bf73b2ac84e2732f618","609d7144e0decaa3d8a0a44f","null","","","","null","","","","key","16.667393939393207","960","468.5","","","","","","","","","","","","","","","","","","","",""
"psychophysics","233","489677","0.0-16.0-1.20","5d30dfa68b1523000134878f","609a8bf73b2ac84e2732f618","609d7144e0decaa3d8a0a44f","null","","","","null","","","","key","16.66810344827586","960","468.5","","","","","","","","","","","","","137","-1","5","false","","","",""
"psychophysics","234","490437","0.0-16.0-2.20","5d30dfa68b1523000134878f","609a8bf73b2ac84e2732f618","609d7144e0decaa3d8a0a44f","757.68500007689","","","","90","","","","key","16.666955555556342","960","468.5","","","","","","","","","","","","","","","","","","","",""
"psychophysics","235","491421","0.0-16.0-0.21","5d30dfa68b1523000134878f","609a8bf73b2ac84e2732f618","609d7144e0decaa3d8a0a44f","null","","","","null","","","","key","16.666224137931092","960","468.5","","","","","","","","","","","","","","","","","","","",""
"psychophysics","236","491923","0.0-16.0-1.21","5d30dfa68b1523000134878f","609a8bf73b2ac84e2732f618","609d7144e0decaa3d8a0a44f","null","","","","null","","","","key","16.67037931034454","960","468.5","","","","","","","","","","","","","137","-1","2","false","","","",""
"psychophysics","237","492242","0.0-16.0-2.21","5d30dfa68b1523000134878f","609a8bf73b2ac84e2732f618","609d7144e0decaa3d8a0a44f","317.174999974668","","","","90","","","","key","16.663666666669695","960","468.5","","","","","","","","","","","","","","","","","","","",""
"psychophysics","238","493446","0.0-16.0-0.22","5d30dfa68b1523000134878f","609a8bf73b2ac84e2732f618","609d7144e0decaa3d8a0a44f","null","","","","null","","","","key","16.66815492957683","960","468.5","","","","","","","","","","","","","","","","","","","",""
"psychophysics","239","493947","0.0-16.0-1.22","5d30dfa68b1523000134878f","609a8bf73b2ac84e2732f618","609d7144e0decaa3d8a0a44f","null","","","","null","","","","key","16.670206896551274","960","468.5","","","","","","","","","","","","","137","1","0","false","","","",""
"psychophysics","240","494275","0.0-16.0-2.22","5d30dfa68b1523000134878f","609a8bf73b2ac84e2732f618","609d7144e0decaa3d8a0a44f","325.8050000295043","","","","77","","","","key","16.669105263157306","960","468.5","","","","","","","","","","","","","","","","","","","",""
"psychophysics","241","495735","0.0-16.0-0.23","5d30dfa68b1523000134878f","609a8bf73b2ac84e2732f618","609d7144e0decaa3d8a0a44f","null","","","","null","","","","key","16.66721839080471","960","468.5","","","","","","","","","","","","","","","","","","","",""
"psychophysics","242","496238","0.0-16.0-1.23","5d30dfa68b1523000134878f","609a8bf73b2ac84e2732f618","609d7144e0decaa3d8a0a44f","null","","","","null","","","","key","16.66724137930954","960","468.5","","","","","","","","","","","","","137","-1","4","false","","","",""
"psychophysics","243","496990","0.0-16.0-2.23","5d30dfa68b1523000134878f","609a8bf73b2ac84e2732f618","609d7144e0decaa3d8a0a44f","750.4300000146031","","","","77","","","","key","16.66804545454612","960","468.5","","","","","","","","","","","","","","","","","","","",""
"html-keyboard-response","244","498004","0.0-17.0","5d30dfa68b1523000134878f","609a8bf73b2ac84e2732f618","609d7144e0decaa3d8a0a44f","1013.6750000528991","<p>Well Done !</p><p>Training Complete. Press the spacebar to start.</p><p>DON'T EXIT THE FULL SCREEN MODE</p>","","","32","","","","","","","","","","","","","","","","","","","","","","","","","","",""
"psychophysics","245","500559","0.0-18.0-0.0","5d30dfa68b1523000134878f","609a8bf73b2ac84e2732f618","609d7144e0decaa3d8a0a44f","null","","","","null","","","","key","16.668060606059786","960","468.5","","","","","","","","","","","","","","","","","","","",""
"psychophysics","246","501061","0.0-18.0-1.0","5d30dfa68b1523000134878f","609a8bf73b2ac84e2732f618","609d7144e0decaa3d8a0a44f","null","","","","null","","","","key","16.66758620689607","960","468.5","","","","","","","","","","","","","137","-1","2","true","","","",""
"psychophysics","247","501319","0.0-18.0-2.0","5d30dfa68b1523000134878f","609a8bf73b2ac84e2732f618","609d7144e0decaa3d8a0a44f","256.5900001209229","","","","90","","","","key","16.665666666665736","960","468.5","","","","","","","","","","","","","","","","","","","",""
"psychophysics","248","502621","0.0-18.0-0.1","5d30dfa68b1523000134878f","609a8bf73b2ac84e2732f618","609d7144e0decaa3d8a0a44f","null","","","","null","","","","key","16.667415584415625","960","468.5","","","","","","","","","","","","","","","","","","","",""
"psychophysics","249","503123","0.0-18.0-1.1","5d30dfa68b1523000134878f","609a8bf73b2ac84e2732f618","609d7144e0decaa3d8a0a44f","null","","","","null","","","","key","16.667413793102806","960","468.5","","","","","","","","","","","","","137","1","2","true","","","",""
"psychophysics","250","503464","0.0-18.0-2.1","5d30dfa68b1523000134878f","609a8bf73b2ac84e2732f618","609d7144e0decaa3d8a0a44f","339.24000011757016","","","","90","","","","key","16.66457894737036","960","468.5","","","","","","","","","","","","","","","","","","","",""
"psychophysics","251","504390","0.0-18.0-0.2","5d30dfa68b1523000134878f","609a8bf73b2ac84e2732f618","609d7144e0decaa3d8a0a44f","null","","","","null","","","","key","16.66772727272685","960","468.5","","","","","","","","","","","","","","","","","","","",""
"psychophysics","252","504890","0.0-18.0-1.2","5d30dfa68b1523000134878f","609a8bf73b2ac84e2732f618","609d7144e0decaa3d8a0a44f","null","","","","null","","","","key","16.66686206896677","960","468.5","","","","","","","","","","","","","137","-1","3","true","","","",""
"psychophysics","253","504933","0.0-18.0-2.2","5d30dfa68b1523000134878f","609a8bf73b2ac84e2732f618","609d7144e0decaa3d8a0a44f","41.07000003568828","","","","77","","","","key","16.62400000001071","960","468.5","","","","","","","","","","","","","","","","","","","",""
"psychophysics","254","506413","0.0-18.0-0.3","5d30dfa68b1523000134878f","609a8bf73b2ac84e2732f618","609d7144e0decaa3d8a0a44f","null","","","","null","","","","key","16.66688505747093","960","468.5","","","","","","","","","","","","","","","","","","","",""
"psychophysics","255","506914","0.0-18.0-1.3","5d30dfa68b1523000134878f","609a8bf73b2ac84e2732f618","609d7144e0decaa3d8a0a44f","null","","","","null","","","","key","16.665931034483947","960","468.5","","","","","","","","","","","","","137","-1","4","true","","","",""
"psychophysics","256","507100","0.0-18.0-2.3","5d30dfa68b1523000134878f","609a8bf73b2ac84e2732f618","609d7144e0decaa3d8a0a44f","183.29999991692603","","","","77","","","","key","16.66881818181454","960","468.5","","","","","","","","","","","","","","","","","","","",""
"psychophysics","257","508155","0.0-18.0-0.4","5d30dfa68b1523000134878f","609a8bf73b2ac84e2732f618","609d7144e0decaa3d8a0a44f","null","","","","null","","","","key","16.667225806451885","960","468.5","","","","","","","","","","","","","","","","","","","",""
"psychophysics","258","508658","0.0-18.0-1.4","5d30dfa68b1523000134878f","609a8bf73b2ac84e2732f618","609d7144e0decaa3d8a0a44f","null","","","","null","","","","key","16.666068965516953","960","468.5","","","","","","","","","","","","","137","1","6","true","","","",""
"psychophysics","259","508762","0.0-18.0-2.4","5d30dfa68b1523000134878f","609a8bf73b2ac84e2732f618","609d7144e0decaa3d8a0a44f","102.24999999627471","","","","77","","","","key","16.66739999999991","960","468.5","","","","","","","","","","","","","","","","","","","",""
"psychophysics","260","509813","0.0-18.0-0.5","5d30dfa68b1523000134878f","609a8bf73b2ac84e2732f618","609d7144e0decaa3d8a0a44f","null","","","","null","","","","key","16.669032258064217","960","468.5","","","","","","","","","","","","","","","","","","","",""
"psychophysics","261","510315","0.0-18.0-1.5","5d30dfa68b1523000134878f","609a8bf73b2ac84e2732f618","609d7144e0decaa3d8a0a44f","null","","","","null","","","","key","16.66724137930954","960","468.5","","","","","","","","","","","","","137","-1","6","true","","","",""
"psychophysics","262","510397","0.0-18.0-2.5","5d30dfa68b1523000134878f","609a8bf73b2ac84e2732f618","609d7144e0decaa3d8a0a44f","80.18500008620322","","","","77","","","","key","16.679999999993015","960","468.5","","","","","","","","","","","","","","","","","","","",""
"psychophysics","263","510924","0.0-18.0-0.6","5d30dfa68b1523000134878f","609a8bf73b2ac84e2732f618","609d7144e0decaa3d8a0a44f","null","","","","null","","","","key","16.671451612901425","960","468.5","","","","","","","","","","","","","","","","","","","",""
"psychophysics","264","511426","0.0-18.0-1.6","5d30dfa68b1523000134878f","609a8bf73b2ac84e2732f618","609d7144e0decaa3d8a0a44f","null","","","","null","","","","key","16.66775862069134","960","468.5","","","","","","","","","","","","","137","1","4","true","","","",""
"psychophysics","265","511595","0.0-18.0-2.6","5d30dfa68b1523000134878f","609a8bf73b2ac84e2732f618","609d7144e0decaa3d8a0a44f","166.30499996244907","","","","77","","","","key","16.666666666666668","960","468.5","","","","","","","","","","","","","","","","","","","",""
"psychophysics","266","512862","0.0-18.0-0.7","5d30dfa68b1523000134878f","609a8bf73b2ac84e2732f618","609d7144e0decaa3d8a0a44f","null","","","","null","","","","key","16.667053333333072","960","468.5","","","","","","","","","","","","","","","","","","","",""
"psychophysics","267","513364","0.0-18.0-1.7","5d30dfa68b1523000134878f","609a8bf73b2ac84e2732f618","609d7144e0decaa3d8a0a44f","null","","","","null","","","","key","16.66631034482672","960","468.5","","","","","","","","","","","","","137","1","0","true","","","",""
"psychophysics","268","514167","0.0-18.0-2.7","5d30dfa68b1523000134878f","609a8bf73b2ac84e2732f618","609d7144e0decaa3d8a0a44f","801.0299999732524","","","","77","","","","key","16.669250000000222","960","468.5","","","","","","","","","","","","","","","","","","","",""
"psychophysics","269","514779","0.0-18.0-0.8","5d30dfa68b1523000134878f","609a8bf73b2ac84e2732f618","609d7144e0decaa3d8a0a44f","null","","","","null","","","","key","16.667742857142418","960","468.5","","","","","","","","","","","","","","","","","","","",""
"psychophysics","270","515281","0.0-18.0-1.8","5d30dfa68b1523000134878f","609a8bf73b2ac84e2732f618","609d7144e0decaa3d8a0a44f","null","","","","null","","","","key","16.666206896551966","960","468.5","","","","","","","","","","","","","137","-1","0","true","","","",""
"psychophysics","271","515461","0.0-18.0-2.8","5d30dfa68b1523000134878f","609a8bf73b2ac84e2732f618","609d7144e0decaa3d8a0a44f","178.03499987348914","","","","77","","","","key","16.66599999999744","960","468.5","","","","","","","","","","","","","","","","","","","",""
"psychophysics","272","516693","0.0-18.0-0.9","5d30dfa68b1523000134878f","609a8bf73b2ac84e2732f618","609d7144e0decaa3d8a0a44f","null","","","","null","","","","key","16.66734246575283","960","468.5","","","","","","","","","","","","","","","","","","","",""
"psychophysics","273","517194","0.0-18.0-1.9","5d30dfa68b1523000134878f","609a8bf73b2ac84e2732f618","609d7144e0decaa3d8a0a44f","null","","","","null","","","","key","16.66772413793108","960","468.5","","","","","","","","","","","","","137","1","5","true","","","",""
"psychophysics","274","517362","0.0-18.0-2.9","5d30dfa68b1523000134878f","609a8bf73b2ac84e2732f618","609d7144e0decaa3d8a0a44f","164.6900000050664","","","","77","","","","key","16.668777777781038","960","468.5","","","","","","","","","","","","","","","","","","","",""
"psychophysics","275","518177","0.0-18.0-0.10","5d30dfa68b1523000134878f","609a8bf73b2ac84e2732f618","609d7144e0decaa3d8a0a44f","null","","","","null","","","","key","16.668479166666657","960","468.5","","","","","","","","","","","","","","","","","","","",""
"psychophysics","276","518678","0.0-18.0-1.10","5d30dfa68b1523000134878f","609a8bf73b2ac84e2732f618","609d7144e0decaa3d8a0a44f","null","","","","null","","","","key","16.66679310344826","960","468.5","","","","","","","","","","","","","137","-1","5","true","","","",""
"psychophysics","277","518714","0.0-18.0-2.10","5d30dfa68b1523000134878f","609a8bf73b2ac84e2732f618","609d7144e0decaa3d8a0a44f","34.19000003486872","","","","77","","","","key","16.653999999980442","960","468.5","","","","","","","","","","","","","","","","","","","",""
"psychophysics","278","519849","0.0-18.0-0.11","5d30dfa68b1523000134878f","609a8bf73b2ac84e2732f618","609d7144e0decaa3d8a0a44f","null","","","","null","","","","key","16.667776119403555","960","468.5","","","","","","","","","","","","","","","","","","","",""
"psychophysics","279","520350","0.0-18.0-1.11","5d30dfa68b1523000134878f","609a8bf73b2ac84e2732f618","609d7144e0decaa3d8a0a44f","null","","","","null","","","","key","16.670166666666045","960","468.5","","","","","","","","","","","","","137","1","3","true","","","",""
"psychophysics","280","520695","0.0-18.0-2.11","5d30dfa68b1523000134878f","609a8bf73b2ac84e2732f618","609d7144e0decaa3d8a0a44f","342.90000004693866","","","","90","","","","key","16.66852631578896","960","468.5","","","","","","","","","","","","","","","","","","","",""
"psychophysics","281","521350","0.0-18.0-0.12","5d30dfa68b1523000134878f","609a8bf73b2ac84e2732f618","609d7144e0decaa3d8a0a44f","null","","","","null","","","","key","16.66679487179499","960","468.5","","","","","","","","","","","","","","","","","","","",""
"psychophysics","282","521852","0.0-18.0-1.12","5d30dfa68b1523000134878f","609a8bf73b2ac84e2732f618","609d7144e0decaa3d8a0a44f","null","","","","null","","","","key","16.667482758621315","960","468.5","","","","","","","","","","","","","137","-1","0","true","","","",""
"psychophysics","283","522410","0.0-18.0-2.12","5d30dfa68b1523000134878f","609a8bf73b2ac84e2732f618","609d7144e0decaa3d8a0a44f","555.9349998366088","","","","90","","","","key","16.66559374999997","960","468.5","","","","","","","","","","","","","","","","","","","",""
"psychophysics","284","523272","0.0-18.0-0.13","5d30dfa68b1523000134878f","609a8bf73b2ac84e2732f618","609d7144e0decaa3d8a0a44f","null","","","","null","","","","key","16.667411764705893","960","468.5","","","","","","","","","","","","","","","","","","","",""
"psychophysics","285","523775","0.0-18.0-1.13","5d30dfa68b1523000134878f","609a8bf73b2ac84e2732f618","609d7144e0decaa3d8a0a44f","null","","","","null","","","","key","16.667379310342547","960","468.5","","","","","","","","","","","","","137","-1","5","true","","","",""
"psychophysics","286","523906","0.0-18.0-2.13","5d30dfa68b1523000134878f","609a8bf73b2ac84e2732f618","609d7144e0decaa3d8a0a44f","129.0100000333041","","","","77","","","","key","16.66957142857635","960","468.5","","","","","","","","","","","","","","","","","","","",""
"psychophysics","287","524937","0.0-18.0-0.14","5d30dfa68b1523000134878f","609a8bf73b2ac84e2732f618","609d7144e0decaa3d8a0a44f","null","","","","null","","","","key","16.668442622949293","960","468.5","","","","","","","","","","","","","","","","","","","",""
"psychophysics","288","525438","0.0-18.0-1.14","5d30dfa68b1523000134878f","609a8bf73b2ac84e2732f618","609d7144e0decaa3d8a0a44f","null","","","","null","","","","key","16.666620689657","960","468.5","","","","","","","","","","","","","137","1","3","true","","","",""
"psychophysics","289","525839","0.0-18.0-2.14","5d30dfa68b1523000134878f","609a8bf73b2ac84e2732f618","609d7144e0decaa3d8a0a44f","396.73499995842576","","","","90","","","","key","16.668782608694922","960","468.5","","","","","","","","","","","","","","","","","","","",""
"psychophysics","290","526848","0.0-18.0-0.15","5d30dfa68b1523000134878f","609a8bf73b2ac84e2732f618","609d7144e0decaa3d8a0a44f","null","","","","null","","","","key","16.66894915254226","960","468.5","","","","","","","","","","","","","","","","","","","",""
"psychophysics","291","527350","0.0-18.0-1.15","5d30dfa68b1523000134878f","609a8bf73b2ac84e2732f618","609d7144e0decaa3d8a0a44f","null","","","","null","","","","key","16.667133333336096","960","468.5","","","","","","","","","","","","","137","-1","4","true","","","",""
"psychophysics","292","527474","0.0-18.0-2.15","5d30dfa68b1523000134878f","609a8bf73b2ac84e2732f618","609d7144e0decaa3d8a0a44f","121.64500006474555","","","","77","","","","key","16.66699999999643","960","468.5","","","","","","","","","","","","","","","","","","","",""
"psychophysics","293","528426","0.0-18.0-0.16","5d30dfa68b1523000134878f","609a8bf73b2ac84e2732f618","609d7144e0decaa3d8a0a44f","null","","","","null","","","","key","16.666428571429737","960","468.5","","","","","","","","","","","","","","","","","","","",""
"psychophysics","294","528927","0.0-18.0-1.16","5d30dfa68b1523000134878f","609a8bf73b2ac84e2732f618","609d7144e0decaa3d8a0a44f","null","","","","null","","","","key","16.667448275863066","960","468.5","","","","","","","","","","","","","137","-1","2","true","","","",""
"psychophysics","295","529267","0.0-18.0-2.16","5d30dfa68b1523000134878f","609a8bf73b2ac84e2732f618","609d7144e0decaa3d8a0a44f","336.80499996989965","","","","90","","","","key","16.662650000001303","960","468.5","","","","","","","","","","","","","","","","","","","",""
"psychophysics","296","530638","0.0-18.0-0.17","5d30dfa68b1523000134878f","609a8bf73b2ac84e2732f618","609d7144e0decaa3d8a0a44f","null","","","","null","","","","key","16.667530864198337","960","468.5","","","","","","","","","","","","","","","","","","","",""
"psychophysics","297","531140","0.0-18.0-1.17","5d30dfa68b1523000134878f","609a8bf73b2ac84e2732f618","609d7144e0decaa3d8a0a44f","null","","","","null","","","","key","16.668448275858374","960","468.5","","","","","","","","","","","","","137","1","4","true","","","",""
"psychophysics","298","531328","0.0-18.0-2.17","5d30dfa68b1523000134878f","609a8bf73b2ac84e2732f618","609d7144e0decaa3d8a0a44f","186.71000003814697","","","","77","","","","key","16.673100000002886","960","468.5","","","","","","","","","","","","","","","","","","","",""
"psychophysics","299","532475","0.0-18.0-0.18","5d30dfa68b1523000134878f","609a8bf73b2ac84e2732f618","609d7144e0decaa3d8a0a44f","null","","","","null","","","","key","16.667470588235815","960","468.5","","","","","","","","","","","","","","","","","","","",""
"psychophysics","300","532977","0.0-18.0-1.18","5d30dfa68b1523000134878f","609a8bf73b2ac84e2732f618","609d7144e0decaa3d8a0a44f","null","","","","null","","","","key","16.667413793102806","960","468.5","","","","","","","","","","","","","137","-1","6","true","","","",""
"psychophysics","301","533058","0.0-18.0-2.18","5d30dfa68b1523000134878f","609a8bf73b2ac84e2732f618","609d7144e0decaa3d8a0a44f","78.84999993257225","","","","77","","","","key","16.674750000005588","960","468.5","","","","","","","","","","","","","","","","","","","",""
"psychophysics","302","534547","0.0-18.0-0.19","5d30dfa68b1523000134878f","609a8bf73b2ac84e2732f618","609d7144e0decaa3d8a0a44f","null","","","","null","","","","key","16.667102272726797","960","468.5","","","","","","","","","","","","","","","","","","","",""
"psychophysics","303","535050","0.0-18.0-1.19","5d30dfa68b1523000134878f","609a8bf73b2ac84e2732f618","609d7144e0decaa3d8a0a44f","null","","","","null","","","","key","16.67006896551827","960","468.5","","","","","","","","","","","","","137","1","6","true","","","",""
"psychophysics","304","535258","0.0-18.0-2.19","5d30dfa68b1523000134878f","609a8bf73b2ac84e2732f618","609d7144e0decaa3d8a0a44f","205.82999987527728","","","","77","","","","key","16.671666666661622","960","468.5","","","","","","","","","","","","","","","","","","","",""
"psychophysics","305","536113","0.0-18.0-0.20","5d30dfa68b1523000134878f","609a8bf73b2ac84e2732f618","609d7144e0decaa3d8a0a44f","null","","","","null","","","","key","16.667639999999665","960","468.5","","","","","","","","","","","","","","","","","","","",""
"psychophysics","306","536615","0.0-18.0-1.20","5d30dfa68b1523000134878f","609a8bf73b2ac84e2732f618","609d7144e0decaa3d8a0a44f","null","","","","null","","","","key","16.665413793104154","960","468.5","","","","","","","","","","","","","137","1","2","true","","","",""
"psychophysics","307","536737","0.0-18.0-2.20","5d30dfa68b1523000134878f","609a8bf73b2ac84e2732f618","609d7144e0decaa3d8a0a44f","120.27999991551042","","","","90","","","","key","16.66628571428425","960","468.5","","","","","","","","","","","","","","","","","","","",""
"psychophysics","308","537389","0.0-18.0-0.21","5d30dfa68b1523000134878f","609a8bf73b2ac84e2732f618","609d7144e0decaa3d8a0a44f","null","","","","null","","","","key","16.667526315787416","960","468.5","","","","","","","","","","","","","","","","","","","",""
"psychophysics","309","537891","0.0-18.0-1.21","5d30dfa68b1523000134878f","609a8bf73b2ac84e2732f618","609d7144e0decaa3d8a0a44f","null","","","","null","","","","key","16.665206896550632","960","468.5","","","","","","","","","","","","","137","-1","3","true","","","",""
"psychophysics","310","538058","0.0-18.0-2.21","5d30dfa68b1523000134878f","609a8bf73b2ac84e2732f618","609d7144e0decaa3d8a0a44f","164.45000004023314","","","","77","","","","key","16.663999999989755","960","468.5","","","","","","","","","","","","","","","","","","","",""
"psychophysics","311","539412","0.0-18.0-0.22","5d30dfa68b1523000134878f","609a8bf73b2ac84e2732f618","609d7144e0decaa3d8a0a44f","null","","","","null","","","","key","16.667574999999488","960","468.5","","","","","","","","","","","","","","","","","","","",""
"psychophysics","312","539913","0.0-18.0-1.22","5d30dfa68b1523000134878f","609a8bf73b2ac84e2732f618","609d7144e0decaa3d8a0a44f","null","","","","null","","","","key","16.668310344829386","960","468.5","","","","","","","","","","","","","137","1","5","true","","","",""
"psychophysics","313","540070","0.0-18.0-2.22","5d30dfa68b1523000134878f","609a8bf73b2ac84e2732f618","609d7144e0decaa3d8a0a44f","154.8250000923872","","","","77","","","","key","16.66111111110594","960","468.5","","","","","","","","","","","","","","","","","","","",""
"psychophysics","314","541267","0.0-18.0-0.23","5d30dfa68b1523000134878f","609a8bf73b2ac84e2732f618","609d7144e0decaa3d8a0a44f","null","","","","null","","","","key","16.66722857142865","960","468.5","","","","","","","","","","","","","","","","","","","",""
"psychophysics","315","541768","0.0-18.0-1.23","5d30dfa68b1523000134878f","609a8bf73b2ac84e2732f618","609d7144e0decaa3d8a0a44f","null","","","","null","","","","key","16.669533333333675","960","468.5","","","","","","","","","","","","","137","1","0","true","","","",""
"psychophysics","316","541864","0.0-18.0-2.23","5d30dfa68b1523000134878f","609a8bf73b2ac84e2732f618","609d7144e0decaa3d8a0a44f","94.36500002630055","","","","77","","","","key","16.674250000010943","960","468.5","","","","","","","","","","","","","","","","","","","",""
"psychophysics","317","542583","0.0-18.0-0.24","5d30dfa68b1523000134878f","609a8bf73b2ac84e2732f618","609d7144e0decaa3d8a0a44f","null","","","","null","","","","key","16.66630952380919","960","468.5","","","","","","","","","","","","","","","","","","","",""
"psychophysics","318","543084","0.0-18.0-1.24","5d30dfa68b1523000134878f","609a8bf73b2ac84e2732f618","609d7144e0decaa3d8a0a44f","null","","","","null","","","","key","16.668033333336158","960","468.5","","","","","","","","","","","","","137","1","5","true","","","",""
"psychophysics","319","543761","0.0-18.0-2.24","5d30dfa68b1523000134878f","609a8bf73b2ac84e2732f618","609d7144e0decaa3d8a0a44f","673.78000007011","","","","77","","","","key","16.669897435898655","960","468.5","","","","","","","","","","","","","","","","","","","",""
"psychophysics","320","544345","0.0-18.0-0.25","5d30dfa68b1523000134878f","609a8bf73b2ac84e2732f618","609d7144e0decaa3d8a0a44f","null","","","","null","","","","key","16.669411764706155","960","468.5","","","","","","","","","","","","","","","","","","","",""
"psychophysics","321","544847","0.0-18.0-1.25","5d30dfa68b1523000134878f","609a8bf73b2ac84e2732f618","609d7144e0decaa3d8a0a44f","null","","","","null","","","","key","16.665931034483947","960","468.5","","","","","","","","","","","","","137","-1","3","true","","","",""
"psychophysics","322","545018","0.0-18.0-2.25","5d30dfa68b1523000134878f","609a8bf73b2ac84e2732f618","609d7144e0decaa3d8a0a44f","168.40500012040138","","","","90","","","","key","16.658500000007916","960","468.5","","","","","","","","","","","","","","","","","","","",""
"psychophysics","323","545911","0.0-18.0-0.26","5d30dfa68b1523000134878f","609a8bf73b2ac84e2732f618","609d7144e0decaa3d8a0a44f","null","","","","null","","","","key","16.66888461538474","960","468.5","","","","","","","","","","","","","","","","","","","",""
"psychophysics","324","546413","0.0-18.0-1.26","5d30dfa68b1523000134878f","609a8bf73b2ac84e2732f618","609d7144e0decaa3d8a0a44f","null","","","","null","","","","key","16.66565517241392","960","468.5","","","","","","","","","","","","","137","-1","5","true","","","",""
"psychophysics","325","546641","0.0-18.0-2.26","5d30dfa68b1523000134878f","609a8bf73b2ac84e2732f618","609d7144e0decaa3d8a0a44f","224.94999994523823","","","","90","","","","key","16.670307692310487","960","468.5","","","","","","","","","","","","","","","","","","","",""
"psychophysics","326","547894","0.0-18.0-0.27","5d30dfa68b1523000134878f","609a8bf73b2ac84e2732f618","609d7144e0decaa3d8a0a44f","null","","","","null","","","","key","16.66759459459462","960","468.5","","","","","","","","","","","","","","","","","","","",""
"psychophysics","327","548395","0.0-18.0-1.27","5d30dfa68b1523000134878f","609a8bf73b2ac84e2732f618","609d7144e0decaa3d8a0a44f","null","","","","null","","","","key","16.66941379310146","960","468.5","","","","","","","","","","","","","137","-1","2","true","","","",""
"psychophysics","328","548680","0.0-18.0-2.27","5d30dfa68b1523000134878f","609a8bf73b2ac84e2732f618","609d7144e0decaa3d8a0a44f","282.694999827072","","","","90","","","","key","16.662374999999884","960","468.5","","","","","","","","","","","","","","","","","","","",""
