"trial_type","trial_index","time_elapsed","internal_node_id","PROLIFIC_PID","STUDY_ID","SESSION_ID","rt","stimulus","button_pressed","success","key_press","responses","isData","view_history","response_type","avg_frame_time","center_x","center_y","isSC","stim_side","trial_luminance","step_size","nReversal","correct","prev_ans","isThreshold","SC_threshold","final_threshold","isLuminance","FF_luminance","luminance","stimSide","ISInt","isFF","question_order","isSPQ","isCAPS","isAQ"
"pavlovia","0","9","0.0-0.0","60810ad6456ab71178acc056","609a8bf73b2ac84e2732f618","609d7b6de4f78cc8070c0cbf","","","","","","","","","","","","","","","","","","","","","","","","","","","","","","","",""
"html-button-response","1","174039","0.0-1.0","60810ad6456ab71178acc056","609a8bf73b2ac84e2732f618","609d7b6de4f78cc8070c0cbf","174027.22499985248","<div style='background-color: white; width:60%; margin: auto; padding: 50px; text-align: justify; text-justify: inter-word; margin-bottom: 20px;'><h1 style='text-align: center;'>Consent Form</h1><p>Please read this consent form carefully before deciding whether you would like to participate in this study. You have to be 18 years old or older to participate to this study.</p><p style='text-decoration: underline;'>Participation is voluntary:</p><p>It is your choice whether or not to participate in this research. If you choose to participate, you may change your mind and leave the study at any time. Refusal to participate or stopping your participation will involve no penalty or loss of benefits to which you are otherwise entitled.</p><p style='text-decoration: underline;'>Purpose of the Study:</p><p>To understand the mechanisms underlying human perception.</p><p style='text-decoration: underline;'>What you will do in this study:</p><p>You will be presented with a series of visual images and then you will press buttons on the keyboard of your computer to respond to simple questions about the images (e.g. Were one or two images presented?). In addition, you will be asked to complete a questionnaire concerning your beliefs and everyday mental and perceptual experiences.'</p><p style='text-decoration: underline;'> Time Required:</p><p>The study will take 40 minutes to complete. </p><p style='text-decoration: underline;'>Risks:</p><p>There are no anticipated risks associated with participating in this study that are beyond those experienced in everyday life. </p><p style='text-decoration: underline;'>Benefits:</p><p>There are no benefits to you in participating in the study. However, this study may lead to a better understanding of how different kinds of visual information are used.</p><p style='text-decoration: underline;'>Compensation:</p><p>You will be paid US$6.6/hour. </p><p style='text-decoration: underline;'>Privacy and Confidentiality:</p><p>Your participation in this study will be anonymous. No personal information about your name or identity will be asked or recorded. This anonymous data will be stored for several years and may be used for a variety of research purposes. The overall results of the study may be published, or the data files may be shared with other researchers, but your identity will not be revealed in any way. The online services we are using for this study may temporarily store your data, but this data will be downloaded and then promptly deleted from those services.Your data will not be permanently associated with your name, IP address, or any other identifiable information (e.g., your information will only be connected to your payment, not to any of your responses), though they may be temporarily stored together before we download and separate them. Even so, no guarantee of internet survey security can be given because, although unlikely, transmissions can be intercepted and IP addresses can be identified. The anonymous data may be shared publicly (for example, in conjunction with a resulting academic publication).</p><p style='text-decoration: underline;'>Participation and Withdrawal:</p><p>Your participation in this study is completely voluntary. You may stop responding to the stimuli or stop answering questions if you so choose and without penalty by exiting the full screen mode, closing this tab of your browser or redirecting it to a different website.</p><p style='text-decoration: underline;'>Contact Info of the Researcher: </p><p>If you have questions about this study, or if you would like to talk to the research team, please contact David Melcher (david.melcher@nyu.edu, md5050@nyu.edu) at the Perception and Active Cognition Laboratory, New York University Abu Dhabi, Computational Research Building, Saadiyat Island, Abu Dhabi, UAE.This research has been reviewed by the New York University Abu Dhabi Institutional Review Board (NYUAD IRB). To contact about your rights in this research, for questions, suggestions, or complaints that are not addressed by the researchers, please email IRBnyuad@nyu.edu, or call the NYUAD IRB at +971 2 628 4313. </p></div>","0","","","","","","","","","","","","","","","","","","","","","","","","","","","","",""
"fullscreen","2","175888","0.0-2.0","60810ad6456ab71178acc056","609a8bf73b2ac84e2732f618","609d7b6de4f78cc8070c0cbf","","","","true","","","","","","","","","","","","","","","","","","","","","","","","","","","",""
"html-keyboard-response","3","185537","0.0-3.0","60810ad6456ab71178acc056","609a8bf73b2ac84e2732f618","609d7b6de4f78cc8070c0cbf","9648.040000116453","<p>Welcome !</p><p>READ CAREFULLY THE FOLLOWING INDICATIONS:</p><p>From this moment you have ~40 minutes to complete the experiment.</p><p>During the experiment you will be prompted to take several breaks. Each break should not last longer than 2-3 minutes.</p><p>Make sure that your computer is plugged in and it's not running on battery power, even if the battery is already fully charged.</p><p>Turn off your phone and music, make sure that you are in a quiet room and that you will not be distracted for the next hour.</p><p>Failure to comply with the instructions and indications provided during the experiment will most likely result in the rejection of your data.<p>Press the spacebar to start.</p>","","","32","","","","","","","","","","","","","","","","","","","","","","","","","","",""
"survey-html-form","4","193974","0.0-4.0","60810ad6456ab71178acc056","609a8bf73b2ac84e2732f618","609d7b6de4f78cc8070c0cbf","8435.565000167117","","","","","{""age"":""23"",""sex"":""m""}","true","","","","","","","","","","","","","","","","","","","","","","","","",""
"instructions","5","268254","0.0-5.0","60810ad6456ab71178acc056","609a8bf73b2ac84e2732f618","609d7b6de4f78cc8070c0cbf","74279.33999989182","","","","","","","[{""page_index"":0,""viewing_time"":55631.2199998647},{""page_index"":1,""viewing_time"":15047.454999992624},{""page_index"":2,""viewing_time"":3600.4000001121312}]","","","","","","","","","","","","","","","","","","","","","","","",""
"psychophysics","6","273313","0.0-6.0-0.0","60810ad6456ab71178acc056","609a8bf73b2ac84e2732f618","609d7b6de4f78cc8070c0cbf","4055.0199998542666","","","","37","","","","key","16.721613861386057","960","488","true","-1","180","30","0","-1","","","","","","","","","","","","","",""
"psychophysics","7","275168","0.0-6.0-0.1","60810ad6456ab71178acc056","609a8bf73b2ac84e2732f618","609d7b6de4f78cc8070c0cbf","851.1099999304861","","","","39","","","","key","16.666881818181984","960","488","true","1","180","30","0","-1","-1","","","","","","","","","","","","",""
"psychophysics","8","276616","0.0-6.0-0.2","60810ad6456ab71178acc056","609a8bf73b2ac84e2732f618","609d7b6de4f78cc8070c0cbf","445.5150000285357","","","","39","","","","key","16.665918604650827","960","488","true","1","150","30","0","-1","-1","","","","","","","","","","","","",""
"psychophysics","9","278856","0.0-6.0-0.3","60810ad6456ab71178acc056","609a8bf73b2ac84e2732f618","609d7b6de4f78cc8070c0cbf","1238.4650001768023","","","","37","","","","key","16.666383458646294","960","488","true","-1","150","30","0","-1","-1","","","","","","","","","","","","",""
"psychophysics","10","288464","0.0-6.0-0.4","60810ad6456ab71178acc056","609a8bf73b2ac84e2732f618","609d7b6de4f78cc8070c0cbf","8605.334999971092","","","","39","","","","key","16.66653472222222","960","488","true","1","129","30","0","-1","-1","","","","","","","","","","","","",""
"psychophysics","11","295432","0.0-6.0-0.5","60810ad6456ab71178acc056","609a8bf73b2ac84e2732f618","609d7b6de4f78cc8070c0cbf","5963.565000100061","","","","39","","","","key","16.66658273381287","960","488","true","-1","129","24","1","1","-1","","","","","","","","","","","","",""
"psychophysics","12","296856","0.0-6.0-0.6","60810ad6456ab71178acc056","609a8bf73b2ac84e2732f618","609d7b6de4f78cc8070c0cbf","420.0150000397116","","","","37","","","","key","16.666333333333437","960","488","true","-1","153","24","1","-1","1","","","","","","","","","","","","",""
"psychophysics","13","298208","0.0-6.0-0.7","60810ad6456ab71178acc056","609a8bf73b2ac84e2732f618","609d7b6de4f78cc8070c0cbf","349.06000015325844","","","","39","","","","key","16.665237499999783","960","488","true","1","153","19.2","2","-1","-1","","","","","","","","","","","","",""
"psychophysics","14","299696","0.0-6.0-0.8","60810ad6456ab71178acc056","609a8bf73b2ac84e2732f618","609d7b6de4f78cc8070c0cbf","479.9699999857694","","","","37","","","","key","16.666505617977727","960","488","true","-1","133.8","19.2","2","-1","-1","","","","","","","","","","","","",""
"psychophysics","15","301072","0.0-6.0-0.9","60810ad6456ab71178acc056","609a8bf73b2ac84e2732f618","609d7b6de4f78cc8070c0cbf","373.7299998756498","","","","39","","","","key","16.666518518518668","960","488","true","1","133.8","19.2","2","-1","-1","","","","","","","","","","","","",""
"psychophysics","16","302928","0.0-6.0-0.10","60810ad6456ab71178acc056","609a8bf73b2ac84e2732f618","609d7b6de4f78cc8070c0cbf","852.0850001368672","","","","39","","","","key","16.66640540540558","960","488","true","-1","129","15.36","3","1","-1","","","","","","","","","","","","",""
"psychophysics","17","304264","0.0-6.0-0.11","60810ad6456ab71178acc056","609a8bf73b2ac84e2732f618","609d7b6de4f78cc8070c0cbf","333.4250000771135","","","","39","","","","key","16.66581012658212","960","488","true","1","144.36","15.36","3","-1","1","","","","","","","","","","","","",""
"psychophysics","18","305592","0.0-6.0-0.12","60810ad6456ab71178acc056","609a8bf73b2ac84e2732f618","609d7b6de4f78cc8070c0cbf","325.514999916777","","","","39","","","","key","16.66674358974351","960","488","true","1","144.36","12.287999999999998","4","-1","-1","","","","","","","","","","","","",""
"psychophysics","19","307096","0.0-6.0-0.13","60810ad6456ab71178acc056","609a8bf73b2ac84e2732f618","609d7b6de4f78cc8070c0cbf","500.315000070259","","","","39","","","","key","16.66633333333302","960","488","true","-1","132.072","9.8304","5","1","-1","","","","","","","","","","","","",""
"psychophysics","20","308744","0.0-6.0-0.14","60810ad6456ab71178acc056","609a8bf73b2ac84e2732f618","609d7b6de4f78cc8070c0cbf","645.469999872148","","","","39","","","","key","16.666499999999804","960","488","true","1","141.9024","9.8304","5","-1","1","","","","","","","","","","","","",""
"psychophysics","21","310040","0.0-6.0-0.15","60810ad6456ab71178acc056","609a8bf73b2ac84e2732f618","609d7b6de4f78cc8070c0cbf","294.14999997243285","","","","39","","","","key","16.666236842104762","960","488","true","1","141.9024","7.864319999999999","6","-1","-1","","","","","","","","","","","","",""
"psychophysics","22","311848","0.0-6.0-0.16","60810ad6456ab71178acc056","609a8bf73b2ac84e2732f618","609d7b6de4f78cc8070c0cbf","805.4949999786913","","","","37","","","","key","16.66648148148185","960","488","true","-1","134.03808","7.864319999999999","6","-1","-1","","","","","","","","","","","","",""
"psychophysics","23","313384","0.0-6.0-0.17","60810ad6456ab71178acc056","609a8bf73b2ac84e2732f618","609d7b6de4f78cc8070c0cbf","533.6849999148399","","","","37","","","","key","16.666054945054675","960","488","true","-1","134.03808","7.864319999999999","6","-1","-1","","","","","","","","","","","","",""
"psychophysics","24","314872","0.0-6.0-0.18","60810ad6456ab71178acc056","609a8bf73b2ac84e2732f618","609d7b6de4f78cc8070c0cbf","486.6299999412149","","","","37","","","","key","16.6668181818181","960","488","true","-1","129","7.864319999999999","6","-1","-1","","","","","","","","","","","","",""
"psychophysics","25","316272","0.0-6.0-0.19","60810ad6456ab71178acc056","609a8bf73b2ac84e2732f618","609d7b6de4f78cc8070c0cbf","396.1350000463426","","","","37","","","","key","16.666108433735076","960","488","true","1","129","6.291456","7","1","-1","","","","","","","","","","","","",""
"psychophysics","26","317592","0.0-6.0-0.20","60810ad6456ab71178acc056","609a8bf73b2ac84e2732f618","609d7b6de4f78cc8070c0cbf","315.9999998752028","","","","39","","","","key","16.666756410256195","960","488","true","1","135.291456","6.291456","7","-1","1","","","","","","","","","","","","",""
"psychophysics","27","319304","0.0-6.0-0.21","60810ad6456ab71178acc056","609a8bf73b2ac84e2732f618","609d7b6de4f78cc8070c0cbf","709.610000019893","","","","37","","","","key","16.666509803921535","960","488","true","-1","135.291456","5.033164800000001","8","-1","-1","","","","","","","","","","","","",""
"psychophysics","28","320872","0.0-6.0-0.22","60810ad6456ab71178acc056","609a8bf73b2ac84e2732f618","609d7b6de4f78cc8070c0cbf","566.069999942556","","","","39","","","","key","16.66627956989224","960","488","true","-1","130.2582912","4.0265318400000005","9","1","-1","","","","","","","","","","","","",""
"psychophysics","29","321888","0.0-6.0-0.23","60810ad6456ab71178acc056","609a8bf73b2ac84e2732f618","609d7b6de4f78cc8070c0cbf","12.255000183358788","","","","37","","","","key","16.6661666666662","960","488","true","-1","134.28482304","4.0265318400000005","9","-1","1","","","","","","","","","","","","",""
"psychophysics","30","323152","0.0-6.0-0.24","60810ad6456ab71178acc056","609a8bf73b2ac84e2732f618","609d7b6de4f78cc8070c0cbf","262.3499999754131","","","","37","","","","key","16.666173333333184","960","488","true","-1","134.28482304","3.2212254720000004","10","-1","-1","","","","","","","","","","","","",""
"psychophysics","31","324624","0.0-6.0-0.25","60810ad6456ab71178acc056","609a8bf73b2ac84e2732f618","609d7b6de4f78cc8070c0cbf","469.72499997355044","","","","37","","","","key","16.66586206896544","960","488","true","-1","131.06359756799998","3.2212254720000004","10","-1","-1","","","","","","","","","","","","",""
"psychophysics","32","326112","0.0-6.0-0.26","60810ad6456ab71178acc056","609a8bf73b2ac84e2732f618","609d7b6de4f78cc8070c0cbf","486.2849998753518","","","","37","","","","key","16.66655056179747","960","488","true","1","131.06359756799998","2.5769803776000004","11","1","-1","","","","","","","","","","","","",""
"psychophysics","33","327824","0.0-6.0-0.27","60810ad6456ab71178acc056","609a8bf73b2ac84e2732f618","609d7b6de4f78cc8070c0cbf","707.715000025928","","","","37","","","","key","16.666712871287018","960","488","true","-1","133.64057794559997","2.5769803776000004","11","-1","1","","","","","","","","","","","","",""
"psychophysics","34","329168","0.0-6.0-0.28","60810ad6456ab71178acc056","609a8bf73b2ac84e2732f618","609d7b6de4f78cc8070c0cbf","341.9199998024851","","","","39","","","","key","16.666662499999802","960","488","true","1","133.64057794559997","2.0615843020800004","12","-1","-1","","","","","","","","","","","","",""
"psychophysics","35","330832","0.0-6.0-0.29","60810ad6456ab71178acc056","609a8bf73b2ac84e2732f618","609d7b6de4f78cc8070c0cbf","661.409999942407","","","","37","","","","key","16.66651515151501","960","488","true","-1","131.57899364351996","2.0615843020800004","12","-1","-1","","","","","","","","","","","","",""
"psychophysics","36","332448","0.0-6.0-0.30","60810ad6456ab71178acc056","609a8bf73b2ac84e2732f618","609d7b6de4f78cc8070c0cbf","614.2450000625104","","","","37","","","","key","16.666593750000175","960","488","true","-1","131.57899364351996","2.0615843020800004","12","-1","-1","","","","","","","","","","","","",""
"psychophysics","37","335296","0.0-6.0-0.31","60810ad6456ab71178acc056","609a8bf73b2ac84e2732f618","609d7b6de4f78cc8070c0cbf","1846.2200001813471","","","","39","","","","key","16.666470588235224","960","488","true","1","129.51740934143996","2.0615843020800004","12","-1","-1","","","","","","","","","","","","",""
"psychophysics","38","337632","0.0-6.0-0.32","60810ad6456ab71178acc056","609a8bf73b2ac84e2732f618","609d7b6de4f78cc8070c0cbf","1332.4499998707324","","","","37","","","","key","16.666697841726844","960","488","true","1","129.51740934143996","1.6492674416640005","13","1","-1","","","","","","","","","","","","",""
"psychophysics","39","340312","0.0-6.0-0.33","60810ad6456ab71178acc056","609a8bf73b2ac84e2732f618","609d7b6de4f78cc8070c0cbf","1678.2599999569356","","","","39","","","","key","16.666331250000077","960","488","true","1","131.16667678310395","1.6492674416640005","13","-1","1","","","","","","","","","","","","",""
"psychophysics","40","343512","0.0-6.0-0.34","60810ad6456ab71178acc056","609a8bf73b2ac84e2732f618","609d7b6de4f78cc8070c0cbf","2198.820000048727","","","","39","","","","key","16.666455497382227","960","488","true","1","131.16667678310395","1.3194139533312006","14","-1","-1","","","","","","","","","","","","",""
"psychophysics","41","346840","0.0-6.0-0.35","60810ad6456ab71178acc056","609a8bf73b2ac84e2732f618","609d7b6de4f78cc8070c0cbf","2323.3700001146644","","","","37","","","","key","16.66639898989921","960","488","true","1","129.84726282977275","1.0555311626649604","15","1","-1","","","","","","","","","","","","",""
"psychophysics","42","357568","0.0-6.0-0.36","60810ad6456ab71178acc056","609a8bf73b2ac84e2732f618","609d7b6de4f78cc8070c0cbf","9724.364999914542","","","","39","","","","key","16.666433903576973","960","488","true","-1","130.9027939924377","1.0555311626649604","15","1","1","","","","","","","","","","","","",""
"psychophysics","43","358936","0.0-6.0-0.37","60810ad6456ab71178acc056","609a8bf73b2ac84e2732f618","609d7b6de4f78cc8070c0cbf","364.5900001283735","","","","39","","","","key","16.66628395061707","960","488","true","1","131.95832515510264","1.0555311626649604","15","-1","1","","","","","","","","","","","","",""
"psychophysics","44","361384","0.0-6.0-0.38","60810ad6456ab71178acc056","609a8bf73b2ac84e2732f618","609d7b6de4f78cc8070c0cbf","1444.779999786988","","","","37","","","","key","16.66645890410969","960","488","true","1","131.95832515510264","1","16","1","-1","","","","","","","","","","","","",""
"psychophysics","45","364200","0.0-6.0-0.39","60810ad6456ab71178acc056","609a8bf73b2ac84e2732f618","609d7b6de4f78cc8070c0cbf","1813.5450000409037","","","","39","","","","key","16.66641666666657","960","488","true","-1","132.95832515510264","1","16","1","1","","","","","","","","","","","","",""
"html-keyboard-response","46","369569","0.0-7.0","60810ad6456ab71178acc056","609a8bf73b2ac84e2732f618","609d7b6de4f78cc8070c0cbf","5367.070000153035","<p>Well Done !</p><p>Prepare for a new block.</p><p>DON'T EXIT THE FULL SCREEN MODE</p><p>Press the Spacebar to start.</p>","","","32","","","","","","","","","","","","","","","true","131.43730285672302","","","","","","","","","","",""
"psychophysics","47","371216","0.0-8.0-0.0","60810ad6456ab71178acc056","609a8bf73b2ac84e2732f618","609d7b6de4f78cc8070c0cbf","643.3699999470264","","","","39","","","","key","16.667191919192174","960","488","true","1","180","30","0","-1","","","","","","","","","","","","","",""
"psychophysics","48","372408","0.0-8.0-0.1","60810ad6456ab71178acc056","609a8bf73b2ac84e2732f618","609d7b6de4f78cc8070c0cbf","187.4750000424683","","","","37","","","","key","16.666126760563152","960","488","true","-1","180","30","0","-1","-1","","","","","","","","","","","","",""
"psychophysics","49","373704","0.0-8.0-0.2","60810ad6456ab71178acc056","609a8bf73b2ac84e2732f618","609d7b6de4f78cc8070c0cbf","285.04999983124435","","","","39","","","","key","16.66621052631557","960","488","true","1","150","30","0","-1","-1","","","","","","","","","","","","",""
"psychophysics","50","375032","0.0-8.0-0.3","60810ad6456ab71178acc056","609a8bf73b2ac84e2732f618","609d7b6de4f78cc8070c0cbf","325.88499994017184","","","","37","","","","key","16.66563291139267","960","488","true","-1","150","30","0","-1","-1","","","","","","","","","","","","",""
"psychophysics","51","377648","0.0-8.0-0.4","60810ad6456ab71178acc056","609a8bf73b2ac84e2732f618","609d7b6de4f78cc8070c0cbf","1608.8449999224395","","","","39","","","","key","16.666500000000294","960","488","true","-1","129","24","1","1","-1","","","","","","","","","","","","",""
"psychophysics","52","379000","0.0-8.0-0.5","60810ad6456ab71178acc056","609a8bf73b2ac84e2732f618","609d7b6de4f78cc8070c0cbf","344.65000010095537","","","","37","","","","key","16.666237499999987","960","488","true","-1","153","24","1","-1","1","","","","","","","","","","","","",""
"psychophysics","53","380712","0.0-8.0-0.6","60810ad6456ab71178acc056","609a8bf73b2ac84e2732f618","609d7b6de4f78cc8070c0cbf","706.0349998064339","","","","39","","","","key","16.666382352940797","960","488","true","1","153","19.2","2","-1","-1","","","","","","","","","","","","",""
"psychophysics","54","382120","0.0-8.0-0.7","60810ad6456ab71178acc056","609a8bf73b2ac84e2732f618","609d7b6de4f78cc8070c0cbf","398.344999877736","","","","37","","","","key","16.666855421686595","960","488","true","-1","133.8","19.2","2","-1","-1","","","","","","","","","","","","",""
"psychophysics","55","383528","0.0-8.0-0.8","60810ad6456ab71178acc056","609a8bf73b2ac84e2732f618","609d7b6de4f78cc8070c0cbf","405.44000011868775","","","","39","","","","key","16.666130952381145","960","488","true","1","133.8","19.2","2","-1","-1","","","","","","","","","","","","",""
"psychophysics","56","385320","0.0-8.0-0.9","60810ad6456ab71178acc056","609a8bf73b2ac84e2732f618","609d7b6de4f78cc8070c0cbf","786.2100000493228","","","","37","","","","key","16.66645283018841","960","488","true","1","129","15.36","3","1","-1","","","","","","","","","","","","",""
"psychophysics","57","386672","0.0-8.0-0.10","60810ad6456ab71178acc056","609a8bf73b2ac84e2732f618","609d7b6de4f78cc8070c0cbf","349.5149998925626","","","","37","","","","key","16.66632499999978","960","488","true","-1","144.36","15.36","3","-1","1","","","","","","","","","","","","",""
"psychophysics","58","388016","0.0-8.0-0.11","60810ad6456ab71178acc056","609a8bf73b2ac84e2732f618","609d7b6de4f78cc8070c0cbf","333.96499999798834","","","","39","","","","key","16.66640000000043","960","488","true","1","144.36","12.287999999999998","4","-1","-1","","","","","","","","","","","","",""
"psychophysics","59","389552","0.0-8.0-0.12","60810ad6456ab71178acc056","609a8bf73b2ac84e2732f618","609d7b6de4f78cc8070c0cbf","529.2100000660866","","","","37","","","","key","16.66583516483533","960","488","true","1","132.072","9.8304","5","1","-1","","","","","","","","","","","","",""
"psychophysics","60","390632","0.0-8.0-0.13","60810ad6456ab71178acc056","609a8bf73b2ac84e2732f618","609d7b6de4f78cc8070c0cbf","76.0300001129508","","","","39","","","","key","16.66706250000061","960","488","true","1","141.9024","9.8304","5","-1","1","","","","","","","","","","","","",""
"psychophysics","61","391696","0.0-8.0-0.14","60810ad6456ab71178acc056","609a8bf73b2ac84e2732f618","609d7b6de4f78cc8070c0cbf","57.22999991849065","","","","37","","","","key","16.666380952380315","960","488","true","-1","141.9024","7.864319999999999","6","-1","-1","","","","","","","","","","","","",""
"psychophysics","62","392888","0.0-8.0-0.15","60810ad6456ab71178acc056","609a8bf73b2ac84e2732f618","609d7b6de4f78cc8070c0cbf","182.1349998936057","","","","37","","","","key","16.66645714285717","960","488","true","-1","134.03808","7.864319999999999","6","-1","-1","","","","","","","","","","","","",""
"psychophysics","63","393944","0.0-8.0-0.16","60810ad6456ab71178acc056","609a8bf73b2ac84e2732f618","609d7b6de4f78cc8070c0cbf","54.20999997295439","","","","39","","","","key","16.66653968254012","960","488","true","1","134.03808","7.864319999999999","6","-1","-1","","","","","","","","","","","","",""
"psychophysics","64","395360","0.0-8.0-0.17","60810ad6456ab71178acc056","609a8bf73b2ac84e2732f618","609d7b6de4f78cc8070c0cbf","413.44999987632036","","","","39","","","","key","16.666071428571566","960","488","true","1","129","7.864319999999999","6","-1","-1","","","","","","","","","","","","",""
"psychophysics","65","396744","0.0-8.0-0.18","60810ad6456ab71178acc056","609a8bf73b2ac84e2732f618","609d7b6de4f78cc8070c0cbf","373.11000004410744","","","","39","","","","key","16.66646341463372","960","488","true","-1","129","6.291456","7","1","-1","","","","","","","","","","","","",""
"psychophysics","66","398112","0.0-8.0-0.19","60810ad6456ab71178acc056","609a8bf73b2ac84e2732f618","609d7b6de4f78cc8070c0cbf","365.25500006973743","","","","37","","","","key","16.66658024691379","960","488","true","-1","135.291456","6.291456","7","-1","1","","","","","","","","","","","","",""
"psychophysics","67","399520","0.0-8.0-0.20","60810ad6456ab71178acc056","609a8bf73b2ac84e2732f618","609d7b6de4f78cc8070c0cbf","405.0849999766797","","","","37","","","","key","16.665771084337592","960","488","true","-1","135.291456","5.033164800000001","8","-1","-1","","","","","","","","","","","","",""
"psychophysics","68","401760","0.0-8.0-0.21","60810ad6456ab71178acc056","609a8bf73b2ac84e2732f618","609d7b6de4f78cc8070c0cbf","1238.0699999630451","","","","39","","","","key","16.666485074626493","960","488","true","1","130.2582912","5.033164800000001","8","-1","-1","","","","","","","","","","","","",""
"psychophysics","69","404000","0.0-8.0-0.22","60810ad6456ab71178acc056","609a8bf73b2ac84e2732f618","609d7b6de4f78cc8070c0cbf","1227.6800000108778","","","","37","","","","key","16.666586466165544","960","488","true","1","130.2582912","4.0265318400000005","9","1","-1","","","","","","","","","","","","",""
"psychophysics","70","405376","0.0-8.0-0.23","60810ad6456ab71178acc056","609a8bf73b2ac84e2732f618","609d7b6de4f78cc8070c0cbf","370.3400001395494","","","","37","","","","key","16.666378048780267","960","488","true","-1","134.28482304","4.0265318400000005","9","-1","1","","","","","","","","","","","","",""
"psychophysics","71","406704","0.0-8.0-0.24","60810ad6456ab71178acc056","609a8bf73b2ac84e2732f618","609d7b6de4f78cc8070c0cbf","318.52500000968575","","","","39","","","","key","16.666256410256327","960","488","true","1","134.28482304","3.2212254720000004","10","-1","-1","","","","","","","","","","","","",""
"psychophysics","72","408184","0.0-8.0-0.25","60810ad6456ab71178acc056","609a8bf73b2ac84e2732f618","609d7b6de4f78cc8070c0cbf","477.68000001087785","","","","39","","","","key","16.666170454545696","960","488","true","1","131.06359756799998","3.2212254720000004","10","-1","-1","","","","","","","","","","","","",""
"psychophysics","73","409488","0.0-8.0-0.26","60810ad6456ab71178acc056","609a8bf73b2ac84e2732f618","609d7b6de4f78cc8070c0cbf","298.9600000437349","","","","39","","","","key","16.666454545454297","960","488","true","1","131.06359756799998","3.2212254720000004","10","-1","-1","","","","","","","","","","","","",""
"psychophysics","74","411624","0.0-8.0-0.27","60810ad6456ab71178acc056","609a8bf73b2ac84e2732f618","609d7b6de4f78cc8070c0cbf","1134.7100001294166","","","","37","","","","key","16.66643750000003","960","488","true","-1","129","3.2212254720000004","10","-1","-1","","","","","","","","","","","","",""
"psychophysics","75","413464","0.0-8.0-0.28","60810ad6456ab71178acc056","609a8bf73b2ac84e2732f618","609d7b6de4f78cc8070c0cbf","828.3499998506159","","","","39","","","","key","16.665981651376185","960","488","true","-1","129","2.5769803776000004","11","1","-1","","","","","","","","","","","","",""
"psychophysics","76","415360","0.0-8.0-0.29","60810ad6456ab71178acc056","609a8bf73b2ac84e2732f618","609d7b6de4f78cc8070c0cbf","889.8950000293553","","","","37","","","","key","16.66619469026522","960","488","true","1","131.5769803776","2.5769803776000004","11","1","1","","","","","","","","","","","","",""
"psychophysics","77","419832","0.0-8.0-0.30","60810ad6456ab71178acc056","609a8bf73b2ac84e2732f618","609d7b6de4f78cc8070c0cbf","3463.7349999975413","","","","39","","","","key","16.666498127340883","960","488","true","1","134.1539607552","2.5769803776000004","11","-1","1","","","","","","","","","","","","",""
"psychophysics","78","421744","0.0-8.0-0.31","60810ad6456ab71178acc056","609a8bf73b2ac84e2732f618","609d7b6de4f78cc8070c0cbf","905.1149999722838","","","","37","","","","key","16.666570175438608","960","488","true","-1","134.1539607552","2.0615843020800004","12","-1","-1","","","","","","","","","","","","",""
"psychophysics","79","423064","0.0-8.0-0.32","60810ad6456ab71178acc056","609a8bf73b2ac84e2732f618","609d7b6de4f78cc8070c0cbf","315.16500003635883","","","","39","","","","key","16.666038461538474","960","488","true","1","132.09237645311998","2.0615843020800004","12","-1","-1","","","","","","","","","","","","",""
"psychophysics","80","424416","0.0-8.0-0.33","60810ad6456ab71178acc056","609a8bf73b2ac84e2732f618","609d7b6de4f78cc8070c0cbf","344.150000018999","","","","39","","","","key","16.66578750000044","960","488","true","1","132.09237645311998","2.0615843020800004","12","-1","-1","","","","","","","","","","","","",""
"psychophysics","81","426616","0.0-8.0-0.34","60810ad6456ab71178acc056","609a8bf73b2ac84e2732f618","609d7b6de4f78cc8070c0cbf","1197.0200000796467","","","","37","","","","key","16.666305343511173","960","488","true","-1","130.03079215103998","2.0615843020800004","12","-1","-1","","","","","","","","","","","","",""
"psychophysics","82","428311","0.0-8.0-0.35","60810ad6456ab71178acc056","609a8bf73b2ac84e2732f618","609d7b6de4f78cc8070c0cbf","689.479999942705","","","","39","","","","key","16.66602970297001","960","488","true","-1","130.03079215103998","1.6492674416640005","13","1","-1","","","","","","","","","","","","",""
"psychophysics","83","429752","0.0-8.0-0.36","60810ad6456ab71178acc056","609a8bf73b2ac84e2732f618","609d7b6de4f78cc8070c0cbf","429.8200001940131","","","","37","","","","key","16.666470588234883","960","488","true","-1","131.68005959270397","1.6492674416640005","13","-1","1","","","","","","","","","","","","",""
"psychophysics","84","431112","0.0-8.0-0.37","60810ad6456ab71178acc056","609a8bf73b2ac84e2732f618","609d7b6de4f78cc8070c0cbf","356.5299999900162","","","","37","","","","key","16.665876543209716","960","488","true","-1","131.68005959270397","1.3194139533312006","14","-1","-1","","","","","","","","","","","","",""
"psychophysics","85","433920","0.0-8.0-0.38","60810ad6456ab71178acc056","609a8bf73b2ac84e2732f618","609d7b6de4f78cc8070c0cbf","1802.509999834001","","","","37","","","","key","16.66637125748494","960","488","true","-1","130.36064563937276","1.3194139533312006","14","-1","-1","","","","","","","","","","","","",""
"psychophysics","86","435752","0.0-8.0-0.39","60810ad6456ab71178acc056","609a8bf73b2ac84e2732f618","609d7b6de4f78cc8070c0cbf","829.5249999500811","","","","39","","","","key","16.666458715596065","960","488","true","1","130.36064563937276","1.3194139533312006","14","-1","-1","","","","","","","","","","","","",""
"html-keyboard-response","87","438224","0.0-9.0","60810ad6456ab71178acc056","609a8bf73b2ac84e2732f618","609d7b6de4f78cc8070c0cbf","2470.6399999558926","<p>Well Done !</p><p>Prepare for a new block.</p><p>DON'T EXIT THE FULL SCREEN MODE</p><p>Press the Spacebar to start.</p>","","","32","","","","","","","","","","","","","","","true","131.22265631309818","","","","","","","","","","",""
"psychophysics","88","439264","0.0-10.0-0.0","60810ad6456ab71178acc056","609a8bf73b2ac84e2732f618","609d7b6de4f78cc8070c0cbf","35.05999990738928","","","","39","","","","key","16.667983870967404","960","488","true","1","180","30","0","-1","","","","","","","","","","","","","",""
"psychophysics","89","442368","0.0-10.0-0.1","60810ad6456ab71178acc056","609a8bf73b2ac84e2732f618","609d7b6de4f78cc8070c0cbf","2101.9350001588464","","","","39","","","","key","16.666427027026973","960","488","true","-1","180","30","0","1","-1","","","","","","","","","","","","",""
"psychophysics","90","443808","0.0-10.0-0.2","60810ad6456ab71178acc056","609a8bf73b2ac84e2732f618","609d7b6de4f78cc8070c0cbf","437.84000002779067","","","","39","","","","key","16.66640697674471","960","488","true","1","210","30","0","-1","1","","","","","","","","","","","","",""
"psychophysics","91","445072","0.0-10.0-0.3","60810ad6456ab71178acc056","609a8bf73b2ac84e2732f618","609d7b6de4f78cc8070c0cbf","261.5749998949468","","","","37","","","","key","16.666162162161797","960","488","true","-1","210","24","1","-1","-1","","","","","","","","","","","","",""
"psychophysics","92","446312","0.0-10.0-0.4","60810ad6456ab71178acc056","609a8bf73b2ac84e2732f618","609d7b6de4f78cc8070c0cbf","236.71499988995492","","","","37","","","","key","16.665959459458907","960","488","true","-1","186","24","1","-1","-1","","","","","","","","","","","","",""
"psychophysics","93","447656","0.0-10.0-0.5","60810ad6456ab71178acc056","609a8bf73b2ac84e2732f618","609d7b6de4f78cc8070c0cbf","341.939999954775","","","","39","","","","key","16.666249999999856","960","488","true","1","186","24","1","-1","-1","","","","","","","","","","","","",""
"psychophysics","94","448984","0.0-10.0-0.6","60810ad6456ab71178acc056","609a8bf73b2ac84e2732f618","609d7b6de4f78cc8070c0cbf","324.39500000327826","","","","37","","","","key","16.66626923076901","960","488","true","-1","162","24","1","-1","-1","","","","","","","","","","","","",""
"psychophysics","95","450280","0.0-10.0-0.7","60810ad6456ab71178acc056","609a8bf73b2ac84e2732f618","609d7b6de4f78cc8070c0cbf","294.3049999885261","","","","37","","","","key","16.665909090909395","960","488","true","-1","162","24","1","-1","-1","","","","","","","","","","","","",""
"psychophysics","96","451536","0.0-10.0-0.8","60810ad6456ab71178acc056","609a8bf73b2ac84e2732f618","609d7b6de4f78cc8070c0cbf","253.69500019587576","","","","37","","","","key","16.6656756756758","960","488","true","-1","138","24","1","-1","-1","","","","","","","","","","","","",""
"psychophysics","97","452856","0.0-10.0-0.9","60810ad6456ab71178acc056","609a8bf73b2ac84e2732f618","609d7b6de4f78cc8070c0cbf","318.69999994523823","","","","39","","","","key","16.6666582278477","960","488","true","1","138","24","1","-1","-1","","","","","","","","","","","","",""
"psychophysics","98","454280","0.0-10.0-0.10","60810ad6456ab71178acc056","609a8bf73b2ac84e2732f618","609d7b6de4f78cc8070c0cbf","421.4899998623878","","","","37","","","","key","16.666892857143207","960","488","true","1","129","19.2","2","1","-1","","","","","","","","","","","","",""
"psychophysics","99","455448","0.0-10.0-0.11","60810ad6456ab71178acc056","609a8bf73b2ac84e2732f618","609d7b6de4f78cc8070c0cbf","166.3399999961257","","","","39","","","","key","16.666550724637236","960","488","true","1","148.2","19.2","2","-1","1","","","","","","","","","","","","",""
"psychophysics","100","456728","0.0-10.0-0.12","60810ad6456ab71178acc056","609a8bf73b2ac84e2732f618","609d7b6de4f78cc8070c0cbf","278.7399999797344","","","","39","","","","key","16.666763157894724","960","488","true","1","148.2","15.36","3","-1","-1","","","","","","","","","","","","",""
"psychophysics","101","458073","0.0-10.0-0.13","60810ad6456ab71178acc056","609a8bf73b2ac84e2732f618","609d7b6de4f78cc8070c0cbf","341.21500002220273","","","","37","","","","key","16.66626250000045","960","488","true","-1","132.83999999999997","15.36","3","-1","-1","","","","","","","","","","","","",""
"psychophysics","102","459240","0.0-10.0-0.14","60810ad6456ab71178acc056","609a8bf73b2ac84e2732f618","609d7b6de4f78cc8070c0cbf","164.39000004902482","","","","39","","","","key","16.666492753623363","960","488","true","1","132.83999999999997","15.36","3","-1","-1","","","","","","","","","","","","",""
"psychophysics","103","460648","0.0-10.0-0.15","60810ad6456ab71178acc056","609a8bf73b2ac84e2732f618","609d7b6de4f78cc8070c0cbf","405.2699999883771","","","","39","","","","key","16.666578313253023","960","488","true","-1","129","12.287999999999998","4","1","-1","","","","","","","","","","","","",""
"psychophysics","104","461856","0.0-10.0-0.16","60810ad6456ab71178acc056","609a8bf73b2ac84e2732f618","609d7b6de4f78cc8070c0cbf","205.39500005543232","","","","39","","","","key","16.666555555555938","960","488","true","1","141.288","12.287999999999998","4","-1","1","","","","","","","","","","","","",""
"psychophysics","105","463136","0.0-10.0-0.17","60810ad6456ab71178acc056","609a8bf73b2ac84e2732f618","609d7b6de4f78cc8070c0cbf","277.0700000692159","","","","39","","","","key","16.666293333332675","960","488","true","1","141.288","9.8304","5","-1","-1","","","","","","","","","","","","",""
"psychophysics","106","465080","0.0-10.0-0.18","60810ad6456ab71178acc056","609a8bf73b2ac84e2732f618","609d7b6de4f78cc8070c0cbf","941.64999993518","","","","37","","","","key","16.666181034482776","960","488","true","1","131.4576","7.864319999999999","6","1","-1","","","","","","","","","","","","",""
"psychophysics","107","466744","0.0-10.0-0.19","60810ad6456ab71178acc056","609a8bf73b2ac84e2732f618","609d7b6de4f78cc8070c0cbf","662.0449998881668","","","","39","","","","key","16.666353535353363","960","488","true","1","139.32192","7.864319999999999","6","-1","1","","","","","","","","","","","","",""
"psychophysics","108","467888","0.0-10.0-0.20","60810ad6456ab71178acc056","609a8bf73b2ac84e2732f618","609d7b6de4f78cc8070c0cbf","141.55000005848706","","","","37","","","","key","16.666253731342785","960","488","true","-1","139.32192","6.291456","7","-1","-1","","","","","","","","","","","","",""
"psychophysics","109","469128","0.0-10.0-0.21","60810ad6456ab71178acc056","609a8bf73b2ac84e2732f618","609d7b6de4f78cc8070c0cbf","238.3699999190867","","","","37","","","","key","16.66652702702669","960","488","true","-1","133.030464","6.291456","7","-1","-1","","","","","","","","","","","","",""
"psychophysics","110","470368","0.0-10.0-0.22","60810ad6456ab71178acc056","609a8bf73b2ac84e2732f618","609d7b6de4f78cc8070c0cbf","237.41999990306795","","","","39","","","","key","16.665904109588702","960","488","true","1","133.030464","6.291456","7","-1","-1","","","","","","","","","","","","",""
"psychophysics","111","472208","0.0-10.0-0.23","60810ad6456ab71178acc056","609a8bf73b2ac84e2732f618","609d7b6de4f78cc8070c0cbf","838.359999936074","","","","37","","","","key","16.66617272727308","960","488","true","1","129","5.033164800000001","8","1","-1","","","","","","","","","","","","",""
"psychophysics","112","473376","0.0-10.0-0.24","60810ad6456ab71178acc056","609a8bf73b2ac84e2732f618","609d7b6de4f78cc8070c0cbf","166.1749999038875","","","","37","","","","key","16.666043478260796","960","488","true","-1","134.0331648","5.033164800000001","8","-1","1","","","","","","","","","","","","",""
"psychophysics","113","474600","0.0-10.0-0.25","60810ad6456ab71178acc056","609a8bf73b2ac84e2732f618","609d7b6de4f78cc8070c0cbf","221.0850000847131","","","","39","","","","key","16.666694444444147","960","488","true","1","134.0331648","4.0265318400000005","9","-1","-1","","","","","","","","","","","","",""
"psychophysics","114","476560","0.0-10.0-0.26","60810ad6456ab71178acc056","609a8bf73b2ac84e2732f618","609d7b6de4f78cc8070c0cbf","957.640000153333","","","","37","","","","key","16.666000000000174","960","488","true","-1","130.00663296000002","4.0265318400000005","9","-1","-1","","","","","","","","","","","","",""
"psychophysics","115","477888","0.0-10.0-0.27","60810ad6456ab71178acc056","609a8bf73b2ac84e2732f618","609d7b6de4f78cc8070c0cbf","326.88499987125397","","","","39","","","","key","16.66717948717922","960","488","true","1","130.00663296000002","4.0265318400000005","9","-1","-1","","","","","","","","","","","","",""
"psychophysics","116","480016","0.0-10.0-0.28","60810ad6456ab71178acc056","609a8bf73b2ac84e2732f618","609d7b6de4f78cc8070c0cbf","1126.7600001301616","","","","37","","","","key","16.666685039370034","960","488","true","1","129","3.2212254720000004","10","1","-1","","","","","","","","","","","","",""
"psychophysics","117","481249","0.0-10.0-0.29","60810ad6456ab71178acc056","609a8bf73b2ac84e2732f618","609d7b6de4f78cc8070c0cbf","229.58000004291534","","","","39","","","","key","16.666301369863206","960","488","true","1","132.22122547200001","3.2212254720000004","10","-1","1","","","","","","","","","","","","",""
"psychophysics","118","482904","0.0-10.0-0.30","60810ad6456ab71178acc056","609a8bf73b2ac84e2732f618","609d7b6de4f78cc8070c0cbf","652.4350000545382","","","","39","","","","key","16.66628571428544","960","488","true","1","132.22122547200001","2.5769803776000004","11","-1","-1","","","","","","","","","","","","",""
"psychophysics","119","484344","0.0-10.0-0.31","60810ad6456ab71178acc056","609a8bf73b2ac84e2732f618","609d7b6de4f78cc8070c0cbf","438.35500022396445","","","","37","","","","key","16.66632558139539","960","488","true","-1","129.64424509440002","2.5769803776000004","11","-1","-1","","","","","","","","","","","","",""
"psychophysics","120","486096","0.0-10.0-0.32","60810ad6456ab71178acc056","609a8bf73b2ac84e2732f618","609d7b6de4f78cc8070c0cbf","750.2450000029057","","","","39","","","","key","16.66638461538465","960","488","true","-1","129.64424509440002","2.0615843020800004","12","1","-1","","","","","","","","","","","","",""
"psychophysics","121","487208","0.0-10.0-0.33","60810ad6456ab71178acc056","609a8bf73b2ac84e2732f618","609d7b6de4f78cc8070c0cbf","110.10499997064471","","","","39","","","","key","16.66578787878847","960","488","true","1","131.70582939648003","2.0615843020800004","12","-1","1","","","","","","","","","","","","",""
"psychophysics","122","489160","0.0-10.0-0.34","60810ad6456ab71178acc056","609a8bf73b2ac84e2732f618","609d7b6de4f78cc8070c0cbf","950.3149997908622","","","","37","","","","key","16.666250000000282","960","488","true","-1","131.70582939648003","1.6492674416640005","13","-1","-1","","","","","","","","","","","","",""
"psychophysics","123","492712","0.0-10.0-0.35","60810ad6456ab71178acc056","609a8bf73b2ac84e2732f618","609d7b6de4f78cc8070c0cbf","2549.8500000685453","","","","39","","","","key","16.666396226415152","960","488","true","-1","130.05656195481603","1.3194139533312006","14","1","-1","","","","","","","","","","","","",""
"psychophysics","124","514184","0.0-10.0-0.36","60810ad6456ab71178acc056","609a8bf73b2ac84e2732f618","609d7b6de4f78cc8070c0cbf","20469.89500010386","","","","39","","","","key","16.666505050505016","960","488","true","-1","131.37597590814724","1.3194139533312006","14","1","1","","","","","","","","","","","","",""
"psychophysics","125","515560","0.0-10.0-0.37","60810ad6456ab71178acc056","609a8bf73b2ac84e2732f618","609d7b6de4f78cc8070c0cbf","372.84000008367","","","","37","","","","key","16.6666707317068","960","488","true","-1","132.69538986147845","1.3194139533312006","14","-1","1","","","","","","","","","","","","",""
"psychophysics","126","516896","0.0-10.0-0.38","60810ad6456ab71178acc056","609a8bf73b2ac84e2732f618","609d7b6de4f78cc8070c0cbf","333.7499999906868","","","","37","","","","key","16.666632911392277","960","488","true","-1","132.69538986147845","1.0555311626649604","15","-1","-1","","","","","","","","","","","","",""
"psychophysics","127","561056","0.0-10.0-0.39","60810ad6456ab71178acc056","609a8bf73b2ac84e2732f618","609d7b6de4f78cc8070c0cbf","43158.40999991633","","","","39","","","","key","16.666551528878802","960","488","true","-1","131.6398586988135","1","16","1","-1","","","","","","","","","","","","",""
"html-keyboard-response","128","562328","0.0-11.0","60810ad6456ab71178acc056","609a8bf73b2ac84e2732f618","609d7b6de4f78cc8070c0cbf","1269.9749998282641","<p>Well Done !</p><p>Prepare for a new block.</p><p>DON'T EXIT THE FULL SCREEN MODE</p><p>Press the Spacebar to start.</p>","","","32","","","","","","","","","","","","","","","true","131.24348046203292","","","","","","","","","","",""
"psychophysics","129","563520","0.0-12.0-0.0","60810ad6456ab71178acc056","609a8bf73b2ac84e2732f618","609d7b6de4f78cc8070c0cbf","188.77500016242266","","","","37","","","","key","16.66805633802695","960","488","true","-1","180","30","0","-1","","","","","","","","","","","","","",""
"psychophysics","130","566272","0.0-12.0-0.1","60810ad6456ab71178acc056","609a8bf73b2ac84e2732f618","609d7b6de4f78cc8070c0cbf","1750.4700000863522","","","","39","","","","key","16.666369696969703","960","488","true","1","180","30","0","-1","-1","","","","","","","","","","","","",""
"psychophysics","131","571112","0.0-12.0-0.2","60810ad6456ab71178acc056","609a8bf73b2ac84e2732f618","609d7b6de4f78cc8070c0cbf","3836.7899998556823","","","","37","","","","key","16.666522491349482","960","488","true","-1","150","30","0","-1","-1","","","","","","","","","","","","",""
"psychophysics","132","572128","0.0-12.0-0.3","60810ad6456ab71178acc056","609a8bf73b2ac84e2732f618","609d7b6de4f78cc8070c0cbf","13.070000102743506","","","","39","","","","key","16.66618333333172","960","488","true","1","150","30","0","-1","-1","","","","","","","","","","","","",""
"psychophysics","133","574592","0.0-12.0-0.4","60810ad6456ab71178acc056","609a8bf73b2ac84e2732f618","609d7b6de4f78cc8070c0cbf","1462.0149999391288","","","","39","","","","key","16.66631972789131","960","488","true","1","129","30","0","-1","-1","","","","","","","","","","","","",""
"psychophysics","134","577417","0.0-12.0-0.5","60810ad6456ab71178acc056","609a8bf73b2ac84e2732f618","609d7b6de4f78cc8070c0cbf","1821.944999974221","","","","37","","","","key","16.666327380952204","960","488","true","-1","129","30","0","-1","-1","","","","","","","","","","","","",""
"psychophysics","135","579056","0.0-12.0-0.6","60810ad6456ab71178acc056","609a8bf73b2ac84e2732f618","609d7b6de4f78cc8070c0cbf","636.2000000663102","","","","39","","","","key","16.666132653060806","960","488","true","1","129","30","0","-1","-1","","","","","","","","","","","","",""
"psychophysics","136","580969","0.0-12.0-0.7","60810ad6456ab71178acc056","609a8bf73b2ac84e2732f618","609d7b6de4f78cc8070c0cbf","910.304999910295","","","","37","","","","key","16.666389380531196","960","488","true","-1","129","30","0","-1","-1","","","","","","","","","","","","",""
"psychophysics","137","582529","0.0-12.0-0.8","60810ad6456ab71178acc056","609a8bf73b2ac84e2732f618","609d7b6de4f78cc8070c0cbf","558.5600000340492","","","","39","","","","key","16.66617204300979","960","488","true","-1","129","24","1","1","-1","","","","","","","","","","","","",""
"psychophysics","138","583857","0.0-12.0-0.9","60810ad6456ab71178acc056","609a8bf73b2ac84e2732f618","609d7b6de4f78cc8070c0cbf","326.1849998962134","","","","39","","","","key","16.66596202531688","960","488","true","1","153","24","1","-1","1","","","","","","","","","","","","",""
"psychophysics","139","585152","0.0-12.0-0.10","60810ad6456ab71178acc056","609a8bf73b2ac84e2732f618","609d7b6de4f78cc8070c0cbf","293.610000051558","","","","39","","","","key","16.66685526315766","960","488","true","1","153","19.2","2","-1","-1","","","","","","","","","","","","",""
"psychophysics","140","586473","0.0-12.0-0.11","60810ad6456ab71178acc056","609a8bf73b2ac84e2732f618","609d7b6de4f78cc8070c0cbf","318.144999910146","","","","37","","","","key","16.666569620252975","960","488","true","-1","133.8","19.2","2","-1","-1","","","","","","","","","","","","",""
"psychophysics","141","588200","0.0-12.0-0.12","60810ad6456ab71178acc056","609a8bf73b2ac84e2732f618","609d7b6de4f78cc8070c0cbf","725.7350001018494","","","","37","","","","key","16.666529411765033","960","488","true","1","133.8","15.36","3","1","-1","","","","","","","","","","","","",""
"psychophysics","142","589465","0.0-12.0-0.13","60810ad6456ab71178acc056","609a8bf73b2ac84e2732f618","609d7b6de4f78cc8070c0cbf","261.6749999579042","","","","37","","","","key","16.665986666666964","960","488","true","-1","149.16000000000003","15.36","3","-1","1","","","","","","","","","","","","",""
"psychophysics","143","591208","0.0-12.0-0.14","60810ad6456ab71178acc056","609a8bf73b2ac84e2732f618","609d7b6de4f78cc8070c0cbf","741.344999987632","","","","39","","","","key","16.66605769230787","960","488","true","1","149.16000000000003","12.287999999999998","4","-1","-1","","","","","","","","","","","","",""
"psychophysics","144","592425","0.0-12.0-0.15","60810ad6456ab71178acc056","609a8bf73b2ac84e2732f618","609d7b6de4f78cc8070c0cbf","214.48499988764524","","","","39","","","","key","16.666736111111177","960","488","true","1","136.872","12.287999999999998","4","-1","-1","","","","","","","","","","","","",""
"psychophysics","145","593673","0.0-12.0-0.16","60810ad6456ab71178acc056","609a8bf73b2ac84e2732f618","609d7b6de4f78cc8070c0cbf","245.69999985396862","","","","37","","","","key","16.66654054053927","960","488","true","-1","136.872","12.287999999999998","4","-1","-1","","","","","","","","","","","","",""
"psychophysics","146","595233","0.0-12.0-0.17","60810ad6456ab71178acc056","609a8bf73b2ac84e2732f618","609d7b6de4f78cc8070c0cbf","557.255000108853","","","","39","","","","key","16.666478260869475","960","488","true","1","129","12.287999999999998","4","-1","-1","","","","","","","","","","","","",""
"psychophysics","147","596600","0.0-12.0-0.18","60810ad6456ab71178acc056","609a8bf73b2ac84e2732f618","609d7b6de4f78cc8070c0cbf","365.10500009171665","","","","37","","","","key","16.666271604938192","960","488","true","-1","129","12.287999999999998","4","-1","-1","","","","","","","","","","","","",""
"psychophysics","148","597977","0.0-12.0-0.19","60810ad6456ab71178acc056","609a8bf73b2ac84e2732f618","609d7b6de4f78cc8070c0cbf","374.0199999883771","","","","39","","","","key","16.66602439024463","960","488","true","1","129","12.287999999999998","4","-1","-1","","","","","","","","","","","","",""
"psychophysics","149","599721","0.0-12.0-0.20","60810ad6456ab71178acc056","609a8bf73b2ac84e2732f618","609d7b6de4f78cc8070c0cbf","740.9349998924881","","","","37","","","","key","16.666184466020248","960","488","true","-1","129","12.287999999999998","4","-1","-1","","","","","","","","","","","","",""
"psychophysics","150","600977","0.0-12.0-0.21","60810ad6456ab71178acc056","609a8bf73b2ac84e2732f618","609d7b6de4f78cc8070c0cbf","254.454999929294","","","","39","","","","key","16.666239999999913","960","488","true","-1","129","9.8304","5","1","-1","","","","","","","","","","","","",""
"psychophysics","151","602505","0.0-12.0-0.22","60810ad6456ab71178acc056","609a8bf73b2ac84e2732f618","609d7b6de4f78cc8070c0cbf","525.6700001191348","","","","37","","","","key","16.66625555555543","960","488","true","1","138.8304","9.8304","5","1","1","","","","","","","","","","","","",""
"psychophysics","152","603681","0.0-12.0-0.23","60810ad6456ab71178acc056","609a8bf73b2ac84e2732f618","609d7b6de4f78cc8070c0cbf","173.80999983288348","","","","39","","","","key","16.666100000001357","960","488","true","1","148.6608","9.8304","5","-1","1","","","","","","","","","","","","",""
"psychophysics","153","606865","0.0-12.0-0.24","60810ad6456ab71178acc056","609a8bf73b2ac84e2732f618","609d7b6de4f78cc8070c0cbf","2181.4300001133233","","","","39","","","","key","16.66633157894677","960","488","true","1","148.6608","7.864319999999999","6","-1","-1","","","","","","","","","","","","",""
"psychophysics","154","608233","0.0-12.0-0.25","60810ad6456ab71178acc056","609a8bf73b2ac84e2732f618","609d7b6de4f78cc8070c0cbf","365.19999988377094","","","","37","","","","key","16.666320987653712","960","488","true","-1","140.79648","7.864319999999999","6","-1","-1","","","","","","","","","","","","",""
"psychophysics","155","609753","0.0-12.0-0.26","60810ad6456ab71178acc056","609a8bf73b2ac84e2732f618","609d7b6de4f78cc8070c0cbf","518.0750000290573","","","","37","","","","key","16.66631111111104","960","488","true","-1","140.79648","7.864319999999999","6","-1","-1","","","","","","","","","","","","",""
"psychophysics","156","611265","0.0-12.0-0.27","60810ad6456ab71178acc056","609a8bf73b2ac84e2732f618","609d7b6de4f78cc8070c0cbf","510.41999994777143","","","","37","","","","key","16.66640000000027","960","488","true","-1","132.93216","7.864319999999999","6","-1","-1","","","","","","","","","","","","",""
"psychophysics","157","612897","0.0-12.0-0.28","60810ad6456ab71178acc056","609a8bf73b2ac84e2732f618","609d7b6de4f78cc8070c0cbf","630.4099999833852","","","","37","","","","key","16.666268041237384","960","488","true","-1","132.93216","7.864319999999999","6","-1","-1","","","","","","","","","","","","",""
"psychophysics","158","614369","0.0-12.0-0.29","60810ad6456ab71178acc056","609a8bf73b2ac84e2732f618","609d7b6de4f78cc8070c0cbf","470.4199999105185","","","","39","","","","key","16.66597701149495","960","488","true","1","129","7.864319999999999","6","-1","-1","","","","","","","","","","","","",""
"psychophysics","159","616169","0.0-12.0-0.30","60810ad6456ab71178acc056","609a8bf73b2ac84e2732f618","609d7b6de4f78cc8070c0cbf","798.1050000526011","","","","39","","","","key","16.666093457943898","960","488","true","1","129","7.864319999999999","6","-1","-1","","","","","","","","","","","","",""
"psychophysics","160","617721","0.0-12.0-0.31","60810ad6456ab71178acc056","609a8bf73b2ac84e2732f618","609d7b6de4f78cc8070c0cbf","549.3600000627339","","","","37","","","","key","16.665902173912162","960","488","true","1","129","6.291456","7","1","-1","","","","","","","","","","","","",""
"psychophysics","161","619129","0.0-12.0-0.32","60810ad6456ab71178acc056","609a8bf73b2ac84e2732f618","609d7b6de4f78cc8070c0cbf","406.4350000116974","","","","37","","","","key","16.666154761904007","960","488","true","-1","135.291456","6.291456","7","-1","1","","","","","","","","","","","","",""
"psychophysics","162","620616","0.0-12.0-0.33","60810ad6456ab71178acc056","609a8bf73b2ac84e2732f618","609d7b6de4f78cc8070c0cbf","485.7749999500811","","","","39","","","","key","16.66612500000073","960","488","true","1","135.291456","5.033164800000001","8","-1","-1","","","","","","","","","","","","",""
"psychophysics","163","622401","0.0-12.0-0.34","60810ad6456ab71178acc056","609a8bf73b2ac84e2732f618","609d7b6de4f78cc8070c0cbf","782.975000096485","","","","37","","","","key","16.666754716980922","960","488","true","1","130.2582912","4.0265318400000005","9","1","-1","","","","","","","","","","","","",""
"psychophysics","164","623688","0.0-12.0-0.35","60810ad6456ab71178acc056","609a8bf73b2ac84e2732f618","609d7b6de4f78cc8070c0cbf","285.85999994538724","","","","37","","","","key","16.66598701298648","960","488","true","-1","134.28482304","4.0265318400000005","9","-1","1","","","","","","","","","","","","",""
"psychophysics","165","625073","0.0-12.0-0.36","60810ad6456ab71178acc056","609a8bf73b2ac84e2732f618","609d7b6de4f78cc8070c0cbf","382.2650001384318","","","","37","","","","key","16.666804878048247","960","488","true","-1","134.28482304","3.2212254720000004","10","-1","-1","","","","","","","","","","","","",""
"psychophysics","166","626649","0.0-12.0-0.37","60810ad6456ab71178acc056","609a8bf73b2ac84e2732f618","609d7b6de4f78cc8070c0cbf","573.7199999857694","","","","37","","","","key","16.66647311827914","960","488","true","1","131.06359756799998","2.5769803776000004","11","1","-1","","","","","","","","","","","","",""
"psychophysics","167","627897","0.0-12.0-0.38","60810ad6456ab71178acc056","609a8bf73b2ac84e2732f618","609d7b6de4f78cc8070c0cbf","246.6349999886006","","","","37","","","","key","16.665527027026386","960","488","true","-1","133.64057794559997","2.5769803776000004","11","-1","1","","","","","","","","","","","","",""
"psychophysics","168","629232","0.0-12.0-0.39","60810ad6456ab71178acc056","609a8bf73b2ac84e2732f618","609d7b6de4f78cc8070c0cbf","333.1349999643862","","","","37","","","","key","16.66565822784736","960","488","true","-1","133.64057794559997","2.0615843020800004","12","-1","-1","","","","","","","","","","","","",""
"html-keyboard-response","169","630841","0.0-13.0","60810ad6456ab71178acc056","609a8bf73b2ac84e2732f618","609d7b6de4f78cc8070c0cbf","1607.7900000382215","<p>Well Done !</p><p>Prepare for a new block.</p><p>DON'T EXIT THE FULL SCREEN MODE</p><p>Press the Spacebar to start.</p>","","","32","","","","","","","","","","","","","","","true","133.48085884928","","","","","","","","","","",""
"html-keyboard-response","170","630949","0.0-14.0","60810ad6456ab71178acc056","609a8bf73b2ac84e2732f618","609d7b6de4f78cc8070c0cbf","null","","","","null","","","","","","","","","","","","","","","","","131.84607462028353","true","135.69214924056706","","","","","","","",""
"instructions","171","683662","0.0-15.0","60810ad6456ab71178acc056","609a8bf73b2ac84e2732f618","609d7b6de4f78cc8070c0cbf","52712.580000050366","","","","","","","[{""page_index"":0,""viewing_time"":49168.55000006035},{""page_index"":1,""viewing_time"":1535.7800000347197},{""page_index"":2,""viewing_time"":2007.9999999143183}]","","","","","","","","","","","","","","","","","","","","","","","",""
"psychophysics","172","686679","0.0-16.0-0.0","60810ad6456ab71178acc056","609a8bf73b2ac84e2732f618","609d7b6de4f78cc8070c0cbf","null","","","","null","","","","key","16.667278688523126","960","488","","","","","","","","","","","","","","","","","","","",""
"psychophysics","173","687183","0.0-16.0-1.0","60810ad6456ab71178acc056","609a8bf73b2ac84e2732f618","609d7b6de4f78cc8070c0cbf","null","","","","null","","","","key","16.66620689654996","960","488","","","","","","","","","","","","","136","1","6","false","","","",""
"psychophysics","174","689152","0.0-16.0-2.0","60810ad6456ab71178acc056","609a8bf73b2ac84e2732f618","609d7b6de4f78cc8070c0cbf","1965.2749998494983","","","","77","","","","key","16.666547008547294","960","488","","","","","","","","","","","","","","","","","","","",""
"psychophysics","175","690518","0.0-16.0-0.1","60810ad6456ab71178acc056","609a8bf73b2ac84e2732f618","609d7b6de4f78cc8070c0cbf","null","","","","null","","","","key","16.665888888887878","960","488","","","","","","","","","","","","","","","","","","","",""
"psychophysics","176","691020","0.0-16.0-1.1","60810ad6456ab71178acc056","609a8bf73b2ac84e2732f618","609d7b6de4f78cc8070c0cbf","null","","","","null","","","","key","16.66626666666319","960","488","","","","","","","","","","","","","136","-1","6","false","","","",""
"psychophysics","177","691600","0.0-16.0-2.1","60810ad6456ab71178acc056","609a8bf73b2ac84e2732f618","609d7b6de4f78cc8070c0cbf","576.8299999181181","","","","90","","","","key","16.6659393939366","960","488","","","","","","","","","","","","","","","","","","","",""
"psychophysics","178","693099","0.0-16.0-0.2","60810ad6456ab71178acc056","609a8bf73b2ac84e2732f618","609d7b6de4f78cc8070c0cbf","null","","","","null","","","","key","16.666146067415855","960","488","","","","","","","","","","","","","","","","","","","",""
"psychophysics","179","693602","0.0-16.0-1.2","60810ad6456ab71178acc056","609a8bf73b2ac84e2732f618","609d7b6de4f78cc8070c0cbf","null","","","","null","","","","key","16.666103448273198","960","488","","","","","","","","","","","","","136","-1","0","false","","","",""
"psychophysics","180","695352","0.0-16.0-2.2","60810ad6456ab71178acc056","609a8bf73b2ac84e2732f618","609d7b6de4f78cc8070c0cbf","1746.735000051558","","","","90","","","","key","16.666480769230894","960","488","","","","","","","","","","","","","","","","","","","",""
"psychophysics","181","696509","0.0-16.0-0.3","60810ad6456ab71178acc056","609a8bf73b2ac84e2732f618","609d7b6de4f78cc8070c0cbf","null","","","","null","","","","key","16.665579710145604","960","488","","","","","","","","","","","","","","","","","","","",""
"psychophysics","182","697012","0.0-16.0-1.3","60810ad6456ab71178acc056","609a8bf73b2ac84e2732f618","609d7b6de4f78cc8070c0cbf","null","","","","null","","","","key","16.66637931034322","960","488","","","","","","","","","","","","","136","1","4","false","","","",""
"psychophysics","183","697600","0.0-16.0-2.3","60810ad6456ab71178acc056","609a8bf73b2ac84e2732f618","609d7b6de4f78cc8070c0cbf","585.105000063777","","","","90","","","","key","16.665970588236473","960","488","","","","","","","","","","","","","","","","","","","",""
"psychophysics","184","698760","0.0-16.0-0.4","60810ad6456ab71178acc056","609a8bf73b2ac84e2732f618","609d7b6de4f78cc8070c0cbf","null","","","","null","","","","key","16.666057971014265","960","488","","","","","","","","","","","","","","","","","","","",""
"psychophysics","185","699262","0.0-16.0-1.4","60810ad6456ab71178acc056","609a8bf73b2ac84e2732f618","609d7b6de4f78cc8070c0cbf","null","","","","null","","","","key","16.665241379310892","960","488","","","","","","","","","","","","","136","1","3","false","","","",""
"psychophysics","186","699632","0.0-16.0-2.4","60810ad6456ab71178acc056","609a8bf73b2ac84e2732f618","609d7b6de4f78cc8070c0cbf","366.8599999509752","","","","90","","","","key","16.666095238095814","960","488","","","","","","","","","","","","","","","","","","","",""
"psychophysics","187","700258","0.0-16.0-0.5","60810ad6456ab71178acc056","609a8bf73b2ac84e2732f618","609d7b6de4f78cc8070c0cbf","null","","","","null","","","","key","16.665378378376968","960","488","","","","","","","","","","","","","","","","","","","",""
"psychophysics","188","700760","0.0-16.0-1.5","60810ad6456ab71178acc056","609a8bf73b2ac84e2732f618","609d7b6de4f78cc8070c0cbf","null","","","","null","","","","key","16.66548275862066","960","488","","","","","","","","","","","","","136","-1","3","false","","","",""
"psychophysics","189","701144","0.0-16.0-2.5","60810ad6456ab71178acc056","609a8bf73b2ac84e2732f618","609d7b6de4f78cc8070c0cbf","381.77500013262033","","","","90","","","","key","16.667136363632213","960","488","","","","","","","","","","","","","","","","","","","",""
"psychophysics","190","702357","0.0-16.0-0.6","60810ad6456ab71178acc056","609a8bf73b2ac84e2732f618","609d7b6de4f78cc8070c0cbf","null","","","","null","","","","key","16.665999999999055","960","488","","","","","","","","","","","","","","","","","","","",""
"psychophysics","191","702861","0.0-16.0-1.6","60810ad6456ab71178acc056","609a8bf73b2ac84e2732f618","609d7b6de4f78cc8070c0cbf","null","","","","null","","","","key","16.665413793104154","960","488","","","","","","","","","","","","","136","1","5","false","","","",""
"psychophysics","192","703512","0.0-16.0-2.6","60810ad6456ab71178acc056","609a8bf73b2ac84e2732f618","609d7b6de4f78cc8070c0cbf","649.9050001148134","","","","90","","","","key","16.666078947368078","960","488","","","","","","","","","","","","","","","","","","","",""
"psychophysics","193","704724","0.0-16.0-0.7","60810ad6456ab71178acc056","609a8bf73b2ac84e2732f618","609d7b6de4f78cc8070c0cbf","null","","","","null","","","","key","16.66629166666664","960","488","","","","","","","","","","","","","","","","","","","",""
"psychophysics","194","705226","0.0-16.0-1.7","60810ad6456ab71178acc056","609a8bf73b2ac84e2732f618","609d7b6de4f78cc8070c0cbf","null","","","","null","","","","key","16.665724137930425","960","488","","","","","","","","","","","","","136","-1","5","false","","","",""
"psychophysics","195","706304","0.0-16.0-2.7","60810ad6456ab71178acc056","609a8bf73b2ac84e2732f618","609d7b6de4f78cc8070c0cbf","1075.5000000353903","","","","90","","","","key","16.666234374999476","960","488","","","","","","","","","","","","","","","","","","","",""
"psychophysics","196","707430","0.0-16.0-0.8","60810ad6456ab71178acc056","609a8bf73b2ac84e2732f618","609d7b6de4f78cc8070c0cbf","null","","","","null","","","","key","16.66604545454417","960","488","","","","","","","","","","","","","","","","","","","",""
"psychophysics","197","707932","0.0-16.0-1.8","60810ad6456ab71178acc056","609a8bf73b2ac84e2732f618","609d7b6de4f78cc8070c0cbf","null","","","","null","","","","key","16.665586206893405","960","488","","","","","","","","","","","","","136","-1","2","false","","","",""
"psychophysics","198","709504","0.0-16.0-2.8","60810ad6456ab71178acc056","609a8bf73b2ac84e2732f618","609d7b6de4f78cc8070c0cbf","1569.300000090152","","","","90","","","","key","16.666308510638626","960","488","","","","","","","","","","","","","","","","","","","",""
"psychophysics","199","710094","0.0-16.0-0.9","60810ad6456ab71178acc056","609a8bf73b2ac84e2732f618","609d7b6de4f78cc8070c0cbf","null","","","","null","","","","key","16.666294117646483","960","488","","","","","","","","","","","","","","","","","","","",""
"psychophysics","200","710597","0.0-16.0-1.9","60810ad6456ab71178acc056","609a8bf73b2ac84e2732f618","609d7b6de4f78cc8070c0cbf","null","","","","null","","","","key","16.665689655170166","960","488","","","","","","","","","","","","","136","1","2","false","","","",""
"psychophysics","201","710944","0.0-16.0-2.9","60810ad6456ab71178acc056","609a8bf73b2ac84e2732f618","609d7b6de4f78cc8070c0cbf","345.4699998255819","","","","90","","","","key","16.6663499999966","960","488","","","","","","","","","","","","","","","","","","","",""
"psychophysics","202","711824","0.0-16.0-0.10","60810ad6456ab71178acc056","609a8bf73b2ac84e2732f618","609d7b6de4f78cc8070c0cbf","null","","","","null","","","","key","16.666269230768265","960","488","","","","","","","","","","","","","","","","","","","",""
"psychophysics","203","712326","0.0-16.0-1.10","60810ad6456ab71178acc056","609a8bf73b2ac84e2732f618","609d7b6de4f78cc8070c0cbf","null","","","","null","","","","key","16.666655172413247","960","488","","","","","","","","","","","","","136","-1","4","false","","","",""
"psychophysics","204","713192","0.0-16.0-2.10","60810ad6456ab71178acc056","609a8bf73b2ac84e2732f618","609d7b6de4f78cc8070c0cbf","864.3300000112504","","","","90","","","","key","16.666019607842077","960","488","","","","","","","","","","","","","","","","","","","",""
"psychophysics","205","714597","0.0-16.0-0.11","60810ad6456ab71178acc056","609a8bf73b2ac84e2732f618","609d7b6de4f78cc8070c0cbf","null","","","","null","","","","key","16.666313253012092","960","488","","","","","","","","","","","","","","","","","","","",""
"psychophysics","206","715100","0.0-16.0-1.11","60810ad6456ab71178acc056","609a8bf73b2ac84e2732f618","609d7b6de4f78cc8070c0cbf","null","","","","null","","","","key","16.666034482756693","960","488","","","","","","","","","","","","","136","1","0","false","","","",""
"psychophysics","207","718248","0.0-16.0-2.11","60810ad6456ab71178acc056","609a8bf73b2ac84e2732f618","609d7b6de4f78cc8070c0cbf","3146.690000081435","","","","90","","","","key","16.66645744680848","960","488","","","","","","","","","","","","","","","","","","","",""
"psychophysics","208","719532","0.0-16.0-0.12","60810ad6456ab71178acc056","609a8bf73b2ac84e2732f618","609d7b6de4f78cc8070c0cbf","null","","","","null","","","","key","16.66606578947425","960","488","","","","","","","","","","","","","","","","","","","",""
"psychophysics","209","720034","0.0-16.0-1.12","60810ad6456ab71178acc056","609a8bf73b2ac84e2732f618","609d7b6de4f78cc8070c0cbf","null","","","","null","","","","key","16.66510344827387","960","488","","","","","","","","","","","","","136","1","3","false","","","",""
"psychophysics","210","720921","0.0-16.0-2.12","60810ad6456ab71178acc056","609a8bf73b2ac84e2732f618","609d7b6de4f78cc8070c0cbf","884.5850001089275","","","","90","","","","key","16.666377358492202","960","488","","","","","","","","","","","","","","","","","","","",""
"psychophysics","211","721517","0.0-16.0-0.13","60810ad6456ab71178acc056","609a8bf73b2ac84e2732f618","609d7b6de4f78cc8070c0cbf","null","","","","null","","","","key","16.666117647056716","960","488","","","","","","","","","","","","","","","","","","","",""
"psychophysics","212","722019","0.0-16.0-1.13","60810ad6456ab71178acc056","609a8bf73b2ac84e2732f618","609d7b6de4f78cc8070c0cbf","null","","","","null","","","","key","16.66575862069068","960","488","","","","","","","","","","","","","136","1","5","false","","","",""
"psychophysics","213","722728","0.0-16.0-2.13","60810ad6456ab71178acc056","609a8bf73b2ac84e2732f618","609d7b6de4f78cc8070c0cbf","704.009999986738","","","","90","","","","key","16.666095238095814","960","488","","","","","","","","","","","","","","","","","","","",""
"psychophysics","214","723573","0.0-16.0-0.14","60810ad6456ab71178acc056","609a8bf73b2ac84e2732f618","609d7b6de4f78cc8070c0cbf","null","","","","null","","","","key","16.665740000000223","960","488","","","","","","","","","","","","","","","","","","","",""
"psychophysics","215","724075","0.0-16.0-1.14","60810ad6456ab71178acc056","609a8bf73b2ac84e2732f618","609d7b6de4f78cc8070c0cbf","null","","","","null","","","","key","16.666931034483273","960","488","","","","","","","","","","","","","136","-1","3","false","","","",""
"psychophysics","216","724496","0.0-16.0-2.14","60810ad6456ab71178acc056","609a8bf73b2ac84e2732f618","609d7b6de4f78cc8070c0cbf","417.81000001356006","","","","77","","","","key","16.66616666666717","960","488","","","","","","","","","","","","","","","","","","","",""
"psychophysics","217","725020","0.0-16.0-0.15","60810ad6456ab71178acc056","609a8bf73b2ac84e2732f618","609d7b6de4f78cc8070c0cbf","null","","","","null","","","","key","16.665233333331223","960","488","","","","","","","","","","","","","","","","","","","",""
"psychophysics","218","725523","0.0-16.0-1.15","60810ad6456ab71178acc056","609a8bf73b2ac84e2732f618","609d7b6de4f78cc8070c0cbf","null","","","","null","","","","key","16.666066666669213","960","488","","","","","","","","","","","","","136","1","6","false","","","",""
"psychophysics","219","725928","0.0-16.0-2.15","60810ad6456ab71178acc056","609a8bf73b2ac84e2732f618","609d7b6de4f78cc8070c0cbf","403.54999992996454","","","","90","","","","key","16.666869565216906","960","488","","","","","","","","","","","","","","","","","","","",""
"psychophysics","220","726983","0.0-16.0-0.16","60810ad6456ab71178acc056","609a8bf73b2ac84e2732f618","609d7b6de4f78cc8070c0cbf","null","","","","null","","","","key","16.66611290322579","960","488","","","","","","","","","","","","","","","","","","","",""
"psychophysics","221","727485","0.0-16.0-1.16","60810ad6456ab71178acc056","609a8bf73b2ac84e2732f618","609d7b6de4f78cc8070c0cbf","null","","","","null","","","","key","16.66568965517418","960","488","","","","","","","","","","","","","136","-1","0","false","","","",""
"psychophysics","222","727960","0.0-16.0-2.16","60810ad6456ab71178acc056","609a8bf73b2ac84e2732f618","609d7b6de4f78cc8070c0cbf","470.72499990463257","","","","90","","","","key","16.666000000001596","960","488","","","","","","","","","","","","","","","","","","","",""
"psychophysics","223","729119","0.0-16.0-0.17","60810ad6456ab71178acc056","609a8bf73b2ac84e2732f618","609d7b6de4f78cc8070c0cbf","null","","","","null","","","","key","16.666308823529533","960","488","","","","","","","","","","","","","","","","","","","",""
"psychophysics","224","729620","0.0-16.0-1.17","60810ad6456ab71178acc056","609a8bf73b2ac84e2732f618","609d7b6de4f78cc8070c0cbf","null","","","","null","","","","key","16.666366666664057","960","488","","","","","","","","","","","","","136","-1","6","false","","","",""
"psychophysics","225","730769","0.0-16.0-2.17","60810ad6456ab71178acc056","609a8bf73b2ac84e2732f618","609d7b6de4f78cc8070c0cbf","1144.544999813661","","","","90","","","","key","16.66623880597068","960","488","","","","","","","","","","","","","","","","","","","",""
"psychophysics","226","731282","0.0-16.0-0.18","60810ad6456ab71178acc056","609a8bf73b2ac84e2732f618","609d7b6de4f78cc8070c0cbf","null","","","","null","","","","key","16.664566666667817","960","488","","","","","","","","","","","","","","","","","","","",""
"psychophysics","227","731784","0.0-16.0-1.18","60810ad6456ab71178acc056","609a8bf73b2ac84e2732f618","609d7b6de4f78cc8070c0cbf","null","","","","null","","","","key","16.665344827587653","960","488","","","","","","","","","","","","","136","1","0","false","","","",""
"psychophysics","228","732336","0.0-16.0-2.18","60810ad6456ab71178acc056","609a8bf73b2ac84e2732f618","609d7b6de4f78cc8070c0cbf","549.5899999514222","","","","77","","","","key","16.66528124999968","960","488","","","","","","","","","","","","","","","","","","","",""
"psychophysics","229","733159","0.0-16.0-0.19","60810ad6456ab71178acc056","609a8bf73b2ac84e2732f618","609d7b6de4f78cc8070c0cbf","null","","","","null","","","","key","16.66516326530599","960","488","","","","","","","","","","","","","","","","","","","",""
"psychophysics","230","733662","0.0-16.0-1.19","60810ad6456ab71178acc056","609a8bf73b2ac84e2732f618","609d7b6de4f78cc8070c0cbf","null","","","","null","","","","key","16.665517241380915","960","488","","","","","","","","","","","","","136","-1","5","false","","","",""
"psychophysics","231","733921","0.0-16.0-2.19","60810ad6456ab71178acc056","609a8bf73b2ac84e2732f618","609d7b6de4f78cc8070c0cbf","255.37499994970858","","","","90","","","","key","16.667399999996025","960","488","","","","","","","","","","","","","","","","","","","",""
"psychophysics","232","734927","0.0-16.0-0.20","60810ad6456ab71178acc056","609a8bf73b2ac84e2732f618","609d7b6de4f78cc8070c0cbf","null","","","","null","","","","key","16.666406779660512","960","488","","","","","","","","","","","","","","","","","","","",""
"psychophysics","233","735430","0.0-16.0-1.20","60810ad6456ab71178acc056","609a8bf73b2ac84e2732f618","609d7b6de4f78cc8070c0cbf","null","","","","null","","","","key","16.665206896550632","960","488","","","","","","","","","","","","","136","1","2","false","","","",""
"psychophysics","234","735824","0.0-16.0-2.20","60810ad6456ab71178acc056","609a8bf73b2ac84e2732f618","609d7b6de4f78cc8070c0cbf","391.10500016249716","","","","90","","","","key","16.66447826086685","960","488","","","","","","","","","","","","","","","","","","","",""
"psychophysics","235","736495","0.0-16.0-0.21","60810ad6456ab71178acc056","609a8bf73b2ac84e2732f618","609d7b6de4f78cc8070c0cbf","null","","","","null","","","","key","16.6665641025652","960","488","","","","","","","","","","","","","","","","","","","",""
"psychophysics","236","736998","0.0-16.0-1.21","60810ad6456ab71178acc056","609a8bf73b2ac84e2732f618","609d7b6de4f78cc8070c0cbf","null","","","","null","","","","key","16.66565517241392","960","488","","","","","","","","","","","","","136","-1","4","false","","","",""
"psychophysics","237","737728","0.0-16.0-2.21","60810ad6456ab71178acc056","609a8bf73b2ac84e2732f618","609d7b6de4f78cc8070c0cbf","728.2600000035018","","","","90","","","","key","16.665953488373415","960","488","","","","","","","","","","","","","","","","","","","",""
"psychophysics","238","738760","0.0-16.0-0.22","60810ad6456ab71178acc056","609a8bf73b2ac84e2732f618","609d7b6de4f78cc8070c0cbf","null","","","","null","","","","key","16.665590163934823","960","488","","","","","","","","","","","","","","","","","","","",""
"psychophysics","239","739263","0.0-16.0-1.22","60810ad6456ab71178acc056","609a8bf73b2ac84e2732f618","609d7b6de4f78cc8070c0cbf","null","","","","null","","","","key","16.665551724141174","960","488","","","","","","","","","","","","","136","1","4","false","","","",""
"psychophysics","240","739672","0.0-16.0-2.22","60810ad6456ab71178acc056","609a8bf73b2ac84e2732f618","609d7b6de4f78cc8070c0cbf","406.2149999663234","","","","90","","","","key","16.665041666667094","960","488","","","","","","","","","","","","","","","","","","","",""
"psychophysics","241","740708","0.0-16.0-0.23","60810ad6456ab71178acc056","609a8bf73b2ac84e2732f618","609d7b6de4f78cc8070c0cbf","null","","","","null","","","","key","16.665967213115884","960","488","","","","","","","","","","","","","","","","","","","",""
"psychophysics","242","741211","0.0-16.0-1.23","60810ad6456ab71178acc056","609a8bf73b2ac84e2732f618","609d7b6de4f78cc8070c0cbf","null","","","","null","","","","key","16.665724137930425","960","488","","","","","","","","","","","","","136","-1","2","false","","","",""
"psychophysics","243","741840","0.0-16.0-2.23","60810ad6456ab71178acc056","609a8bf73b2ac84e2732f618","609d7b6de4f78cc8070c0cbf","627.2450000979006","","","","90","","","","key","16.665648648650638","960","488","","","","","","","","","","","","","","","","","","","",""
"html-keyboard-response","244","743224","0.0-17.0","60810ad6456ab71178acc056","609a8bf73b2ac84e2732f618","609d7b6de4f78cc8070c0cbf","1382.780000101775","<p>Well Done !</p><p>Training Complete. Press the spacebar to start.</p><p>DON'T EXIT THE FULL SCREEN MODE</p>","","","32","","","","","","","","","","","","","","","","","","","","","","","","","","",""
"psychophysics","245","746051","0.0-18.0-0.0","60810ad6456ab71178acc056","609a8bf73b2ac84e2732f618","609d7b6de4f78cc8070c0cbf","null","","","","null","","","","key","16.666795918366358","960","488","","","","","","","","","","","","","","","","","","","",""
"psychophysics","246","746554","0.0-18.0-1.0","60810ad6456ab71178acc056","609a8bf73b2ac84e2732f618","609d7b6de4f78cc8070c0cbf","null","","","","null","","","","key","16.666600000000713","960","488","","","","","","","","","","","","","136","-1","0","true","","","",""
"psychophysics","247","747921","0.0-18.0-2.0","60810ad6456ab71178acc056","609a8bf73b2ac84e2732f618","609d7b6de4f78cc8070c0cbf","1364.3850001972169","","","","90","","","","key","16.666493827160906","960","488","","","","","","","","","","","","","","","","","","","",""
"psychophysics","248","748581","0.0-18.0-0.1","60810ad6456ab71178acc056","609a8bf73b2ac84e2732f618","609d7b6de4f78cc8070c0cbf","null","","","","null","","","","key","16.666500000001275","960","488","","","","","","","","","","","","","","","","","","","",""
"psychophysics","249","749083","0.0-18.0-1.1","60810ad6456ab71178acc056","609a8bf73b2ac84e2732f618","609d7b6de4f78cc8070c0cbf","null","","","","null","","","","key","16.666827586206512","960","488","","","","","","","","","","","","","136","1","4","true","","","",""
"psychophysics","250","750040","0.0-18.0-2.1","60810ad6456ab71178acc056","609a8bf73b2ac84e2732f618","609d7b6de4f78cc8070c0cbf","954.7950001433492","","","","90","","","","key","16.667087719299865","960","488","","","","","","","","","","","","","","","","","","","",""
"psychophysics","251","750547","0.0-18.0-0.2","60810ad6456ab71178acc056","609a8bf73b2ac84e2732f618","609d7b6de4f78cc8070c0cbf","null","","","","null","","","","key","16.666068965516953","960","488","","","","","","","","","","","","","","","","","","","",""
"psychophysics","252","751050","0.0-18.0-1.2","60810ad6456ab71178acc056","609a8bf73b2ac84e2732f618","609d7b6de4f78cc8070c0cbf","null","","","","null","","","","key","16.665827586207186","960","488","","","","","","","","","","","","","136","-1","4","true","","","",""
"psychophysics","253","751384","0.0-18.0-2.2","60810ad6456ab71178acc056","609a8bf73b2ac84e2732f618","609d7b6de4f78cc8070c0cbf","332.5700000859797","","","","77","","","","key","16.66563157894722","960","488","","","","","","","","","","","","","","","","","","","",""
"psychophysics","254","752285","0.0-18.0-0.3","60810ad6456ab71178acc056","609a8bf73b2ac84e2732f618","609d7b6de4f78cc8070c0cbf","null","","","","null","","","","key","16.666169811321318","960","488","","","","","","","","","","","","","","","","","","","",""
"psychophysics","255","752786","0.0-18.0-1.3","60810ad6456ab71178acc056","609a8bf73b2ac84e2732f618","609d7b6de4f78cc8070c0cbf","null","","","","null","","","","key","16.6647241379311","960","488","","","","","","","","","","","","","136","-1","3","true","","","",""
"psychophysics","256","753008","0.0-18.0-2.3","60810ad6456ab71178acc056","609a8bf73b2ac84e2732f618","609d7b6de4f78cc8070c0cbf","219.46500008925796","","","","90","","","","key","16.666538461532372","960","488","","","","","","","","","","","","","","","","","","","",""
"psychophysics","257","754303","0.0-18.0-0.4","60810ad6456ab71178acc056","609a8bf73b2ac84e2732f618","609d7b6de4f78cc8070c0cbf","null","","","","null","","","","key","16.666723684210172","960","488","","","","","","","","","","","","","","","","","","","",""
"psychophysics","258","754806","0.0-18.0-1.4","60810ad6456ab71178acc056","609a8bf73b2ac84e2732f618","609d7b6de4f78cc8070c0cbf","null","","","","null","","","","key","16.666133333331285","960","488","","","","","","","","","","","","","136","-1","5","true","","","",""
"psychophysics","259","755424","0.0-18.0-2.4","60810ad6456ab71178acc056","609a8bf73b2ac84e2732f618","609d7b6de4f78cc8070c0cbf","614.9999999906868","","","","90","","","","key","16.66530555555558","960","488","","","","","","","","","","","","","","","","","","","",""
"psychophysics","260","756252","0.0-18.0-0.5","60810ad6456ab71178acc056","609a8bf73b2ac84e2732f618","609d7b6de4f78cc8070c0cbf","null","","","","null","","","","key","16.666625000000447","960","488","","","","","","","","","","","","","","","","","","","",""
"psychophysics","261","756754","0.0-18.0-1.5","60810ad6456ab71178acc056","609a8bf73b2ac84e2732f618","609d7b6de4f78cc8070c0cbf","null","","","","null","","","","key","16.66636666666794","960","488","","","","","","","","","","","","","136","-1","6","true","","","",""
"psychophysics","262","757656","0.0-18.0-2.5","60810ad6456ab71178acc056","609a8bf73b2ac84e2732f618","609d7b6de4f78cc8070c0cbf","899.1549999918789","","","","77","","","","key","16.666415094338657","960","488","","","","","","","","","","","","","","","","","","","",""
"psychophysics","263","758821","0.0-18.0-0.6","60810ad6456ab71178acc056","609a8bf73b2ac84e2732f618","609d7b6de4f78cc8070c0cbf","null","","","","null","","","","key","16.66637681159393","960","488","","","","","","","","","","","","","","","","","","","",""
"psychophysics","264","759324","0.0-18.0-1.6","60810ad6456ab71178acc056","609a8bf73b2ac84e2732f618","609d7b6de4f78cc8070c0cbf","null","","","","null","","","","key","16.666172413793714","960","488","","","","","","","","","","","","","136","1","5","true","","","",""
"psychophysics","265","759656","0.0-18.0-2.6","60810ad6456ab71178acc056","609a8bf73b2ac84e2732f618","609d7b6de4f78cc8070c0cbf","330.1299999002367","","","","90","","","","key","16.664105263158778","960","488","","","","","","","","","","","","","","","","","","","",""
"psychophysics","266","760468","0.0-18.0-0.7","60810ad6456ab71178acc056","609a8bf73b2ac84e2732f618","609d7b6de4f78cc8070c0cbf","null","","","","null","","","","key","16.665574468085246","960","488","","","","","","","","","","","","","","","","","","","",""
"psychophysics","267","760970","0.0-18.0-1.7","60810ad6456ab71178acc056","609a8bf73b2ac84e2732f618","609d7b6de4f78cc8070c0cbf","null","","","","null","","","","key","16.666033333334294","960","488","","","","","","","","","","","","","136","-1","2","true","","","",""
"psychophysics","268","761576","0.0-18.0-2.7","60810ad6456ab71178acc056","609a8bf73b2ac84e2732f618","609d7b6de4f78cc8070c0cbf","603.9199999067932","","","","77","","","","key","16.66665714285669","960","488","","","","","","","","","","","","","","","","","","","",""
"psychophysics","269","762869","0.0-18.0-0.8","60810ad6456ab71178acc056","609a8bf73b2ac84e2732f618","609d7b6de4f78cc8070c0cbf","null","","","","null","","","","key","16.666013157895865","960","488","","","","","","","","","","","","","","","","","","","",""
"psychophysics","270","763372","0.0-18.0-1.8","60810ad6456ab71178acc056","609a8bf73b2ac84e2732f618","609d7b6de4f78cc8070c0cbf","null","","","","null","","","","key","16.666233333336034","960","488","","","","","","","","","","","","","136","1","3","true","","","",""
"psychophysics","271","764648","0.0-18.0-2.8","60810ad6456ab71178acc056","609a8bf73b2ac84e2732f618","609d7b6de4f78cc8070c0cbf","1272.9300002101809","","","","90","","","","key","16.66653333333321","960","488","","","","","","","","","","","","","","","","","","","",""
"psychophysics","272","765719","0.0-18.0-0.9","60810ad6456ab71178acc056","609a8bf73b2ac84e2732f618","609d7b6de4f78cc8070c0cbf","null","","","","null","","","","key","16.66619047619003","960","488","","","","","","","","","","","","","","","","","","","",""
"psychophysics","273","766223","0.0-18.0-1.9","60810ad6456ab71178acc056","609a8bf73b2ac84e2732f618","609d7b6de4f78cc8070c0cbf","null","","","","null","","","","key","16.666766666663655","960","488","","","","","","","","","","","","","136","1","0","true","","","",""
"psychophysics","274","766576","0.0-18.0-2.9","60810ad6456ab71178acc056","609a8bf73b2ac84e2732f618","609d7b6de4f78cc8070c0cbf","351.4149999246001","","","","90","","","","key","16.666250000003494","960","488","","","","","","","","","","","","","","","","","","","",""
"psychophysics","275","767183","0.0-18.0-0.10","60810ad6456ab71178acc056","609a8bf73b2ac84e2732f618","609d7b6de4f78cc8070c0cbf","null","","","","null","","","","key","16.665599999999227","960","488","","","","","","","","","","","","","","","","","","","",""
"psychophysics","276","767685","0.0-18.0-1.10","60810ad6456ab71178acc056","609a8bf73b2ac84e2732f618","609d7b6de4f78cc8070c0cbf","null","","","","null","","","","key","16.665827586207186","960","488","","","","","","","","","","","","","136","1","6","true","","","",""
"psychophysics","277","768368","0.0-18.0-2.10","60810ad6456ab71178acc056","609a8bf73b2ac84e2732f618","609d7b6de4f78cc8070c0cbf","680.4199998732656","","","","90","","","","key","16.666849999999975","960","488","","","","","","","","","","","","","","","","","","","",""
"psychophysics","278","769706","0.0-18.0-0.11","60810ad6456ab71178acc056","609a8bf73b2ac84e2732f618","609d7b6de4f78cc8070c0cbf","null","","","","null","","","","key","16.66578750000044","960","488","","","","","","","","","","","","","","","","","","","",""
"psychophysics","279","770209","0.0-18.0-1.11","60810ad6456ab71178acc056","609a8bf73b2ac84e2732f618","609d7b6de4f78cc8070c0cbf","null","","","","null","","","","key","16.665034482757367","960","488","","","","","","","","","","","","","136","1","2","true","","","",""
"psychophysics","280","770672","0.0-18.0-2.11","60810ad6456ab71178acc056","609a8bf73b2ac84e2732f618","609d7b6de4f78cc8070c0cbf","461.1949999816716","","","","90","","","","key","16.665777777778676","960","488","","","","","","","","","","","","","","","","","","","",""
"psychophysics","281","771950","0.0-18.0-0.12","60810ad6456ab71178acc056","609a8bf73b2ac84e2732f618","609d7b6de4f78cc8070c0cbf","null","","","","null","","","","key","16.666386666665787","960","488","","","","","","","","","","","","","","","","","","","",""
"psychophysics","282","772452","0.0-18.0-1.12","60810ad6456ab71178acc056","609a8bf73b2ac84e2732f618","609d7b6de4f78cc8070c0cbf","null","","","","null","","","","key","16.664931034480606","960","488","","","","","","","","","","","","","136","-1","0","true","","","",""
"psychophysics","283","773120","0.0-18.0-2.12","60810ad6456ab71178acc056","609a8bf73b2ac84e2732f618","609d7b6de4f78cc8070c0cbf","665.6700000166893","","","","77","","","","key","16.667599999997766","960","488","","","","","","","","","","","","","","","","","","","",""
"psychophysics","284","774422","0.0-18.0-0.13","60810ad6456ab71178acc056","609a8bf73b2ac84e2732f618","609d7b6de4f78cc8070c0cbf","null","","","","null","","","","key","16.665844155844397","960","488","","","","","","","","","","","","","","","","","","","",""
"psychophysics","285","774924","0.0-18.0-1.13","60810ad6456ab71178acc056","609a8bf73b2ac84e2732f618","609d7b6de4f78cc8070c0cbf","null","","","","null","","","","key","16.667448275863066","960","488","","","","","","","","","","","","","136","1","5","true","","","",""
"psychophysics","286","775192","0.0-18.0-2.13","60810ad6456ab71178acc056","609a8bf73b2ac84e2732f618","609d7b6de4f78cc8070c0cbf","265.90500003658235","","","","90","","","","key","16.66413333332942","960","488","","","","","","","","","","","","","","","","","","","",""
"psychophysics","287","776103","0.0-18.0-0.14","60810ad6456ab71178acc056","609a8bf73b2ac84e2732f618","609d7b6de4f78cc8070c0cbf","null","","","","null","","","","key","16.666648148147267","960","488","","","","","","","","","","","","","","","","","","","",""
"psychophysics","288","776606","0.0-18.0-1.14","60810ad6456ab71178acc056","609a8bf73b2ac84e2732f618","609d7b6de4f78cc8070c0cbf","null","","","","null","","","","key","16.66724137930954","960","488","","","","","","","","","","","","","136","1","3","true","","","",""
"psychophysics","289","777752","0.0-18.0-2.14","60810ad6456ab71178acc056","609a8bf73b2ac84e2732f618","609d7b6de4f78cc8070c0cbf","1140.5850001610816","","","","90","","","","key","16.666641791043595","960","488","","","","","","","","","","","","","","","","","","","",""
"psychophysics","290","779139","0.0-18.0-0.15","60810ad6456ab71178acc056","609a8bf73b2ac84e2732f618","609d7b6de4f78cc8070c0cbf","null","","","","null","","","","key","16.666373493976003","960","488","","","","","","","","","","","","","","","","","","","",""
"psychophysics","291","779641","0.0-18.0-1.15","60810ad6456ab71178acc056","609a8bf73b2ac84e2732f618","609d7b6de4f78cc8070c0cbf","null","","","","null","","","","key","16.666068965516953","960","488","","","","","","","","","","","","","136","-1","4","true","","","",""
"psychophysics","292","780080","0.0-18.0-2.15","60810ad6456ab71178acc056","609a8bf73b2ac84e2732f618","609d7b6de4f78cc8070c0cbf","436.2949999049306","","","","77","","","","key","16.666319999997505","960","488","","","","","","","","","","","","","","","","","","","",""
"psychophysics","293","781478","0.0-18.0-0.16","60810ad6456ab71178acc056","609a8bf73b2ac84e2732f618","609d7b6de4f78cc8070c0cbf","null","","","","null","","","","key","16.66555421686793","960","488","","","","","","","","","","","","","","","","","","","",""
"psychophysics","294","781979","0.0-18.0-1.16","60810ad6456ab71178acc056","609a8bf73b2ac84e2732f618","609d7b6de4f78cc8070c0cbf","null","","","","null","","","","key","16.6672068965533","960","488","","","","","","","","","","","","","136","-1","5","true","","","",""
"psychophysics","295","782632","0.0-18.0-2.16","60810ad6456ab71178acc056","609a8bf73b2ac84e2732f618","609d7b6de4f78cc8070c0cbf","651.1999999638647","","","","90","","","","key","16.66594736842365","960","488","","","","","","","","","","","","","","","","","","","",""
"psychophysics","296","784037","0.0-18.0-0.17","60810ad6456ab71178acc056","609a8bf73b2ac84e2732f618","609d7b6de4f78cc8070c0cbf","null","","","","null","","","","key","16.666154761904007","960","488","","","","","","","","","","","","","","","","","","","",""
"psychophysics","297","784541","0.0-18.0-1.17","60810ad6456ab71178acc056","609a8bf73b2ac84e2732f618","609d7b6de4f78cc8070c0cbf","null","","","","null","","","","key","16.665206896554647","960","488","","","","","","","","","","","","","136","-1","3","true","","","",""
"psychophysics","298","784776","0.0-18.0-2.17","60810ad6456ab71178acc056","609a8bf73b2ac84e2732f618","609d7b6de4f78cc8070c0cbf","232.079999987036","","","","77","","","","key","16.66469230768808","960","488","","","","","","","","","","","","","","","","","","","",""
"psychophysics","299","785603","0.0-18.0-0.18","60810ad6456ab71178acc056","609a8bf73b2ac84e2732f618","609d7b6de4f78cc8070c0cbf","null","","","","null","","","","key","16.665708333333896","960","488","","","","","","","","","","","","","","","","","","","",""
"psychophysics","300","786104","0.0-18.0-1.18","60810ad6456ab71178acc056","609a8bf73b2ac84e2732f618","609d7b6de4f78cc8070c0cbf","null","","","","null","","","","key","16.66643333333389","960","488","","","","","","","","","","","","","136","1","6","true","","","",""
"psychophysics","301","786728","0.0-18.0-2.18","60810ad6456ab71178acc056","609a8bf73b2ac84e2732f618","609d7b6de4f78cc8070c0cbf","621.1000001057982","","","","77","","","","key","16.665805555556695","960","488","","","","","","","","","","","","","","","","","","","",""
"psychophysics","302","787408","0.0-18.0-0.19","60810ad6456ab71178acc056","609a8bf73b2ac84e2732f618","609d7b6de4f78cc8070c0cbf","null","","","","null","","","","key","16.66600000000035","960","488","","","","","","","","","","","","","","","","","","","",""
"psychophysics","303","787910","0.0-18.0-1.19","60810ad6456ab71178acc056","609a8bf73b2ac84e2732f618","609d7b6de4f78cc8070c0cbf","null","","","","null","","","","key","16.665344827587653","960","488","","","","","","","","","","","","","136","1","0","true","","","",""
"psychophysics","304","788696","0.0-18.0-2.19","60810ad6456ab71178acc056","609a8bf73b2ac84e2732f618","609d7b6de4f78cc8070c0cbf","783.7950000539422","","","","77","","","","key","16.666413043476336","960","488","","","","","","","","","","","","","","","","","","","",""
"psychophysics","305","789475","0.0-18.0-0.20","60810ad6456ab71178acc056","609a8bf73b2ac84e2732f618","609d7b6de4f78cc8070c0cbf","null","","","","null","","","","key","16.6651521739145","960","488","","","","","","","","","","","","","","","","","","","",""
"psychophysics","306","789976","0.0-18.0-1.20","60810ad6456ab71178acc056","609a8bf73b2ac84e2732f618","609d7b6de4f78cc8070c0cbf","null","","","","null","","","","key","16.66717241379304","960","488","","","","","","","","","","","","","136","1","4","true","","","",""
"psychophysics","307","790352","0.0-18.0-2.20","60810ad6456ab71178acc056","609a8bf73b2ac84e2732f618","609d7b6de4f78cc8070c0cbf","373.51499986834824","","","","90","","","","key","16.66342857142999","960","488","","","","","","","","","","","","","","","","","","","",""
"psychophysics","308","791752","0.0-18.0-0.21","60810ad6456ab71178acc056","609a8bf73b2ac84e2732f618","609d7b6de4f78cc8070c0cbf","null","","","","null","","","","key","16.666289156625407","960","488","","","","","","","","","","","","","","","","","","","",""
"psychophysics","309","792256","0.0-18.0-1.21","60810ad6456ab71178acc056","609a8bf73b2ac84e2732f618","609d7b6de4f78cc8070c0cbf","null","","","","null","","","","key","16.66679999999857","960","488","","","","","","","","","","","","","136","1","2","true","","","",""
"psychophysics","310","792528","0.0-18.0-2.21","60810ad6456ab71178acc056","609a8bf73b2ac84e2732f618","609d7b6de4f78cc8070c0cbf","269.31499992497265","","","","90","","","","key","16.66433333333892","960","488","","","","","","","","","","","","","","","","","","","",""
"psychophysics","311","793761","0.0-18.0-0.22","60810ad6456ab71178acc056","609a8bf73b2ac84e2732f618","609d7b6de4f78cc8070c0cbf","null","","","","null","","","","key","16.66539726027428","960","488","","","","","","","","","","","","","","","","","","","",""
"psychophysics","312","794263","0.0-18.0-1.22","60810ad6456ab71178acc056","609a8bf73b2ac84e2732f618","609d7b6de4f78cc8070c0cbf","null","","","","null","","","","key","16.66541379310014","960","488","","","","","","","","","","","","","136","-1","2","true","","","",""
"psychophysics","313","794944","0.0-18.0-2.22","60810ad6456ab71178acc056","609a8bf73b2ac84e2732f618","609d7b6de4f78cc8070c0cbf","679.0599999949336","","","","90","","","","key","16.665524999998162","960","488","","","","","","","","","","","","","","","","","","","",""
"psychophysics","314","796201","0.0-18.0-0.23","60810ad6456ab71178acc056","609a8bf73b2ac84e2732f618","609d7b6de4f78cc8070c0cbf","null","","","","null","","","","key","16.66645945946063","960","488","","","","","","","","","","","","","","","","","","","",""
"psychophysics","315","796702","0.0-18.0-1.23","60810ad6456ab71178acc056","609a8bf73b2ac84e2732f618","609d7b6de4f78cc8070c0cbf","null","","","","null","","","","key","16.666724137933763","960","488","","","","","","","","","","","","","136","-1","6","true","","","",""
"psychophysics","316","797056","0.0-18.0-2.23","60810ad6456ab71178acc056","609a8bf73b2ac84e2732f618","609d7b6de4f78cc8070c0cbf","351.1650001164526","","","","90","","","","key","16.66566666666906","960","488","","","","","","","","","","","","","","","","","","","",""
"psychophysics","317","798220","0.0-18.0-0.24","60810ad6456ab71178acc056","609a8bf73b2ac84e2732f618","609d7b6de4f78cc8070c0cbf","null","","","","null","","","","key","16.66653623188461","960","488","","","","","","","","","","","","","","","","","","","",""
"psychophysics","318","798722","0.0-18.0-1.24","60810ad6456ab71178acc056","609a8bf73b2ac84e2732f618","609d7b6de4f78cc8070c0cbf","null","","","","null","","","","key","16.666241379310215","960","488","","","","","","","","","","","","","136","-1","6","true","","","",""
"psychophysics","319","799584","0.0-18.0-2.24","60810ad6456ab71178acc056","609a8bf73b2ac84e2732f618","609d7b6de4f78cc8070c0cbf","859.8299999721348","","","","77","","","","key","16.666059999999124","960","488","","","","","","","","","","","","","","","","","","","",""
"psychophysics","320","800990","0.0-18.0-0.25","60810ad6456ab71178acc056","609a8bf73b2ac84e2732f618","609d7b6de4f78cc8070c0cbf","null","","","","null","","","","key","16.666154761905393","960","488","","","","","","","","","","","","","","","","","","","",""
"psychophysics","321","801493","0.0-18.0-1.25","60810ad6456ab71178acc056","609a8bf73b2ac84e2732f618","609d7b6de4f78cc8070c0cbf","null","","","","null","","","","key","16.66586206896343","960","488","","","","","","","","","","","","","136","1","6","true","","","",""
"psychophysics","322","802104","0.0-18.0-2.25","60810ad6456ab71178acc056","609a8bf73b2ac84e2732f618","609d7b6de4f78cc8070c0cbf","608.5900000762194","","","","90","","","","key","16.6676111111107","960","488","","","","","","","","","","","","","","","","","","","",""
"psychophysics","323","802926","0.0-18.0-0.26","60810ad6456ab71178acc056","609a8bf73b2ac84e2732f618","609d7b6de4f78cc8070c0cbf","null","","","","null","","","","key","16.66647916666746","960","488","","","","","","","","","","","","","","","","","","","",""
"psychophysics","324","803428","0.0-18.0-1.26","60810ad6456ab71178acc056","609a8bf73b2ac84e2732f618","609d7b6de4f78cc8070c0cbf","null","","","","null","","","","key","16.664517241377578","960","488","","","","","","","","","","","","","136","-1","2","true","","","",""
"psychophysics","325","803776","0.0-18.0-2.26","60810ad6456ab71178acc056","609a8bf73b2ac84e2732f618","609d7b6de4f78cc8070c0cbf","345.53000004962087","","","","90","","","","key","16.66554999999935","960","488","","","","","","","","","","","","","","","","","","","",""
"psychophysics","326","805236","0.0-18.0-0.27","60810ad6456ab71178acc056","609a8bf73b2ac84e2732f618","609d7b6de4f78cc8070c0cbf","null","","","","null","","","","key","16.66595402298811","960","488","","","","","","","","","","","","","","","","","","","",""
"psychophysics","327","805740","0.0-18.0-1.27","60810ad6456ab71178acc056","609a8bf73b2ac84e2732f618","609d7b6de4f78cc8070c0cbf","null","","","","null","","","","key","16.66672413792975","960","488","","","","","","","","","","","","","136","-1","5","true","","","",""
"psychophysics","328","806240","0.0-18.0-2.27","60810ad6456ab71178acc056","609a8bf73b2ac84e2732f618","609d7b6de4f78cc8070c0cbf","496.98999989777803","","","","90","","","","key","16.665241379310892","960","488","","","","","","","","","","","","","","","","","","","",""
"psychophysics","329","807241","0.0-18.0-0.28","60810ad6456ab71178acc056","609a8bf73b2ac84e2732f618","609d7b6de4f78cc8070c0cbf","null","","","","null","","","","key","16.667186440677003","960","488","","","","","","","","","","","","","","","","","","","",""
"psychophysics","330","807744","0.0-18.0-1.28","60810ad6456ab71178acc056","609a8bf73b2ac84e2732f618","609d7b6de4f78cc8070c0cbf","null","","","","null","","","","key","16.66703448275602","960","488","","","","","","","","","","","","","136","1","4","true","","","",""
"psychophysics","331","808624","0.0-18.0-2.28","60810ad6456ab71178acc056","609a8bf73b2ac84e2732f618","609d7b6de4f78cc8070c0cbf","878.434999845922","","","","77","","","","key","16.666057692305632","960","488","","","","","","","","","","","","","","","","","","","",""
