"trial_type","trial_index","time_elapsed","internal_node_id","PROLIFIC_PID","STUDY_ID","SESSION_ID","rt","stimulus","button_pressed","success","key_press","responses","isData","view_history","response_type","avg_frame_time","center_x","center_y","isSC","stim_side","trial_luminance","step_size","nReversal","correct","prev_ans","isThreshold","SC_threshold","final_threshold","isLuminance","FF_luminance","luminance","stimSide","ISInt","isFF","question_order","isSPQ","isCAPS","isAQ"
"pavlovia","0","10","0.0-0.0","5f2c760dfff10e03206a686b","609a8bf73b2ac84e2732f618","609d7c7f4ecd7cad93072f09","","","","","","","","","","","","","","","","","","","","","","","","","","","","","","","",""
"html-button-response","1","22737","0.0-1.0","5f2c760dfff10e03206a686b","609a8bf73b2ac84e2732f618","609d7c7f4ecd7cad93072f09","22725.319999735802","<div style='background-color: white; width:60%; margin: auto; padding: 50px; text-align: justify; text-justify: inter-word; margin-bottom: 20px;'><h1 style='text-align: center;'>Consent Form</h1><p>Please read this consent form carefully before deciding whether you would like to participate in this study. You have to be 18 years old or older to participate to this study.</p><p style='text-decoration: underline;'>Participation is voluntary:</p><p>It is your choice whether or not to participate in this research. If you choose to participate, you may change your mind and leave the study at any time. Refusal to participate or stopping your participation will involve no penalty or loss of benefits to which you are otherwise entitled.</p><p style='text-decoration: underline;'>Purpose of the Study:</p><p>To understand the mechanisms underlying human perception.</p><p style='text-decoration: underline;'>What you will do in this study:</p><p>You will be presented with a series of visual images and then you will press buttons on the keyboard of your computer to respond to simple questions about the images (e.g. Were one or two images presented?). In addition, you will be asked to complete a questionnaire concerning your beliefs and everyday mental and perceptual experiences.'</p><p style='text-decoration: underline;'> Time Required:</p><p>The study will take 40 minutes to complete. </p><p style='text-decoration: underline;'>Risks:</p><p>There are no anticipated risks associated with participating in this study that are beyond those experienced in everyday life. </p><p style='text-decoration: underline;'>Benefits:</p><p>There are no benefits to you in participating in the study. However, this study may lead to a better understanding of how different kinds of visual information are used.</p><p style='text-decoration: underline;'>Compensation:</p><p>You will be paid US$6.6/hour. </p><p style='text-decoration: underline;'>Privacy and Confidentiality:</p><p>Your participation in this study will be anonymous. No personal information about your name or identity will be asked or recorded. This anonymous data will be stored for several years and may be used for a variety of research purposes. The overall results of the study may be published, or the data files may be shared with other researchers, but your identity will not be revealed in any way. The online services we are using for this study may temporarily store your data, but this data will be downloaded and then promptly deleted from those services.Your data will not be permanently associated with your name, IP address, or any other identifiable information (e.g., your information will only be connected to your payment, not to any of your responses), though they may be temporarily stored together before we download and separate them. Even so, no guarantee of internet survey security can be given because, although unlikely, transmissions can be intercepted and IP addresses can be identified. The anonymous data may be shared publicly (for example, in conjunction with a resulting academic publication).</p><p style='text-decoration: underline;'>Participation and Withdrawal:</p><p>Your participation in this study is completely voluntary. You may stop responding to the stimuli or stop answering questions if you so choose and without penalty by exiting the full screen mode, closing this tab of your browser or redirecting it to a different website.</p><p style='text-decoration: underline;'>Contact Info of the Researcher: </p><p>If you have questions about this study, or if you would like to talk to the research team, please contact David Melcher (david.melcher@nyu.edu, md5050@nyu.edu) at the Perception and Active Cognition Laboratory, New York University Abu Dhabi, Computational Research Building, Saadiyat Island, Abu Dhabi, UAE.This research has been reviewed by the New York University Abu Dhabi Institutional Review Board (NYUAD IRB). To contact about your rights in this research, for questions, suggestions, or complaints that are not addressed by the researchers, please email IRBnyuad@nyu.edu, or call the NYUAD IRB at +971 2 628 4313. </p></div>","0","","","","","","","","","","","","","","","","","","","","","","","","","","","","",""
"fullscreen","2","25258","0.0-2.0","5f2c760dfff10e03206a686b","609a8bf73b2ac84e2732f618","609d7c7f4ecd7cad93072f09","","","","true","","","","","","","","","","","","","","","","","","","","","","","","","","","",""
"html-keyboard-response","3","40901","0.0-3.0","5f2c760dfff10e03206a686b","609a8bf73b2ac84e2732f618","609d7c7f4ecd7cad93072f09","15641.25999994576","<p>Welcome !</p><p>READ CAREFULLY THE FOLLOWING INDICATIONS:</p><p>From this moment you have ~40 minutes to complete the experiment.</p><p>During the experiment you will be prompted to take several breaks. Each break should not last longer than 2-3 minutes.</p><p>Make sure that your computer is plugged in and it's not running on battery power, even if the battery is already fully charged.</p><p>Turn off your phone and music, make sure that you are in a quiet room and that you will not be distracted for the next hour.</p><p>Failure to comply with the instructions and indications provided during the experiment will most likely result in the rejection of your data.<p>Press the spacebar to start.</p>","","","32","","","","","","","","","","","","","","","","","","","","","","","","","","",""
"survey-html-form","4","45361","0.0-4.0","5f2c760dfff10e03206a686b","609a8bf73b2ac84e2732f618","609d7c7f4ecd7cad93072f09","4455.4499997757375","","","","","{""age"":""21"",""sex"":""F""}","true","","","","","","","","","","","","","","","","","","","","","","","","",""
"instructions","5","83296","0.0-5.0","5f2c760dfff10e03206a686b","609a8bf73b2ac84e2732f618","609d7c7f4ecd7cad93072f09","37934.59499999881","","","","","","","[{""page_index"":0,""viewing_time"":27854.48000021279},{""page_index"":1,""viewing_time"":7776.129999663681},{""page_index"":2,""viewing_time"":2303.7250000052154}]","","","","","","","","","","","","","","","","","","","","","","","",""
"psychophysics","6","89584","0.0-6.0-0.0","5f2c760dfff10e03206a686b","609a8bf73b2ac84e2732f618","609d7c7f4ecd7cad93072f09","5285.6149999424815","","","","39","","","","key","16.683392572944285","960","484.5","true","-1","180","30","0","1","","","","","","","","","","","","","",""
"psychophysics","7","91515","0.0-6.0-0.1","5f2c760dfff10e03206a686b","609a8bf73b2ac84e2732f618","609d7c7f4ecd7cad93072f09","926.9750001840293","","","","39","","","","key","16.683834782608724","960","484.5","true","1","210","30","0","-1","1","","","","","","","","","","","","",""
"psychophysics","8","92816","0.0-6.0-0.2","5f2c760dfff10e03206a686b","609a8bf73b2ac84e2732f618","609d7c7f4ecd7cad93072f09","299.6950000524521","","","","37","","","","key","16.68544155844168","960","484.5","true","-1","210","24","1","-1","-1","","","","","","","","","","","","",""
"psychophysics","9","93988","0.0-6.0-0.3","5f2c760dfff10e03206a686b","609a8bf73b2ac84e2732f618","609d7c7f4ecd7cad93072f09","168.33500005304813","","","","37","","","","key","16.682753623188415","960","484.5","true","-1","186","24","1","-1","-1","","","","","","","","","","","","",""
"psychophysics","10","97169","0.0-6.0-0.4","5f2c760dfff10e03206a686b","609a8bf73b2ac84e2732f618","609d7c7f4ecd7cad93072f09","2177.535000257194","","","","37","","","","key","16.68335789473686","960","484.5","true","-1","186","24","1","-1","-1","","","","","","","","","","","","",""
"psychophysics","11","100189","0.0-6.0-0.5","5f2c760dfff10e03206a686b","609a8bf73b2ac84e2732f618","609d7c7f4ecd7cad93072f09","2018.1350000202656","","","","39","","","","key","16.68292737430171","960","484.5","true","1","162","24","1","-1","-1","","","","","","","","","","","","",""
"psychophysics","12","101896","0.0-6.0-0.6","5f2c760dfff10e03206a686b","609a8bf73b2ac84e2732f618","609d7c7f4ecd7cad93072f09","702.5750000029802","","","","37","","","","key","16.683911764705936","960","484.5","true","-1","162","24","1","-1","-1","","","","","","","","","","","","",""
"psychophysics","13","103426","0.0-6.0-0.7","5f2c760dfff10e03206a686b","609a8bf73b2ac84e2732f618","609d7c7f4ecd7cad93072f09","528.05499965325","","","","39","","","","key","16.682670329670245","960","484.5","true","1","138","24","1","-1","-1","","","","","","","","","","","","",""
"psychophysics","14","104897","0.0-6.0-0.8","5f2c760dfff10e03206a686b","609a8bf73b2ac84e2732f618","609d7c7f4ecd7cad93072f09","468.5849999077618","","","","39","","","","key","16.684528735632227","960","484.5","true","1","138","24","1","-1","-1","","","","","","","","","","","","",""
"psychophysics","15","107856","0.0-6.0-0.9","5f2c760dfff10e03206a686b","609a8bf73b2ac84e2732f618","609d7c7f4ecd7cad93072f09","1956.9700001738966","","","","39","","","","key","16.68338636363635","960","484.5","true","1","129","24","1","-1","-1","","","","","","","","","","","","",""
"psychophysics","16","110072","0.0-6.0-0.10","5f2c760dfff10e03206a686b","609a8bf73b2ac84e2732f618","609d7c7f4ecd7cad93072f09","1212.0850002393126","","","","39","","","","key","16.684401515151517","960","484.5","true","1","129","24","1","-1","-1","","","","","","","","","","","","",""
"psychophysics","17","112128","0.0-6.0-0.11","5f2c760dfff10e03206a686b","609a8bf73b2ac84e2732f618","609d7c7f4ecd7cad93072f09","1053.3050000667572","","","","39","","","","key","16.683024590163917","960","484.5","true","1","129","24","1","-1","-1","","","","","","","","","","","","",""
"psychophysics","18","114671","0.0-6.0-0.12","5f2c760dfff10e03206a686b","609a8bf73b2ac84e2732f618","609d7c7f4ecd7cad93072f09","1541.0750000737607","","","","37","","","","key","16.683407894736916","960","484.5","true","-1","129","24","1","-1","-1","","","","","","","","","","","","",""
"psychophysics","19","116939","0.0-6.0-0.13","5f2c760dfff10e03206a686b","609a8bf73b2ac84e2732f618","609d7c7f4ecd7cad93072f09","1266.000000294298","","","","39","","","","key","16.683459259259205","960","484.5","true","-1","129","19.2","2","1","-1","","","","","","","","","","","","",""
"psychophysics","20","119159","0.0-6.0-0.14","5f2c760dfff10e03206a686b","609a8bf73b2ac84e2732f618","609d7c7f4ecd7cad93072f09","1215.3449999168515","","","","39","","","","key","16.68227272727271","960","484.5","true","1","148.2","19.2","2","-1","1","","","","","","","","","","","","",""
"psychophysics","21","120642","0.0-6.0-0.15","5f2c760dfff10e03206a686b","609a8bf73b2ac84e2732f618","609d7c7f4ecd7cad93072f09","480.10999988764524","","","","39","","","","key","16.684613636363625","960","484.5","true","1","148.2","15.36","3","-1","-1","","","","","","","","","","","","",""
"psychophysics","22","122017","0.0-6.0-0.16","5f2c760dfff10e03206a686b","609a8bf73b2ac84e2732f618","609d7c7f4ecd7cad93072f09","370.0500000268221","","","","37","","","","key","16.683753086419642","960","484.5","true","-1","132.83999999999997","15.36","3","-1","-1","","","","","","","","","","","","",""
"psychophysics","23","123272","0.0-6.0-0.17","5f2c760dfff10e03206a686b","609a8bf73b2ac84e2732f618","609d7c7f4ecd7cad93072f09","250.71500008925796","","","","37","","","","key","16.68050000000005","960","484.5","true","-1","132.83999999999997","15.36","3","-1","-1","","","","","","","","","","","","",""
"psychophysics","24","125465","0.0-6.0-0.18","5f2c760dfff10e03206a686b","609a8bf73b2ac84e2732f618","609d7c7f4ecd7cad93072f09","1189.959999639541","","","","39","","","","key","16.684236641221332","960","484.5","true","1","129","15.36","3","-1","-1","","","","","","","","","","","","",""
"psychophysics","25","128290","0.0-6.0-0.19","5f2c760dfff10e03206a686b","609a8bf73b2ac84e2732f618","609d7c7f4ecd7cad93072f09","1819.9450001120567","","","","39","","","","key","16.68352380952378","960","484.5","true","-1","129","12.287999999999998","4","1","-1","","","","","","","","","","","","",""
"psychophysics","26","129440","0.0-6.0-0.20","5f2c760dfff10e03206a686b","609a8bf73b2ac84e2732f618","609d7c7f4ecd7cad93072f09","148.01499992609024","","","","39","","","","key","16.6841470588237","960","484.5","true","1","141.288","12.287999999999998","4","-1","1","","","","","","","","","","","","",""
"psychophysics","27","130657","0.0-6.0-0.21","5f2c760dfff10e03206a686b","609a8bf73b2ac84e2732f618","609d7c7f4ecd7cad93072f09","214.07000022009015","","","","37","","","","key","16.683972222222412","960","484.5","true","-1","141.288","9.8304","5","-1","-1","","","","","","","","","","","","",""
"psychophysics","28","132960","0.0-6.0-0.22","5f2c760dfff10e03206a686b","609a8bf73b2ac84e2732f618","609d7c7f4ecd7cad93072f09","1299.3900002911687","","","","39","","","","key","16.684700729927034","960","484.5","true","-1","131.4576","7.864319999999999","6","1","-1","","","","","","","","","","","","",""
"psychophysics","29","134041","0.0-6.0-0.23","5f2c760dfff10e03206a686b","609a8bf73b2ac84e2732f618","609d7c7f4ecd7cad93072f09","79.3550000526011","","","","37","","","","key","16.681687500000407","960","484.5","true","-1","139.32192","7.864319999999999","6","-1","1","","","","","","","","","","","","",""
"psychophysics","30","135259","0.0-6.0-0.24","5f2c760dfff10e03206a686b","609a8bf73b2ac84e2732f618","609d7c7f4ecd7cad93072f09","214.05000006780028","","","","37","","","","key","16.683083333333343","960","484.5","true","-1","139.32192","6.291456","7","-1","-1","","","","","","","","","","","","",""
"psychophysics","31","136322","0.0-6.0-0.25","5f2c760dfff10e03206a686b","609a8bf73b2ac84e2732f618","609d7c7f4ecd7cad93072f09","59.080000035464764","","","","39","","","","key","16.68080645161277","960","484.5","true","1","133.030464","6.291456","7","-1","-1","","","","","","","","","","","","",""
"psychophysics","32","138801","0.0-6.0-0.26","5f2c760dfff10e03206a686b","609a8bf73b2ac84e2732f618","609d7c7f4ecd7cad93072f09","1477.5349996052682","","","","37","","","","key","16.68445945945938","960","484.5","true","1","133.030464","5.033164800000001","8","1","-1","","","","","","","","","","","","",""
"psychophysics","33","140104","0.0-6.0-0.27","5f2c760dfff10e03206a686b","609a8bf73b2ac84e2732f618","609d7c7f4ecd7cad93072f09","298.53999987244606","","","","39","","","","key","16.684558441558575","960","484.5","true","1","138.0636288","5.033164800000001","8","-1","1","","","","","","","","","","","","",""
"psychophysics","34","141315","0.0-6.0-0.28","5f2c760dfff10e03206a686b","609a8bf73b2ac84e2732f618","609d7c7f4ecd7cad93072f09","208.5200003348291","","","","39","","","","key","16.682361111111177","960","484.5","true","1","138.0636288","4.0265318400000005","9","-1","-1","","","","","","","","","","","","",""
"psychophysics","35","142536","0.0-6.0-0.29","5f2c760dfff10e03206a686b","609a8bf73b2ac84e2732f618","609d7c7f4ecd7cad93072f09","218.97999988868833","","","","37","","","","key","16.68222222222216","960","484.5","true","-1","134.03709696","4.0265318400000005","9","-1","-1","","","","","","","","","","","","",""
"psychophysics","36","144065","0.0-6.0-0.30","5f2c760dfff10e03206a686b","609a8bf73b2ac84e2732f618","609d7c7f4ecd7cad93072f09","527.88499975577","","","","39","","","","key","16.684659340659383","960","484.5","true","1","134.03709696","4.0265318400000005","9","-1","-1","","","","","","","","","","","","",""
"psychophysics","37","145424","0.0-6.0-0.31","5f2c760dfff10e03206a686b","609a8bf73b2ac84e2732f618","609d7c7f4ecd7cad93072f09","356.6950000822544","","","","37","","","","key","16.68306249999987","960","484.5","true","1","130.01056512000002","3.2212254720000004","10","1","-1","","","","","","","","","","","","",""
"psychophysics","38","147418","0.0-6.0-0.32","5f2c760dfff10e03206a686b","609a8bf73b2ac84e2732f618","609d7c7f4ecd7cad93072f09","991.2899998016655","","","","39","","","","key","16.682042016806726","960","484.5","true","-1","133.23179059200004","3.2212254720000004","10","1","1","","","","","","","","","","","","",""
"psychophysics","39","148745","0.0-6.0-0.33","5f2c760dfff10e03206a686b","609a8bf73b2ac84e2732f618","609d7c7f4ecd7cad93072f09","324.39000019803643","","","","39","","","","key","16.68308974358959","960","484.5","true","1","136.45301606400005","3.2212254720000004","10","-1","1","","","","","","","","","","","","",""
"psychophysics","40","150011","0.0-6.0-0.34","5f2c760dfff10e03206a686b","609a8bf73b2ac84e2732f618","609d7c7f4ecd7cad93072f09","264.6699999459088","","","","39","","","","key","16.68233333333318","960","484.5","true","1","136.45301606400005","2.5769803776000004","11","-1","-1","","","","","","","","","","","","",""
"psychophysics","41","151251","0.0-6.0-0.35","5f2c760dfff10e03206a686b","609a8bf73b2ac84e2732f618","609d7c7f4ecd7cad93072f09","236.16999993100762","","","","39","","","","key","16.6841506849315","960","484.5","true","1","133.87603568640006","2.5769803776000004","11","-1","-1","","","","","","","","","","","","",""
"psychophysics","42","152329","0.0-6.0-0.36","5f2c760dfff10e03206a686b","609a8bf73b2ac84e2732f618","609d7c7f4ecd7cad93072f09","71.54500018805265","","","","37","","","","key","16.681874999999764","960","484.5","true","-1","133.87603568640006","2.5769803776000004","11","-1","-1","","","","","","","","","","","","",""
"psychophysics","43","154145","0.0-6.0-0.37","5f2c760dfff10e03206a686b","609a8bf73b2ac84e2732f618","609d7c7f4ecd7cad93072f09","814.2600003629923","","","","37","","","","key","16.684981481481508","960","484.5","true","-1","131.29905530880006","2.5769803776000004","11","-1","-1","","","","","","","","","","","","",""
"psychophysics","44","155610","0.0-6.0-0.38","5f2c760dfff10e03206a686b","609a8bf73b2ac84e2732f618","609d7c7f4ecd7cad93072f09","461.7650001309812","","","","39","","","","key","16.684183908046034","960","484.5","true","-1","131.29905530880006","2.0615843020800004","12","1","-1","","","","","","","","","","","","",""
"psychophysics","45","156904","0.0-6.0-0.39","5f2c760dfff10e03206a686b","609a8bf73b2ac84e2732f618","609d7c7f4ecd7cad93072f09","290.92999966815114","","","","37","","","","key","16.68288157894705","960","484.5","true","-1","133.36063961088007","2.0615843020800004","12","-1","1","","","","","","","","","","","","",""
"html-keyboard-response","46","160252","0.0-7.0","5f2c760dfff10e03206a686b","609a8bf73b2ac84e2732f618","609d7c7f4ecd7cad93072f09","3346.1799998767674","<p>Well Done !</p><p>Prepare for a new block.</p><p>DON'T EXIT THE FULL SCREEN MODE</p><p>Press the Spacebar to start.</p>","","","32","","","","","","","","","","","","","","","true","134.008105930752","","","","","","","","","","",""
"psychophysics","47","163186","0.0-8.0-0.0","5f2c760dfff10e03206a686b","609a8bf73b2ac84e2732f618","609d7c7f4ecd7cad93072f09","1926.0450000874698","","","","39","","","","key","16.68481250000001","960","484.5","true","1","180","30","0","-1","","","","","","","","","","","","","",""
"psychophysics","48","164474","0.0-8.0-0.1","5f2c760dfff10e03206a686b","609a8bf73b2ac84e2732f618","609d7c7f4ecd7cad93072f09","286.2599999643862","","","","39","","","","key","16.68271052631577","960","484.5","true","1","180","30","0","-1","-1","","","","","","","","","","","","",""
"psychophysics","49","165496","0.0-8.0-0.2","5f2c760dfff10e03206a686b","609a8bf73b2ac84e2732f618","609d7c7f4ecd7cad93072f09","20.080000162124634","","","","39","","","","key","16.684799999999814","960","484.5","true","1","150","30","0","-1","-1","","","","","","","","","","","","",""
"psychophysics","50","168035","0.0-8.0-0.3","5f2c760dfff10e03206a686b","609a8bf73b2ac84e2732f618","609d7c7f4ecd7cad93072f09","1533.9800002984703","","","","39","","","","key","16.683701986754976","960","484.5","true","1","150","30","0","-1","-1","","","","","","","","","","","","",""
"psychophysics","51","170303","0.0-8.0-0.4","5f2c760dfff10e03206a686b","609a8bf73b2ac84e2732f618","609d7c7f4ecd7cad93072f09","1260.5699999257922","","","","37","","","","key","16.68374074074069","960","484.5","true","-1","129","30","0","-1","-1","","","","","","","","","","","","",""
"psychophysics","52","171881","0.0-8.0-0.5","5f2c760dfff10e03206a686b","609a8bf73b2ac84e2732f618","609d7c7f4ecd7cad93072f09","573.4250000678003","","","","39","","","","key","16.68278723404256","960","484.5","true","-1","129","24","1","1","-1","","","","","","","","","","","","",""
"psychophysics","53","173168","0.0-8.0-0.6","5f2c760dfff10e03206a686b","609a8bf73b2ac84e2732f618","609d7c7f4ecd7cad93072f09","283.375000115484","","","","39","","","","key","16.68297368421037","960","484.5","true","1","153","24","1","-1","1","","","","","","","","","","","","",""
"psychophysics","54","174395","0.0-8.0-0.7","5f2c760dfff10e03206a686b","609a8bf73b2ac84e2732f618","609d7c7f4ecd7cad93072f09","225.02500005066395","","","","37","","","","key","16.683698630137034","960","484.5","true","-1","153","19.2","2","-1","-1","","","","","","","","","","","","",""
"psychophysics","55","175921","0.0-8.0-0.8","5f2c760dfff10e03206a686b","609a8bf73b2ac84e2732f618","609d7c7f4ecd7cad93072f09","522.4899998866022","","","","39","","","","key","16.682399999999973","960","484.5","true","1","133.8","19.2","2","-1","-1","","","","","","","","","","","","",""
"psychophysics","56","176971","0.0-8.0-0.9","5f2c760dfff10e03206a686b","609a8bf73b2ac84e2732f618","609d7c7f4ecd7cad93072f09","47.48499998822808","","","","37","","","","key","16.684564516129022","960","484.5","true","-1","133.8","19.2","2","-1","-1","","","","","","","","","","","","",""
"psychophysics","57","179112","0.0-8.0-0.10","5f2c760dfff10e03206a686b","609a8bf73b2ac84e2732f618","609d7c7f4ecd7cad93072f09","1138.944999780506","","","","39","","","","key","16.682330708661553","960","484.5","true","-1","129","15.36","3","1","-1","","","","","","","","","","","","",""
"psychophysics","58","180249","0.0-8.0-0.11","5f2c760dfff10e03206a686b","609a8bf73b2ac84e2732f618","609d7c7f4ecd7cad93072f09","133.55999998748302","","","","37","","","","key","16.683940298507363","960","484.5","true","-1","144.36","15.36","3","-1","1","","","","","","","","","","","","",""
"psychophysics","59","181489","0.0-8.0-0.12","5f2c760dfff10e03206a686b","609a8bf73b2ac84e2732f618","609d7c7f4ecd7cad93072f09","237.81999992206693","","","","39","","","","key","16.684513513513643","960","484.5","true","1","144.36","12.287999999999998","4","-1","-1","","","","","","","","","","","","",""
"psychophysics","60","183256","0.0-8.0-0.13","5f2c760dfff10e03206a686b","609a8bf73b2ac84e2732f618","609d7c7f4ecd7cad93072f09","766.6250001639128","","","","37","","","","key","16.68402857142861","960","484.5","true","-1","132.072","12.287999999999998","4","-1","-1","","","","","","","","","","","","",""
"psychophysics","61","184708","0.0-8.0-0.14","5f2c760dfff10e03206a686b","609a8bf73b2ac84e2732f618","609d7c7f4ecd7cad93072f09","450.2449999563396","","","","39","","","","key","16.685616279069638","960","484.5","true","1","132.072","12.287999999999998","4","-1","-1","","","","","","","","","","","","",""
"psychophysics","62","186426","0.0-8.0-0.15","5f2c760dfff10e03206a686b","609a8bf73b2ac84e2732f618","609d7c7f4ecd7cad93072f09","714.5050000399351","","","","37","","","","key","16.681333333333182","960","484.5","true","1","129","9.8304","5","1","-1","","","","","","","","","","","","",""
"psychophysics","63","187816","0.0-8.0-0.16","5f2c760dfff10e03206a686b","609a8bf73b2ac84e2732f618","609d7c7f4ecd7cad93072f09","388.8699999079108","","","","39","","","","key","16.682463414634142","960","484.5","true","-1","138.8304","9.8304","5","1","1","","","","","","","","","","","","",""
"psychophysics","64","190240","0.0-8.0-0.17","5f2c760dfff10e03206a686b","609a8bf73b2ac84e2732f618","609d7c7f4ecd7cad93072f09","1422.0050000585616","","","","39","","","","key","16.681909722222272","960","484.5","true","-1","148.6608","9.8304","5","1","1","","","","","","","","","","","","",""
"psychophysics","65","191424","0.0-8.0-0.18","5f2c760dfff10e03206a686b","609a8bf73b2ac84e2732f618","609d7c7f4ecd7cad93072f09","176.92499980330467","","","","37","","","","key","16.683671428571273","960","484.5","true","-1","158.4912","9.8304","5","-1","1","","","","","","","","","","","","",""
"psychophysics","66","192478","0.0-8.0-0.19","5f2c760dfff10e03206a686b","609a8bf73b2ac84e2732f618","609d7c7f4ecd7cad93072f09","52.03499970957637","","","","39","","","","key","16.68433870967748","960","484.5","true","1","158.4912","7.864319999999999","6","-1","-1","","","","","","","","","","","","",""
"psychophysics","67","193585","0.0-8.0-0.20","5f2c760dfff10e03206a686b","609a8bf73b2ac84e2732f618","609d7c7f4ecd7cad93072f09","100.81500001251698","","","","39","","","","key","16.68372727272711","960","484.5","true","1","150.62688","7.864319999999999","6","-1","-1","","","","","","","","","","","","",""
"psychophysics","68","194801","0.0-8.0-0.21","5f2c760dfff10e03206a686b","609a8bf73b2ac84e2732f618","609d7c7f4ecd7cad93072f09","205.97000000998378","","","","37","","","","key","16.683791666666366","960","484.5","true","-1","150.62688","7.864319999999999","6","-1","-1","","","","","","","","","","","","",""
"psychophysics","69","195836","0.0-8.0-0.22","5f2c760dfff10e03206a686b","609a8bf73b2ac84e2732f618","609d7c7f4ecd7cad93072f09","30.495000071823597","","","","39","","","","key","16.67791803278693","960","484.5","true","1","142.76256","7.864319999999999","6","-1","-1","","","","","","","","","","","","",""
"psychophysics","70","197393","0.0-8.0-0.23","5f2c760dfff10e03206a686b","609a8bf73b2ac84e2732f618","609d7c7f4ecd7cad93072f09","552.9650002717972","","","","39","","","","key","16.683858695652262","960","484.5","true","1","142.76256","7.864319999999999","6","-1","-1","","","","","","","","","","","","",""
"psychophysics","71","198588","0.0-8.0-0.24","5f2c760dfff10e03206a686b","609a8bf73b2ac84e2732f618","609d7c7f4ecd7cad93072f09","191.68000016361475","","","","37","","","","key","16.68102857142845","960","484.5","true","-1","134.89824000000002","7.864319999999999","6","-1","-1","","","","","","","","","","","","",""
"psychophysics","72","199848","0.0-8.0-0.25","5f2c760dfff10e03206a686b","609a8bf73b2ac84e2732f618","609d7c7f4ecd7cad93072f09","257.82000040635467","","","","37","","","","key","16.683706666666936","960","484.5","true","-1","134.89824000000002","7.864319999999999","6","-1","-1","","","","","","","","","","","","",""
"psychophysics","73","201297","0.0-8.0-0.26","5f2c760dfff10e03206a686b","609a8bf73b2ac84e2732f618","609d7c7f4ecd7cad93072f09","446.4449998922646","","","","37","","","","key","16.68419767441878","960","484.5","true","1","129","6.291456","7","1","-1","","","","","","","","","","","","",""
"psychophysics","74","202546","0.0-8.0-0.27","5f2c760dfff10e03206a686b","609a8bf73b2ac84e2732f618","609d7c7f4ecd7cad93072f09","247.1500001847744","","","","39","","","","key","16.68159459459452","960","484.5","true","1","135.291456","6.291456","7","-1","1","","","","","","","","","","","","",""
"psychophysics","75","203665","0.0-8.0-0.28","5f2c760dfff10e03206a686b","609a8bf73b2ac84e2732f618","609d7c7f4ecd7cad93072f09","117.44499998167157","","","","39","","","","key","16.68233333333311","960","484.5","true","1","135.291456","5.033164800000001","8","-1","-1","","","","","","","","","","","","",""
"psychophysics","76","205280","0.0-8.0-0.29","5f2c760dfff10e03206a686b","609a8bf73b2ac84e2732f618","609d7c7f4ecd7cad93072f09","607.5649997219443","","","","37","","","","key","16.68214583333338","960","484.5","true","1","130.2582912","4.0265318400000005","9","1","-1","","","","","","","","","","","","",""
"psychophysics","77","206449","0.0-8.0-0.30","5f2c760dfff10e03206a686b","609a8bf73b2ac84e2732f618","609d7c7f4ecd7cad93072f09","158.12999987974763","","","","37","","","","key","16.683289855072424","960","484.5","true","-1","134.28482304","4.0265318400000005","9","-1","1","","","","","","","","","","","","",""
"psychophysics","78","207609","0.0-8.0-0.31","5f2c760dfff10e03206a686b","609a8bf73b2ac84e2732f618","609d7c7f4ecd7cad93072f09","156.1949998140335","","","","37","","","","key","16.68483823529438","960","484.5","true","-1","134.28482304","3.2212254720000004","10","-1","-1","","","","","","","","","","","","",""
"psychophysics","79","208872","0.0-8.0-0.32","5f2c760dfff10e03206a686b","609a8bf73b2ac84e2732f618","609d7c7f4ecd7cad93072f09","261.19499979540706","","","","39","","","","key","16.68281333333347","960","484.5","true","1","131.06359756799998","3.2212254720000004","10","-1","-1","","","","","","","","","","","","",""
"psychophysics","80","210731","0.0-8.0-0.33","5f2c760dfff10e03206a686b","609a8bf73b2ac84e2732f618","609d7c7f4ecd7cad93072f09","852.7000001631677","","","","39","","","","key","16.683549549549383","960","484.5","true","-1","131.06359756799998","2.5769803776000004","11","1","-1","","","","","","","","","","","","",""
"psychophysics","81","212641","0.0-8.0-0.34","5f2c760dfff10e03206a686b","609a8bf73b2ac84e2732f618","609d7c7f4ecd7cad93072f09","907.3299998417497","","","","37","","","","key","16.684415929203603","960","484.5","true","-1","133.64057794559997","2.5769803776000004","11","-1","1","","","","","","","","","","","","",""
"psychophysics","82","213873","0.0-8.0-0.35","5f2c760dfff10e03206a686b","609a8bf73b2ac84e2732f618","609d7c7f4ecd7cad93072f09","229.49999989941716","","","","39","","","","key","16.683054794520316","960","484.5","true","1","133.64057794559997","2.0615843020800004","12","-1","-1","","","","","","","","","","","","",""
"psychophysics","83","215506","0.0-8.0-0.36","5f2c760dfff10e03206a686b","609a8bf73b2ac84e2732f618","609d7c7f4ecd7cad93072f09","630.3400001488626","","","","37","","","","key","16.68204123711336","960","484.5","true","1","131.57899364351996","1.6492674416640005","13","1","-1","","","","","","","","","","","","",""
"psychophysics","84","217225","0.0-8.0-0.37","5f2c760dfff10e03206a686b","609a8bf73b2ac84e2732f618","609d7c7f4ecd7cad93072f09","716.2999999709427","","","","39","","","","key","16.68318627450978","960","484.5","true","-1","133.22826108518396","1.6492674416640005","13","1","1","","","","","","","","","","","","",""
"psychophysics","85","218441","0.0-8.0-0.38","5f2c760dfff10e03206a686b","609a8bf73b2ac84e2732f618","609d7c7f4ecd7cad93072f09","213.7199998833239","","","","37","","","","key","16.68436111111118","960","484.5","true","-1","134.87752852684795","1.6492674416640005","13","-1","1","","","","","","","","","","","","",""
"psychophysics","86","219528","0.0-8.0-0.39","5f2c760dfff10e03206a686b","609a8bf73b2ac84e2732f618","609d7c7f4ecd7cad93072f09","85.09000018239021","","","","37","","","","key","16.68526562499983","960","484.5","true","-1","134.87752852684795","1.3194139533312006","14","-1","-1","","","","","","","","","","","","",""
"html-keyboard-response","87","222379","0.0-9.0","5f2c760dfff10e03206a686b","609a8bf73b2ac84e2732f618","609d7c7f4ecd7cad93072f09","2848.869999870658","<p>Well Done !</p><p>Prepare for a new block.</p><p>DON'T EXIT THE FULL SCREEN MODE</p><p>Press the Spacebar to start.</p>","","","32","","","","","","","","","","","","","","","true","133.15198347263998","","","","","","","","","","",""
"psychophysics","88","223428","0.0-10.0-0.0","5f2c760dfff10e03206a686b","609a8bf73b2ac84e2732f618","609d7c7f4ecd7cad93072f09","42.32999961823225","","","","39","","","","key","16.684079365079505","960","484.5","true","1","180","30","0","-1","","","","","","","","","","","","","",""
"psychophysics","89","224472","0.0-10.0-0.1","5f2c760dfff10e03206a686b","609a8bf73b2ac84e2732f618","609d7c7f4ecd7cad93072f09","42.105000000447035","","","","39","","","","key","16.683901639344157","960","484.5","true","1","180","30","0","-1","-1","","","","","","","","","","","","",""
"psychophysics","90","225563","0.0-10.0-0.2","5f2c760dfff10e03206a686b","609a8bf73b2ac84e2732f618","609d7c7f4ecd7cad93072f09","87.15000003576279","","","","39","","","","key","16.682353846153887","960","484.5","true","1","150","30","0","-1","-1","","","","","","","","","","","","",""
"psychophysics","91","226720","0.0-10.0-0.3","5f2c760dfff10e03206a686b","609a8bf73b2ac84e2732f618","609d7c7f4ecd7cad93072f09","153.4600001759827","","","","37","","","","key","16.684882352941393","960","484.5","true","-1","150","30","0","-1","-1","","","","","","","","","","","","",""
"psychophysics","92","228433","0.0-10.0-0.4","5f2c760dfff10e03206a686b","609a8bf73b2ac84e2732f618","609d7c7f4ecd7cad93072f09","712.3350002802908","","","","39","","","","key","16.6834607843139","960","484.5","true","1","129","30","0","-1","-1","","","","","","","","","","","","",""
"psychophysics","93","229936","0.0-10.0-0.5","5f2c760dfff10e03206a686b","609a8bf73b2ac84e2732f618","609d7c7f4ecd7cad93072f09","500.900000333786","","","","37","","","","key","16.68556179775264","960","484.5","true","1","129","24","1","1","-1","","","","","","","","","","","","",""
"psychophysics","94","231169","0.0-10.0-0.6","5f2c760dfff10e03206a686b","609a8bf73b2ac84e2732f618","609d7c7f4ecd7cad93072f09","232.00500011444092","","","","37","","","","key","16.681849315068412","960","484.5","true","-1","153","24","1","-1","1","","","","","","","","","","","","",""
"psychophysics","95","232992","0.0-10.0-0.7","5f2c760dfff10e03206a686b","609a8bf73b2ac84e2732f618","609d7c7f4ecd7cad93072f09","822.0999999903142","","","","39","","","","key","16.681814814814803","960","484.5","true","1","153","19.2","2","-1","-1","","","","","","","","","","","","",""
"psychophysics","96","234250","0.0-10.0-0.8","5f2c760dfff10e03206a686b","609a8bf73b2ac84e2732f618","609d7c7f4ecd7cad93072f09","255.88000006973743","","","","37","","","","key","16.68331081081045","960","484.5","true","-1","133.8","19.2","2","-1","-1","","","","","","","","","","","","",""
"psychophysics","97","235362","0.0-10.0-0.9","5f2c760dfff10e03206a686b","609a8bf73b2ac84e2732f618","609d7c7f4ecd7cad93072f09","109.05499989166856","","","","39","","","","key","16.68483333333323","960","484.5","true","1","133.8","19.2","2","-1","-1","","","","","","","","","","","","",""
"psychophysics","98","236706","0.0-10.0-0.10","5f2c760dfff10e03206a686b","609a8bf73b2ac84e2732f618","609d7c7f4ecd7cad93072f09","341.6550001129508","","","","39","","","","key","16.682025000000067","960","484.5","true","-1","129","15.36","3","1","-1","","","","","","","","","","","","",""
"psychophysics","99","238361","0.0-10.0-0.11","5f2c760dfff10e03206a686b","609a8bf73b2ac84e2732f618","609d7c7f4ecd7cad93072f09","652.0200003869832","","","","37","","","","key","16.6834183673467","960","484.5","true","-1","144.36","15.36","3","-1","1","","","","","","","","","","","","",""
"psychophysics","100","239520","0.0-10.0-0.12","5f2c760dfff10e03206a686b","609a8bf73b2ac84e2732f618","609d7c7f4ecd7cad93072f09","155.35000013187528","","","","39","","","","key","16.683617647058888","960","484.5","true","1","144.36","12.287999999999998","4","-1","-1","","","","","","","","","","","","",""
"psychophysics","101","241120","0.0-10.0-0.13","5f2c760dfff10e03206a686b","609a8bf73b2ac84e2732f618","609d7c7f4ecd7cad93072f09","598.350000102073","","","","39","","","","key","16.683189473684116","960","484.5","true","1","132.072","12.287999999999998","4","-1","-1","","","","","","","","","","","","",""
"psychophysics","102","242665","0.0-10.0-0.14","5f2c760dfff10e03206a686b","609a8bf73b2ac84e2732f618","609d7c7f4ecd7cad93072f09","543.6050002463162","","","","37","","","","key","16.684532608695484","960","484.5","true","-1","132.072","12.287999999999998","4","-1","-1","","","","","","","","","","","","",""
"psychophysics","103","244625","0.0-10.0-0.15","5f2c760dfff10e03206a686b","609a8bf73b2ac84e2732f618","609d7c7f4ecd7cad93072f09","956.8199999630451","","","","39","","","","key","16.683172413793038","960","484.5","true","1","129","12.287999999999998","4","-1","-1","","","","","","","","","","","","",""
"psychophysics","104","246024","0.0-10.0-0.16","5f2c760dfff10e03206a686b","609a8bf73b2ac84e2732f618","609d7c7f4ecd7cad93072f09","396.32000029087067","","","","37","","","","key","16.682578313253128","960","484.5","true","-1","129","12.287999999999998","4","-1","-1","","","","","","","","","","","","",""
"psychophysics","105","247128","0.0-10.0-0.17","5f2c760dfff10e03206a686b","609a8bf73b2ac84e2732f618","609d7c7f4ecd7cad93072f09","101.80999990552664","","","","39","","","","key","16.68263076923098","960","484.5","true","-1","129","9.8304","5","1","-1","","","","","","","","","","","","",""
"psychophysics","106","248224","0.0-10.0-0.18","5f2c760dfff10e03206a686b","609a8bf73b2ac84e2732f618","609d7c7f4ecd7cad93072f09","94.55000003799796","","","","39","","","","key","16.682753846154082","960","484.5","true","1","138.8304","9.8304","5","-1","1","","","","","","","","","","","","",""
"psychophysics","107","249280","0.0-10.0-0.19","5f2c760dfff10e03206a686b","609a8bf73b2ac84e2732f618","609d7c7f4ecd7cad93072f09","54.93499990552664","","","","39","","","","key","16.68490322580657","960","484.5","true","1","138.8304","7.864319999999999","6","-1","-1","","","","","","","","","","","","",""
"psychophysics","108","251784","0.0-10.0-0.20","5f2c760dfff10e03206a686b","609a8bf73b2ac84e2732f618","609d7c7f4ecd7cad93072f09","1502.8450000099838","","","","39","","","","key","16.68453691275177","960","484.5","true","1","130.96608","7.864319999999999","6","-1","-1","","","","","","","","","","","","",""
"psychophysics","109","254400","0.0-10.0-0.21","5f2c760dfff10e03206a686b","609a8bf73b2ac84e2732f618","609d7c7f4ecd7cad93072f09","1613.4600001387298","","","","39","","","","key","16.684096153846042","960","484.5","true","-1","130.96608","6.291456","7","1","-1","","","","","","","","","","","","",""
"psychophysics","110","255412","0.0-10.0-0.22","5f2c760dfff10e03206a686b","609a8bf73b2ac84e2732f618","609d7c7f4ecd7cad93072f09","11.165000032633543","","","","37","","","","key","16.683749999999904","960","484.5","true","-1","137.25753600000002","6.291456","7","-1","1","","","","","","","","","","","","",""
"psychophysics","111","256832","0.0-10.0-0.23","5f2c760dfff10e03206a686b","609a8bf73b2ac84e2732f618","609d7c7f4ecd7cad93072f09","417.905000038445","","","","39","","","","key","16.68339285714284","960","484.5","true","1","137.25753600000002","5.033164800000001","8","-1","-1","","","","","","","","","","","","",""
"psychophysics","112","258385","0.0-10.0-0.24","5f2c760dfff10e03206a686b","609a8bf73b2ac84e2732f618","609d7c7f4ecd7cad93072f09","549.1749998182058","","","","39","","","","key","16.683967391304538","960","484.5","true","1","132.2243712","5.033164800000001","8","-1","-1","","","","","","","","","","","","",""
"psychophysics","113","259752","0.0-10.0-0.25","5f2c760dfff10e03206a686b","609a8bf73b2ac84e2732f618","609d7c7f4ecd7cad93072f09","362.5050000846386","","","","39","","","","key","16.683333333333405","960","484.5","true","1","132.2243712","5.033164800000001","8","-1","-1","","","","","","","","","","","","",""
"psychophysics","114","261376","0.0-10.0-0.26","5f2c760dfff10e03206a686b","609a8bf73b2ac84e2732f618","609d7c7f4ecd7cad93072f09","621.565000154078","","","","37","","","","key","16.683791666666668","960","484.5","true","-1","129","5.033164800000001","8","-1","-1","","","","","","","","","","","","",""
"psychophysics","115","262824","0.0-10.0-0.27","5f2c760dfff10e03206a686b","609a8bf73b2ac84e2732f618","609d7c7f4ecd7cad93072f09","446.8050003051758","","","","39","","","","key","16.682988372092613","960","484.5","true","1","129","5.033164800000001","8","-1","-1","","","","","","","","","","","","",""
"psychophysics","116","263928","0.0-10.0-0.28","5f2c760dfff10e03206a686b","609a8bf73b2ac84e2732f618","609d7c7f4ecd7cad93072f09","103.34500018507242","","","","37","","","","key","16.683923076923328","960","484.5","true","-1","129","5.033164800000001","8","-1","-1","","","","","","","","","","","","",""
"psychophysics","117","265561","0.0-10.0-0.29","5f2c760dfff10e03206a686b","609a8bf73b2ac84e2732f618","609d7c7f4ecd7cad93072f09","630.2050002850592","","","","39","","","","key","16.683670103092698","960","484.5","true","-1","129","4.0265318400000005","9","1","-1","","","","","","","","","","","","",""
"psychophysics","118","266832","0.0-10.0-0.30","5f2c760dfff10e03206a686b","609a8bf73b2ac84e2732f618","609d7c7f4ecd7cad93072f09","269.6249997243285","","","","39","","","","key","16.685120000000268","960","484.5","true","1","133.02653184","4.0265318400000005","9","-1","1","","","","","","","","","","","","",""
"psychophysics","119","269432","0.0-10.0-0.31","5f2c760dfff10e03206a686b","609a8bf73b2ac84e2732f618","609d7c7f4ecd7cad93072f09","1598.6800002865493","","","","39","","","","key","16.683832258064555","960","484.5","true","-1","133.02653184","3.2212254720000004","10","1","-1","","","","","","","","","","","","",""
"psychophysics","120","270496","0.0-10.0-0.32","5f2c760dfff10e03206a686b","609a8bf73b2ac84e2732f618","609d7c7f4ecd7cad93072f09","60.270000249147415","","","","37","","","","key","16.68614285714307","960","484.5","true","-1","136.24775731199998","3.2212254720000004","10","-1","1","","","","","","","","","","","","",""
"psychophysics","121","271699","0.0-10.0-0.33","5f2c760dfff10e03206a686b","609a8bf73b2ac84e2732f618","609d7c7f4ecd7cad93072f09","200.95999957993627","","","","39","","","","key","16.6865211267608","960","484.5","true","1","136.24775731199998","2.5769803776000004","11","-1","-1","","","","","","","","","","","","",""
"psychophysics","122","272794","0.0-10.0-0.34","5f2c760dfff10e03206a686b","609a8bf73b2ac84e2732f618","609d7c7f4ecd7cad93072f09","93.79999991506338","","","","37","","","","key","16.683384615384366","960","484.5","true","-1","133.67077693439998","2.5769803776000004","11","-1","-1","","","","","","","","","","","","",""
"psychophysics","123","273802","0.0-10.0-0.35","5f2c760dfff10e03206a686b","609a8bf73b2ac84e2732f618","609d7c7f4ecd7cad93072f09","4.310000222176313","","","","37","","","","key","16.684745762712257","960","484.5","true","-1","133.67077693439998","2.5769803776000004","11","-1","-1","","","","","","","","","","","","",""
"psychophysics","124","276470","0.0-10.0-0.36","5f2c760dfff10e03206a686b","609a8bf73b2ac84e2732f618","609d7c7f4ecd7cad93072f09","1664.830000139773","","","","37","","","","key","16.68371698113214","960","484.5","true","-1","131.0937965568","2.5769803776000004","11","-1","-1","","","","","","","","","","","","",""
"psychophysics","125","278488","0.0-10.0-0.37","5f2c760dfff10e03206a686b","609a8bf73b2ac84e2732f618","609d7c7f4ecd7cad93072f09","1013.7849999591708","","","","39","","","","key","16.68311666666656","960","484.5","true","-1","131.0937965568","2.0615843020800004","12","1","-1","","","","","","","","","","","","",""
"psychophysics","126","279728","0.0-10.0-0.38","5f2c760dfff10e03206a686b","609a8bf73b2ac84e2732f618","609d7c7f4ecd7cad93072f09","237.81000031158328","","","","37","","","","key","16.683726027397412","960","484.5","true","-1","133.15538085888","2.0615843020800004","12","-1","1","","","","","","","","","","","","",""
"psychophysics","127","280856","0.0-10.0-0.39","5f2c760dfff10e03206a686b","609a8bf73b2ac84e2732f618","609d7c7f4ecd7cad93072f09","124.81499975547194","","","","39","","","","key","16.68489552238772","960","484.5","true","1","133.15538085888","1.6492674416640005","13","-1","-1","","","","","","","","","","","","",""
"html-keyboard-response","128","289742","0.0-11.0","5f2c760dfff10e03206a686b","609a8bf73b2ac84e2732f618","609d7c7f4ecd7cad93072f09","8884.795000310987","<p>Well Done !</p><p>Prepare for a new block.</p><p>DON'T EXIT THE FULL SCREEN MODE</p><p>Press the Spacebar to start.</p>","","","32","","","","","","","","","","","","","","","true","132.174190546944","","","","","","","","","","",""
"psychophysics","129","290825","0.0-12.0-0.0","5f2c760dfff10e03206a686b","609a8bf73b2ac84e2732f618","609d7c7f4ecd7cad93072f09","76.68500021100044","","","","39","","","","key","16.68781250000029","960","484.5","true","1","180","30","0","-1","","","","","","","","","","","","","",""
"psychophysics","130","292569","0.0-12.0-0.1","5f2c760dfff10e03206a686b","609a8bf73b2ac84e2732f618","609d7c7f4ecd7cad93072f09","741.5749998763204","","","","39","","","","key","16.68515384615379","960","484.5","true","1","180","30","0","-1","-1","","","","","","","","","","","","",""
"psychophysics","131","293824","0.0-12.0-0.2","5f2c760dfff10e03206a686b","609a8bf73b2ac84e2732f618","609d7c7f4ecd7cad93072f09","253.0199997127056","","","","39","","","","key","16.684554054054143","960","484.5","true","1","150","30","0","-1","-1","","","","","","","","","","","","",""
"psychophysics","132","295072","0.0-12.0-0.3","5f2c760dfff10e03206a686b","609a8bf73b2ac84e2732f618","609d7c7f4ecd7cad93072f09","246.0849997587502","","","","37","","","","key","16.683094594594582","960","484.5","true","-1","150","30","0","-1","-1","","","","","","","","","","","","",""
"psychophysics","133","297024","0.0-12.0-0.4","5f2c760dfff10e03206a686b","609a8bf73b2ac84e2732f618","609d7c7f4ecd7cad93072f09","950.1800001598895","","","","37","","","","key","16.682163793103896","960","484.5","true","-1","129","30","0","-1","-1","","","","","","","","","","","","",""
"psychophysics","134","299208","0.0-12.0-0.5","5f2c760dfff10e03206a686b","609a8bf73b2ac84e2732f618","609d7c7f4ecd7cad93072f09","1182.634999975562","","","","39","","","","key","16.683076923076833","960","484.5","true","-1","129","24","1","1","-1","","","","","","","","","","","","",""
"psychophysics","135","300523","0.0-12.0-0.6","5f2c760dfff10e03206a686b","609a8bf73b2ac84e2732f618","609d7c7f4ecd7cad93072f09","312.33999971300364","","","","39","","","","key","16.681935897436535","960","484.5","true","1","153","24","1","-1","1","","","","","","","","","","","","",""
"psychophysics","136","301632","0.0-12.0-0.7","5f2c760dfff10e03206a686b","609a8bf73b2ac84e2732f618","609d7c7f4ecd7cad93072f09","107.9500000923872","","","","39","","","","key","16.6859999999995","960","484.5","true","1","153","19.2","2","-1","-1","","","","","","","","","","","","",""
"psychophysics","137","302736","0.0-12.0-0.8","5f2c760dfff10e03206a686b","609a8bf73b2ac84e2732f618","609d7c7f4ecd7cad93072f09","101.1050003580749","","","","39","","","","key","16.681415384614734","960","484.5","true","1","133.8","19.2","2","-1","-1","","","","","","","","","","","","",""
"psychophysics","138","304042","0.0-12.0-0.9","5f2c760dfff10e03206a686b","609a8bf73b2ac84e2732f618","609d7c7f4ecd7cad93072f09","302.54000006243587","","","","37","","","","key","16.68480769230817","960","484.5","true","-1","133.8","19.2","2","-1","-1","","","","","","","","","","","","",""
"psychophysics","139","306041","0.0-12.0-0.10","5f2c760dfff10e03206a686b","609a8bf73b2ac84e2732f618","609d7c7f4ecd7cad93072f09","994.3450000137091","","","","39","","","","key","16.683449152542348","960","484.5","true","-1","129","15.36","3","1","-1","","","","","","","","","","","","",""
"psychophysics","140","307304","0.0-12.0-0.11","5f2c760dfff10e03206a686b","609a8bf73b2ac84e2732f618","609d7c7f4ecd7cad93072f09","257.70500022917986","","","","39","","","","key","16.684293333333915","960","484.5","true","1","144.36","15.36","3","-1","1","","","","","","","","","","","","",""
"psychophysics","141","308520","0.0-12.0-0.12","5f2c760dfff10e03206a686b","609a8bf73b2ac84e2732f618","609d7c7f4ecd7cad93072f09","214.6450001746416","","","","37","","","","key","16.68497222222181","960","484.5","true","-1","144.36","12.287999999999998","4","-1","-1","","","","","","","","","","","","",""
"psychophysics","142","311157","0.0-12.0-0.13","5f2c760dfff10e03206a686b","609a8bf73b2ac84e2732f618","609d7c7f4ecd7cad93072f09","1635.6399999931455","","","","39","","","","key","16.682878980891715","960","484.5","true","1","132.072","12.287999999999998","4","-1","-1","","","","","","","","","","","","",""
"psychophysics","143","313656","0.0-12.0-0.14","5f2c760dfff10e03206a686b","609a8bf73b2ac84e2732f618","609d7c7f4ecd7cad93072f09","1497.0149998553097","","","","39","","","","key","16.683966442953167","960","484.5","true","-1","132.072","9.8304","5","1","-1","","","","","","","","","","","","",""
"psychophysics","144","314872","0.0-12.0-0.15","5f2c760dfff10e03206a686b","609a8bf73b2ac84e2732f618","609d7c7f4ecd7cad93072f09","211.63500007241964","","","","37","","","","key","16.684958333333068","960","484.5","true","-1","141.9024","9.8304","5","-1","1","","","","","","","","","","","","",""
"psychophysics","145","316058","0.0-12.0-0.16","5f2c760dfff10e03206a686b","609a8bf73b2ac84e2732f618","609d7c7f4ecd7cad93072f09","185.04999997094274","","","","37","","","","key","16.683857142857075","960","484.5","true","-1","141.9024","7.864319999999999","6","-1","-1","","","","","","","","","","","","",""
"psychophysics","146","317640","0.0-12.0-0.17","5f2c760dfff10e03206a686b","609a8bf73b2ac84e2732f618","609d7c7f4ecd7cad93072f09","578.925000037998","","","","39","","","","key","16.682372340425957","960","484.5","true","1","134.03808","7.864319999999999","6","-1","-1","","","","","","","","","","","","",""
"psychophysics","147","320400","0.0-12.0-0.18","5f2c760dfff10e03206a686b","609a8bf73b2ac84e2732f618","609d7c7f4ecd7cad93072f09","1758.814999833703","","","","39","","","","key","16.68223780487833","960","484.5","true","1","134.03808","7.864319999999999","6","-1","-1","","","","","","","","","","","","",""
"psychophysics","148","322570","0.0-12.0-0.19","5f2c760dfff10e03206a686b","609a8bf73b2ac84e2732f618","609d7c7f4ecd7cad93072f09","1167.81000001356","","","","39","","","","key","16.684162790697545","960","484.5","true","1","129","7.864319999999999","6","-1","-1","","","","","","","","","","","","",""
"psychophysics","149","324304","0.0-12.0-0.20","5f2c760dfff10e03206a686b","609a8bf73b2ac84e2732f618","609d7c7f4ecd7cad93072f09","731.7500002682209","","","","39","","","","key","16.684737864078148","960","484.5","true","1","129","7.864319999999999","6","-1","-1","","","","","","","","","","","","",""
"psychophysics","150","327336","0.0-12.0-0.21","5f2c760dfff10e03206a686b","609a8bf73b2ac84e2732f618","609d7c7f4ecd7cad93072f09","2030.7399998418987","","","","39","","","","key","16.683806629834415","960","484.5","true","-1","129","6.291456","7","1","-1","","","","","","","","","","","","",""
"psychophysics","151","329976","0.0-12.0-0.22","5f2c760dfff10e03206a686b","609a8bf73b2ac84e2732f618","609d7c7f4ecd7cad93072f09","1638.0949998274446","","","","39","","","","key","16.683439490445785","960","484.5","true","1","135.291456","6.291456","7","-1","1","","","","","","","","","","","","",""
"psychophysics","152","331040","0.0-12.0-0.23","5f2c760dfff10e03206a686b","609a8bf73b2ac84e2732f618","609d7c7f4ecd7cad93072f09","63.33999987691641","","","","37","","","","key","16.68211111111108","960","484.5","true","-1","135.291456","5.033164800000001","8","-1","-1","","","","","","","","","","","","",""
"psychophysics","153","332857","0.0-12.0-0.24","5f2c760dfff10e03206a686b","609a8bf73b2ac84e2732f618","609d7c7f4ecd7cad93072f09","815.1050000451505","","","","39","","","","key","16.68484259259249","960","484.5","true","1","130.2582912","5.033164800000001","8","-1","-1","","","","","","","","","","","","",""
"psychophysics","154","334306","0.0-12.0-0.25","5f2c760dfff10e03206a686b","609a8bf73b2ac84e2732f618","609d7c7f4ecd7cad93072f09","447.6999999023974","","","","39","","","","key","16.68175581395342","960","484.5","true","-1","130.2582912","4.0265318400000005","9","1","-1","","","","","","","","","","","","",""
"psychophysics","155","335769","0.0-12.0-0.26","5f2c760dfff10e03206a686b","609a8bf73b2ac84e2732f618","609d7c7f4ecd7cad93072f09","459.4200002029538","","","","39","","","","key","16.682639534883663","960","484.5","true","1","134.28482304","4.0265318400000005","9","-1","1","","","","","","","","","","","","",""
"psychophysics","156","337041","0.0-12.0-0.27","5f2c760dfff10e03206a686b","609a8bf73b2ac84e2732f618","609d7c7f4ecd7cad93072f09","270.81499993801117","","","","37","","","","key","16.684368421052472","960","484.5","true","-1","134.28482304","3.2212254720000004","10","-1","-1","","","","","","","","","","","","",""
"psychophysics","157","339032","0.0-12.0-0.28","5f2c760dfff10e03206a686b","609a8bf73b2ac84e2732f618","609d7c7f4ecd7cad93072f09","985.8400002121925","","","","37","","","","key","16.68465254237329","960","484.5","true","1","131.06359756799998","2.5769803776000004","11","1","-1","","","","","","","","","","","","",""
"psychophysics","158","340296","0.0-12.0-0.29","5f2c760dfff10e03206a686b","609a8bf73b2ac84e2732f618","609d7c7f4ecd7cad93072f09","262.94999988749623","","","","37","","","","key","16.683973333333462","960","484.5","true","-1","133.64057794559997","2.5769803776000004","11","-1","1","","","","","","","","","","","","",""
"psychophysics","159","341608","0.0-12.0-0.30","5f2c760dfff10e03206a686b","609a8bf73b2ac84e2732f618","609d7c7f4ecd7cad93072f09","310.63999980688095","","","","37","","","","key","16.682701298700913","960","484.5","true","-1","133.64057794559997","2.0615843020800004","12","-1","-1","","","","","","","","","","","","",""
"psychophysics","160","343457","0.0-12.0-0.31","5f2c760dfff10e03206a686b","609a8bf73b2ac84e2732f618","609d7c7f4ecd7cad93072f09","847.439999692142","","","","37","","","","key","16.683336363636506","960","484.5","true","1","131.57899364351996","1.6492674416640005","13","1","-1","","","","","","","","","","","","",""
"psychophysics","161","344760","0.0-12.0-0.32","5f2c760dfff10e03206a686b","609a8bf73b2ac84e2732f618","609d7c7f4ecd7cad93072f09","301.4250001870096","","","","37","","","","key","16.68180519480458","960","484.5","true","-1","133.22826108518396","1.6492674416640005","13","-1","1","","","","","","","","","","","","",""
"psychophysics","162","345987","0.0-12.0-0.33","5f2c760dfff10e03206a686b","609a8bf73b2ac84e2732f618","609d7c7f4ecd7cad93072f09","224.63000006973743","","","","37","","","","key","16.685082191780804","960","484.5","true","-1","133.22826108518396","1.3194139533312006","14","-1","-1","","","","","","","","","","","","",""
"psychophysics","163","347312","0.0-12.0-0.34","5f2c760dfff10e03206a686b","609a8bf73b2ac84e2732f618","609d7c7f4ecd7cad93072f09","323.3500001952052","","","","37","","","","key","16.681884615384313","960","484.5","true","-1","131.90884713185275","1.3194139533312006","14","-1","-1","","","","","","","","","","","","",""
"psychophysics","164","348617","0.0-12.0-0.35","5f2c760dfff10e03206a686b","609a8bf73b2ac84e2732f618","609d7c7f4ecd7cad93072f09","301.549999974668","","","","37","","","","key","16.68353246753225","960","484.5","true","-1","131.90884713185275","1.3194139533312006","14","-1","-1","","","","","","","","","","","","",""
"psychophysics","165","350896","0.0-12.0-0.36","5f2c760dfff10e03206a686b","609a8bf73b2ac84e2732f618","609d7c7f4ecd7cad93072f09","1276.045000180602","","","","39","","","","key","16.68342647058821","960","484.5","true","1","130.58943317852155","1.3194139533312006","14","-1","-1","","","","","","","","","","","","",""
"psychophysics","166","353384","0.0-12.0-0.37","5f2c760dfff10e03206a686b","609a8bf73b2ac84e2732f618","609d7c7f4ecd7cad93072f09","1487.094999756664","","","","39","","","","key","16.68406081081107","960","484.5","true","1","130.58943317852155","1.3194139533312006","14","-1","-1","","","","","","","","","","","","",""
"psychophysics","167","355721","0.0-12.0-0.38","5f2c760dfff10e03206a686b","609a8bf73b2ac84e2732f618","609d7c7f4ecd7cad93072f09","1336.0999999567866","","","","39","","","","key","16.684107913669173","960","484.5","true","1","129.27001922519034","1.3194139533312006","14","-1","-1","","","","","","","","","","","","",""
"psychophysics","168","357225","0.0-12.0-0.39","5f2c760dfff10e03206a686b","609a8bf73b2ac84e2732f618","609d7c7f4ecd7cad93072f09","501.5950002707541","","","","37","","","","key","16.683494382022534","960","484.5","true","-1","129.27001922519034","1.3194139533312006","14","-1","-1","","","","","","","","","","","","",""
"html-keyboard-response","169","360299","0.0-13.0","5f2c760dfff10e03206a686b","609a8bf73b2ac84e2732f618","609d7c7f4ecd7cad93072f09","3070.5750002525747","<p>Well Done !</p><p>Prepare for a new block.</p><p>DON'T EXIT THE FULL SCREEN MODE</p><p>Press the Spacebar to start.</p>","","","32","","","","","","","","","","","","","","","true","131.91632037494782","","","","","","","","","","",""
"html-keyboard-response","170","360405","0.0-14.0","5f2c760dfff10e03206a686b","609a8bf73b2ac84e2732f618","609d7c7f4ecd7cad93072f09","null","","","","null","","","","","","","","","","","","","","","","","132.81265008132095","true","137.6253001626419","","","","","","","",""
"instructions","171","378320","0.0-15.0","5f2c760dfff10e03206a686b","609a8bf73b2ac84e2732f618","609d7c7f4ecd7cad93072f09","17913.81000028923","","","","","","","[{""page_index"":0,""viewing_time"":12279.5150000602},{""page_index"":1,""viewing_time"":1443.3599999174476},{""page_index"":2,""viewing_time"":4190.7250001095235}]","","","","","","","","","","","","","","","","","","","","","","","",""
"psychophysics","172","381280","0.0-16.0-0.0","5f2c760dfff10e03206a686b","609a8bf73b2ac84e2732f618","609d7c7f4ecd7cad93072f09","null","","","","null","","","","key","16.683298245613592","960","484.5","","","","","","","","","","","","","","","","","","","",""
"psychophysics","173","381784","0.0-16.0-1.0","5f2c760dfff10e03206a686b","609a8bf73b2ac84e2732f618","609d7c7f4ecd7cad93072f09","null","","","","null","","","","key","16.683400000001225","960","484.5","","","","","","","","","","","","","138","-1","2","false","","","",""
"psychophysics","174","383813","0.0-16.0-2.0","5f2c760dfff10e03206a686b","609a8bf73b2ac84e2732f618","609d7c7f4ecd7cad93072f09","2025.8550001308322","","","","90","","","","key","16.683283333333385","960","484.5","","","","","","","","","","","","","","","","","","","",""
"psychophysics","175","384633","0.0-16.0-0.1","5f2c760dfff10e03206a686b","609a8bf73b2ac84e2732f618","609d7c7f4ecd7cad93072f09","null","","","","null","","","","key","16.68262500000007","960","484.5","","","","","","","","","","","","","","","","","","","",""
"psychophysics","176","385136","0.0-16.0-1.1","5f2c760dfff10e03206a686b","609a8bf73b2ac84e2732f618","609d7c7f4ecd7cad93072f09","null","","","","null","","","","key","16.684793103448165","960","484.5","","","","","","","","","","","","","138","-1","5","false","","","",""
"psychophysics","177","387232","0.0-16.0-2.1","5f2c760dfff10e03206a686b","609a8bf73b2ac84e2732f618","609d7c7f4ecd7cad93072f09","2091.444999910891","","","","90","","","","key","16.684343999999577","960","484.5","","","","","","","","","","","","","","","","","","","",""
"psychophysics","178","388436","0.0-16.0-0.2","5f2c760dfff10e03206a686b","609a8bf73b2ac84e2732f618","609d7c7f4ecd7cad93072f09","null","","","","null","","","","key","16.681366197183618","960","484.5","","","","","","","","","","","","","","","","","","","",""
"psychophysics","179","388938","0.0-16.0-1.2","5f2c760dfff10e03206a686b","609a8bf73b2ac84e2732f618","609d7c7f4ecd7cad93072f09","null","","","","null","","","","key","16.683586206895317","960","484.5","","","","","","","","","","","","","138","1","4","false","","","",""
"psychophysics","180","389704","0.0-16.0-2.2","5f2c760dfff10e03206a686b","609a8bf73b2ac84e2732f618","609d7c7f4ecd7cad93072f09","761.6099999286234","","","","90","","","","key","16.683777777778193","960","484.5","","","","","","","","","","","","","","","","","","","",""
"psychophysics","181","390884","0.0-16.0-0.3","5f2c760dfff10e03206a686b","609a8bf73b2ac84e2732f618","609d7c7f4ecd7cad93072f09","null","","","","null","","","","key","16.681314285714013","960","484.5","","","","","","","","","","","","","","","","","","","",""
"psychophysics","182","391386","0.0-16.0-1.3","5f2c760dfff10e03206a686b","609a8bf73b2ac84e2732f618","609d7c7f4ecd7cad93072f09","null","","","","null","","","","key","16.680655172413843","960","484.5","","","","","","","","","","","","","138","-1","3","false","","","",""
"psychophysics","183","392287","0.0-16.0-2.3","5f2c760dfff10e03206a686b","609a8bf73b2ac84e2732f618","609d7c7f4ecd7cad93072f09","899.3449998088181","","","","90","","","","key","16.68311320754638","960","484.5","","","","","","","","","","","","","","","","","","","",""
"psychophysics","184","392918","0.0-16.0-0.4","5f2c760dfff10e03206a686b","609a8bf73b2ac84e2732f618","609d7c7f4ecd7cad93072f09","null","","","","null","","","","key","16.682540540540955","960","484.5","","","","","","","","","","","","","","","","","","","",""
"psychophysics","185","393420","0.0-16.0-1.4","5f2c760dfff10e03206a686b","609a8bf73b2ac84e2732f618","609d7c7f4ecd7cad93072f09","null","","","","null","","","","key","16.68386206896534","960","484.5","","","","","","","","","","","","","138","-1","6","false","","","",""
"psychophysics","186","394256","0.0-16.0-2.4","5f2c760dfff10e03206a686b","609a8bf73b2ac84e2732f618","609d7c7f4ecd7cad93072f09","834.569999948144","","","","90","","","","key","16.678653061224804","960","484.5","","","","","","","","","","","","","","","","","","","",""
"psychophysics","187","395739","0.0-16.0-0.5","5f2c760dfff10e03206a686b","609a8bf73b2ac84e2732f618","609d7c7f4ecd7cad93072f09","null","","","","null","","","","key","16.682295454545635","960","484.5","","","","","","","","","","","","","","","","","","","",""
"psychophysics","188","396241","0.0-16.0-1.5","5f2c760dfff10e03206a686b","609a8bf73b2ac84e2732f618","609d7c7f4ecd7cad93072f09","null","","","","null","","","","key","16.687206896551853","960","484.5","","","","","","","","","","","","","138","-1","4","false","","","",""
"psychophysics","189","397864","0.0-16.0-2.5","5f2c760dfff10e03206a686b","609a8bf73b2ac84e2732f618","609d7c7f4ecd7cad93072f09","1619.6649996563792","","","","90","","","","key","16.684479166666886","960","484.5","","","","","","","","","","","","","","","","","","","",""
"psychophysics","190","399118","0.0-16.0-0.6","5f2c760dfff10e03206a686b","609a8bf73b2ac84e2732f618","609d7c7f4ecd7cad93072f09","null","","","","null","","","","key","16.684520000000486","960","484.5","","","","","","","","","","","","","","","","","","","",""
"psychophysics","191","399623","0.0-16.0-1.6","5f2c760dfff10e03206a686b","609a8bf73b2ac84e2732f618","609d7c7f4ecd7cad93072f09","null","","","","null","","","","key","16.684103448277114","960","484.5","","","","","","","","","","","","","138","1","3","false","","","",""
"psychophysics","192","401032","0.0-16.0-2.6","5f2c760dfff10e03206a686b","609a8bf73b2ac84e2732f618","609d7c7f4ecd7cad93072f09","1406.409999821335","","","","90","","","","key","16.68518072289151","960","484.5","","","","","","","","","","","","","","","","","","","",""
"psychophysics","193","402502","0.0-16.0-0.7","5f2c760dfff10e03206a686b","609a8bf73b2ac84e2732f618","609d7c7f4ecd7cad93072f09","null","","","","null","","","","key","16.683333333332797","960","484.5","","","","","","","","","","","","","","","","","","","",""
"psychophysics","194","403006","0.0-16.0-1.7","5f2c760dfff10e03206a686b","609a8bf73b2ac84e2732f618","609d7c7f4ecd7cad93072f09","null","","","","null","","","","key","16.683699999999952","960","484.5","","","","","","","","","","","","","138","1","0","false","","","",""
"psychophysics","195","403776","0.0-16.0-2.7","5f2c760dfff10e03206a686b","609a8bf73b2ac84e2732f618","609d7c7f4ecd7cad93072f09","766.9400000013411","","","","77","","","","key","16.685488888889086","960","484.5","","","","","","","","","","","","","","","","","","","",""
"psychophysics","196","405185","0.0-16.0-0.8","5f2c760dfff10e03206a686b","609a8bf73b2ac84e2732f618","609d7c7f4ecd7cad93072f09","null","","","","null","","","","key","16.68322891566246","960","484.5","","","","","","","","","","","","","","","","","","","",""
"psychophysics","197","405687","0.0-16.0-1.8","5f2c760dfff10e03206a686b","609a8bf73b2ac84e2732f618","609d7c7f4ecd7cad93072f09","null","","","","null","","","","key","16.68413793103336","960","484.5","","","","","","","","","","","","","138","1","5","false","","","",""
"psychophysics","198","406579","0.0-16.0-2.8","5f2c760dfff10e03206a686b","609a8bf73b2ac84e2732f618","609d7c7f4ecd7cad93072f09","889.4349997863173","","","","77","","","","key","16.68167924528331","960","484.5","","","","","","","","","","","","","","","","","","","",""
"psychophysics","199","407999","0.0-16.0-0.9","5f2c760dfff10e03206a686b","609a8bf73b2ac84e2732f618","609d7c7f4ecd7cad93072f09","null","","","","null","","","","key","16.683976190475818","960","484.5","","","","","","","","","","","","","","","","","","","",""
"psychophysics","200","408501","0.0-16.0-1.9","5f2c760dfff10e03206a686b","609a8bf73b2ac84e2732f618","609d7c7f4ecd7cad93072f09","null","","","","null","","","","key","16.68386206896534","960","484.5","","","","","","","","","","","","","138","1","2","false","","","",""
"psychophysics","201","409330","0.0-16.0-2.9","5f2c760dfff10e03206a686b","609a8bf73b2ac84e2732f618","609d7c7f4ecd7cad93072f09","826.985000167042","","","","90","","","","key","16.683122448979553","960","484.5","","","","","","","","","","","","","","","","","","","",""
"psychophysics","202","409888","0.0-16.0-0.10","5f2c760dfff10e03206a686b","609a8bf73b2ac84e2732f618","609d7c7f4ecd7cad93072f09","null","","","","null","","","","key","16.685468749999927","960","484.5","","","","","","","","","","","","","","","","","","","",""
"psychophysics","203","410389","0.0-16.0-1.10","5f2c760dfff10e03206a686b","609a8bf73b2ac84e2732f618","609d7c7f4ecd7cad93072f09","null","","","","null","","","","key","16.685241379311453","960","484.5","","","","","","","","","","","","","138","-1","0","false","","","",""
"psychophysics","204","411034","0.0-16.0-2.10","5f2c760dfff10e03206a686b","609a8bf73b2ac84e2732f618","609d7c7f4ecd7cad93072f09","642.0200001448393","","","","77","","","","key","16.68302631578837","960","484.5","","","","","","","","","","","","","","","","","","","",""
"psychophysics","205","412302","0.0-16.0-0.11","5f2c760dfff10e03206a686b","609a8bf73b2ac84e2732f618","609d7c7f4ecd7cad93072f09","null","","","","null","","","","key","16.68382666666604","960","484.5","","","","","","","","","","","","","","","","","","","",""
"psychophysics","206","412804","0.0-16.0-1.11","5f2c760dfff10e03206a686b","609a8bf73b2ac84e2732f618","609d7c7f4ecd7cad93072f09","null","","","","null","","","","key","16.681482758619904","960","484.5","","","","","","","","","","","","","138","1","6","false","","","",""
"psychophysics","207","414560","0.0-16.0-2.11","5f2c760dfff10e03206a686b","609a8bf73b2ac84e2732f618","609d7c7f4ecd7cad93072f09","1753.8399999029934","","","","90","","","","key","16.68508653846164","960","484.5","","","","","","","","","","","","","","","","","","","",""
"psychophysics","208","415924","0.0-16.0-0.12","5f2c760dfff10e03206a686b","609a8bf73b2ac84e2732f618","609d7c7f4ecd7cad93072f09","null","","","","null","","","","key","16.683308641975287","960","484.5","","","","","","","","","","","","","","","","","","","",""
"psychophysics","209","416426","0.0-16.0-1.12","5f2c760dfff10e03206a686b","609a8bf73b2ac84e2732f618","609d7c7f4ecd7cad93072f09","null","","","","null","","","","key","16.68427586207038","960","484.5","","","","","","","","","","","","","138","1","5","false","","","",""
"psychophysics","210","417129","0.0-16.0-2.12","5f2c760dfff10e03206a686b","609a8bf73b2ac84e2732f618","609d7c7f4ecd7cad93072f09","700.3350001759827","","","","90","","","","key","16.686731707316074","960","484.5","","","","","","","","","","","","","","","","","","","",""
"psychophysics","211","417833","0.0-16.0-0.13","5f2c760dfff10e03206a686b","609a8bf73b2ac84e2732f618","609d7c7f4ecd7cad93072f09","null","","","","null","","","","key","16.68624390243899","960","484.5","","","","","","","","","","","","","","","","","","","",""
"psychophysics","212","418335","0.0-16.0-1.13","5f2c760dfff10e03206a686b","609a8bf73b2ac84e2732f618","609d7c7f4ecd7cad93072f09","null","","","","null","","","","key","16.69044827586361","960","484.5","","","","","","","","","","","","","138","1","0","false","","","",""
"psychophysics","213","419642","0.0-16.0-2.13","5f2c760dfff10e03206a686b","609a8bf73b2ac84e2732f618","609d7c7f4ecd7cad93072f09","1302.7949999086559","","","","90","","","","key","16.683782051281575","960","484.5","","","","","","","","","","","","","","","","","","","",""
"psychophysics","214","421128","0.0-16.0-0.14","5f2c760dfff10e03206a686b","609a8bf73b2ac84e2732f618","609d7c7f4ecd7cad93072f09","null","","","","null","","","","key","16.68384090909041","960","484.5","","","","","","","","","","","","","","","","","","","",""
"psychophysics","215","421630","0.0-16.0-1.14","5f2c760dfff10e03206a686b","609a8bf73b2ac84e2732f618","609d7c7f4ecd7cad93072f09","null","","","","null","","","","key","16.687586206896633","960","484.5","","","","","","","","","","","","","138","-1","4","false","","","",""
"psychophysics","216","422416","0.0-16.0-2.14","5f2c760dfff10e03206a686b","609a8bf73b2ac84e2732f618","609d7c7f4ecd7cad93072f09","783.4950000979006","","","","90","","","","key","16.681260869564973","960","484.5","","","","","","","","","","","","","","","","","","","",""
"psychophysics","217","423845","0.0-16.0-0.15","5f2c760dfff10e03206a686b","609a8bf73b2ac84e2732f618","609d7c7f4ecd7cad93072f09","null","","","","null","","","","key","16.682717647059025","960","484.5","","","","","","","","","","","","","","","","","","","",""
"psychophysics","218","424349","0.0-16.0-1.15","5f2c760dfff10e03206a686b","609a8bf73b2ac84e2732f618","609d7c7f4ecd7cad93072f09","null","","","","null","","","","key","16.684068965518865","960","484.5","","","","","","","","","","","","","138","1","2","false","","","",""
"psychophysics","219","425515","0.0-16.0-2.15","5f2c760dfff10e03206a686b","609a8bf73b2ac84e2732f618","609d7c7f4ecd7cad93072f09","1163.1149998866022","","","","77","","","","key","16.683173913043834","960","484.5","","","","","","","","","","","","","","","","","","","",""
"psychophysics","220","426186","0.0-16.0-0.16","5f2c760dfff10e03206a686b","609a8bf73b2ac84e2732f618","609d7c7f4ecd7cad93072f09","null","","","","null","","","","key","16.68151282051202","960","484.5","","","","","","","","","","","","","","","","","","","",""
"psychophysics","221","426688","0.0-16.0-1.16","5f2c760dfff10e03206a686b","609a8bf73b2ac84e2732f618","609d7c7f4ecd7cad93072f09","null","","","","null","","","","key","16.68451724137814","960","484.5","","","","","","","","","","","","","138","-1","6","false","","","",""
"psychophysics","222","427938","0.0-16.0-2.16","5f2c760dfff10e03206a686b","609a8bf73b2ac84e2732f618","609d7c7f4ecd7cad93072f09","1248.1750003062189","","","","77","","","","key","16.683297297297475","960","484.5","","","","","","","","","","","","","","","","","","","",""
"psychophysics","223","428521","0.0-16.0-0.17","5f2c760dfff10e03206a686b","609a8bf73b2ac84e2732f618","609d7c7f4ecd7cad93072f09","null","","","","null","","","","key","16.685029411763775","960","484.5","","","","","","","","","","","","","","","","","","","",""
"psychophysics","224","429022","0.0-16.0-1.17","5f2c760dfff10e03206a686b","609a8bf73b2ac84e2732f618","609d7c7f4ecd7cad93072f09","null","","","","null","","","","key","16.68348275862056","960","484.5","","","","","","","","","","","","","138","1","3","false","","","",""
"psychophysics","225","429696","0.0-16.0-2.17","5f2c760dfff10e03206a686b","609a8bf73b2ac84e2732f618","609d7c7f4ecd7cad93072f09","670.4550003632903","","","","90","","","","key","16.684564102564952","960","484.5","","","","","","","","","","","","","","","","","","","",""
"psychophysics","226","430211","0.0-16.0-0.18","5f2c760dfff10e03206a686b","609a8bf73b2ac84e2732f618","609d7c7f4ecd7cad93072f09","null","","","","null","","","","key","16.683766666665907","960","484.5","","","","","","","","","","","","","","","","","","","",""
"psychophysics","227","430713","0.0-16.0-1.18","5f2c760dfff10e03206a686b","609a8bf73b2ac84e2732f618","609d7c7f4ecd7cad93072f09","null","","","","null","","","","key","16.685206896551193","960","484.5","","","","","","","","","","","","","138","-1","2","false","","","",""
"psychophysics","228","432240","0.0-16.0-2.18","5f2c760dfff10e03206a686b","609a8bf73b2ac84e2732f618","609d7c7f4ecd7cad93072f09","1521.4999997988343","","","","77","","","","key","16.68341758241749","960","484.5","","","","","","","","","","","","","","","","","","","",""
"psychophysics","229","433590","0.0-16.0-0.19","5f2c760dfff10e03206a686b","609a8bf73b2ac84e2732f618","609d7c7f4ecd7cad93072f09","null","","","","null","","","","key","16.68157500000016","960","484.5","","","","","","","","","","","","","","","","","","","",""
"psychophysics","230","434093","0.0-16.0-1.19","5f2c760dfff10e03206a686b","609a8bf73b2ac84e2732f618","609d7c7f4ecd7cad93072f09","null","","","","null","","","","key","16.676034482759984","960","484.5","","","","","","","","","","","","","138","1","4","false","","","",""
"psychophysics","231","434458","0.0-16.0-2.19","5f2c760dfff10e03206a686b","609a8bf73b2ac84e2732f618","609d7c7f4ecd7cad93072f09","360.9050000086427","","","","90","","","","key","16.68019047619254","960","484.5","","","","","","","","","","","","","","","","","","","",""
"psychophysics","232","435874","0.0-16.0-0.20","5f2c760dfff10e03206a686b","609a8bf73b2ac84e2732f618","609d7c7f4ecd7cad93072f09","null","","","","null","","","","key","16.682678571428237","960","484.5","","","","","","","","","","","","","","","","","","","",""
"psychophysics","233","436376","0.0-16.0-1.20","5f2c760dfff10e03206a686b","609a8bf73b2ac84e2732f618","609d7c7f4ecd7cad93072f09","null","","","","null","","","","key","16.684793103448165","960","484.5","","","","","","","","","","","","","138","-1","0","false","","","",""
"psychophysics","234","437936","0.0-16.0-2.20","5f2c760dfff10e03206a686b","609a8bf73b2ac84e2732f618","609d7c7f4ecd7cad93072f09","1557.6499998569489","","","","90","","","","key","16.684130434782634","960","484.5","","","","","","","","","","","","","","","","","","","",""
"psychophysics","235","438484","0.0-16.0-0.21","5f2c760dfff10e03206a686b","609a8bf73b2ac84e2732f618","609d7c7f4ecd7cad93072f09","null","","","","null","","","","key","16.68168749999859","960","484.5","","","","","","","","","","","","","","","","","","","",""
"psychophysics","236","438986","0.0-16.0-1.21","5f2c760dfff10e03206a686b","609a8bf73b2ac84e2732f618","609d7c7f4ecd7cad93072f09","null","","","","null","","","","key","16.681241379310137","960","484.5","","","","","","","","","","","","","138","-1","3","false","","","",""
"psychophysics","237","441004","0.0-16.0-2.21","5f2c760dfff10e03206a686b","609a8bf73b2ac84e2732f618","609d7c7f4ecd7cad93072f09","2016.5649997070432","","","","77","","","","key","16.68434999999978","960","484.5","","","","","","","","","","","","","","","","","","","",""
"psychophysics","238","441632","0.0-16.0-0.22","5f2c760dfff10e03206a686b","609a8bf73b2ac84e2732f618","609d7c7f4ecd7cad93072f09","null","","","","null","","","","key","16.682459459460745","960","484.5","","","","","","","","","","","","","","","","","","","",""
"psychophysics","239","442137","0.0-16.0-1.22","5f2c760dfff10e03206a686b","609a8bf73b2ac84e2732f618","609d7c7f4ecd7cad93072f09","null","","","","null","","","","key","16.681206896551885","960","484.5","","","","","","","","","","","","","138","1","6","false","","","",""
"psychophysics","240","443673","0.0-16.0-2.22","5f2c760dfff10e03206a686b","609a8bf73b2ac84e2732f618","609d7c7f4ecd7cad93072f09","1533.8550000451505","","","","90","","","","key","16.683362637362492","960","484.5","","","","","","","","","","","","","","","","","","","",""
"psychophysics","241","444260","0.0-16.0-0.23","5f2c760dfff10e03206a686b","609a8bf73b2ac84e2732f618","609d7c7f4ecd7cad93072f09","null","","","","null","","","","key","16.682647058824145","960","484.5","","","","","","","","","","","","","","","","","","","",""
"psychophysics","242","444762","0.0-16.0-1.23","5f2c760dfff10e03206a686b","609a8bf73b2ac84e2732f618","609d7c7f4ecd7cad93072f09","null","","","","null","","","","key","16.68186206896669","960","484.5","","","","","","","","","","","","","138","-1","5","false","","","",""
"psychophysics","243","445849","0.0-16.0-2.23","5f2c760dfff10e03206a686b","609a8bf73b2ac84e2732f618","609d7c7f4ecd7cad93072f09","1083.2949997857213","","","","90","","","","key","16.68472307692282","960","484.5","","","","","","","","","","","","","","","","","","","",""
"html-keyboard-response","244","448217","0.0-17.0","5f2c760dfff10e03206a686b","609a8bf73b2ac84e2732f618","609d7c7f4ecd7cad93072f09","2366.344999987632","<p>Well Done !</p><p>Training Complete. Press the spacebar to start.</p><p>DON'T EXIT THE FULL SCREEN MODE</p>","","","32","","","","","","","","","","","","","","","","","","","","","","","","","","",""
"psychophysics","245","450748","0.0-18.0-0.0","5f2c760dfff10e03206a686b","609a8bf73b2ac84e2732f618","609d7c7f4ecd7cad93072f09","null","","","","null","","","","key","16.682806451613413","960","484.5","","","","","","","","","","","","","","","","","","","",""
"psychophysics","246","451250","0.0-18.0-1.0","5f2c760dfff10e03206a686b","609a8bf73b2ac84e2732f618","609d7c7f4ecd7cad93072f09","null","","","","null","","","","key","16.679931034482532","960","484.5","","","","","","","","","","","","","138","-1","2","true","","","",""
"psychophysics","247","451849","0.0-18.0-2.0","5f2c760dfff10e03206a686b","609a8bf73b2ac84e2732f618","609d7c7f4ecd7cad93072f09","593.8300001434982","","","","90","","","","key","16.6814857142861","960","484.5","","","","","","","","","","","","","","","","","","","",""
"psychophysics","248","453209","0.0-18.0-0.1","5f2c760dfff10e03206a686b","609a8bf73b2ac84e2732f618","609d7c7f4ecd7cad93072f09","null","","","","null","","","","key","16.682716049382574","960","484.5","","","","","","","","","","","","","","","","","","","",""
"psychophysics","249","453711","0.0-18.0-1.1","5f2c760dfff10e03206a686b","609a8bf73b2ac84e2732f618","609d7c7f4ecd7cad93072f09","null","","","","null","","","","key","16.68641379310404","960","484.5","","","","","","","","","","","","","138","1","5","true","","","",""
"psychophysics","250","454609","0.0-18.0-2.1","5f2c760dfff10e03206a686b","609a8bf73b2ac84e2732f618","609d7c7f4ecd7cad93072f09","894.5150002837181","","","","90","","","","key","16.681792452830365","960","484.5","","","","","","","","","","","","","","","","","","","",""
"psychophysics","251","455434","0.0-18.0-0.2","5f2c760dfff10e03206a686b","609a8bf73b2ac84e2732f618","609d7c7f4ecd7cad93072f09","null","","","","null","","","","key","16.68254166666763","960","484.5","","","","","","","","","","","","","","","","","","","",""
"psychophysics","252","455936","0.0-18.0-1.2","5f2c760dfff10e03206a686b","609a8bf73b2ac84e2732f618","609d7c7f4ecd7cad93072f09","null","","","","null","","","","key","16.684206896551867","960","484.5","","","","","","","","","","","","","138","1","6","true","","","",""
"psychophysics","253","456610","0.0-18.0-2.2","5f2c760dfff10e03206a686b","609a8bf73b2ac84e2732f618","609d7c7f4ecd7cad93072f09","670.7449997775257","","","","90","","","","key","16.68382500000007","960","484.5","","","","","","","","","","","","","","","","","","","",""
"psychophysics","254","457907","0.0-18.0-0.3","5f2c760dfff10e03206a686b","609a8bf73b2ac84e2732f618","609d7c7f4ecd7cad93072f09","null","","","","null","","","","key","16.683644736842037","960","484.5","","","","","","","","","","","","","","","","","","","",""
"psychophysics","255","458408","0.0-18.0-1.3","5f2c760dfff10e03206a686b","609a8bf73b2ac84e2732f618","609d7c7f4ecd7cad93072f09","null","","","","null","","","","key","16.685999999999005","960","484.5","","","","","","","","","","","","","138","-1","5","true","","","",""
"psychophysics","256","459176","0.0-18.0-2.3","5f2c760dfff10e03206a686b","609a8bf73b2ac84e2732f618","609d7c7f4ecd7cad93072f09","764.1250002197921","","","","77","","","","key","16.67980000000033","960","484.5","","","","","","","","","","","","","","","","","","","",""
"psychophysics","257","460027","0.0-18.0-0.4","5f2c760dfff10e03206a686b","609a8bf73b2ac84e2732f618","609d7c7f4ecd7cad93072f09","null","","","","null","","","","key","16.685659999999917","960","484.5","","","","","","","","","","","","","","","","","","","",""
"psychophysics","258","460528","0.0-18.0-1.4","5f2c760dfff10e03206a686b","609a8bf73b2ac84e2732f618","609d7c7f4ecd7cad93072f09","null","","","","null","","","","key","16.686799999999735","960","484.5","","","","","","","","","","","","","138","-1","3","true","","","",""
"psychophysics","259","461208","0.0-18.0-2.4","5f2c760dfff10e03206a686b","609a8bf73b2ac84e2732f618","609d7c7f4ecd7cad93072f09","675.8750001899898","","","","77","","","","key","16.682948717948957","960","484.5","","","","","","","","","","","","","","","","","","","",""
"psychophysics","260","462620","0.0-18.0-0.5","5f2c760dfff10e03206a686b","609a8bf73b2ac84e2732f618","609d7c7f4ecd7cad93072f09","null","","","","null","","","","key","16.68420238095236","960","484.5","","","","","","","","","","","","","","","","","","","",""
"psychophysics","261","463123","0.0-18.0-1.5","5f2c760dfff10e03206a686b","609a8bf73b2ac84e2732f618","609d7c7f4ecd7cad93072f09","null","","","","null","","","","key","16.676586206896022","960","484.5","","","","","","","","","","","","","138","1","4","true","","","",""
"psychophysics","262","463977","0.0-18.0-2.5","5f2c760dfff10e03206a686b","609a8bf73b2ac84e2732f618","609d7c7f4ecd7cad93072f09","850.9450000710785","","","","77","","","","key","16.67935999999987","960","484.5","","","","","","","","","","","","","","","","","","","",""
"psychophysics","263","464931","0.0-18.0-0.6","5f2c760dfff10e03206a686b","609a8bf73b2ac84e2732f618","609d7c7f4ecd7cad93072f09","null","","","","null","","","","key","16.683839285713994","960","484.5","","","","","","","","","","","","","","","","","","","",""
"psychophysics","264","465435","0.0-18.0-1.6","5f2c760dfff10e03206a686b","609a8bf73b2ac84e2732f618","609d7c7f4ecd7cad93072f09","null","","","","null","","","","key","16.684233333333395","960","484.5","","","","","","","","","","","","","138","1","3","true","","","",""
"psychophysics","265","466415","0.0-18.0-2.6","5f2c760dfff10e03206a686b","609a8bf73b2ac84e2732f618","609d7c7f4ecd7cad93072f09","977.7199998497963","","","","77","","","","key","16.683333333333536","960","484.5","","","","","","","","","","","","","","","","","","","",""
"psychophysics","266","467493","0.0-18.0-0.7","5f2c760dfff10e03206a686b","609a8bf73b2ac84e2732f618","609d7c7f4ecd7cad93072f09","null","","","","null","","","","key","16.683562499999425","960","484.5","","","","","","","","","","","","","","","","","","","",""
"psychophysics","267","467995","0.0-18.0-1.7","5f2c760dfff10e03206a686b","609a8bf73b2ac84e2732f618","609d7c7f4ecd7cad93072f09","null","","","","null","","","","key","16.682896551724266","960","484.5","","","","","","","","","","","","","138","-1","6","true","","","",""
"psychophysics","268","468432","0.0-18.0-2.7","5f2c760dfff10e03206a686b","609a8bf73b2ac84e2732f618","609d7c7f4ecd7cad93072f09","434.839999768883","","","","90","","","","key","16.680239999999756","960","484.5","","","","","","","","","","","","","","","","","","","",""
"psychophysics","269","469754","0.0-18.0-0.8","5f2c760dfff10e03206a686b","609a8bf73b2ac84e2732f618","609d7c7f4ecd7cad93072f09","null","","","","null","","","","key","16.683589743589835","960","484.5","","","","","","","","","","","","","","","","","","","",""
"psychophysics","270","470257","0.0-18.0-1.8","5f2c760dfff10e03206a686b","609a8bf73b2ac84e2732f618","609d7c7f4ecd7cad93072f09","null","","","","null","","","","key","16.68306666666758","960","484.5","","","","","","","","","","","","","138","-1","0","true","","","",""
"psychophysics","271","470815","0.0-18.0-2.8","5f2c760dfff10e03206a686b","609a8bf73b2ac84e2732f618","609d7c7f4ecd7cad93072f09","554.6900001354516","","","","77","","","","key","16.67956249999952","960","484.5","","","","","","","","","","","","","","","","","","","",""
"psychophysics","272","471319","0.0-18.0-0.9","5f2c760dfff10e03206a686b","609a8bf73b2ac84e2732f618","609d7c7f4ecd7cad93072f09","null","","","","null","","","","key","16.676068965518237","960","484.5","","","","","","","","","","","","","","","","","","","",""
"psychophysics","273","471821","0.0-18.0-1.9","5f2c760dfff10e03206a686b","609a8bf73b2ac84e2732f618","609d7c7f4ecd7cad93072f09","null","","","","null","","","","key","16.680724137930344","960","484.5","","","","","","","","","","","","","138","1","0","true","","","",""
"psychophysics","274","473272","0.0-18.0-2.9","5f2c760dfff10e03206a686b","609a8bf73b2ac84e2732f618","609d7c7f4ecd7cad93072f09","1444.1399998031557","","","","90","","","","key","16.68458139534896","960","484.5","","","","","","","","","","","","","","","","","","","",""
"psychophysics","275","474245","0.0-18.0-0.10","5f2c760dfff10e03206a686b","609a8bf73b2ac84e2732f618","609d7c7f4ecd7cad93072f09","null","","","","null","","","","key","16.684586206895645","960","484.5","","","","","","","","","","","","","","","","","","","",""
"psychophysics","276","474748","0.0-18.0-1.10","5f2c760dfff10e03206a686b","609a8bf73b2ac84e2732f618","609d7c7f4ecd7cad93072f09","null","","","","null","","","","key","16.686862068965326","960","484.5","","","","","","","","","","","","","138","1","2","true","","","",""
"psychophysics","277","475211","0.0-18.0-2.10","5f2c760dfff10e03206a686b","609a8bf73b2ac84e2732f618","609d7c7f4ecd7cad93072f09","459.9399999715388","","","","90","","","","key","16.67562962963065","960","484.5","","","","","","","","","","","","","","","","","","","",""
"psychophysics","278","476629","0.0-18.0-0.11","5f2c760dfff10e03206a686b","609a8bf73b2ac84e2732f618","609d7c7f4ecd7cad93072f09","null","","","","null","","","","key","16.684107142856753","960","484.5","","","","","","","","","","","","","","","","","","","",""
"psychophysics","279","477134","0.0-18.0-1.11","5f2c760dfff10e03206a686b","609a8bf73b2ac84e2732f618","609d7c7f4ecd7cad93072f09","null","","","","null","","","","key","16.68613793103402","960","484.5","","","","","","","","","","","","","138","-1","4","true","","","",""
"psychophysics","280","477856","0.0-18.0-2.11","5f2c760dfff10e03206a686b","609a8bf73b2ac84e2732f618","609d7c7f4ecd7cad93072f09","719.2899999208748","","","","77","","","","key","16.68378571428669","960","484.5","","","","","","","","","","","","","","","","","","","",""
"psychophysics","281","479069","0.0-18.0-0.12","5f2c760dfff10e03206a686b","609a8bf73b2ac84e2732f618","609d7c7f4ecd7cad93072f09","null","","","","null","","","","key","16.682833333333193","960","484.5","","","","","","","","","","","","","","","","","","","",""
"psychophysics","282","479571","0.0-18.0-1.12","5f2c760dfff10e03206a686b","609a8bf73b2ac84e2732f618","609d7c7f4ecd7cad93072f09","null","","","","null","","","","key","16.68793103448316","960","484.5","","","","","","","","","","","","","138","1","0","true","","","",""
"psychophysics","283","481154","0.0-18.0-2.12","5f2c760dfff10e03206a686b","609a8bf73b2ac84e2732f618","609d7c7f4ecd7cad93072f09","1579.5849999412894","","","","90","","","","key","16.68430851063842","960","484.5","","","","","","","","","","","","","","","","","","","",""
"psychophysics","284","482461","0.0-18.0-0.13","5f2c760dfff10e03206a686b","609a8bf73b2ac84e2732f618","609d7c7f4ecd7cad93072f09","null","","","","null","","","","key","16.68394805194792","960","484.5","","","","","","","","","","","","","","","","","","","",""
"psychophysics","285","482964","0.0-18.0-1.13","5f2c760dfff10e03206a686b","609a8bf73b2ac84e2732f618","609d7c7f4ecd7cad93072f09","null","","","","null","","","","key","16.68472413793166","960","484.5","","","","","","","","","","","","","138","-1","0","true","","","",""
"psychophysics","286","483584","0.0-18.0-2.13","5f2c760dfff10e03206a686b","609a8bf73b2ac84e2732f618","609d7c7f4ecd7cad93072f09","617.749999742955","","","","90","","","","key","16.68388888888876","960","484.5","","","","","","","","","","","","","","","","","","","",""
"psychophysics","287","484126","0.0-18.0-0.14","5f2c760dfff10e03206a686b","609a8bf73b2ac84e2732f618","609d7c7f4ecd7cad93072f09","null","","","","null","","","","key","16.68384375000096","960","484.5","","","","","","","","","","","","","","","","","","","",""
"psychophysics","288","484628","0.0-18.0-1.14","5f2c760dfff10e03206a686b","609a8bf73b2ac84e2732f618","609d7c7f4ecd7cad93072f09","null","","","","null","","","","key","16.683620689655573","960","484.5","","","","","","","","","","","","","138","1","5","true","","","",""
"psychophysics","289","487033","0.0-18.0-2.14","5f2c760dfff10e03206a686b","609a8bf73b2ac84e2732f618","609d7c7f4ecd7cad93072f09","2395.2649999409914","","","","90","","","","key","16.6846363636363","960","484.5","","","","","","","","","","","","","","","","","","","",""
"psychophysics","290","487601","0.0-18.0-0.15","5f2c760dfff10e03206a686b","609a8bf73b2ac84e2732f618","609d7c7f4ecd7cad93072f09","null","","","","null","","","","key","16.68306060606141","960","484.5","","","","","","","","","","","","","","","","","","","",""
"psychophysics","291","488103","0.0-18.0-1.15","5f2c760dfff10e03206a686b","609a8bf73b2ac84e2732f618","609d7c7f4ecd7cad93072f09","null","","","","null","","","","key","16.684413793103385","960","484.5","","","","","","","","","","","","","138","1","2","true","","","",""
"psychophysics","292","488848","0.0-18.0-2.15","5f2c760dfff10e03206a686b","609a8bf73b2ac84e2732f618","609d7c7f4ecd7cad93072f09","739.8350001312792","","","","77","","","","key","16.68236363636441","960","484.5","","","","","","","","","","","","","","","","","","","",""
"psychophysics","293","490317","0.0-18.0-0.16","5f2c760dfff10e03206a686b","609a8bf73b2ac84e2732f618","609d7c7f4ecd7cad93072f09","null","","","","null","","","","key","16.683080459769613","960","484.5","","","","","","","","","","","","","","","","","","","",""
"psychophysics","294","490820","0.0-18.0-1.16","5f2c760dfff10e03206a686b","609a8bf73b2ac84e2732f618","609d7c7f4ecd7cad93072f09","null","","","","null","","","","key","16.68706896551684","960","484.5","","","","","","","","","","","","","138","1","6","true","","","",""
"psychophysics","295","492168","0.0-18.0-2.16","5f2c760dfff10e03206a686b","609a8bf73b2ac84e2732f618","609d7c7f4ecd7cad93072f09","1345.7550001330674","","","","90","","","","key","16.68416250000009","960","484.5","","","","","","","","","","","","","","","","","","","",""
"psychophysics","296","492682","0.0-18.0-0.17","5f2c760dfff10e03206a686b","609a8bf73b2ac84e2732f618","609d7c7f4ecd7cad93072f09","null","","","","null","","","","key","16.684500000001087","960","484.5","","","","","","","","","","","","","","","","","","","",""
"psychophysics","297","493183","0.0-18.0-1.17","5f2c760dfff10e03206a686b","609a8bf73b2ac84e2732f618","609d7c7f4ecd7cad93072f09","null","","","","null","","","","key","16.683241379310793","960","484.5","","","","","","","","","","","","","138","-1","5","true","","","",""
"psychophysics","298","494065","0.0-18.0-2.17","5f2c760dfff10e03206a686b","609a8bf73b2ac84e2732f618","609d7c7f4ecd7cad93072f09","879.3649999424815","","","","77","","","","key","16.68499999999991","960","484.5","","","","","","","","","","","","","","","","","","","",""
"psychophysics","299","494935","0.0-18.0-0.18","5f2c760dfff10e03206a686b","609a8bf73b2ac84e2732f618","609d7c7f4ecd7cad93072f09","null","","","","null","","","","key","16.68409803921503","960","484.5","","","","","","","","","","","","","","","","","","","",""
"psychophysics","300","495439","0.0-18.0-1.18","5f2c760dfff10e03206a686b","609a8bf73b2ac84e2732f618","609d7c7f4ecd7cad93072f09","null","","","","null","","","","key","16.689310344829273","960","484.5","","","","","","","","","","","","","138","-1","6","true","","","",""
"psychophysics","301","496688","0.0-18.0-2.18","5f2c760dfff10e03206a686b","609a8bf73b2ac84e2732f618","609d7c7f4ecd7cad93072f09","1246.7849999666214","","","","90","","","","key","16.682405405404907","960","484.5","","","","","","","","","","","","","","","","","","","",""
"psychophysics","302","498044","0.0-18.0-0.19","5f2c760dfff10e03206a686b","609a8bf73b2ac84e2732f618","609d7c7f4ecd7cad93072f09","null","","","","null","","","","key","16.684612500000366","960","484.5","","","","","","","","","","","","","","","","","","","",""
"psychophysics","303","498547","0.0-18.0-1.19","5f2c760dfff10e03206a686b","609a8bf73b2ac84e2732f618","609d7c7f4ecd7cad93072f09","null","","","","null","","","","key","16.68179310344818","960","484.5","","","","","","","","","","","","","138","1","4","true","","","",""
"psychophysics","304","498987","0.0-18.0-2.19","5f2c760dfff10e03206a686b","609a8bf73b2ac84e2732f618","609d7c7f4ecd7cad93072f09","436.7750003002584","","","","77","","","","key","16.685923076922055","960","484.5","","","","","","","","","","","","","","","","","","","",""
"psychophysics","305","500441","0.0-18.0-0.20","5f2c760dfff10e03206a686b","609a8bf73b2ac84e2732f618","609d7c7f4ecd7cad93072f09","null","","","","null","","","","key","16.683058139534403","960","484.5","","","","","","","","","","","","","","","","","","","",""
"psychophysics","306","500943","0.0-18.0-1.20","5f2c760dfff10e03206a686b","609a8bf73b2ac84e2732f618","609d7c7f4ecd7cad93072f09","null","","","","null","","","","key","16.679655172414517","960","484.5","","","","","","","","","","","","","138","-1","2","true","","","",""
"psychophysics","307","501393","0.0-18.0-2.20","5f2c760dfff10e03206a686b","609a8bf73b2ac84e2732f618","609d7c7f4ecd7cad93072f09","445.1649999246001","","","","90","","","","key","16.682923076922844","960","484.5","","","","","","","","","","","","","","","","","","","",""
"psychophysics","308","502133","0.0-18.0-0.21","5f2c760dfff10e03206a686b","609a8bf73b2ac84e2732f618","609d7c7f4ecd7cad93072f09","null","","","","null","","","","key","16.685162790697664","960","484.5","","","","","","","","","","","","","","","","","","","",""
"psychophysics","309","502635","0.0-18.0-1.21","5f2c760dfff10e03206a686b","609a8bf73b2ac84e2732f618","609d7c7f4ecd7cad93072f09","null","","","","null","","","","key","16.680965517242118","960","484.5","","","","","","","","","","","","","138","-1","3","true","","","",""
"psychophysics","310","505249","0.0-18.0-2.21","5f2c760dfff10e03206a686b","609a8bf73b2ac84e2732f618","609d7c7f4ecd7cad93072f09","2612.200000323355","","","","90","","","","key","16.684032051281882","960","484.5","","","","","","","","","","","","","","","","","","","",""
"psychophysics","311","506428","0.0-18.0-0.22","5f2c760dfff10e03206a686b","609a8bf73b2ac84e2732f618","609d7c7f4ecd7cad93072f09","null","","","","null","","","","key","16.68364285714259","960","484.5","","","","","","","","","","","","","","","","","","","",""
"psychophysics","312","506931","0.0-18.0-1.22","5f2c760dfff10e03206a686b","609a8bf73b2ac84e2732f618","609d7c7f4ecd7cad93072f09","null","","","","null","","","","key","16.68417241379161","960","484.5","","","","","","","","","","","","","138","1","3","true","","","",""
"psychophysics","313","507579","0.0-18.0-2.22","5f2c760dfff10e03206a686b","609a8bf73b2ac84e2732f618","609d7c7f4ecd7cad93072f09","640.54000005126","","","","77","","","","key","16.680342105263232","960","484.5","","","","","","","","","","","","","","","","","","","",""
"psychophysics","314","509046","0.0-18.0-0.23","5f2c760dfff10e03206a686b","609a8bf73b2ac84e2732f618","609d7c7f4ecd7cad93072f09","null","","","","null","","","","key","16.684091954022357","960","484.5","","","","","","","","","","","","","","","","","","","",""
"psychophysics","315","509551","0.0-18.0-1.23","5f2c760dfff10e03206a686b","609a8bf73b2ac84e2732f618","609d7c7f4ecd7cad93072f09","null","","","","null","","","","key","16.682793103447505","960","484.5","","","","","","","","","","","","","138","-1","4","true","","","",""
"psychophysics","316","510166","0.0-18.0-2.23","5f2c760dfff10e03206a686b","609a8bf73b2ac84e2732f618","609d7c7f4ecd7cad93072f09","612.0400000363588","","","","77","","","","key","16.681638888888603","960","484.5","","","","","","","","","","","","","","","","","","","",""
"psychophysics","317","511090","0.0-18.0-0.24","5f2c760dfff10e03206a686b","609a8bf73b2ac84e2732f618","609d7c7f4ecd7cad93072f09","null","","","","null","","","","key","16.68503703703647","960","484.5","","","","","","","","","","","","","","","","","","","",""
"psychophysics","318","511593","0.0-18.0-1.24","5f2c760dfff10e03206a686b","609a8bf73b2ac84e2732f618","609d7c7f4ecd7cad93072f09","null","","","","null","","","","key","16.689689655174053","960","484.5","","","","","","","","","","","","","138","1","3","true","","","",""
"psychophysics","319","512344","0.0-18.0-2.24","5f2c760dfff10e03206a686b","609a8bf73b2ac84e2732f618","609d7c7f4ecd7cad93072f09","748.9100000821054","","","","77","","","","key","16.68386363636422","960","484.5","","","","","","","","","","","","","","","","","","","",""
"psychophysics","320","512853","0.0-18.0-0.25","5f2c760dfff10e03206a686b","609a8bf73b2ac84e2732f618","609d7c7f4ecd7cad93072f09","null","","","","null","","","","key","16.681733333334947","960","484.5","","","","","","","","","","","","","","","","","","","",""
"psychophysics","321","513356","0.0-18.0-1.25","5f2c760dfff10e03206a686b","609a8bf73b2ac84e2732f618","609d7c7f4ecd7cad93072f09","null","","","","null","","","","key","16.68558620689798","960","484.5","","","","","","","","","","","","","138","1","6","true","","","",""
"psychophysics","322","514881","0.0-18.0-2.25","5f2c760dfff10e03206a686b","609a8bf73b2ac84e2732f618","609d7c7f4ecd7cad93072f09","1521.7450000345707","","","","90","","","","key","16.68332222222234","960","484.5","","","","","","","","","","","","","","","","","","","",""
"psychophysics","323","515605","0.0-18.0-0.26","5f2c760dfff10e03206a686b","609a8bf73b2ac84e2732f618","609d7c7f4ecd7cad93072f09","null","","","","null","","","","key","16.68162790697669","960","484.5","","","","","","","","","","","","","","","","","","","",""
"psychophysics","324","516106","0.0-18.0-1.26","5f2c760dfff10e03206a686b","609a8bf73b2ac84e2732f618","609d7c7f4ecd7cad93072f09","null","","","","null","","","","key","16.682448275860978","960","484.5","","","","","","","","","","","","","138","1","2","true","","","",""
"psychophysics","325","516802","0.0-18.0-2.26","5f2c760dfff10e03206a686b","609a8bf73b2ac84e2732f618","609d7c7f4ecd7cad93072f09","693.2950001209974","","","","90","","","","key","16.684599999999044","960","484.5","","","","","","","","","","","","","","","","","","","",""
"psychophysics","326","517784","0.0-18.0-0.27","5f2c760dfff10e03206a686b","609a8bf73b2ac84e2732f618","609d7c7f4ecd7cad93072f09","null","","","","null","","","","key","16.6859310344825","960","484.5","","","","","","","","","","","","","","","","","","","",""
"psychophysics","327","518287","0.0-18.0-1.27","5f2c760dfff10e03206a686b","609a8bf73b2ac84e2732f618","609d7c7f4ecd7cad93072f09","null","","","","null","","","","key","16.68199999999876","960","484.5","","","","","","","","","","","","","138","-1","6","true","","","",""
"psychophysics","328","519090","0.0-18.0-2.27","5f2c760dfff10e03206a686b","609a8bf73b2ac84e2732f618","609d7c7f4ecd7cad93072f09","799.4850003160536","","","","90","","","","key","16.683148936170372","960","484.5","","","","","","","","","","","","","","","","","","","",""
