"trial_type","trial_index","time_elapsed","internal_node_id","PROLIFIC_PID","STUDY_ID","SESSION_ID","rt","stimulus","button_pressed","success","key_press","responses","isData","view_history","response_type","avg_frame_time","center_x","center_y","isSC","stim_side","trial_luminance","step_size","nReversal","correct","prev_ans","isThreshold","SC_threshold","final_threshold","isLuminance","FF_luminance","luminance","stimSide","ISInt","isFF","question_order","isSPQ","isCAPS","isAQ"
"pavlovia","0","28","0.0-0.0","609d5ecd21db56885ade1227","609a8bf73b2ac84e2732f618","609d71184da6702335451ddb","","","","","","","","","","","","","","","","","","","","","","","","","","","","","","","",""
"html-button-response","1","9633","0.0-1.0","609d5ecd21db56885ade1227","609a8bf73b2ac84e2732f618","609d71184da6702335451ddb","9602.790000004461","<div style='background-color: white; width:60%; margin: auto; padding: 50px; text-align: justify; text-justify: inter-word; margin-bottom: 20px;'><h1 style='text-align: center;'>Consent Form</h1><p>Please read this consent form carefully before deciding whether you would like to participate in this study. You have to be 18 years old or older to participate to this study.</p><p style='text-decoration: underline;'>Participation is voluntary:</p><p>It is your choice whether or not to participate in this research. If you choose to participate, you may change your mind and leave the study at any time. Refusal to participate or stopping your participation will involve no penalty or loss of benefits to which you are otherwise entitled.</p><p style='text-decoration: underline;'>Purpose of the Study:</p><p>To understand the mechanisms underlying human perception.</p><p style='text-decoration: underline;'>What you will do in this study:</p><p>You will be presented with a series of visual images and then you will press buttons on the keyboard of your computer to respond to simple questions about the images (e.g. Were one or two images presented?). In addition, you will be asked to complete a questionnaire concerning your beliefs and everyday mental and perceptual experiences.'</p><p style='text-decoration: underline;'> Time Required:</p><p>The study will take 40 minutes to complete. </p><p style='text-decoration: underline;'>Risks:</p><p>There are no anticipated risks associated with participating in this study that are beyond those experienced in everyday life. </p><p style='text-decoration: underline;'>Benefits:</p><p>There are no benefits to you in participating in the study. However, this study may lead to a better understanding of how different kinds of visual information are used.</p><p style='text-decoration: underline;'>Compensation:</p><p>You will be paid US$6.6/hour. </p><p style='text-decoration: underline;'>Privacy and Confidentiality:</p><p>Your participation in this study will be anonymous. No personal information about your name or identity will be asked or recorded. This anonymous data will be stored for several years and may be used for a variety of research purposes. The overall results of the study may be published, or the data files may be shared with other researchers, but your identity will not be revealed in any way. The online services we are using for this study may temporarily store your data, but this data will be downloaded and then promptly deleted from those services.Your data will not be permanently associated with your name, IP address, or any other identifiable information (e.g., your information will only be connected to your payment, not to any of your responses), though they may be temporarily stored together before we download and separate them. Even so, no guarantee of internet survey security can be given because, although unlikely, transmissions can be intercepted and IP addresses can be identified. The anonymous data may be shared publicly (for example, in conjunction with a resulting academic publication).</p><p style='text-decoration: underline;'>Participation and Withdrawal:</p><p>Your participation in this study is completely voluntary. You may stop responding to the stimuli or stop answering questions if you so choose and without penalty by exiting the full screen mode, closing this tab of your browser or redirecting it to a different website.</p><p style='text-decoration: underline;'>Contact Info of the Researcher: </p><p>If you have questions about this study, or if you would like to talk to the research team, please contact David Melcher (david.melcher@nyu.edu, md5050@nyu.edu) at the Perception and Active Cognition Laboratory, New York University Abu Dhabi, Computational Research Building, Saadiyat Island, Abu Dhabi, UAE.This research has been reviewed by the New York University Abu Dhabi Institutional Review Board (NYUAD IRB). To contact about your rights in this research, for questions, suggestions, or complaints that are not addressed by the researchers, please email IRBnyuad@nyu.edu, or call the NYUAD IRB at +971 2 628 4313. </p></div>","0","","","","","","","","","","","","","","","","","","","","","","","","","","","","",""
"fullscreen","2","10914","0.0-2.0","609d5ecd21db56885ade1227","609a8bf73b2ac84e2732f618","609d71184da6702335451ddb","","","","true","","","","","","","","","","","","","","","","","","","","","","","","","","","",""
"html-keyboard-response","3","33693","0.0-3.0","609d5ecd21db56885ade1227","609a8bf73b2ac84e2732f618","609d71184da6702335451ddb","22778.50000000035","<p>Welcome !</p><p>READ CAREFULLY THE FOLLOWING INDICATIONS:</p><p>From this moment you have ~40 minutes to complete the experiment.</p><p>During the experiment you will be prompted to take several breaks. Each break should not last longer than 2-3 minutes.</p><p>Make sure that your computer is plugged in and it's not running on battery power, even if the battery is already fully charged.</p><p>Turn off your phone and music, make sure that you are in a quiet room and that you will not be distracted for the next hour.</p><p>Failure to comply with the instructions and indications provided during the experiment will most likely result in the rejection of your data.<p>Press the spacebar to start.</p>","","","32","","","","","","","","","","","","","","","","","","","","","","","","","","",""
"survey-html-form","4","38533","0.0-4.0","609d5ecd21db56885ade1227","609a8bf73b2ac84e2732f618","609d71184da6702335451ddb","4838.584999997693","","","","","{""age"":""23"",""sex"":""M""}","true","","","","","","","","","","","","","","","","","","","","","","","","",""
"instructions","5","97295","0.0-5.0","609d5ecd21db56885ade1227","609a8bf73b2ac84e2732f618","609d71184da6702335451ddb","58761.60999999411","","","","","","","[{""page_index"":0,""viewing_time"":37731.13499999454},{""page_index"":1,""viewing_time"":13950.650000006135},{""page_index"":2,""viewing_time"":7079.404999996768}]","","","","","","","","","","","","","","","","","","","","","","","",""
"psychophysics","6","99380","0.0-6.0-0.0","609d5ecd21db56885ade1227","609a8bf73b2ac84e2732f618","609d71184da6702335451ddb","1073.964999995951","","","","39","","","","key","16.80173387096781","960","484.5","true","1","180","30","0","-1","","","","","","","","","","","","","",""
"psychophysics","7","101357","0.0-6.0-0.1","609d5ecd21db56885ade1227","609a8bf73b2ac84e2732f618","609d71184da6702335451ddb","963.9749999987544","","","","39","","","","key","16.665703389830508","960","484.5","true","1","180","30","0","-1","-1","","","","","","","","","","","","",""
"psychophysics","8","102884","0.0-6.0-0.2","609d5ecd21db56885ade1227","609a8bf73b2ac84e2732f618","609d71184da6702335451ddb","519.1200000044773","","","","37","","","","key","16.66426373626378","960","484.5","true","-1","150","30","0","-1","-1","","","","","","","","","","","","",""
"psychophysics","9","103968","0.0-6.0-0.3","609d5ecd21db56885ade1227","609a8bf73b2ac84e2732f618","609d71184da6702335451ddb","71.19499999680556","","","","37","","","","key","16.669859374999987","960","484.5","true","-1","150","30","0","-1","-1","","","","","","","","","","","","",""
"psychophysics","10","107173","0.0-6.0-0.4","609d5ecd21db56885ade1227","609a8bf73b2ac84e2732f618","609d71184da6702335451ddb","2197.939999998198","","","","37","","","","key","16.667340314136123","960","484.5","true","-1","129","30","0","-1","-1","","","","","","","","","","","","",""
"psychophysics","11","108771","0.0-6.0-0.5","609d5ecd21db56885ade1227","609a8bf73b2ac84e2732f618","609d71184da6702335451ddb","590.5150000035064","","","","37","","","","key","16.666284210526225","960","484.5","true","1","129","24","1","1","-1","","","","","","","","","","","","",""
"psychophysics","12","109889","0.0-6.0-0.6","609d5ecd21db56885ade1227","609a8bf73b2ac84e2732f618","609d71184da6702335451ddb","113.64999999932479","","","","37","","","","key","16.664530303030254","960","484.5","true","-1","153","24","1","-1","1","","","","","","","","","","","","",""
"psychophysics","13","113327","0.0-6.0-0.7","609d5ecd21db56885ade1227","609a8bf73b2ac84e2732f618","609d71184da6702335451ddb","2430.530000005092","","","","39","","","","key","16.6643756097561","960","484.5","true","-1","153","19.2","2","1","-1","","","","","","","","","","","","",""
"psychophysics","14","114399","0.0-6.0-0.8","609d5ecd21db56885ade1227","609a8bf73b2ac84e2732f618","609d71184da6702335451ddb","53.50499999622116","","","","37","","","","key","16.671312499999885","960","484.5","true","-1","172.2","19.2","2","-1","1","","","","","","","","","","","","",""
"psychophysics","15","115453","0.0-6.0-0.9","609d5ecd21db56885ade1227","609a8bf73b2ac84e2732f618","609d71184da6702335451ddb","43.65999999572523","","","","39","","","","key","16.665241935483795","960","484.5","true","1","172.2","15.36","3","-1","-1","","","","","","","","","","","","",""
"psychophysics","16","120132","0.0-6.0-0.10","609d5ecd21db56885ade1227","609a8bf73b2ac84e2732f618","609d71184da6702335451ddb","3668.4900000036578","","","","37","","","","key","16.66584642857145","960","484.5","true","-1","156.83999999999997","15.36","3","-1","-1","","","","","","","","","","","","",""
"psychophysics","17","121229","0.0-6.0-0.11","609d5ecd21db56885ade1227","609a8bf73b2ac84e2732f618","609d71184da6702335451ddb","82.39500000490807","","","","37","","","","key","16.661968750000142","960","484.5","true","-1","156.83999999999997","15.36","3","-1","-1","","","","","","","","","","","","",""
"psychophysics","18","122260","0.0-6.0-0.12","609d5ecd21db56885ade1227","609a8bf73b2ac84e2732f618","609d71184da6702335451ddb","29.045000002952293","","","","37","","","","key","16.67201639344266","960","484.5","true","-1","141.47999999999996","15.36","3","-1","-1","","","","","","","","","","","","",""
"psychophysics","19","125800","0.0-6.0-0.13","609d5ecd21db56885ade1227","609a8bf73b2ac84e2732f618","609d71184da6702335451ddb","2537.6299999988987","","","","39","","","","key","16.666712264150913","960","484.5","true","1","141.47999999999996","15.36","3","-1","-1","","","","","","","","","","","","",""
"psychophysics","20","128621","0.0-6.0-0.14","609d5ecd21db56885ade1227","609a8bf73b2ac84e2732f618","609d71184da6702335451ddb","1808.6350000012317","","","","39","","","","key","16.666309523809538","960","484.5","true","1","129","15.36","3","-1","-1","","","","","","","","","","","","",""
"psychophysics","21","130654","0.0-6.0-0.15","609d5ecd21db56885ade1227","609a8bf73b2ac84e2732f618","609d71184da6702335451ddb","1024.6950000000652","","","","39","","","","key","16.665528925619792","960","484.5","true","1","129","15.36","3","-1","-1","","","","","","","","","","","","",""
"psychophysics","22","132569","0.0-6.0-0.16","609d5ecd21db56885ade1227","609a8bf73b2ac84e2732f618","609d71184da6702335451ddb","906.4650000000256","","","","39","","","","key","16.66522807017553","960","484.5","true","1","129","15.36","3","-1","-1","","","","","","","","","","","","",""
"psychophysics","23","136433","0.0-6.0-0.17","609d5ecd21db56885ade1227","609a8bf73b2ac84e2732f618","609d71184da6702335451ddb","2863.115000000107","","","","39","","","","key","16.666129870129822","960","484.5","true","1","129","15.36","3","-1","-1","","","","","","","","","","","","",""
"psychophysics","24","138071","0.0-6.0-0.18","609d5ecd21db56885ade1227","609a8bf73b2ac84e2732f618","609d71184da6702335451ddb","629.7450000056415","","","","39","","","","key","16.665886597937998","960","484.5","true","-1","129","12.287999999999998","4","1","-1","","","","","","","","","","","","",""
"psychophysics","25","139290","0.0-6.0-0.19","609d5ecd21db56885ade1227","609a8bf73b2ac84e2732f618","609d71184da6702335451ddb","211.59500000067055","","","","39","","","","key","16.66634722222241","960","484.5","true","1","141.288","12.287999999999998","4","-1","1","","","","","","","","","","","","",""
"psychophysics","26","140308","0.0-6.0-0.20","609d5ecd21db56885ade1227","609a8bf73b2ac84e2732f618","609d71184da6702335451ddb","12.459999998100102","","","","37","","","","key","16.664816666666592","960","484.5","true","-1","141.288","9.8304","5","-1","-1","","","","","","","","","","","","",""
"psychophysics","27","142336","0.0-6.0-0.21","609d5ecd21db56885ade1227","609a8bf73b2ac84e2732f618","609d71184da6702335451ddb","1024.7400000007474","","","","39","","","","key","16.665404958677648","960","484.5","true","-1","131.4576","7.864319999999999","6","1","-1","","","","","","","","","","","","",""
"psychophysics","28","143433","0.0-6.0-0.22","609d5ecd21db56885ade1227","609a8bf73b2ac84e2732f618","609d71184da6702335451ddb","90.55499999521999","","","","39","","","","key","16.662738461538595","960","484.5","true","1","139.32192","7.864319999999999","6","-1","1","","","","","","","","","","","","",""
"psychophysics","29","145636","0.0-6.0-0.23","609d5ecd21db56885ade1227","609a8bf73b2ac84e2732f618","609d71184da6702335451ddb","1190.2849999969476","","","","37","","","","key","16.665946564885505","960","484.5","true","-1","139.32192","6.291456","7","-1","-1","","","","","","","","","","","","",""
"psychophysics","30","146913","0.0-6.0-0.24","609d5ecd21db56885ade1227","609a8bf73b2ac84e2732f618","609d71184da6702335451ddb","268.85999999649357","","","","37","","","","key","16.666092105263058","960","484.5","true","-1","133.030464","6.291456","7","-1","-1","","","","","","","","","","","","",""
"psychophysics","31","147953","0.0-6.0-0.25","609d5ecd21db56885ade1227","609a8bf73b2ac84e2732f618","609d71184da6702335451ddb","24.670000006153714","","","","39","","","","key","16.66575409836073","960","484.5","true","1","133.030464","6.291456","7","-1","-1","","","","","","","","","","","","",""
"psychophysics","32","149464","0.0-6.0-0.26","609d5ecd21db56885ade1227","609a8bf73b2ac84e2732f618","609d71184da6702335451ddb","505.64999999915017","","","","37","","","","key","16.663833333333283","960","484.5","true","1","129","5.033164800000001","8","1","-1","","","","","","","","","","","","",""
"psychophysics","33","150737","0.0-6.0-0.27","609d5ecd21db56885ade1227","609a8bf73b2ac84e2732f618","609d71184da6702335451ddb","263.14999999885913","","","","39","","","","key","16.66625333333349","960","484.5","true","1","134.0331648","5.033164800000001","8","-1","1","","","","","","","","","","","","",""
"psychophysics","34","151834","0.0-6.0-0.28","609d5ecd21db56885ade1227","609a8bf73b2ac84e2732f618","609d71184da6702335451ddb","96.16000000096392","","","","39","","","","key","16.666784615384845","960","484.5","true","1","134.0331648","4.0265318400000005","9","-1","-1","","","","","","","","","","","","",""
"psychophysics","35","153413","0.0-6.0-0.29","609d5ecd21db56885ade1227","609a8bf73b2ac84e2732f618","609d71184da6702335451ddb","576.3050000023213","","","","39","","","","key","16.66836170212767","960","484.5","true","1","130.00663296000002","4.0265318400000005","9","-1","-1","","","","","","","","","","","","",""
"psychophysics","36","155832","0.0-6.0-0.30","609d5ecd21db56885ade1227","609a8bf73b2ac84e2732f618","609d71184da6702335451ddb","1405.3400000047986","","","","39","","","","key","16.665527777777648","960","484.5","true","-1","130.00663296000002","3.2212254720000004","10","1","-1","","","","","","","","","","","","",""
"psychophysics","37","157090","0.0-6.0-0.31","609d5ecd21db56885ade1227","609a8bf73b2ac84e2732f618","609d71184da6702335451ddb","245.94999999681022","","","","39","","","","key","16.6657162162163","960","484.5","true","1","133.227858432","3.2212254720000004","10","-1","1","","","","","","","","","","","","",""
"psychophysics","38","158175","0.0-6.0-0.32","609d5ecd21db56885ade1227","609a8bf73b2ac84e2732f618","609d71184da6702335451ddb","80.22999999957392","","","","37","","","","key","16.66665624999996","960","484.5","true","-1","133.227858432","2.5769803776000004","11","-1","-1","","","","","","","","","","","","",""
"psychophysics","39","160256","0.0-6.0-0.33","609d5ecd21db56885ade1227","609a8bf73b2ac84e2732f618","609d71184da6702335451ddb","1078.880000000936","","","","37","","","","key","16.665709677419198","960","484.5","true","-1","130.6508780544","2.5769803776000004","11","-1","-1","","","","","","","","","","","","",""
"psychophysics","40","162651","0.0-6.0-0.34","609d5ecd21db56885ade1227","609a8bf73b2ac84e2732f618","609d71184da6702335451ddb","1392.0599999983096","","","","37","","","","key","16.66520979020979","960","484.5","true","-1","130.6508780544","2.5769803776000004","11","-1","-1","","","","","","","","","","","","",""
"psychophysics","41","164174","0.0-6.0-0.35","609d5ecd21db56885ade1227","609a8bf73b2ac84e2732f618","609d71184da6702335451ddb","514.405000001716","","","","37","","","","key","16.666333333333345","960","484.5","true","1","129","2.0615843020800004","12","1","-1","","","","","","","","","","","","",""
"psychophysics","42","165219","0.0-6.0-0.36","609d5ecd21db56885ade1227","609a8bf73b2ac84e2732f618","609d71184da6702335451ddb","41.495000004942995","","","","39","","","","key","16.666790322580415","960","484.5","true","1","131.06158430208","2.0615843020800004","12","-1","1","","","","","","","","","","","","",""
"psychophysics","43","167263","0.0-6.0-0.37","609d5ecd21db56885ade1227","609a8bf73b2ac84e2732f618","609d71184da6702335451ddb","1036.0599999985425","","","","37","","","","key","16.666598360655833","960","484.5","true","1","131.06158430208","1.6492674416640005","13","1","-1","","","","","","","","","","","","",""
"psychophysics","44","169980","0.0-6.0-0.38","609d5ecd21db56885ade1227","609a8bf73b2ac84e2732f618","609d71184da6702335451ddb","1704.3850000045495","","","","37","","","","key","16.666858024691464","960","484.5","true","-1","132.710851743744","1.6492674416640005","13","-1","1","","","","","","","","","","","","",""
"psychophysics","45","171034","0.0-6.0-0.39","609d5ecd21db56885ade1227","609a8bf73b2ac84e2732f618","609d71184da6702335451ddb","43.454999999084976","","","","37","","","","key","16.66569354838735","960","484.5","true","-1","132.710851743744","1.3194139533312006","14","-1","-1","","","","","","","","","","","","",""
"html-keyboard-response","46","176487","0.0-7.0","609d5ecd21db56885ade1227","609a8bf73b2ac84e2732f618","609d71184da6702335451ddb","5452.794999997423","<p>Well Done !</p><p>Prepare for a new block.</p><p>DON'T EXIT THE FULL SCREEN MODE</p><p>Press the Spacebar to start.</p>","","","32","","","","","","","","","","","","","","","true","131.62749363896322","","","","","","","","","","",""
"psychophysics","47","178155","0.0-8.0-0.0","609d5ecd21db56885ade1227","609a8bf73b2ac84e2732f618","609d71184da6702335451ddb","665.8949999982724","","","","37","","","","key","16.668889999999955","960","484.5","true","-1","180","30","0","-1","","","","","","","","","","","","","",""
"psychophysics","48","180985","0.0-8.0-0.1","609d5ecd21db56885ade1227","609a8bf73b2ac84e2732f618","609d71184da6702335451ddb","1828.1050000005052","","","","37","","","","key","16.66472189349106","960","484.5","true","-1","180","30","0","-1","-1","","","","","","","","","","","","",""
"psychophysics","49","182121","0.0-8.0-0.2","609d5ecd21db56885ade1227","609a8bf73b2ac84e2732f618","609d71184da6702335451ddb","134.2949999962002","","","","39","","","","key","16.664850746268847","960","484.5","true","1","150","30","0","-1","-1","","","","","","","","","","","","",""
"psychophysics","50","185021","0.0-8.0-0.3","609d5ecd21db56885ade1227","609a8bf73b2ac84e2732f618","609d71184da6702335451ddb","1898.0650000012247","","","","39","","","","key","16.665624277456597","960","484.5","true","-1","150","24","1","1","-1","","","","","","","","","","","","",""
"psychophysics","51","186078","0.0-8.0-0.4","609d5ecd21db56885ade1227","609a8bf73b2ac84e2732f618","609d71184da6702335451ddb","55.33500000456115","","","","37","","","","key","16.66944444444472","960","484.5","true","-1","174","24","1","-1","1","","","","","","","","","","","","",""
"psychophysics","52","188629","0.0-8.0-0.5","609d5ecd21db56885ade1227","609a8bf73b2ac84e2732f618","609d71184da6702335451ddb","1549.330000001646","","","","37","","","","key","16.66696052631577","960","484.5","true","-1","174","19.2","2","-1","-1","","","","","","","","","","","","",""
"psychophysics","53","189698","0.0-8.0-0.6","609d5ecd21db56885ade1227","609a8bf73b2ac84e2732f618","609d71184da6702335451ddb","67.17000000207918","","","","39","","","","key","16.664253968253938","960","484.5","true","1","154.8","19.2","2","-1","-1","","","","","","","","","","","","",""
"psychophysics","54","191017","0.0-8.0-0.7","609d5ecd21db56885ade1227","609a8bf73b2ac84e2732f618","609d71184da6702335451ddb","317.2899999990477","","","","39","","","","key","16.66897435897427","960","484.5","true","1","154.8","19.2","2","-1","-1","","","","","","","","","","","","",""
"psychophysics","55","192358","0.0-8.0-0.8","609d5ecd21db56885ade1227","609a8bf73b2ac84e2732f618","609d71184da6702335451ddb","339.78499999648193","","","","37","","","","key","16.663000000000096","960","484.5","true","-1","135.60000000000002","19.2","2","-1","-1","","","","","","","","","","","","",""
"psychophysics","56","193632","0.0-8.0-0.9","609d5ecd21db56885ade1227","609a8bf73b2ac84e2732f618","609d71184da6702335451ddb","271.3450000010198","","","","39","","","","key","16.668921052631816","960","484.5","true","1","135.60000000000002","19.2","2","-1","-1","","","","","","","","","","","","",""
"psychophysics","57","195211","0.0-8.0-0.10","609d5ecd21db56885ade1227","609a8bf73b2ac84e2732f618","609d71184da6702335451ddb","577.4450000026263","","","","37","","","","key","16.665946808510505","960","484.5","true","1","129","15.36","3","1","-1","","","","","","","","","","","","",""
"psychophysics","58","196649","0.0-8.0-0.11","609d5ecd21db56885ade1227","609a8bf73b2ac84e2732f618","609d71184da6702335451ddb","436.4999999961583","","","","37","","","","key","16.666517647058594","960","484.5","true","-1","144.36","15.36","3","-1","1","","","","","","","","","","","","",""
"psychophysics","59","198172","0.0-8.0-0.12","609d5ecd21db56885ade1227","609a8bf73b2ac84e2732f618","609d71184da6702335451ddb","521.0749999969266","","","","37","","","","key","16.665200000000187","960","484.5","true","-1","144.36","12.287999999999998","4","-1","-1","","","","","","","","","","","","",""
"psychophysics","60","199428","0.0-8.0-0.13","609d5ecd21db56885ade1227","609a8bf73b2ac84e2732f618","609d71184da6702335451ddb","255.56499999947846","","","","39","","","","key","16.667386666666715","960","484.5","true","1","132.072","12.287999999999998","4","-1","-1","","","","","","","","","","","","",""
"psychophysics","61","201928","0.0-8.0-0.14","609d5ecd21db56885ade1227","609a8bf73b2ac84e2732f618","609d71184da6702335451ddb","1496.6649999987567","","","","39","","","","key","16.66704697986567","960","484.5","true","1","132.072","12.287999999999998","4","-1","-1","","","","","","","","","","","","",""
"psychophysics","62","203818","0.0-8.0-0.15","609d5ecd21db56885ade1227","609a8bf73b2ac84e2732f618","609d71184da6702335451ddb","886.899999997695","","","","39","","","","key","16.663803571428485","960","484.5","true","-1","129","9.8304","5","1","-1","","","","","","","","","","","","",""
"psychophysics","63","204983","0.0-8.0-0.16","609d5ecd21db56885ade1227","609a8bf73b2ac84e2732f618","609d71184da6702335451ddb","163.75500000140164","","","","37","","","","key","16.667028985507162","960","484.5","true","-1","138.8304","9.8304","5","-1","1","","","","","","","","","","","","",""
"psychophysics","64","206218","0.0-8.0-0.17","609d5ecd21db56885ade1227","609a8bf73b2ac84e2732f618","609d71184da6702335451ddb","233.05499999696622","","","","37","","","","key","16.663219178082304","960","484.5","true","-1","138.8304","7.864319999999999","6","-1","-1","","","","","","","","","","","","",""
"psychophysics","65","208374","0.0-8.0-0.18","609d5ecd21db56885ade1227","609a8bf73b2ac84e2732f618","609d71184da6702335451ddb","1154.8149999944144","","","","37","","","","key","16.66712500000017","960","484.5","true","-1","130.96608","7.864319999999999","6","-1","-1","","","","","","","","","","","","",""
"psychophysics","66","210354","0.0-8.0-0.19","609d5ecd21db56885ade1227","609a8bf73b2ac84e2732f618","609d71184da6702335451ddb","977.5149999986752","","","","39","","","","key","16.667754237287998","960","484.5","true","-1","130.96608","6.291456","7","1","-1","","","","","","","","","","","","",""
"psychophysics","67","211468","0.0-8.0-0.20","609d5ecd21db56885ade1227","609a8bf73b2ac84e2732f618","609d71184da6702335451ddb","112.73500000243075","","","","39","","","","key","16.66134848484856","960","484.5","true","1","137.25753600000002","6.291456","7","-1","1","","","","","","","","","","","","",""
"psychophysics","68","212745","0.0-8.0-0.21","609d5ecd21db56885ade1227","609a8bf73b2ac84e2732f618","609d71184da6702335451ddb","274.84499999991385","","","","39","","","","key","16.668263157894742","960","484.5","true","1","137.25753600000002","5.033164800000001","8","-1","-1","","","","","","","","","","","","",""
"psychophysics","69","214799","0.0-8.0-0.22","609d5ecd21db56885ade1227","609a8bf73b2ac84e2732f618","609d71184da6702335451ddb","1051.2200000011944","","","","39","","","","key","16.66578688524586","960","484.5","true","1","132.2243712","5.033164800000001","8","-1","-1","","","","","","","","","","","","",""
"psychophysics","70","216785","0.0-8.0-0.23","609d5ecd21db56885ade1227","609a8bf73b2ac84e2732f618","609d71184da6702335451ddb","985.1950000011129","","","","39","","","","key","16.665016949152616","960","484.5","true","-1","132.2243712","4.0265318400000005","9","1","-1","","","","","","","","","","","","",""
"psychophysics","71","217948","0.0-8.0-0.24","609d5ecd21db56885ade1227","609a8bf73b2ac84e2732f618","609d71184da6702335451ddb","161.4449999979115","","","","39","","","","key","16.66599999999997","960","484.5","true","1","136.25090304","4.0265318400000005","9","-1","1","","","","","","","","","","","","",""
"psychophysics","72","219255","0.0-8.0-0.25","609d5ecd21db56885ade1227","609a8bf73b2ac84e2732f618","609d71184da6702335451ddb","304.7450000012759","","","","37","","","","key","16.663168831168623","960","484.5","true","-1","136.25090304","3.2212254720000004","10","-1","-1","","","","","","","","","","","","",""
"psychophysics","73","221863","0.0-8.0-0.26","609d5ecd21db56885ade1227","609a8bf73b2ac84e2732f618","609d71184da6702335451ddb","1605.7399999990594","","","","37","","","","key","16.665365384615516","960","484.5","true","-1","133.029677568","3.2212254720000004","10","-1","-1","","","","","","","","","","","","",""
"psychophysics","74","222923","0.0-8.0-0.27","609d5ecd21db56885ade1227","609a8bf73b2ac84e2732f618","609d71184da6702335451ddb","58.114999999816064","","","","37","","","","key","16.670129032258224","960","484.5","true","-1","133.029677568","3.2212254720000004","10","-1","-1","","","","","","","","","","","","",""
"psychophysics","75","225484","0.0-8.0-0.28","609d5ecd21db56885ade1227","609a8bf73b2ac84e2732f618","609d71184da6702335451ddb","1558.4550000057789","","","","37","","","","key","16.66827450980401","960","484.5","true","1","129.808452096","2.5769803776000004","11","1","-1","","","","","","","","","","","","",""
"psychophysics","76","226947","0.0-8.0-0.29","609d5ecd21db56885ade1227","609a8bf73b2ac84e2732f618","609d71184da6702335451ddb","461.99999999953434","","","","37","","","","key","16.668137931034448","960","484.5","true","1","132.3854324736","2.5769803776000004","11","1","1","","","","","","","","","","","","",""
"psychophysics","77","228003","0.0-8.0-0.30","609d5ecd21db56885ade1227","609a8bf73b2ac84e2732f618","609d71184da6702335451ddb","54.205000000365544","","","","39","","","","key","16.660709677419472","960","484.5","true","1","134.96241285119999","2.5769803776000004","11","-1","1","","","","","","","","","","","","",""
"psychophysics","78","229127","0.0-8.0-0.31","609d5ecd21db56885ade1227","609a8bf73b2ac84e2732f618","609d71184da6702335451ddb","122.58000000292668","","","","39","","","","key","16.66564179104475","960","484.5","true","1","134.96241285119999","2.0615843020800004","12","-1","-1","","","","","","","","","","","","",""
"psychophysics","79","230335","0.0-8.0-0.32","609d5ecd21db56885ade1227","609a8bf73b2ac84e2732f618","609d71184da6702335451ddb","204.714999999851","","","","39","","","","key","16.66498591549265","960","484.5","true","1","132.90082854911998","2.0615843020800004","12","-1","-1","","","","","","","","","","","","",""
"psychophysics","80","231643","0.0-8.0-0.33","609d5ecd21db56885ade1227","609a8bf73b2ac84e2732f618","609d71184da6702335451ddb","305.7799999951385","","","","39","","","","key","16.670846153846167","960","484.5","true","1","132.90082854911998","2.0615843020800004","12","-1","-1","","","","","","","","","","","","",""
"psychophysics","81","233500","0.0-8.0-0.34","609d5ecd21db56885ade1227","609a8bf73b2ac84e2732f618","609d71184da6702335451ddb","855.4500000027474","","","","39","","","","key","16.665509090908877","960","484.5","true","1","130.83924424703997","2.0615843020800004","12","-1","-1","","","","","","","","","","","","",""
"psychophysics","82","237117","0.0-8.0-0.35","609d5ecd21db56885ade1227","609a8bf73b2ac84e2732f618","609d71184da6702335451ddb","2614.805000004708","","","","39","","","","key","16.664865740740762","960","484.5","true","1","130.83924424703997","2.0615843020800004","12","-1","-1","","","","","","","","","","","","",""
"psychophysics","83","238522","0.0-8.0-0.36","609d5ecd21db56885ade1227","609a8bf73b2ac84e2732f618","609d71184da6702335451ddb","403.31999999762047","","","","37","","","","key","16.665542168674587","960","484.5","true","-1","129","2.0615843020800004","12","-1","-1","","","","","","","","","","","","",""
"psychophysics","84","240357","0.0-8.0-0.37","609d5ecd21db56885ade1227","609a8bf73b2ac84e2732f618","609d71184da6702335451ddb","832.9700000031153","","","","39","","","","key","16.668110091743056","960","484.5","true","1","129","2.0615843020800004","12","-1","-1","","","","","","","","","","","","",""
"psychophysics","85","242845","0.0-8.0-0.38","609d5ecd21db56885ade1227","609a8bf73b2ac84e2732f618","609d71184da6702335451ddb","1486.7900000026566","","","","37","","","","key","16.667516778523435","960","484.5","true","-1","129","2.0615843020800004","12","-1","-1","","","","","","","","","","","","",""
"psychophysics","86","244766","0.0-8.0-0.39","609d5ecd21db56885ade1227","609a8bf73b2ac84e2732f618","609d71184da6702335451ddb","919.6949999968638","","","","37","","","","key","16.66541228070166","960","484.5","true","-1","129","2.0615843020800004","12","-1","-1","","","","","","","","","","","","",""
"html-keyboard-response","87","247734","0.0-9.0","609d5ecd21db56885ade1227","609a8bf73b2ac84e2732f618","609d71184da6702335451ddb","2967.2849999988102","<p>Well Done !</p><p>Prepare for a new block.</p><p>DON'T EXIT THE FULL SCREEN MODE</p><p>Press the Spacebar to start.</p>","","","32","","","","","","","","","","","","","","","true","131.860607602688","","","","","","","","","","",""
"psychophysics","88","249322","0.0-10.0-0.0","609d5ecd21db56885ade1227","609a8bf73b2ac84e2732f618","609d71184da6702335451ddb","586.0200000024633","","","","37","","","","key","16.66526315789486","960","484.5","true","-1","180","30","0","-1","","","","","","","","","","","","","",""
"psychophysics","89","250355","0.0-10.0-0.1","609d5ecd21db56885ade1227","609a8bf73b2ac84e2732f618","609d71184da6702335451ddb","30.86500000063097","","","","39","","","","key","16.66770491803296","960","484.5","true","1","180","30","0","-1","-1","","","","","","","","","","","","",""
"psychophysics","90","251459","0.0-10.0-0.2","609d5ecd21db56885ade1227","609a8bf73b2ac84e2732f618","609d71184da6702335451ddb","101.3600000005681","","","","37","","","","key","16.669833333333372","960","484.5","true","-1","150","30","0","-1","-1","","","","","","","","","","","","",""
"psychophysics","91","252550","0.0-10.0-0.3","609d5ecd21db56885ade1227","609a8bf73b2ac84e2732f618","609d71184da6702335451ddb","88.44500000122935","","","","39","","","","key","16.662015625000095","960","484.5","true","1","150","30","0","-1","-1","","","","","","","","","","","","",""
"psychophysics","92","254658","0.0-10.0-0.4","609d5ecd21db56885ade1227","609a8bf73b2ac84e2732f618","609d71184da6702335451ddb","1106.8450000020675","","","","37","","","","key","16.665079365079272","960","484.5","true","1","129","24","1","1","-1","","","","","","","","","","","","",""
"psychophysics","93","255676","0.0-10.0-0.5","609d5ecd21db56885ade1227","609a8bf73b2ac84e2732f618","609d71184da6702335451ddb","15.93499999580672","","","","39","","","","key","16.665350000000036","960","484.5","true","1","153","24","1","-1","1","","","","","","","","","","","","",""
"psychophysics","94","258902","0.0-10.0-0.6","609d5ecd21db56885ade1227","609a8bf73b2ac84e2732f618","609d71184da6702335451ddb","2224.9400000000605","","","","37","","","","key","16.664588541666642","960","484.5","true","-1","153","19.2","2","-1","-1","","","","","","","","","","","","",""
"psychophysics","95","260281","0.0-10.0-0.7","609d5ecd21db56885ade1227","609a8bf73b2ac84e2732f618","609d71184da6702335451ddb","377.21500000043306","","","","39","","","","key","16.66476829268291","960","484.5","true","1","133.8","19.2","2","-1","-1","","","","","","","","","","","","",""
"psychophysics","96","261506","0.0-10.0-0.8","609d5ecd21db56885ade1227","609a8bf73b2ac84e2732f618","609d71184da6702335451ddb","223.43499999988126","","","","39","","","","key","16.662208333333385","960","484.5","true","1","133.8","19.2","2","-1","-1","","","","","","","","","","","","",""
"psychophysics","97","264313","0.0-10.0-0.9","609d5ecd21db56885ade1227","609a8bf73b2ac84e2732f618","609d71184da6702335451ddb","1805.3650000001653","","","","39","","","","key","16.666970238095452","960","484.5","true","-1","129","15.36","3","1","-1","","","","","","","","","","","","",""
"psychophysics","98","265361","0.0-10.0-0.10","609d5ecd21db56885ade1227","609a8bf73b2ac84e2732f618","609d71184da6702335451ddb","45.74499999580439","","","","37","","","","key","16.664983870967614","960","484.5","true","-1","144.36","15.36","3","-1","1","","","","","","","","","","","","",""
"psychophysics","99","266467","0.0-10.0-0.11","609d5ecd21db56885ade1227","609a8bf73b2ac84e2732f618","609d71184da6702335451ddb","105.41000000375789","","","","39","","","","key","16.66333846153799","960","484.5","true","1","144.36","12.287999999999998","4","-1","-1","","","","","","","","","","","","",""
"psychophysics","100","268831","0.0-10.0-0.12","609d5ecd21db56885ade1227","609a8bf73b2ac84e2732f618","609d71184da6702335451ddb","1362.4049999998533","","","","39","","","","key","16.665297872340638","960","484.5","true","-1","132.072","9.8304","5","1","-1","","","","","","","","","","","","",""
"psychophysics","101","271419","0.0-10.0-0.13","609d5ecd21db56885ade1227","609a8bf73b2ac84e2732f618","609d71184da6702335451ddb","1586.0449999963748","","","","37","","","","key","16.667298701298485","960","484.5","true","-1","141.9024","9.8304","5","-1","1","","","","","","","","","","","","",""
"psychophysics","102","272892","0.0-10.0-0.14","609d5ecd21db56885ade1227","609a8bf73b2ac84e2732f618","609d71184da6702335451ddb","470.8299999983865","","","","37","","","","key","16.665284090908905","960","484.5","true","-1","141.9024","7.864319999999999","6","-1","-1","","","","","","","","","","","","",""
"psychophysics","103","274474","0.0-10.0-0.15","609d5ecd21db56885ade1227","609a8bf73b2ac84e2732f618","609d71184da6702335451ddb","579.5149999976275","","","","39","","","","key","16.66578723404227","960","484.5","true","1","134.03808","7.864319999999999","6","-1","-1","","","","","","","","","","","","",""
"psychophysics","104","276018","0.0-10.0-0.16","609d5ecd21db56885ade1227","609a8bf73b2ac84e2732f618","609d71184da6702335451ddb","541.8599999975413","","","","37","","","","key","16.66638461538465","960","484.5","true","-1","134.03808","7.864319999999999","6","-1","-1","","","","","","","","","","","","",""
"psychophysics","105","277882","0.0-10.0-0.17","609d5ecd21db56885ade1227","609a8bf73b2ac84e2732f618","609d71184da6702335451ddb","862.105000000156","","","","39","","","","key","16.666279279279234","960","484.5","true","-1","129","6.291456","7","1","-1","","","","","","","","","","","","",""
"psychophysics","106","279540","0.0-10.0-0.18","609d5ecd21db56885ade1227","609a8bf73b2ac84e2732f618","609d71184da6702335451ddb","655.865000000631","","","","37","","","","key","16.663333333333167","960","484.5","true","-1","135.291456","6.291456","7","-1","1","","","","","","","","","","","","",""
"psychophysics","107","281090","0.0-10.0-0.19","609d5ecd21db56885ade1227","609a8bf73b2ac84e2732f618","609d71184da6702335451ddb","547.1499999985099","","","","37","","","","key","16.668565217391638","960","484.5","true","-1","135.291456","5.033164800000001","8","-1","-1","","","","","","","","","","","","",""
"psychophysics","108","283559","0.0-10.0-0.20","609d5ecd21db56885ade1227","609a8bf73b2ac84e2732f618","609d71184da6702335451ddb","1466.9599999979255","","","","37","","","","key","16.66561224489777","960","484.5","true","-1","130.2582912","5.033164800000001","8","-1","-1","","","","","","","","","","","","",""
"psychophysics","109","284940","0.0-10.0-0.21","609d5ecd21db56885ade1227","609a8bf73b2ac84e2732f618","609d71184da6702335451ddb","379.2249999969499","","","","39","","","","key","16.6637317073168","960","484.5","true","-1","130.2582912","4.0265318400000005","9","1","-1","","","","","","","","","","","","",""
"psychophysics","110","285977","0.0-10.0-0.22","609d5ecd21db56885ade1227","609a8bf73b2ac84e2732f618","609d71184da6702335451ddb","33.70500000164611","","","","39","","","","key","16.665114754098123","960","484.5","true","1","134.28482304","4.0265318400000005","9","-1","1","","","","","","","","","","","","",""
"psychophysics","111","286993","0.0-10.0-0.23","609d5ecd21db56885ade1227","609a8bf73b2ac84e2732f618","609d71184da6702335451ddb","14.42500000121072","","","","37","","","","key","16.671850000000752","960","484.5","true","-1","134.28482304","3.2212254720000004","10","-1","-1","","","","","","","","","","","","",""
"psychophysics","112","288757","0.0-10.0-0.24","609d5ecd21db56885ade1227","609a8bf73b2ac84e2732f618","609d71184da6702335451ddb","763.0149999968125","","","","37","","","","key","16.66587619047634","960","484.5","true","1","131.06359756799998","2.5769803776000004","11","1","-1","","","","","","","","","","","","",""
"psychophysics","113","290378","0.0-10.0-0.25","609d5ecd21db56885ade1227","609a8bf73b2ac84e2732f618","609d71184da6702335451ddb","617.8300000028685","","","","39","","","","key","16.665343750000222","960","484.5","true","1","133.64057794559997","2.5769803776000004","11","-1","1","","","","","","","","","","","","",""
"psychophysics","114","291750","0.0-10.0-0.26","609d5ecd21db56885ade1227","609a8bf73b2ac84e2732f618","609d71184da6702335451ddb","369.9300000007497","","","","37","","","","key","16.665987654321075","960","484.5","true","-1","133.64057794559997","2.0615843020800004","12","-1","-1","","","","","","","","","","","","",""
"psychophysics","115","293676","0.0-10.0-0.27","609d5ecd21db56885ade1227","609a8bf73b2ac84e2732f618","609d71184da6702335451ddb","925.4500000024564","","","","37","","","","key","16.664608695652113","960","484.5","true","1","131.57899364351996","1.6492674416640005","13","1","-1","","","","","","","","","","","","",""
"psychophysics","116","295114","0.0-10.0-0.28","609d5ecd21db56885ade1227","609a8bf73b2ac84e2732f618","609d71184da6702335451ddb","437.0749999943655","","","","39","","","","key","16.667000000000083","960","484.5","true","1","133.22826108518396","1.6492674416640005","13","-1","1","","","","","","","","","","","","",""
"psychophysics","117","297084","0.0-10.0-0.29","609d5ecd21db56885ade1227","609a8bf73b2ac84e2732f618","609d71184da6702335451ddb","968.0399999997462","","","","39","","","","key","16.665025641025803","960","484.5","true","1","133.22826108518396","1.3194139533312006","14","-1","-1","","","","","","","","","","","","",""
"psychophysics","118","298315","0.0-10.0-0.30","609d5ecd21db56885ade1227","609a8bf73b2ac84e2732f618","609d71184da6702335451ddb","229.8099999970873","","","","39","","","","key","16.663054794521223","960","484.5","true","1","131.90884713185275","1.3194139533312006","14","-1","-1","","","","","","","","","","","","",""
"psychophysics","119","299642","0.0-10.0-0.31","609d5ecd21db56885ade1227","609a8bf73b2ac84e2732f618","609d71184da6702335451ddb","324.88500000181375","","","","37","","","","key","16.66440506329129","960","484.5","true","-1","131.90884713185275","1.3194139533312006","14","-1","-1","","","","","","","","","","","","",""
"psychophysics","120","301489","0.0-10.0-0.32","609d5ecd21db56885ade1227","609a8bf73b2ac84e2732f618","609d71184da6702335451ddb","845.6550000046263","","","","37","","","","key","16.6666545454545","960","484.5","true","1","130.58943317852155","1.0555311626649604","15","1","-1","","","","","","","","","","","","",""
"psychophysics","121","303036","0.0-10.0-0.33","609d5ecd21db56885ade1227","609a8bf73b2ac84e2732f618","609d71184da6702335451ddb","544.8699999978999","","","","37","","","","key","16.66786813186827","960","484.5","true","-1","131.6449643411865","1.0555311626649604","15","-1","1","","","","","","","","","","","","",""
"psychophysics","122","304860","0.0-10.0-0.34","609d5ecd21db56885ade1227","609a8bf73b2ac84e2732f618","609d71184da6702335451ddb","821.6449999963515","","","","37","","","","key","16.668568807339547","960","484.5","true","1","131.6449643411865","1","16","1","-1","","","","","","","","","","","","",""
"psychophysics","123","306285","0.0-10.0-0.35","609d5ecd21db56885ade1227","609a8bf73b2ac84e2732f618","609d71184da6702335451ddb","424.0650000065216","","","","37","","","","key","16.667440476190503","960","484.5","true","-1","132.6449643411865","1","16","-1","1","","","","","","","","","","","","",""
"psychophysics","124","307506","0.0-10.0-0.36","609d5ecd21db56885ade1227","609a8bf73b2ac84e2732f618","609d71184da6702335451ddb","219.53000000212342","","","","39","","","","key","16.670082191780388","960","484.5","true","1","132.6449643411865","1","17","-1","-1","","","","","","","","","","","","",""
"psychophysics","125","309441","0.0-10.0-0.37","609d5ecd21db56885ade1227","609a8bf73b2ac84e2732f618","609d71184da6702335451ddb","932.8850000019884","","","","37","","","","key","16.66448695652197","960","484.5","true","1","131.6449643411865","1","18","1","-1","","","","","","","","","","","","",""
"psychophysics","126","310821","0.0-10.0-0.38","609d5ecd21db56885ade1227","609a8bf73b2ac84e2732f618","609d71184da6702335451ddb","377.1500000002561","","","","39","","","","key","16.6635121951219","960","484.5","true","1","132.6449643411865","1","18","-1","1","","","","","","","","","","","","",""
"psychophysics","127","312229","0.0-10.0-0.39","609d5ecd21db56885ade1227","609a8bf73b2ac84e2732f618","609d71184da6702335451ddb","405.44499999668915","","","","37","","","","key","16.665096385542622","960","484.5","true","-1","132.6449643411865","1","19","-1","-1","","","","","","","","","","","","",""
"html-keyboard-response","128","313888","0.0-11.0","609d5ecd21db56885ade1227","609a8bf73b2ac84e2732f618","609d71184da6702335451ddb","1658.8449999981094","<p>Well Done !</p><p>Prepare for a new block.</p><p>DON'T EXIT THE FULL SCREEN MODE</p><p>Press the Spacebar to start.</p>","","","32","","","","","","","","","","","","","","","true","132.34923663570805","","","","","","","","","","",""
"psychophysics","129","315570","0.0-12.0-0.0","609d5ecd21db56885ade1227","609a8bf73b2ac84e2732f618","609d71184da6702335451ddb","679.0550000005169","","","","37","","","","key","16.664564356436067","960","484.5","true","-1","180","30","0","-1","","","","","","","","","","","","","",""
"psychophysics","130","318519","0.0-12.0-0.1","609d5ecd21db56885ade1227","609a8bf73b2ac84e2732f618","609d71184da6702335451ddb","1945.7299999994575","","","","37","","","","key","16.665771428571148","960","484.5","true","1","180","30","0","1","-1","","","","","","","","","","","","",""
"psychophysics","131","319574","0.0-12.0-0.2","609d5ecd21db56885ade1227","609a8bf73b2ac84e2732f618","609d71184da6702335451ddb","54.270000000542495","","","","37","","","","key","16.668317460317336","960","484.5","true","-1","210","30","0","-1","1","","","","","","","","","","","","",""
"psychophysics","132","320736","0.0-12.0-0.3","609d5ecd21db56885ade1227","609a8bf73b2ac84e2732f618","609d71184da6702335451ddb","160.58499999780906","","","","37","","","","key","16.669753623188242","960","484.5","true","-1","210","24","1","-1","-1","","","","","","","","","","","","",""
"psychophysics","133","322124","0.0-12.0-0.4","609d5ecd21db56885ade1227","609a8bf73b2ac84e2732f618","609d71184da6702335451ddb","384.8199999993085","","","","37","","","","key","16.664024390244045","960","484.5","true","-1","186","24","1","-1","-1","","","","","","","","","","","","",""
"psychophysics","134","323477","0.0-12.0-0.5","609d5ecd21db56885ade1227","609a8bf73b2ac84e2732f618","609d71184da6702335451ddb","351.409999995667","","","","37","","","","key","16.667387499999315","960","484.5","true","-1","186","24","1","-1","-1","","","","","","","","","","","","",""
"psychophysics","135","324679","0.0-12.0-0.6","609d5ecd21db56885ade1227","609a8bf73b2ac84e2732f618","609d71184da6702335451ddb","200.61499999428634","","","","39","","","","key","16.665549295774863","960","484.5","true","1","162","24","1","-1","-1","","","","","","","","","","","","",""
"psychophysics","136","325862","0.0-12.0-0.7","609d5ecd21db56885ade1227","609a8bf73b2ac84e2732f618","609d71184da6702335451ddb","181.87500000203727","","","","39","","","","key","16.666328571428313","960","484.5","true","1","162","24","1","-1","-1","","","","","","","","","","","","",""
"psychophysics","137","327025","0.0-12.0-0.8","609d5ecd21db56885ade1227","609a8bf73b2ac84e2732f618","609d71184da6702335451ddb","162.09499999968102","","","","37","","","","key","16.663971014492944","960","484.5","true","-1","138","24","1","-1","-1","","","","","","","","","","","","",""
"psychophysics","138","328241","0.0-12.0-0.9","609d5ecd21db56885ade1227","609a8bf73b2ac84e2732f618","609d71184da6702335451ddb","214.3900000010035","","","","37","","","","key","16.665055555555025","960","484.5","true","-1","138","24","1","-1","-1","","","","","","","","","","","","",""
"psychophysics","139","331364","0.0-12.0-0.10","609d5ecd21db56885ade1227","609a8bf73b2ac84e2732f618","609d71184da6702335451ddb","2120.8849999966333","","","","37","","","","key","16.664720430107717","960","484.5","true","-1","129","24","1","-1","-1","","","","","","","","","","","","",""
"psychophysics","140","332942","0.0-12.0-0.11","609d5ecd21db56885ade1227","609a8bf73b2ac84e2732f618","609d71184da6702335451ddb","576.6700000021956","","","","37","","","","key","16.665031914893994","960","484.5","true","1","129","19.2","2","1","-1","","","","","","","","","","","","",""
"psychophysics","141","333961","0.0-12.0-0.12","609d5ecd21db56885ade1227","609a8bf73b2ac84e2732f618","609d71184da6702335451ddb","17.605000000912696","","","","37","","","","key","16.66968333333401","960","484.5","true","-1","148.2","19.2","2","-1","1","","","","","","","","","","","","",""
"psychophysics","142","334983","0.0-12.0-0.13","609d5ecd21db56885ade1227","609a8bf73b2ac84e2732f618","609d71184da6702335451ddb","19.365000000107102","","","","39","","","","key","16.667883333332913","960","484.5","true","1","148.2","15.36","3","-1","-1","","","","","","","","","","","","",""
"psychophysics","143","339081","0.0-12.0-0.14","609d5ecd21db56885ade1227","609a8bf73b2ac84e2732f618","609d71184da6702335451ddb","3096.465000002354","","","","37","","","","key","16.665783673469264","960","484.5","true","-1","132.83999999999997","15.36","3","-1","-1","","","","","","","","","","","","",""
"psychophysics","144","341331","0.0-12.0-0.15","609d5ecd21db56885ade1227","609a8bf73b2ac84e2732f618","609d71184da6702335451ddb","1249.1200000004028","","","","37","","","","key","16.66726865671634","960","484.5","true","-1","132.83999999999997","15.36","3","-1","-1","","","","","","","","","","","","",""
"psychophysics","145","342903","0.0-12.0-0.16","609d5ecd21db56885ade1227","609a8bf73b2ac84e2732f618","609d71184da6702335451ddb","569.9749999985215","","","","37","","","","key","16.66688297872377","960","484.5","true","-1","129","15.36","3","-1","-1","","","","","","","","","","","","",""
"psychophysics","146","344927","0.0-12.0-0.17","609d5ecd21db56885ade1227","609a8bf73b2ac84e2732f618","609d71184da6702335451ddb","1021.4449999984936","","","","37","","","","key","16.66530833333333","960","484.5","true","1","129","12.287999999999998","4","1","-1","","","","","","","","","","","","",""
"psychophysics","147","346028","0.0-12.0-0.18","609d5ecd21db56885ade1227","609a8bf73b2ac84e2732f618","609d71184da6702335451ddb","100.46500000316883","","","","39","","","","key","16.668600000000488","960","484.5","true","1","141.288","12.287999999999998","4","-1","1","","","","","","","","","","","","",""
"psychophysics","148","347090","0.0-12.0-0.19","609d5ecd21db56885ade1227","609a8bf73b2ac84e2732f618","609d71184da6702335451ddb","60.85999999777414","","","","39","","","","key","16.66722222222274","960","484.5","true","1","141.288","9.8304","5","-1","-1","","","","","","","","","","","","",""
"psychophysics","149","350426","0.0-12.0-0.20","609d5ecd21db56885ade1227","609a8bf73b2ac84e2732f618","609d71184da6702335451ddb","2333.8950000033947","","","","39","","","","key","16.665934673366873","960","484.5","true","1","131.4576","9.8304","5","-1","-1","","","","","","","","","","","","",""
"psychophysics","150","352939","0.0-12.0-0.21","609d5ecd21db56885ade1227","609a8bf73b2ac84e2732f618","609d71184da6702335451ddb","1512.3149999999441","","","","39","","","","key","16.664913333333097","960","484.5","true","-1","131.4576","7.864319999999999","6","1","-1","","","","","","","","","","","","",""
"psychophysics","151","354073","0.0-12.0-0.22","609d5ecd21db56885ade1227","609a8bf73b2ac84e2732f618","609d71184da6702335451ddb","130.45499999861931","","","","39","","","","key","16.669955223880418","960","484.5","true","1","139.32192","7.864319999999999","6","-1","1","","","","","","","","","","","","",""
"psychophysics","152","355173","0.0-12.0-0.23","609d5ecd21db56885ade1227","609a8bf73b2ac84e2732f618","609d71184da6702335451ddb","98.24000000662636","","","","39","","","","key","16.667369230769467","960","484.5","true","1","139.32192","6.291456","7","-1","-1","","","","","","","","","","","","",""
"psychophysics","153","356456","0.0-12.0-0.24","609d5ecd21db56885ade1227","609a8bf73b2ac84e2732f618","609d71184da6702335451ddb","281.6700000039418","","","","39","","","","key","16.666013157894334","960","484.5","true","1","133.030464","6.291456","7","-1","-1","","","","","","","","","","","","",""
"psychophysics","154","357529","0.0-12.0-0.25","609d5ecd21db56885ade1227","609a8bf73b2ac84e2732f618","609d71184da6702335451ddb","71.0899999976391","","","","37","","","","key","16.66638095238124","960","484.5","true","-1","133.030464","6.291456","7","-1","-1","","","","","","","","","","","","",""
"psychophysics","155","360211","0.0-12.0-0.26","609d5ecd21db56885ade1227","609a8bf73b2ac84e2732f618","609d71184da6702335451ddb","1680.435000002035","","","","37","","","","key","16.66597499999989","960","484.5","true","1","129","5.033164800000001","8","1","-1","","","","","","","","","","","","",""
"psychophysics","156","361224","0.0-12.0-0.27","609d5ecd21db56885ade1227","609a8bf73b2ac84e2732f618","609d71184da6702335451ddb","10.204999998677522","","","","39","","","","key","16.666300000000046","960","484.5","true","1","134.0331648","5.033164800000001","8","-1","1","","","","","","","","","","","","",""
"psychophysics","157","362272","0.0-12.0-0.28","609d5ecd21db56885ade1227","609a8bf73b2ac84e2732f618","609d71184da6702335451ddb","46.81499999423977","","","","37","","","","key","16.66298387096744","960","484.5","true","-1","134.0331648","4.0265318400000005","9","-1","-1","","","","","","","","","","","","",""
"psychophysics","158","364222","0.0-12.0-0.29","609d5ecd21db56885ade1227","609a8bf73b2ac84e2732f618","609d71184da6702335451ddb","948.5199999980978","","","","39","","","","key","16.666482758620486","960","484.5","true","1","130.00663296000002","4.0265318400000005","9","-1","-1","","","","","","","","","","","","",""
"psychophysics","159","366078","0.0-12.0-0.30","609d5ecd21db56885ade1227","609a8bf73b2ac84e2732f618","609d71184da6702335451ddb","854.1949999998906","","","","37","","","","key","16.663136363636426","960","484.5","true","-1","130.00663296000002","4.0265318400000005","9","-1","-1","","","","","","","","","","","","",""
"psychophysics","160","367606","0.0-12.0-0.31","609d5ecd21db56885ade1227","609a8bf73b2ac84e2732f618","609d71184da6702335451ddb","526.9049999988056","","","","37","","","","key","16.665153846153633","960","484.5","true","1","129","3.2212254720000004","10","1","-1","","","","","","","","","","","","",""
"psychophysics","161","368799","0.0-12.0-0.32","609d5ecd21db56885ade1227","609a8bf73b2ac84e2732f618","609d71184da6702335451ddb","192.4150000049849","","","","37","","","","key","16.666271428571783","960","484.5","true","-1","132.22122547200001","3.2212254720000004","10","-1","1","","","","","","","","","","","","",""
"psychophysics","162","370552","0.0-12.0-0.33","609d5ecd21db56885ade1227","609a8bf73b2ac84e2732f618","609d71184da6702335451ddb","751.2500000011642","","","","39","","","","key","16.668199999999654","960","484.5","true","-1","132.22122547200001","2.5769803776000004","11","1","-1","","","","","","","","","","","","",""
"psychophysics","163","371618","0.0-12.0-0.34","609d5ecd21db56885ade1227","609a8bf73b2ac84e2732f618","609d71184da6702335451ddb","64.06499999866355","","","","37","","","","key","16.666079365080112","960","484.5","true","-1","134.7982058496","2.5769803776000004","11","-1","1","","","","","","","","","","","","",""
"psychophysics","164","372797","0.0-12.0-0.35","609d5ecd21db56885ade1227","609a8bf73b2ac84e2732f618","609d71184da6702335451ddb","176.29500000475673","","","","37","","","","key","16.665855072464023","960","484.5","true","-1","134.7982058496","2.0615843020800004","12","-1","-1","","","","","","","","","","","","",""
"psychophysics","165","374026","0.0-12.0-0.36","609d5ecd21db56885ade1227","609a8bf73b2ac84e2732f618","609d71184da6702335451ddb","228.13500000484055","","","","39","","","","key","16.66457534246609","960","484.5","true","1","132.73662154752","2.0615843020800004","12","-1","-1","","","","","","","","","","","","",""
"psychophysics","166","375056","0.0-12.0-0.37","609d5ecd21db56885ade1227","609a8bf73b2ac84e2732f618","609d71184da6702335451ddb","28.63999999681255","","","","39","","","","key","16.66739344262312","960","484.5","true","1","132.73662154752","2.0615843020800004","12","-1","-1","","","","","","","","","","","","",""
"psychophysics","167","376748","0.0-12.0-0.38","609d5ecd21db56885ade1227","609a8bf73b2ac84e2732f618","609d71184da6702335451ddb","690.2600000030361","","","","39","","","","key","16.666020000000135","960","484.5","true","1","130.67503724544","2.0615843020800004","12","-1","-1","","","","","","","","","","","","",""
"psychophysics","168","378256","0.0-12.0-0.39","609d5ecd21db56885ade1227","609a8bf73b2ac84e2732f618","609d71184da6702335451ddb","506.7499999931897","","","","39","","","","key","16.669511111111042","960","484.5","true","1","130.67503724544","2.0615843020800004","12","-1","-1","","","","","","","","","","","","",""
"html-keyboard-response","169","379749","0.0-13.0","609d5ecd21db56885ade1227","609a8bf73b2ac84e2732f618","609d71184da6702335451ddb","1492.210000003979","<p>Well Done !</p><p>Prepare for a new block.</p><p>DON'T EXIT THE FULL SCREEN MODE</p><p>Press the Spacebar to start.</p>","","","32","","","","","","","","","","","","","","","true","131.998149316608","","","","","","","","","","",""
"html-keyboard-response","170","379863","0.0-14.0","609d5ecd21db56885ade1227","609a8bf73b2ac84e2732f618","609d71184da6702335451ddb","null","","","","null","","","","","","","","","","","","","","","","","131.9588717984918","true","135.9177435969836","","","","","","","",""
"instructions","171","421254","0.0-15.0","609d5ecd21db56885ade1227","609a8bf73b2ac84e2732f618","609d71184da6702335451ddb","41395.77999999892","","","","","","","[{""page_index"":0,""viewing_time"":25024.6549999938},{""page_index"":1,""viewing_time"":3580.144999999902},{""page_index"":0,""viewing_time"":4582.464999999502},{""page_index"":1,""viewing_time"":1531.7700000014156},{""page_index"":2,""viewing_time"":6676.500000001397}]","","","","","","","","","","","","","","","","","","","","","","","",""
"psychophysics","172","424458","0.0-16.0-0.0","609d5ecd21db56885ade1227","609a8bf73b2ac84e2732f618","609d71184da6702335451ddb","null","","","","null","","","","key","16.66838028169037","960","484.5","","","","","","","","","","","","","","","","","","","",""
"psychophysics","173","424960","0.0-16.0-1.0","609d5ecd21db56885ade1227","609a8bf73b2ac84e2732f618","609d71184da6702335451ddb","null","","","","null","","","","key","16.67406666666502","960","484.5","","","","","","","","","","","","","136","-1","2","false","","","",""
"psychophysics","174","426431","0.0-16.0-2.0","609d5ecd21db56885ade1227","609a8bf73b2ac84e2732f618","609d71184da6702335451ddb","1468.1950000012876","","","","90","","","","key","16.666540229885072","960","484.5","","","","","","","","","","","","","","","","","","","",""
"psychophysics","175","427459","0.0-16.0-0.1","609d5ecd21db56885ade1227","609a8bf73b2ac84e2732f618","609d71184da6702335451ddb","null","","","","null","","","","key","16.66553333333286","960","484.5","","","","","","","","","","","","","","","","","","","",""
"psychophysics","176","427960","0.0-16.0-1.1","609d5ecd21db56885ade1227","609a8bf73b2ac84e2732f618","609d71184da6702335451ddb","null","","","","null","","","","key","16.665833333332557","960","484.5","","","","","","","","","","","","","136","1","0","false","","","",""
"psychophysics","177","429271","0.0-16.0-2.1","609d5ecd21db56885ade1227","609a8bf73b2ac84e2732f618","609d71184da6702335451ddb","1308.035000001837","","","","90","","","","key","16.665675324675107","960","484.5","","","","","","","","","","","","","","","","","","","",""
"psychophysics","178","429821","0.0-16.0-0.2","609d5ecd21db56885ade1227","609a8bf73b2ac84e2732f618","609d71184da6702335451ddb","null","","","","null","","","","key","16.672625000001062","960","484.5","","","","","","","","","","","","","","","","","","","",""
"psychophysics","179","430323","0.0-16.0-1.2","609d5ecd21db56885ade1227","609a8bf73b2ac84e2732f618","609d71184da6702335451ddb","null","","","","null","","","","key","16.66510344827588","960","484.5","","","","","","","","","","","","","136","-1","6","false","","","",""
"psychophysics","180","430761","0.0-16.0-2.2","609d5ecd21db56885ade1227","609a8bf73b2ac84e2732f618","609d71184da6702335451ddb","433.87999999686144","","","","77","","","","key","16.677769230768227","960","484.5","","","","","","","","","","","","","","","","","","","",""
"psychophysics","181","431343","0.0-16.0-0.3","609d5ecd21db56885ade1227","609a8bf73b2ac84e2732f618","609d71184da6702335451ddb","null","","","","null","","","","key","16.66279411764802","960","484.5","","","","","","","","","","","","","","","","","","","",""
"psychophysics","182","431844","0.0-16.0-1.3","609d5ecd21db56885ade1227","609a8bf73b2ac84e2732f618","609d71184da6702335451ddb","null","","","","null","","","","key","16.665172413794387","960","484.5","","","","","","","","","","","","","136","-1","0","false","","","",""
"psychophysics","183","432154","0.0-16.0-2.3","609d5ecd21db56885ade1227","609a8bf73b2ac84e2732f618","609d71184da6702335451ddb","308.0899999986286","","","","77","","","","key","16.665882352938162","960","484.5","","","","","","","","","","","","","","","","","","","",""
"psychophysics","184","433099","0.0-16.0-0.4","609d5ecd21db56885ade1227","609a8bf73b2ac84e2732f618","609d71184da6702335451ddb","null","","","","null","","","","key","16.666232142857293","960","484.5","","","","","","","","","","","","","","","","","","","",""
"psychophysics","185","433600","0.0-16.0-1.4","609d5ecd21db56885ade1227","609a8bf73b2ac84e2732f618","609d71184da6702335451ddb","null","","","","null","","","","key","16.664310344828067","960","484.5","","","","","","","","","","","","","136","-1","3","false","","","",""
"psychophysics","186","433973","0.0-16.0-2.4","609d5ecd21db56885ade1227","609a8bf73b2ac84e2732f618","609d71184da6702335451ddb","370.32499999622814","","","","77","","","","key","16.675142857143545","960","484.5","","","","","","","","","","","","","","","","","","","",""
"psychophysics","187","435034","0.0-16.0-0.5","609d5ecd21db56885ade1227","609a8bf73b2ac84e2732f618","609d71184da6702335451ddb","null","","","","null","","","","key","16.66693650793639","960","484.5","","","","","","","","","","","","","","","","","","","",""
"psychophysics","188","435535","0.0-16.0-1.5","609d5ecd21db56885ade1227","609a8bf73b2ac84e2732f618","609d71184da6702335451ddb","null","","","","null","","","","key","16.667103448276535","960","484.5","","","","","","","","","","","","","136","1","2","false","","","",""
"psychophysics","189","436588","0.0-16.0-2.5","609d5ecd21db56885ade1227","609a8bf73b2ac84e2732f618","609d71184da6702335451ddb","1051.2499999967986","","","","77","","","","key","16.66620967742018","960","484.5","","","","","","","","","","","","","","","","","","","",""
"psychophysics","190","437315","0.0-16.0-0.6","609d5ecd21db56885ade1227","609a8bf73b2ac84e2732f618","609d71184da6702335451ddb","null","","","","null","","","","key","16.66709302325576","960","484.5","","","","","","","","","","","","","","","","","","","",""
"psychophysics","191","437817","0.0-16.0-1.6","609d5ecd21db56885ade1227","609a8bf73b2ac84e2732f618","609d71184da6702335451ddb","null","","","","null","","","","key","16.665827586207186","960","484.5","","","","","","","","","","","","","136","-1","4","false","","","",""
"psychophysics","192","438014","0.0-16.0-2.6","609d5ecd21db56885ade1227","609a8bf73b2ac84e2732f618","609d71184da6702335451ddb","194.97499999852153","","","","77","","","","key","16.668818181819834","960","484.5","","","","","","","","","","","","","","","","","","","",""
"psychophysics","193","439332","0.0-16.0-0.7","609d5ecd21db56885ade1227","609a8bf73b2ac84e2732f618","609d71184da6702335451ddb","null","","","","null","","","","key","16.666615384615188","960","484.5","","","","","","","","","","","","","","","","","","","",""
"psychophysics","194","439833","0.0-16.0-1.7","609d5ecd21db56885ade1227","609a8bf73b2ac84e2732f618","609d71184da6702335451ddb","null","","","","null","","","","key","16.660172413791738","960","484.5","","","","","","","","","","","","","136","1","4","false","","","",""
"psychophysics","195","440083","0.0-16.0-2.7","609d5ecd21db56885ade1227","609a8bf73b2ac84e2732f618","609d71184da6702335451ddb","247.5350000022445","","","","77","","","","key","16.665428571427974","960","484.5","","","","","","","","","","","","","","","","","","","",""
"psychophysics","196","441066","0.0-16.0-0.8","609d5ecd21db56885ade1227","609a8bf73b2ac84e2732f618","609d71184da6702335451ddb","null","","","","null","","","","key","16.667258620689672","960","484.5","","","","","","","","","","","","","","","","","","","",""
"psychophysics","197","441567","0.0-16.0-1.8","609d5ecd21db56885ade1227","609a8bf73b2ac84e2732f618","609d71184da6702335451ddb","null","","","","null","","","","key","16.66631034482672","960","484.5","","","","","","","","","","","","","136","1","3","false","","","",""
"psychophysics","198","444759","0.0-16.0-2.8","609d5ecd21db56885ade1227","609a8bf73b2ac84e2732f618","609d71184da6702335451ddb","3190.0650000025053","","","","77","","","","key","16.665842931937057","960","484.5","","","","","","","","","","","","","","","","","","","",""
"psychophysics","199","445340","0.0-16.0-0.9","609d5ecd21db56885ade1227","609a8bf73b2ac84e2732f618","609d71184da6702335451ddb","null","","","","null","","","","key","16.6593333333325","960","484.5","","","","","","","","","","","","","","","","","","","",""
"psychophysics","200","445842","0.0-16.0-1.9","609d5ecd21db56885ade1227","609a8bf73b2ac84e2732f618","609d71184da6702335451ddb","null","","","","null","","","","key","16.674066666666963","960","484.5","","","","","","","","","","","","","136","1","6","false","","","",""
"psychophysics","201","447898","0.0-16.0-2.9","609d5ecd21db56885ade1227","609a8bf73b2ac84e2732f618","609d71184da6702335451ddb","2053.169999999227","","","","77","","","","key","16.665565573770674","960","484.5","","","","","","","","","","","","","","","","","","","",""
"psychophysics","202","448713","0.0-16.0-0.10","609d5ecd21db56885ade1227","609a8bf73b2ac84e2732f618","609d71184da6702335451ddb","null","","","","null","","","","key","16.672854166667094","960","484.5","","","","","","","","","","","","","","","","","","","",""
"psychophysics","203","449215","0.0-16.0-1.10","609d5ecd21db56885ade1227","609a8bf73b2ac84e2732f618","609d71184da6702335451ddb","null","","","","null","","","","key","16.66189655172237","960","484.5","","","","","","","","","","","","","136","-1","5","false","","","",""
"psychophysics","204","451375","0.0-16.0-2.10","609d5ecd21db56885ade1227","609a8bf73b2ac84e2732f618","609d71184da6702335451ddb","2157.7550000001793","","","","77","","","","key","16.66575968992272","960","484.5","","","","","","","","","","","","","","","","","","","",""
"psychophysics","205","452238","0.0-16.0-0.11","609d5ecd21db56885ade1227","609a8bf73b2ac84e2732f618","609d71184da6702335451ddb","null","","","","null","","","","key","16.665280000000493","960","484.5","","","","","","","","","","","","","","","","","","","",""
"psychophysics","206","452740","0.0-16.0-1.11","609d5ecd21db56885ade1227","609a8bf73b2ac84e2732f618","609d71184da6702335451ddb","null","","","","null","","","","key","16.666172413793714","960","484.5","","","","","","","","","","","","","136","1","5","false","","","",""
"psychophysics","207","453170","0.0-16.0-2.11","609d5ecd21db56885ade1227","609a8bf73b2ac84e2732f618","609d71184da6702335451ddb","425.1650000005611","","","","77","","","","key","16.678559999999123","960","484.5","","","","","","","","","","","","","","","","","","","",""
"psychophysics","208","454548","0.0-16.0-0.12","609d5ecd21db56885ade1227","609a8bf73b2ac84e2732f618","609d71184da6702335451ddb","null","","","","null","","","","key","16.664841463414543","960","484.5","","","","","","","","","","","","","","","","","","","",""
"psychophysics","209","455049","0.0-16.0-1.12","609d5ecd21db56885ade1227","609a8bf73b2ac84e2732f618","609d71184da6702335451ddb","null","","","","null","","","","key","16.666206896551966","960","484.5","","","","","","","","","","","","","136","-1","6","false","","","",""
"psychophysics","210","457326","0.0-16.0-2.12","609d5ecd21db56885ade1227","609a8bf73b2ac84e2732f618","609d71184da6702335451ddb","2274.7850000014296","","","","90","","","","key","16.66546323529388","960","484.5","","","","","","","","","","","","","","","","","","","",""
"psychophysics","211","458273","0.0-16.0-0.13","609d5ecd21db56885ade1227","609a8bf73b2ac84e2732f618","609d71184da6702335451ddb","null","","","","null","","","","key","16.66309090909146","960","484.5","","","","","","","","","","","","","","","","","","","",""
"psychophysics","212","458775","0.0-16.0-1.13","609d5ecd21db56885ade1227","609a8bf73b2ac84e2732f618","609d71184da6702335451ddb","null","","","","null","","","","key","16.673300000000744","960","484.5","","","","","","","","","","","","","136","1","2","false","","","",""
"psychophysics","213","459172","0.0-16.0-2.13","609d5ecd21db56885ade1227","609a8bf73b2ac84e2732f618","609d71184da6702335451ddb","394.4100000007893","","","","90","","","","key","16.667636363637442","960","484.5","","","","","","","","","","","","","","","","","","","",""
"psychophysics","214","460052","0.0-16.0-0.14","609d5ecd21db56885ade1227","609a8bf73b2ac84e2732f618","609d71184da6702335451ddb","null","","","","null","","","","key","16.667384615384016","960","484.5","","","","","","","","","","","","","","","","","","","",""
"psychophysics","215","460554","0.0-16.0-1.14","609d5ecd21db56885ade1227","609a8bf73b2ac84e2732f618","609d71184da6702335451ddb","null","","","","null","","","","key","16.667896551724347","960","484.5","","","","","","","","","","","","","136","-1","5","false","","","",""
"psychophysics","216","460833","0.0-16.0-2.14","609d5ecd21db56885ade1227","609a8bf73b2ac84e2732f618","609d71184da6702335451ddb","276.7650000023423","","","","77","","","","key","16.664624999997613","960","484.5","","","","","","","","","","","","","","","","","","","",""
"psychophysics","217","462020","0.0-16.0-0.15","609d5ecd21db56885ade1227","609a8bf73b2ac84e2732f618","609d71184da6702335451ddb","null","","","","null","","","","key","16.665914285714305","960","484.5","","","","","","","","","","","","","","","","","","","",""
"psychophysics","218","462522","0.0-16.0-1.15","609d5ecd21db56885ade1227","609a8bf73b2ac84e2732f618","609d71184da6702335451ddb","null","","","","null","","","","key","16.66803448275936","960","484.5","","","","","","","","","","","","","136","-1","0","false","","","",""
"psychophysics","219","462929","0.0-16.0-2.15","609d5ecd21db56885ade1227","609a8bf73b2ac84e2732f618","609d71184da6702335451ddb","405.4199999955017","","","","90","","","","key","16.664499999998952","960","484.5","","","","","","","","","","","","","","","","","","","",""
"psychophysics","220","464359","0.0-16.0-0.16","609d5ecd21db56885ade1227","609a8bf73b2ac84e2732f618","609d71184da6702335451ddb","null","","","","null","","","","key","16.666329411764437","960","484.5","","","","","","","","","","","","","","","","","","","",""
"psychophysics","221","464861","0.0-16.0-1.16","609d5ecd21db56885ade1227","609a8bf73b2ac84e2732f618","609d71184da6702335451ddb","null","","","","null","","","","key","16.659517241378943","960","484.5","","","","","","","","","","","","","136","1","4","false","","","",""
"psychophysics","222","465268","0.0-16.0-2.16","609d5ecd21db56885ade1227","609a8bf73b2ac84e2732f618","609d71184da6702335451ddb","404.1450000004261","","","","90","","","","key","16.66443478260898","960","484.5","","","","","","","","","","","","","","","","","","","",""
"psychophysics","223","466035","0.0-16.0-0.17","609d5ecd21db56885ade1227","609a8bf73b2ac84e2732f618","609d71184da6702335451ddb","null","","","","null","","","","key","16.664644444444114","960","484.5","","","","","","","","","","","","","","","","","","","",""
"psychophysics","224","466536","0.0-16.0-1.17","609d5ecd21db56885ade1227","609a8bf73b2ac84e2732f618","609d71184da6702335451ddb","null","","","","null","","","","key","16.65655172413721","960","484.5","","","","","","","","","","","","","136","1","0","false","","","",""
"psychophysics","225","466829","0.0-16.0-2.17","609d5ecd21db56885ade1227","609a8bf73b2ac84e2732f618","609d71184da6702335451ddb","290.0149999986752","","","","90","","","","key","16.66458823529127","960","484.5","","","","","","","","","","","","","","","","","","","",""
"psychophysics","226","467680","0.0-16.0-0.18","609d5ecd21db56885ade1227","609a8bf73b2ac84e2732f618","609d71184da6702335451ddb","null","","","","null","","","","key","16.666220000000905","960","484.5","","","","","","","","","","","","","","","","","","","",""
"psychophysics","227","468181","0.0-16.0-1.18","609d5ecd21db56885ade1227","609a8bf73b2ac84e2732f618","609d71184da6702335451ddb","null","","","","null","","","","key","16.672000000000416","960","484.5","","","","","","","","","","","","","136","-1","3","false","","","",""
"psychophysics","228","468283","0.0-16.0-2.18","609d5ecd21db56885ade1227","609a8bf73b2ac84e2732f618","609d71184da6702335451ddb","99.40000000642613","","","","90","","","","key","16.686800000001675","960","484.5","","","","","","","","","","","","","","","","","","","",""
"psychophysics","229","469263","0.0-16.0-0.19","609d5ecd21db56885ade1227","609a8bf73b2ac84e2732f618","609d71184da6702335451ddb","null","","","","null","","","","key","16.67141379310312","960","484.5","","","","","","","","","","","","","","","","","","","",""
"psychophysics","230","469764","0.0-16.0-1.19","609d5ecd21db56885ade1227","609a8bf73b2ac84e2732f618","609d71184da6702335451ddb","null","","","","null","","","","key","16.665517241378907","960","484.5","","","","","","","","","","","","","136","1","6","false","","","",""
"psychophysics","231","470087","0.0-16.0-2.19","609d5ecd21db56885ade1227","609a8bf73b2ac84e2732f618","609d71184da6702335451ddb","320.35999999789055","","","","77","","","","key","16.663055555555427","960","484.5","","","","","","","","","","","","","","","","","","","",""
"psychophysics","232","470848","0.0-16.0-0.20","609d5ecd21db56885ade1227","609a8bf73b2ac84e2732f618","609d71184da6702335451ddb","null","","","","null","","","","key","16.67006666666647","960","484.5","","","","","","","","","","","","","","","","","","","",""
"psychophysics","233","471350","0.0-16.0-1.20","609d5ecd21db56885ade1227","609a8bf73b2ac84e2732f618","609d71184da6702335451ddb","null","","","","null","","","","key","16.665413793104154","960","484.5","","","","","","","","","","","","","136","1","3","false","","","",""
"psychophysics","234","472463","0.0-16.0-2.20","609d5ecd21db56885ade1227","609a8bf73b2ac84e2732f618","609d71184da6702335451ddb","1110.4649999979301","","","","90","","","","key","16.666523076923422","960","484.5","","","","","","","","","","","","","","","","","","","",""
"psychophysics","235","473940","0.0-16.0-0.21","609d5ecd21db56885ade1227","609a8bf73b2ac84e2732f618","609d71184da6702335451ddb","null","","","","null","","","","key","16.668261363636702","960","484.5","","","","","","","","","","","","","","","","","","","",""
"psychophysics","236","474441","0.0-16.0-1.21","609d5ecd21db56885ade1227","609a8bf73b2ac84e2732f618","609d71184da6702335451ddb","null","","","","null","","","","key","16.66480000000059","960","484.5","","","","","","","","","","","","","136","1","5","false","","","",""
"psychophysics","237","474736","0.0-16.0-2.21","609d5ecd21db56885ade1227","609a8bf73b2ac84e2732f618","609d71184da6702335451ddb","292.4550000025192","","","","90","","","","key","16.66931250000198","960","484.5","","","","","","","","","","","","","","","","","","","",""
"psychophysics","238","475431","0.0-16.0-0.22","609d5ecd21db56885ade1227","609a8bf73b2ac84e2732f618","609d71184da6702335451ddb","null","","","","null","","","","key","16.66621951219518","960","484.5","","","","","","","","","","","","","","","","","","","",""
"psychophysics","239","475933","0.0-16.0-1.22","609d5ecd21db56885ade1227","609a8bf73b2ac84e2732f618","609d71184da6702335451ddb","null","","","","null","","","","key","16.666172413791706","960","484.5","","","","","","","","","","","","","136","-1","2","false","","","",""
"psychophysics","240","476108","0.0-16.0-2.22","609d5ecd21db56885ade1227","609a8bf73b2ac84e2732f618","609d71184da6702335451ddb","173.23499999474734","","","","90","","","","key","16.65559999999823","960","484.5","","","","","","","","","","","","","","","","","","","",""
"psychophysics","241","476663","0.0-16.0-0.23","609d5ecd21db56885ade1227","609a8bf73b2ac84e2732f618","609d71184da6702335451ddb","null","","","","null","","","","key","16.67399999999907","960","484.5","","","","","","","","","","","","","","","","","","","",""
"psychophysics","242","477164","0.0-16.0-1.23","609d5ecd21db56885ade1227","609a8bf73b2ac84e2732f618","609d71184da6702335451ddb","null","","","","null","","","","key","16.665896551723687","960","484.5","","","","","","","","","","","","","136","-1","4","false","","","",""
"psychophysics","243","477334","0.0-16.0-2.23","609d5ecd21db56885ade1227","609a8bf73b2ac84e2732f618","609d71184da6702335451ddb","167.57000000507105","","","","90","","","","key","16.656111111107748","960","484.5","","","","","","","","","","","","","","","","","","","",""
"html-keyboard-response","244","479868","0.0-17.0","609d5ecd21db56885ade1227","609a8bf73b2ac84e2732f618","609d71184da6702335451ddb","2533.0399999947986","<p>Well Done !</p><p>Training Complete. Press the spacebar to start.</p><p>DON'T EXIT THE FULL SCREEN MODE</p>","","","32","","","","","","","","","","","","","","","","","","","","","","","","","","",""
"psychophysics","245","482898","0.0-18.0-0.0","609d5ecd21db56885ade1227","609a8bf73b2ac84e2732f618","609d71184da6702335451ddb","null","","","","null","","","","key","16.668311475409713","960","484.5","","","","","","","","","","","","","","","","","","","",""
"psychophysics","246","483400","0.0-18.0-1.0","609d5ecd21db56885ade1227","609a8bf73b2ac84e2732f618","609d71184da6702335451ddb","null","","","","null","","","","key","16.667310344826046","960","484.5","","","","","","","","","","","","","136","1","2","true","","","",""
"psychophysics","247","483870","0.0-18.0-2.0","609d5ecd21db56885ade1227","609a8bf73b2ac84e2732f618","609d71184da6702335451ddb","468.0500000031316","","","","90","","","","key","16.665037037037244","960","484.5","","","","","","","","","","","","","","","","","","","",""
"psychophysics","248","485007","0.0-18.0-0.1","609d5ecd21db56885ade1227","609a8bf73b2ac84e2732f618","609d71184da6702335451ddb","null","","","","null","","","","key","16.66947761194002","960","484.5","","","","","","","","","","","","","","","","","","","",""
"psychophysics","249","485508","0.0-18.0-1.1","609d5ecd21db56885ade1227","609a8bf73b2ac84e2732f618","609d71184da6702335451ddb","null","","","","null","","","","key","16.674793103448884","960","484.5","","","","","","","","","","","","","136","-1","5","true","","","",""
"psychophysics","250","485805","0.0-18.0-2.1","609d5ecd21db56885ade1227","609a8bf73b2ac84e2732f618","609d71184da6702335451ddb","294.3650000015623","","","","90","","","","key","16.64299999999896","960","484.5","","","","","","","","","","","","","","","","","","","",""
"psychophysics","251","487193","0.0-18.0-0.2","609d5ecd21db56885ade1227","609a8bf73b2ac84e2732f618","609d71184da6702335451ddb","null","","","","null","","","","key","16.66774390243908","960","484.5","","","","","","","","","","","","","","","","","","","",""
"psychophysics","252","487694","0.0-18.0-1.2","609d5ecd21db56885ade1227","609a8bf73b2ac84e2732f618","609d71184da6702335451ddb","null","","","","null","","","","key","16.674933333332106","960","484.5","","","","","","","","","","","","","136","1","6","true","","","",""
"psychophysics","253","487993","0.0-18.0-2.2","609d5ecd21db56885ade1227","609a8bf73b2ac84e2732f618","609d71184da6702335451ddb","294.70500000024913","","","","90","","","","key","16.658062499998778","960","484.5","","","","","","","","","","","","","","","","","","","",""
"psychophysics","254","488593","0.0-18.0-0.3","609d5ecd21db56885ade1227","609a8bf73b2ac84e2732f618","609d71184da6702335451ddb","null","","","","null","","","","key","16.673114285714526","960","484.5","","","","","","","","","","","","","","","","","","","",""
"psychophysics","255","489094","0.0-18.0-1.3","609d5ecd21db56885ade1227","609a8bf73b2ac84e2732f618","609d71184da6702335451ddb","null","","","","null","","","","key","16.67599999999899","960","484.5","","","","","","","","","","","","","136","-1","3","true","","","",""
"psychophysics","256","489308","0.0-18.0-2.3","609d5ecd21db56885ade1227","609a8bf73b2ac84e2732f618","609d71184da6702335451ddb","210.87500000430737","","","","90","","","","key","16.649636363637082","960","484.5","","","","","","","","","","","","","","","","","","","",""
"psychophysics","257","490581","0.0-18.0-0.4","609d5ecd21db56885ade1227","609a8bf73b2ac84e2732f618","609d71184da6702335451ddb","null","","","","null","","","","key","16.665605263158028","960","484.5","","","","","","","","","","","","","","","","","","","",""
"psychophysics","258","491082","0.0-18.0-1.4","609d5ecd21db56885ade1227","609a8bf73b2ac84e2732f618","609d71184da6702335451ddb","null","","","","null","","","","key","16.66403448276005","960","484.5","","","","","","","","","","","","","136","1","5","true","","","",""
"psychophysics","259","491485","0.0-18.0-2.4","609d5ecd21db56885ade1227","609a8bf73b2ac84e2732f618","609d71184da6702335451ddb","400.7449999990058","","","","90","","","","key","16.6723043478256","960","484.5","","","","","","","","","","","","","","","","","","","",""
"psychophysics","260","492376","0.0-18.0-0.5","609d5ecd21db56885ade1227","609a8bf73b2ac84e2732f618","609d71184da6702335451ddb","null","","","","null","","","","key","16.66523076923085","960","484.5","","","","","","","","","","","","","","","","","","","",""
"psychophysics","261","492877","0.0-18.0-1.5","609d5ecd21db56885ade1227","609a8bf73b2ac84e2732f618","609d71184da6702335451ddb","null","","","","null","","","","key","16.674206896550583","960","484.5","","","","","","","","","","","","","136","-1","2","true","","","",""
"psychophysics","262","493328","0.0-18.0-2.5","609d5ecd21db56885ade1227","609a8bf73b2ac84e2732f618","609d71184da6702335451ddb","449.13000000087777","","","","90","","","","key","16.66840740740601","960","484.5","","","","","","","","","","","","","","","","","","","",""
"psychophysics","263","494253","0.0-18.0-0.6","609d5ecd21db56885ade1227","609a8bf73b2ac84e2732f618","609d71184da6702335451ddb","null","","","","null","","","","key","16.66642592592527","960","484.5","","","","","","","","","","","","","","","","","","","",""
"psychophysics","264","494755","0.0-18.0-1.6","609d5ecd21db56885ade1227","609a8bf73b2ac84e2732f618","609d71184da6702335451ddb","null","","","","null","","","","key","16.663999999999792","960","484.5","","","","","","","","","","","","","136","-1","4","true","","","",""
"psychophysics","265","495173","0.0-18.0-2.6","609d5ecd21db56885ade1227","609a8bf73b2ac84e2732f618","609d71184da6702335451ddb","415.78499999741325","","","","90","","","","key","16.657583333333605","960","484.5","","","","","","","","","","","","","","","","","","","",""
"psychophysics","266","496123","0.0-18.0-0.7","609d5ecd21db56885ade1227","609a8bf73b2ac84e2732f618","609d71184da6702335451ddb","null","","","","null","","","","key","16.670125000000034","960","484.5","","","","","","","","","","","","","","","","","","","",""
"psychophysics","267","496624","0.0-18.0-1.7","609d5ecd21db56885ade1227","609a8bf73b2ac84e2732f618","609d71184da6702335451ddb","null","","","","null","","","","key","16.664172413793054","960","484.5","","","","","","","","","","","","","136","1","0","true","","","",""
"psychophysics","268","497025","0.0-18.0-2.7","609d5ecd21db56885ade1227","609a8bf73b2ac84e2732f618","609d71184da6702335451ddb","397.91500000137603","","","","90","","","","key","16.658782608695734","960","484.5","","","","","","","","","","","","","","","","","","","",""
"psychophysics","269","498277","0.0-18.0-0.8","609d5ecd21db56885ade1227","609a8bf73b2ac84e2732f618","609d71184da6702335451ddb","null","","","","null","","","","key","16.662626666666473","960","484.5","","","","","","","","","","","","","","","","","","","",""
"psychophysics","270","498780","0.0-18.0-1.8","609d5ecd21db56885ade1227","609a8bf73b2ac84e2732f618","609d71184da6702335451ddb","null","","","","null","","","","key","16.65865517241463","960","484.5","","","","","","","","","","","","","136","1","3","true","","","",""
"psychophysics","271","499202","0.0-18.0-2.8","609d5ecd21db56885ade1227","609a8bf73b2ac84e2732f618","609d71184da6702335451ddb","419.29499999969266","","","","90","","","","key","16.665291666666842","960","484.5","","","","","","","","","","","","","","","","","","","",""
"psychophysics","272","500336","0.0-18.0-0.9","609d5ecd21db56885ade1227","609a8bf73b2ac84e2732f618","609d71184da6702335451ddb","null","","","","null","","","","key","16.665656716417722","960","484.5","","","","","","","","","","","","","","","","","","","",""
"psychophysics","273","500838","0.0-18.0-1.9","609d5ecd21db56885ade1227","609a8bf73b2ac84e2732f618","609d71184da6702335451ddb","null","","","","null","","","","key","16.664655172414594","960","484.5","","","","","","","","","","","","","136","1","4","true","","","",""
"psychophysics","274","501156","0.0-18.0-2.9","609d5ecd21db56885ade1227","609a8bf73b2ac84e2732f618","609d71184da6702335451ddb","315.82000000344124","","","","90","","","","key","16.67027777777791","960","484.5","","","","","","","","","","","","","","","","","","","",""
"psychophysics","275","502564","0.0-18.0-0.10","609d5ecd21db56885ade1227","609a8bf73b2ac84e2732f618","609d71184da6702335451ddb","null","","","","null","","","","key","16.665869047619275","960","484.5","","","","","","","","","","","","","","","","","","","",""
"psychophysics","276","503065","0.0-18.0-1.10","609d5ecd21db56885ade1227","609a8bf73b2ac84e2732f618","609d71184da6702335451ddb","null","","","","null","","","","key","16.66117241379307","960","484.5","","","","","","","","","","","","","136","-1","6","true","","","",""
"psychophysics","277","503426","0.0-18.0-2.10","609d5ecd21db56885ade1227","609a8bf73b2ac84e2732f618","609d71184da6702335451ddb","358.3599999983562","","","","90","","","","key","16.66085000000021","960","484.5","","","","","","","","","","","","","","","","","","","",""
"psychophysics","278","504337","0.0-18.0-0.11","609d5ecd21db56885ade1227","609a8bf73b2ac84e2732f618","609d71184da6702335451ddb","null","","","","null","","","","key","16.670555555555943","960","484.5","","","","","","","","","","","","","","","","","","","",""
"psychophysics","279","504839","0.0-18.0-1.11","609d5ecd21db56885ade1227","609a8bf73b2ac84e2732f618","609d71184da6702335451ddb","null","","","","null","","","","key","16.66555172413716","960","484.5","","","","","","","","","","","","","136","-1","0","true","","","",""
"psychophysics","280","505416","0.0-18.0-2.11","609d5ecd21db56885ade1227","609a8bf73b2ac84e2732f618","609d71184da6702335451ddb","573.9749999993364","","","","90","","","","key","16.668676470589535","960","484.5","","","","","","","","","","","","","","","","","","","",""
"psychophysics","281","506068","0.0-18.0-0.12","609d5ecd21db56885ade1227","609a8bf73b2ac84e2732f618","609d71184da6702335451ddb","null","","","","null","","","","key","16.668842105262325","960","484.5","","","","","","","","","","","","","","","","","","","",""
"psychophysics","282","506570","0.0-18.0-1.12","609d5ecd21db56885ade1227","609a8bf73b2ac84e2732f618","609d71184da6702335451ddb","null","","","","null","","","","key","16.667103448274528","960","484.5","","","","","","","","","","","","","136","-1","4","true","","","",""
"psychophysics","283","507153","0.0-18.0-2.12","609d5ecd21db56885ade1227","609a8bf73b2ac84e2732f618","609d71184da6702335451ddb","580.9049999952549","","","","90","","","","key","16.666029411765255","960","484.5","","","","","","","","","","","","","","","","","","","",""
"psychophysics","284","508135","0.0-18.0-0.13","609d5ecd21db56885ade1227","609a8bf73b2ac84e2732f618","609d71184da6702335451ddb","null","","","","null","","","","key","16.6647241379311","960","484.5","","","","","","","","","","","","","","","","","","","",""
"psychophysics","285","508637","0.0-18.0-1.13","609d5ecd21db56885ade1227","609a8bf73b2ac84e2732f618","609d71184da6702335451ddb","null","","","","null","","","","key","16.66586206896544","960","484.5","","","","","","","","","","","","","136","-1","3","true","","","",""
"psychophysics","286","509027","0.0-18.0-2.13","609d5ecd21db56885ade1227","609a8bf73b2ac84e2732f618","609d71184da6702335451ddb","388.04499999969266","","","","90","","","","key","16.65791304348006","960","484.5","","","","","","","","","","","","","","","","","","","",""
"psychophysics","287","510356","0.0-18.0-0.14","609d5ecd21db56885ade1227","609a8bf73b2ac84e2732f618","609d71184da6702335451ddb","null","","","","null","","","","key","16.667833333333526","960","484.5","","","","","","","","","","","","","","","","","","","",""
"psychophysics","288","510858","0.0-18.0-1.14","609d5ecd21db56885ade1227","609a8bf73b2ac84e2732f618","609d71184da6702335451ddb","null","","","","null","","","","key","16.666379310345228","960","484.5","","","","","","","","","","","","","136","1","2","true","","","",""
"psychophysics","289","511244","0.0-18.0-2.14","609d5ecd21db56885ade1227","609a8bf73b2ac84e2732f618","609d71184da6702335451ddb","382.6400000034482","","","","90","","","","key","16.663739130434923","960","484.5","","","","","","","","","","","","","","","","","","","",""
"psychophysics","290","512291","0.0-18.0-0.15","609d5ecd21db56885ade1227","609a8bf73b2ac84e2732f618","609d71184da6702335451ddb","null","","","","null","","","","key","16.666721311475143","960","484.5","","","","","","","","","","","","","","","","","","","",""
"psychophysics","291","512792","0.0-18.0-1.15","609d5ecd21db56885ade1227","609a8bf73b2ac84e2732f618","609d71184da6702335451ddb","null","","","","null","","","","key","16.674448275862357","960","484.5","","","","","","","","","","","","","136","1","3","true","","","",""
"psychophysics","292","513317","0.0-18.0-2.15","609d5ecd21db56885ade1227","609a8bf73b2ac84e2732f618","609d71184da6702335451ddb","523.2700000051409","","","","90","","","","key","16.665580645162283","960","484.5","","","","","","","","","","","","","","","","","","","",""
"psychophysics","293","514080","0.0-18.0-0.16","609d5ecd21db56885ade1227","609a8bf73b2ac84e2732f618","609d71184da6702335451ddb","null","","","","null","","","","key","16.662088888890057","960","484.5","","","","","","","","","","","","","","","","","","","",""
"psychophysics","294","514582","0.0-18.0-1.16","609d5ecd21db56885ade1227","609a8bf73b2ac84e2732f618","609d71184da6702335451ddb","null","","","","null","","","","key","16.667517241379567","960","484.5","","","","","","","","","","","","","136","-1","6","true","","","",""
"psychophysics","295","515081","0.0-18.0-2.16","609d5ecd21db56885ade1227","609a8bf73b2ac84e2732f618","609d71184da6702335451ddb","496.93000000115717","","","","90","","","","key","16.653482758620722","960","484.5","","","","","","","","","","","","","","","","","","","",""
"psychophysics","296","515772","0.0-18.0-0.17","609d5ecd21db56885ade1227","609a8bf73b2ac84e2732f618","609d71184da6702335451ddb","null","","","","null","","","","key","16.674274999999035","960","484.5","","","","","","","","","","","","","","","","","","","",""
"psychophysics","297","516274","0.0-18.0-1.17","609d5ecd21db56885ade1227","609a8bf73b2ac84e2732f618","609d71184da6702335451ddb","null","","","","null","","","","key","16.66434482758632","960","484.5","","","","","","","","","","","","","136","-1","0","true","","","",""
"psychophysics","298","516974","0.0-18.0-2.17","609d5ecd21db56885ade1227","609a8bf73b2ac84e2732f618","609d71184da6702335451ddb","696.9249999965541","","","","90","","","","key","16.665536585364706","960","484.5","","","","","","","","","","","","","","","","","","","",""
"psychophysics","299","517948","0.0-18.0-0.18","609d5ecd21db56885ade1227","609a8bf73b2ac84e2732f618","609d71184da6702335451ddb","null","","","","null","","","","key","16.66513793103413","960","484.5","","","","","","","","","","","","","","","","","","","",""
"psychophysics","300","518450","0.0-18.0-1.18","609d5ecd21db56885ade1227","609a8bf73b2ac84e2732f618","609d71184da6702335451ddb","null","","","","null","","","","key","16.659310344827425","960","484.5","","","","","","","","","","","","","136","1","5","true","","","",""
"psychophysics","301","518961","0.0-18.0-2.18","609d5ecd21db56885ade1227","609a8bf73b2ac84e2732f618","609d71184da6702335451ddb","508.1849999987753","","","","90","","","","key","16.67213333333299","960","484.5","","","","","","","","","","","","","","","","","","","",""
"psychophysics","302","520459","0.0-18.0-0.19","609d5ecd21db56885ade1227","609a8bf73b2ac84e2732f618","609d71184da6702335451ddb","null","","","","null","","","","key","16.666920454545604","960","484.5","","","","","","","","","","","","","","","","","","","",""
"psychophysics","303","520961","0.0-18.0-1.19","609d5ecd21db56885ade1227","609a8bf73b2ac84e2732f618","609d71184da6702335451ddb","null","","","","null","","","","key","16.662566666665953","960","484.5","","","","","","","","","","","","","136","1","4","true","","","",""
"psychophysics","304","521321","0.0-18.0-2.19","609d5ecd21db56885ade1227","609a8bf73b2ac84e2732f618","609d71184da6702335451ddb","358.12499999883585","","","","90","","","","key","16.66620000000112","960","484.5","","","","","","","","","","","","","","","","","","","",""
"psychophysics","305","522752","0.0-18.0-0.20","609d5ecd21db56885ade1227","609a8bf73b2ac84e2732f618","609d71184da6702335451ddb","null","","","","null","","","","key","16.66525882352965","960","484.5","","","","","","","","","","","","","","","","","","","",""
"psychophysics","306","523253","0.0-18.0-1.20","609d5ecd21db56885ade1227","609a8bf73b2ac84e2732f618","609d71184da6702335451ddb","null","","","","null","","","","key","16.671413793104122","960","484.5","","","","","","","","","","","","","136","-1","2","true","","","",""
"psychophysics","307","523675","0.0-18.0-2.20","609d5ecd21db56885ade1227","609a8bf73b2ac84e2732f618","609d71184da6702335451ddb","419.08999999566004","","","","90","","","","key","16.663458333331317","960","484.5","","","","","","","","","","","","","","","","","","","",""
"psychophysics","308","524338","0.0-18.0-0.21","609d5ecd21db56885ade1227","609a8bf73b2ac84e2732f618","609d71184da6702335451ddb","null","","","","null","","","","key","16.671769230769804","960","484.5","","","","","","","","","","","","","","","","","","","",""
"psychophysics","309","524840","0.0-18.0-1.21","609d5ecd21db56885ade1227","609a8bf73b2ac84e2732f618","609d71184da6702335451ddb","null","","","","null","","","","key","16.66548275862066","960","484.5","","","","","","","","","","","","","136","1","6","true","","","",""
"psychophysics","310","525464","0.0-18.0-2.21","609d5ecd21db56885ade1227","609a8bf73b2ac84e2732f618","609d71184da6702335451ddb","622.2750000015367","","","","90","","","","key","16.664108108106145","960","484.5","","","","","","","","","","","","","","","","","","","",""
"psychophysics","311","526604","0.0-18.0-0.22","609d5ecd21db56885ade1227","609a8bf73b2ac84e2732f618","609d71184da6702335451ddb","null","","","","null","","","","key","16.6616716417901","960","484.5","","","","","","","","","","","","","","","","","","","",""
"psychophysics","312","527106","0.0-18.0-1.22","609d5ecd21db56885ade1227","609a8bf73b2ac84e2732f618","609d71184da6702335451ddb","null","","","","null","","","","key","16.666586206896746","960","484.5","","","","","","","","","","","","","136","1","0","true","","","",""
"psychophysics","313","527539","0.0-18.0-2.22","609d5ecd21db56885ade1227","609a8bf73b2ac84e2732f618","609d71184da6702335451ddb","430.88999999605585","","","","90","","","","key","16.674240000001156","960","484.5","","","","","","","","","","","","","","","","","","","",""
"psychophysics","314","529023","0.0-18.0-0.23","609d5ecd21db56885ade1227","609a8bf73b2ac84e2732f618","609d71184da6702335451ddb","null","","","","null","","","","key","16.669238636362767","960","484.5","","","","","","","","","","","","","","","","","","","",""
"psychophysics","315","529525","0.0-18.0-1.23","609d5ecd21db56885ade1227","609a8bf73b2ac84e2732f618","609d71184da6702335451ddb","null","","","","null","","","","key","16.66813793103612","960","484.5","","","","","","","","","","","","","136","-1","5","true","","","",""
"psychophysics","316","529928","0.0-18.0-2.23","609d5ecd21db56885ade1227","609a8bf73b2ac84e2732f618","609d71184da6702335451ddb","400.079999999376","","","","90","","","","key","16.674000000003918","960","484.5","","","","","","","","","","","","","","","","","","","",""
"psychophysics","317","530938","0.0-18.0-0.24","609d5ecd21db56885ade1227","609a8bf73b2ac84e2732f618","609d71184da6702335451ddb","null","","","","null","","","","key","16.665966101695183","960","484.5","","","","","","","","","","","","","","","","","","","",""
"psychophysics","318","531440","0.0-18.0-1.24","609d5ecd21db56885ade1227","609a8bf73b2ac84e2732f618","609d71184da6702335451ddb","null","","","","null","","","","key","16.665896551723687","960","484.5","","","","","","","","","","","","","136","-1","3","true","","","",""
"psychophysics","319","532071","0.0-18.0-2.24","609d5ecd21db56885ade1227","609a8bf73b2ac84e2732f618","609d71184da6702335451ddb","629.2949999988778","","","","90","","","","key","16.667054054053576","960","484.5","","","","","","","","","","","","","","","","","","","",""
"psychophysics","320","532615","0.0-18.0-0.25","609d5ecd21db56885ade1227","609a8bf73b2ac84e2732f618","609d71184da6702335451ddb","null","","","","null","","","","key","16.66649999999936","960","484.5","","","","","","","","","","","","","","","","","","","",""
"psychophysics","321","533116","0.0-18.0-1.25","609d5ecd21db56885ade1227","609a8bf73b2ac84e2732f618","609d71184da6702335451ddb","null","","","","null","","","","key","16.672758620689976","960","484.5","","","","","","","","","","","","","136","1","3","true","","","",""
"psychophysics","322","533795","0.0-18.0-2.25","609d5ecd21db56885ade1227","609a8bf73b2ac84e2732f618","609d71184da6702335451ddb","676.2149999993853","","","","90","","","","key","16.672275000001537","960","484.5","","","","","","","","","","","","","","","","","","","",""
"psychophysics","323","535264","0.0-18.0-0.26","609d5ecd21db56885ade1227","609a8bf73b2ac84e2732f618","609d71184da6702335451ddb","null","","","","null","","","","key","16.66428735632123","960","484.5","","","","","","","","","","","","","","","","","","","",""
"psychophysics","324","535766","0.0-18.0-1.26","609d5ecd21db56885ade1227","609a8bf73b2ac84e2732f618","609d71184da6702335451ddb","null","","","","null","","","","key","16.67134482758762","960","484.5","","","","","","","","","","","","","136","-1","0","true","","","",""
"psychophysics","325","536264","0.0-18.0-2.26","609d5ecd21db56885ade1227","609a8bf73b2ac84e2732f618","609d71184da6702335451ddb","495.1100000034785","","","","90","","","","key","16.662206896548643","960","484.5","","","","","","","","","","","","","","","","","","","",""
"psychophysics","326","537603","0.0-18.0-0.27","609d5ecd21db56885ade1227","609a8bf73b2ac84e2732f618","609d71184da6702335451ddb","null","","","","null","","","","key","16.664924050632663","960","484.5","","","","","","","","","","","","","","","","","","","",""
"psychophysics","327","538105","0.0-18.0-1.27","609d5ecd21db56885ade1227","609a8bf73b2ac84e2732f618","609d71184da6702335451ddb","null","","","","null","","","","key","16.65382758620725","960","484.5","","","","","","","","","","","","","136","1","5","true","","","",""
"psychophysics","328","538418","0.0-18.0-2.27","609d5ecd21db56885ade1227","609a8bf73b2ac84e2732f618","609d71184da6702335451ddb","310.49499999789987","","","","90","","","","key","16.68094444444998","960","484.5","","","","","","","","","","","","","","","","","","","",""
