"trial_type","trial_index","time_elapsed","internal_node_id","PROLIFIC_PID","STUDY_ID","SESSION_ID","rt","stimulus","button_pressed","success","key_press","responses","isData","view_history","response_type","avg_frame_time","center_x","center_y","isSC","stim_side","trial_luminance","step_size","nReversal","correct","prev_ans","isThreshold","SC_threshold","final_threshold","isLuminance","FF_luminance","luminance","stimSide","ISInt","isFF","question_order","isSPQ","isCAPS","isAQ"
"pavlovia","0","100","0.0-0.0","5c10724111fe9a00013cd815","609a8bf73b2ac84e2732f618","609d7ea5111c0a03b5d915c1","","","","","","","","","","","","","","","","","","","","","","","","","","","","","","","",""
"html-button-response","1","8109","0.0-1.0","5c10724111fe9a00013cd815","609a8bf73b2ac84e2732f618","609d7ea5111c0a03b5d915c1","8000","<div style='background-color: white; width:60%; margin: auto; padding: 50px; text-align: justify; text-justify: inter-word; margin-bottom: 20px;'><h1 style='text-align: center;'>Consent Form</h1><p>Please read this consent form carefully before deciding whether you would like to participate in this study. You have to be 18 years old or older to participate to this study.</p><p style='text-decoration: underline;'>Participation is voluntary:</p><p>It is your choice whether or not to participate in this research. If you choose to participate, you may change your mind and leave the study at any time. Refusal to participate or stopping your participation will involve no penalty or loss of benefits to which you are otherwise entitled.</p><p style='text-decoration: underline;'>Purpose of the Study:</p><p>To understand the mechanisms underlying human perception.</p><p style='text-decoration: underline;'>What you will do in this study:</p><p>You will be presented with a series of visual images and then you will press buttons on the keyboard of your computer to respond to simple questions about the images (e.g. Were one or two images presented?). In addition, you will be asked to complete a questionnaire concerning your beliefs and everyday mental and perceptual experiences.'</p><p style='text-decoration: underline;'> Time Required:</p><p>The study will take 40 minutes to complete. </p><p style='text-decoration: underline;'>Risks:</p><p>There are no anticipated risks associated with participating in this study that are beyond those experienced in everyday life. </p><p style='text-decoration: underline;'>Benefits:</p><p>There are no benefits to you in participating in the study. However, this study may lead to a better understanding of how different kinds of visual information are used.</p><p style='text-decoration: underline;'>Compensation:</p><p>You will be paid US$6.6/hour. </p><p style='text-decoration: underline;'>Privacy and Confidentiality:</p><p>Your participation in this study will be anonymous. No personal information about your name or identity will be asked or recorded. This anonymous data will be stored for several years and may be used for a variety of research purposes. The overall results of the study may be published, or the data files may be shared with other researchers, but your identity will not be revealed in any way. The online services we are using for this study may temporarily store your data, but this data will be downloaded and then promptly deleted from those services.Your data will not be permanently associated with your name, IP address, or any other identifiable information (e.g., your information will only be connected to your payment, not to any of your responses), though they may be temporarily stored together before we download and separate them. Even so, no guarantee of internet survey security can be given because, although unlikely, transmissions can be intercepted and IP addresses can be identified. The anonymous data may be shared publicly (for example, in conjunction with a resulting academic publication).</p><p style='text-decoration: underline;'>Participation and Withdrawal:</p><p>Your participation in this study is completely voluntary. You may stop responding to the stimuli or stop answering questions if you so choose and without penalty by exiting the full screen mode, closing this tab of your browser or redirecting it to a different website.</p><p style='text-decoration: underline;'>Contact Info of the Researcher: </p><p>If you have questions about this study, or if you would like to talk to the research team, please contact David Melcher (david.melcher@nyu.edu, md5050@nyu.edu) at the Perception and Active Cognition Laboratory, New York University Abu Dhabi, Computational Research Building, Saadiyat Island, Abu Dhabi, UAE.This research has been reviewed by the New York University Abu Dhabi Institutional Review Board (NYUAD IRB). To contact about your rights in this research, for questions, suggestions, or complaints that are not addressed by the researchers, please email IRBnyuad@nyu.edu, or call the NYUAD IRB at +971 2 628 4313. </p></div>","0","","","","","","","","","","","","","","","","","","","","","","","","","","","","",""
"fullscreen","2","12540","0.0-2.0","5c10724111fe9a00013cd815","609a8bf73b2ac84e2732f618","609d7ea5111c0a03b5d915c1","","","","true","","","","","","","","","","","","","","","","","","","","","","","","","","","",""
"html-keyboard-response","3","22893","0.0-3.0","5c10724111fe9a00013cd815","609a8bf73b2ac84e2732f618","609d7ea5111c0a03b5d915c1","10340","<p>Welcome !</p><p>READ CAREFULLY THE FOLLOWING INDICATIONS:</p><p>From this moment you have ~40 minutes to complete the experiment.</p><p>During the experiment you will be prompted to take several breaks. Each break should not last longer than 2-3 minutes.</p><p>Make sure that your computer is plugged in and it's not running on battery power, even if the battery is already fully charged.</p><p>Turn off your phone and music, make sure that you are in a quiet room and that you will not be distracted for the next hour.</p><p>Failure to comply with the instructions and indications provided during the experiment will most likely result in the rejection of your data.<p>Press the spacebar to start.</p>","","","32","","","","","","","","","","","","","","","","","","","","","","","","","","",""
"survey-html-form","4","34142","0.0-4.0","5c10724111fe9a00013cd815","609a8bf73b2ac84e2732f618","609d7ea5111c0a03b5d915c1","11246","","","","","{""age"":""55"",""sex"":""F""}","true","","","","","","","","","","","","","","","","","","","","","","","","",""
"instructions","5","102779","0.0-5.0","5c10724111fe9a00013cd815","609a8bf73b2ac84e2732f618","609d7ea5111c0a03b5d915c1","68632","","","","","","","[{""page_index"":0,""viewing_time"":41632},{""page_index"":1,""viewing_time"":10347},{""page_index"":2,""viewing_time"":16653}]","","","","","","","","","","","","","","","","","","","","","","","",""
"psychophysics","6","111176","0.0-6.0-0.0","5c10724111fe9a00013cd815","609a8bf73b2ac84e2732f618","609d7ea5111c0a03b5d915c1","7385","","","","37","","","","key","22.82619178082195","800","393","true","1","180","30","0","1","","","","","","","","","","","","","",""
"psychophysics","7","113723","0.0-6.0-0.1","5c10724111fe9a00013cd815","609a8bf73b2ac84e2732f618","609d7ea5111c0a03b5d915c1","1506","","","","39","","","","key","30.474473684210494","800","393","true","1","210","30","0","-1","1","","","","","","","","","","","","",""
"psychophysics","8","115471","0.0-6.0-0.2","5c10724111fe9a00013cd815","609a8bf73b2ac84e2732f618","609d7ea5111c0a03b5d915c1","715","","","","37","","","","key","26.717241379310444","800","393","true","-1","210","24","1","-1","-1","","","","","","","","","","","","",""
"psychophysics","9","117172","0.0-6.0-0.3","5c10724111fe9a00013cd815","609a8bf73b2ac84e2732f618","609d7ea5111c0a03b5d915c1","690","","","","37","","","","key","27.31540983606566","800","393","true","-1","186","24","1","-1","-1","","","","","","","","","","","","",""
"psychophysics","10","118767","0.0-6.0-0.4","5c10724111fe9a00013cd815","609a8bf73b2ac84e2732f618","609d7ea5111c0a03b5d915c1","584","","","","37","","","","key","23.803174603174696","800","393","true","-1","186","24","1","-1","-1","","","","","","","","","","","","",""
"psychophysics","11","120633","0.0-6.0-0.5","5c10724111fe9a00013cd815","609a8bf73b2ac84e2732f618","609d7ea5111c0a03b5d915c1","863","","","","37","","","","key","25.335616438356166","800","393","true","-1","162","24","1","-1","-1","","","","","","","","","","","","",""
"psychophysics","12","122135","0.0-6.0-0.6","5c10724111fe9a00013cd815","609a8bf73b2ac84e2732f618","609d7ea5111c0a03b5d915c1","501","","","","39","","","","key","26.660000000000053","800","393","true","1","162","24","1","-1","-1","","","","","","","","","","","","",""
"psychophysics","13","123905","0.0-6.0-0.7","5c10724111fe9a00013cd815","609a8bf73b2ac84e2732f618","609d7ea5111c0a03b5d915c1","757","","","","39","","","","key","30.238518518518603","800","393","true","1","138","24","1","-1","-1","","","","","","","","","","","","",""
"psychophysics","14","126808","0.0-6.0-0.8","5c10724111fe9a00013cd815","609a8bf73b2ac84e2732f618","609d7ea5111c0a03b5d915c1","1891","","","","39","","","","key","24.021500000000014","800","393","true","1","138","24","1","-1","-1","","","","","","","","","","","","",""
"psychophysics","15","129623","0.0-6.0-0.9","5c10724111fe9a00013cd815","609a8bf73b2ac84e2732f618","609d7ea5111c0a03b5d915c1","1791","","","","39","","","","key","24.55543859649116","800","393","true","1","129","24","1","-1","-1","","","","","","","","","","","","",""
"psychophysics","16","132649","0.0-6.0-0.10","5c10724111fe9a00013cd815","609a8bf73b2ac84e2732f618","609d7ea5111c0a03b5d915c1","2019","","","","37","","","","key","28.237142857142803","800","393","true","-1","129","24","1","-1","-1","","","","","","","","","","","","",""
"psychophysics","17","135232","0.0-6.0-0.11","5c10724111fe9a00013cd815","609a8bf73b2ac84e2732f618","609d7ea5111c0a03b5d915c1","1573","","","","37","","","","key","30.560238095238066","800","393","true","-1","129","24","1","-1","-1","","","","","","","","","","","","",""
"psychophysics","18","137515","0.0-6.0-0.12","5c10724111fe9a00013cd815","609a8bf73b2ac84e2732f618","609d7ea5111c0a03b5d915c1","1272","","","","37","","","","key","28.94026315789463","800","393","true","1","129","19.2","2","1","-1","","","","","","","","","","","","",""
"psychophysics","19","139408","0.0-6.0-0.13","5c10724111fe9a00013cd815","609a8bf73b2ac84e2732f618","609d7ea5111c0a03b5d915c1","816","","","","39","","","","key","25.564109589041","800","393","true","-1","148.2","19.2","2","1","1","","","","","","","","","","","","",""
"psychophysics","20","141091","0.0-6.0-0.14","5c10724111fe9a00013cd815","609a8bf73b2ac84e2732f618","609d7ea5111c0a03b5d915c1","671","","","","39","","","","key","25.245757575757594","800","393","true","1","167.39999999999998","19.2","2","-1","1","","","","","","","","","","","","",""
"psychophysics","21","142625","0.0-6.0-0.15","5c10724111fe9a00013cd815","609a8bf73b2ac84e2732f618","609d7ea5111c0a03b5d915c1","464","","","","37","","","","key","23.918387096774232","800","393","true","-1","167.39999999999998","15.36","3","-1","-1","","","","","","","","","","","","",""
"psychophysics","22","144256","0.0-6.0-0.16","5c10724111fe9a00013cd815","609a8bf73b2ac84e2732f618","609d7ea5111c0a03b5d915c1","551","","","","37","","","","key","32.977916666666715","800","393","true","-1","152.03999999999996","15.36","3","-1","-1","","","","","","","","","","","","",""
"psychophysics","23","145850","0.0-6.0-0.17","5c10724111fe9a00013cd815","609a8bf73b2ac84e2732f618","609d7ea5111c0a03b5d915c1","590","","","","39","","","","key","27.96892857142822","800","393","true","1","152.03999999999996","15.36","3","-1","-1","","","","","","","","","","","","",""
"psychophysics","24","147591","0.0-6.0-0.18","5c10724111fe9a00013cd815","609a8bf73b2ac84e2732f618","609d7ea5111c0a03b5d915c1","729","","","","39","","","","key","25.863582089552466","800","393","true","-1","136.67999999999995","12.287999999999998","4","1","-1","","","","","","","","","","","","",""
"psychophysics","25","149276","0.0-6.0-0.19","5c10724111fe9a00013cd815","609a8bf73b2ac84e2732f618","609d7ea5111c0a03b5d915c1","636","","","","37","","","","key","31.437358490566456","800","393","true","-1","148.96799999999996","12.287999999999998","4","-1","1","","","","","","","","","","","","",""
"psychophysics","26","150974","0.0-6.0-0.20","5c10724111fe9a00013cd815","609a8bf73b2ac84e2732f618","609d7ea5111c0a03b5d915c1","643","","","","39","","","","key","25.245757575757594","800","393","true","1","148.96799999999996","9.8304","5","-1","-1","","","","","","","","","","","","",""
"psychophysics","27","152806","0.0-6.0-0.21","5c10724111fe9a00013cd815","609a8bf73b2ac84e2732f618","609d7ea5111c0a03b5d915c1","777","","","","39","","","","key","23.994133333333302","800","393","true","-1","139.13759999999996","7.864319999999999","6","1","-1","","","","","","","","","","","","",""
"psychophysics","28","154622","0.0-6.0-0.22","5c10724111fe9a00013cd815","609a8bf73b2ac84e2732f618","609d7ea5111c0a03b5d915c1","648","","","","39","","","","key","30.163448275861747","800","393","true","-1","147.00191999999996","7.864319999999999","6","1","1","","","","","","","","","","","","",""
"psychophysics","29","156024","0.0-6.0-0.23","5c10724111fe9a00013cd815","609a8bf73b2ac84e2732f618","609d7ea5111c0a03b5d915c1","357","","","","37","","","","key","28.22489795918346","800","393","true","-1","154.86623999999995","7.864319999999999","6","-1","1","","","","","","","","","","","","",""
"psychophysics","30","157353","0.0-6.0-0.24","5c10724111fe9a00013cd815","609a8bf73b2ac84e2732f618","609d7ea5111c0a03b5d915c1","317","","","","39","","","","key","21.10533333333345","800","393","true","1","154.86623999999995","6.291456","7","-1","-1","","","","","","","","","","","","",""
"psychophysics","31","158883","0.0-6.0-0.25","5c10724111fe9a00013cd815","609a8bf73b2ac84e2732f618","609d7ea5111c0a03b5d915c1","527","","","","37","","","","key","20.582941176470793","800","393","true","-1","148.57478399999994","6.291456","7","-1","-1","","","","","","","","","","","","",""
"psychophysics","32","160431","0.0-6.0-0.26","5c10724111fe9a00013cd815","609a8bf73b2ac84e2732f618","609d7ea5111c0a03b5d915c1","542","","","","39","","","","key","22.306129032258234","800","393","true","1","148.57478399999994","6.291456","7","-1","-1","","","","","","","","","","","","",""
"psychophysics","33","161959","0.0-6.0-0.27","5c10724111fe9a00013cd815","609a8bf73b2ac84e2732f618","609d7ea5111c0a03b5d915c1","520","","","","39","","","","key","24.438999999999943","800","393","true","1","142.28332799999993","6.291456","7","-1","-1","","","","","","","","","","","","",""
"psychophysics","34","163370","0.0-6.0-0.28","5c10724111fe9a00013cd815","609a8bf73b2ac84e2732f618","609d7ea5111c0a03b5d915c1","348","","","","39","","","","key","25.9188888888888","800","393","true","1","142.28332799999993","6.291456","7","-1","-1","","","","","","","","","","","","",""
"psychophysics","35","164881","0.0-6.0-0.29","5c10724111fe9a00013cd815","609a8bf73b2ac84e2732f618","609d7ea5111c0a03b5d915c1","311","","","","37","","","","key","25.72421052631577","800","393","true","-1","135.99187199999992","6.291456","7","-1","-1","","","","","","","","","","","","",""
"psychophysics","36","166889","0.0-6.0-0.30","5c10724111fe9a00013cd815","609a8bf73b2ac84e2732f618","609d7ea5111c0a03b5d915c1","1005","","","","37","","","","key","27.013939393939147","800","393","true","-1","135.99187199999992","6.291456","7","-1","-1","","","","","","","","","","","","",""
"psychophysics","37","168562","0.0-6.0-0.31","5c10724111fe9a00013cd815","609a8bf73b2ac84e2732f618","609d7ea5111c0a03b5d915c1","646","","","","37","","","","key","25.920317460317627","800","393","true","-1","129.7004159999999","6.291456","7","-1","-1","","","","","","","","","","","","",""
"psychophysics","38","170265","0.0-6.0-0.32","5c10724111fe9a00013cd815","609a8bf73b2ac84e2732f618","609d7ea5111c0a03b5d915c1","697","","","","37","","","","key","25.497575757575703","800","393","true","-1","129.7004159999999","6.291456","7","-1","-1","","","","","","","","","","","","",""
"psychophysics","39","171947","0.0-6.0-0.33","5c10724111fe9a00013cd815","609a8bf73b2ac84e2732f618","609d7ea5111c0a03b5d915c1","676","","","","39","","","","key","26.601754385964707","800","393","true","1","129","6.291456","7","-1","-1","","","","","","","","","","","","",""
"psychophysics","40","173748","0.0-6.0-0.34","5c10724111fe9a00013cd815","609a8bf73b2ac84e2732f618","609d7ea5111c0a03b5d915c1","798","","","","39","","","","key","23.388985507246325","800","393","true","1","129","6.291456","7","-1","-1","","","","","","","","","","","","",""
"psychophysics","41","175705","0.0-6.0-0.35","5c10724111fe9a00013cd815","609a8bf73b2ac84e2732f618","609d7ea5111c0a03b5d915c1","956","","","","37","","","","key","26.76090909090911","800","393","true","1","129","5.033164800000001","8","1","-1","","","","","","","","","","","","",""
"psychophysics","42","177553","0.0-6.0-0.36","5c10724111fe9a00013cd815","609a8bf73b2ac84e2732f618","609d7ea5111c0a03b5d915c1","837","","","","37","","","","key","28.603666666666687","800","393","true","1","134.0331648","5.033164800000001","8","1","1","","","","","","","","","","","","",""
"psychophysics","43","179370","0.0-6.0-0.37","5c10724111fe9a00013cd815","609a8bf73b2ac84e2732f618","609d7ea5111c0a03b5d915c1","806","","","","39","","","","key","26.146769230768907","800","393","true","1","139.06632960000002","5.033164800000001","8","-1","1","","","","","","","","","","","","",""
"psychophysics","44","181277","0.0-6.0-0.38","5c10724111fe9a00013cd815","609a8bf73b2ac84e2732f618","609d7ea5111c0a03b5d915c1","899","","","","39","","","","key","21.155056179775478","800","393","true","-1","139.06632960000002","4.0265318400000005","9","1","-1","","","","","","","","","","","","",""
"psychophysics","45","183602","0.0-6.0-0.39","5c10724111fe9a00013cd815","609a8bf73b2ac84e2732f618","609d7ea5111c0a03b5d915c1","1321","","","","39","","","","key","20.023859649122816","800","393","true","1","143.09286144","4.0265318400000005","9","-1","1","","","","","","","","","","","","",""
"html-keyboard-response","46","192383","0.0-7.0","5c10724111fe9a00013cd815","609a8bf73b2ac84e2732f618","609d7ea5111c0a03b5d915c1","8777","<p>Well Done !</p><p>Prepare for a new block.</p><p>DON'T EXIT THE FULL SCREEN MODE</p><p>Press the Spacebar to start.</p>","","","32","","","","","","","","","","","","","","","true","137.02396569599995","","","","","","","","","","",""
"psychophysics","47","194979","0.0-8.0-0.0","5c10724111fe9a00013cd815","609a8bf73b2ac84e2732f618","609d7ea5111c0a03b5d915c1","1574","","","","37","","","","key","19.125481481481497","800","393","true","-1","180","30","0","-1","","","","","","","","","","","","","",""
"psychophysics","48","196380","0.0-8.0-0.1","5c10724111fe9a00013cd815","609a8bf73b2ac84e2732f618","609d7ea5111c0a03b5d915c1","397","","","","39","","","","key","17.73000000000003","800","393","true","1","180","30","0","-1","-1","","","","","","","","","","","","",""
"psychophysics","49","197863","0.0-8.0-0.2","5c10724111fe9a00013cd815","609a8bf73b2ac84e2732f618","609d7ea5111c0a03b5d915c1","468","","","","39","","","","key","22.91187499999978","800","393","true","1","150","30","0","-1","-1","","","","","","","","","","","","",""
"psychophysics","50","199295","0.0-8.0-0.3","5c10724111fe9a00013cd815","609a8bf73b2ac84e2732f618","609d7ea5111c0a03b5d915c1","395","","","","39","","","","key","23.21737704918048","800","393","true","1","150","30","0","-1","-1","","","","","","","","","","","","",""
"psychophysics","51","201063","0.0-8.0-0.4","5c10724111fe9a00013cd815","609a8bf73b2ac84e2732f618","609d7ea5111c0a03b5d915c1","764","","","","39","","","","key","18.859999999999783","800","393","true","1","129","30","0","-1","-1","","","","","","","","","","","","",""
"psychophysics","52","202679","0.0-8.0-0.5","5c10724111fe9a00013cd815","609a8bf73b2ac84e2732f618","609d7ea5111c0a03b5d915c1","616","","","","39","","","","key","21.985555555555443","800","393","true","-1","129","24","1","1","-1","","","","","","","","","","","","",""
"psychophysics","53","204222","0.0-8.0-0.6","5c10724111fe9a00013cd815","609a8bf73b2ac84e2732f618","609d7ea5111c0a03b5d915c1","542","","","","37","","","","key","20.2654054054052","800","393","true","-1","153","24","1","-1","1","","","","","","","","","","","","",""
"psychophysics","54","205688","0.0-8.0-0.7","5c10724111fe9a00013cd815","609a8bf73b2ac84e2732f618","609d7ea5111c0a03b5d915c1","461","","","","37","","","","key","18.13873417721509","800","393","true","-1","153","19.2","2","-1","-1","","","","","","","","","","","","",""
"psychophysics","55","207283","0.0-8.0-0.8","5c10724111fe9a00013cd815","609a8bf73b2ac84e2732f618","609d7ea5111c0a03b5d915c1","593","","","","37","","","","key","22.743174603174253","800","393","true","-1","133.8","19.2","2","-1","-1","","","","","","","","","","","","",""
"psychophysics","56","208990","0.0-8.0-0.9","5c10724111fe9a00013cd815","609a8bf73b2ac84e2732f618","609d7ea5111c0a03b5d915c1","697","","","","37","","","","key","24.042857142857144","800","393","true","-1","133.8","19.2","2","-1","-1","","","","","","","","","","","","",""
"psychophysics","57","210757","0.0-8.0-0.10","5c10724111fe9a00013cd815","609a8bf73b2ac84e2732f618","609d7ea5111c0a03b5d915c1","766","","","","39","","","","key","19.69090909090929","800","393","true","1","129","19.2","2","-1","-1","","","","","","","","","","","","",""
"psychophysics","58","212369","0.0-8.0-0.11","5c10724111fe9a00013cd815","609a8bf73b2ac84e2732f618","609d7ea5111c0a03b5d915c1","611","","","","39","","","","key","17.9728089887639","800","393","true","-1","129","15.36","3","1","-1","","","","","","","","","","","","",""
"psychophysics","59","213879","0.0-8.0-0.12","5c10724111fe9a00013cd815","609a8bf73b2ac84e2732f618","609d7ea5111c0a03b5d915c1","506","","","","39","","","","key","19.011794871795036","800","393","true","1","144.36","15.36","3","-1","1","","","","","","","","","","","","",""
"psychophysics","60","215277","0.0-8.0-0.13","5c10724111fe9a00013cd815","609a8bf73b2ac84e2732f618","609d7ea5111c0a03b5d915c1","383","","","","37","","","","key","20.043478260869566","800","393","true","-1","144.36","12.287999999999998","4","-1","-1","","","","","","","","","","","","",""
"psychophysics","61","216922","0.0-8.0-0.14","5c10724111fe9a00013cd815","609a8bf73b2ac84e2732f618","609d7ea5111c0a03b5d915c1","637","","","","37","","","","key","18.143555555555697","800","393","true","-1","132.072","12.287999999999998","4","-1","-1","","","","","","","","","","","","",""
"psychophysics","62","218656","0.0-8.0-0.15","5c10724111fe9a00013cd815","609a8bf73b2ac84e2732f618","609d7ea5111c0a03b5d915c1","715","","","","37","","","","key","20.930000000000113","800","393","true","-1","132.072","12.287999999999998","4","-1","-1","","","","","","","","","","","","",""
"psychophysics","63","220356","0.0-8.0-0.16","5c10724111fe9a00013cd815","609a8bf73b2ac84e2732f618","609d7ea5111c0a03b5d915c1","622","","","","37","","","","key","22.43813333333315","800","393","true","-1","129","12.287999999999998","4","-1","-1","","","","","","","","","","","","",""
"psychophysics","64","222122","0.0-8.0-0.17","5c10724111fe9a00013cd815","609a8bf73b2ac84e2732f618","609d7ea5111c0a03b5d915c1","683","","","","37","","","","key","22.216410256410317","800","393","true","-1","129","12.287999999999998","4","-1","-1","","","","","","","","","","","","",""
"psychophysics","65","223673","0.0-8.0-0.18","5c10724111fe9a00013cd815","609a8bf73b2ac84e2732f618","609d7ea5111c0a03b5d915c1","539","","","","39","","","","key","20.438666666666975","800","393","true","-1","129","9.8304","5","1","-1","","","","","","","","","","","","",""
"psychophysics","66","225435","0.0-8.0-0.19","5c10724111fe9a00013cd815","609a8bf73b2ac84e2732f618","609d7ea5111c0a03b5d915c1","732","","","","39","","","","key","19.016739130434555","800","393","true","1","138.8304","9.8304","5","-1","1","","","","","","","","","","","","",""
"psychophysics","67","227072","0.0-8.0-0.20","5c10724111fe9a00013cd815","609a8bf73b2ac84e2732f618","609d7ea5111c0a03b5d915c1","632","","","","39","","","","key","19.994249999999738","800","393","true","1","138.8304","7.864319999999999","6","-1","-1","","","","","","","","","","","","",""
"psychophysics","68","228729","0.0-8.0-0.21","5c10724111fe9a00013cd815","609a8bf73b2ac84e2732f618","609d7ea5111c0a03b5d915c1","625","","","","39","","","","key","19.211058823529438","800","393","true","-1","130.96608","6.291456","7","1","-1","","","","","","","","","","","","",""
"psychophysics","69","230521","0.0-8.0-0.22","5c10724111fe9a00013cd815","609a8bf73b2ac84e2732f618","609d7ea5111c0a03b5d915c1","765","","","","39","","","","key","19.65707865168551","800","393","true","1","137.25753600000002","6.291456","7","-1","1","","","","","","","","","","","","",""
"psychophysics","70","232186","0.0-8.0-0.23","5c10724111fe9a00013cd815","609a8bf73b2ac84e2732f618","609d7ea5111c0a03b5d915c1","649","","","","37","","","","key","19.406823529411614","800","393","true","1","137.25753600000002","5.033164800000001","8","1","-1","","","","","","","","","","","","",""
"psychophysics","71","233984","0.0-8.0-0.24","5c10724111fe9a00013cd815","609a8bf73b2ac84e2732f618","609d7ea5111c0a03b5d915c1","686","","","","37","","","","key","23.101066666666497","800","393","true","-1","142.29070080000002","5.033164800000001","8","-1","1","","","","","","","","","","","","",""
"psychophysics","72","235535","0.0-8.0-0.25","5c10724111fe9a00013cd815","609a8bf73b2ac84e2732f618","609d7ea5111c0a03b5d915c1","546","","","","39","","","","key","19.695844155844366","800","393","true","1","142.29070080000002","4.0265318400000005","9","-1","-1","","","","","","","","","","","","",""
"psychophysics","73","237190","0.0-8.0-0.26","5c10724111fe9a00013cd815","609a8bf73b2ac84e2732f618","609d7ea5111c0a03b5d915c1","625","","","","39","","","","key","24.371044776119195","800","393","true","1","138.26416896000003","4.0265318400000005","9","-1","-1","","","","","","","","","","","","",""
"psychophysics","74","238956","0.0-8.0-0.27","5c10724111fe9a00013cd815","609a8bf73b2ac84e2732f618","609d7ea5111c0a03b5d915c1","760","","","","39","","","","key","19.25400000000017","800","393","true","1","138.26416896000003","4.0265318400000005","9","-1","-1","","","","","","","","","","","","",""
"psychophysics","75","240730","0.0-8.0-0.28","5c10724111fe9a00013cd815","609a8bf73b2ac84e2732f618","609d7ea5111c0a03b5d915c1","765","","","","39","","","","key","20.779058823529425","800","393","true","1","134.23763712000004","4.0265318400000005","9","-1","-1","","","","","","","","","","","","",""
"psychophysics","76","242503","0.0-8.0-0.29","5c10724111fe9a00013cd815","609a8bf73b2ac84e2732f618","609d7ea5111c0a03b5d915c1","754","","","","39","","","","key","19.881818181818247","800","393","true","1","134.23763712000004","4.0265318400000005","9","-1","-1","","","","","","","","","","","","",""
"psychophysics","77","244210","0.0-8.0-0.30","5c10724111fe9a00013cd815","609a8bf73b2ac84e2732f618","609d7ea5111c0a03b5d915c1","693","","","","37","","","","key","19.99600000000004","800","393","true","-1","130.21110528000006","4.0265318400000005","9","-1","-1","","","","","","","","","","","","",""
"psychophysics","78","246084","0.0-8.0-0.31","5c10724111fe9a00013cd815","609a8bf73b2ac84e2732f618","609d7ea5111c0a03b5d915c1","846","","","","37","","","","key","20.781123595505502","800","393","true","-1","130.21110528000006","4.0265318400000005","9","-1","-1","","","","","","","","","","","","",""
"psychophysics","79","248126","0.0-8.0-0.32","5c10724111fe9a00013cd815","609a8bf73b2ac84e2732f618","609d7ea5111c0a03b5d915c1","1005","","","","37","","","","key","19.73650485436908","800","393","true","-1","129","4.0265318400000005","9","-1","-1","","","","","","","","","","","","",""
"psychophysics","80","249836","0.0-8.0-0.33","5c10724111fe9a00013cd815","609a8bf73b2ac84e2732f618","609d7ea5111c0a03b5d915c1","708","","","","39","","","","key","19.240238095238013","800","393","true","-1","129","3.2212254720000004","10","1","-1","","","","","","","","","","","","",""
"psychophysics","81","251612","0.0-8.0-0.34","5c10724111fe9a00013cd815","609a8bf73b2ac84e2732f618","609d7ea5111c0a03b5d915c1","764","","","","39","","","","key","22.357215189873433","800","393","true","1","132.22122547200001","3.2212254720000004","10","-1","1","","","","","","","","","","","","",""
"psychophysics","82","253851","0.0-8.0-0.35","5c10724111fe9a00013cd815","609a8bf73b2ac84e2732f618","609d7ea5111c0a03b5d915c1","1225","","","","37","","","","key","18.94085470085484","800","393","true","-1","132.22122547200001","2.5769803776000004","11","-1","-1","","","","","","","","","","","","",""
"psychophysics","83","256155","0.0-8.0-0.36","5c10724111fe9a00013cd815","609a8bf73b2ac84e2732f618","609d7ea5111c0a03b5d915c1","1298","","","","37","","","","key","19.322689075630446","800","393","true","1","129.64424509440002","2.0615843020800004","12","1","-1","","","","","","","","","","","","",""
"psychophysics","84","258001","0.0-8.0-0.37","5c10724111fe9a00013cd815","609a8bf73b2ac84e2732f618","609d7ea5111c0a03b5d915c1","820","","","","37","","","","key","19.957802197802238","800","393","true","1","131.70582939648003","2.0615843020800004","12","1","1","","","","","","","","","","","","",""
"psychophysics","85","259931","0.0-8.0-0.38","5c10724111fe9a00013cd815","609a8bf73b2ac84e2732f618","609d7ea5111c0a03b5d915c1","884","","","","39","","","","key","22.543294117646976","800","393","true","1","133.76741369856003","2.0615843020800004","12","-1","1","","","","","","","","","","","","",""
"psychophysics","86","262168","0.0-8.0-0.39","5c10724111fe9a00013cd815","609a8bf73b2ac84e2732f618","609d7ea5111c0a03b5d915c1","1216","","","","39","","","","key","22.161399999999848","800","393","true","1","133.76741369856003","1.6492674416640005","13","-1","-1","","","","","","","","","","","","",""
"html-keyboard-response","87","268119","0.0-9.0","5c10724111fe9a00013cd815","609a8bf73b2ac84e2732f618","609d7ea5111c0a03b5d915c1","5951","<p>Well Done !</p><p>Prepare for a new block.</p><p>DON'T EXIT THE FULL SCREEN MODE</p><p>Press the Spacebar to start.</p>","","","32","","","","","","","","","","","","","","","true","133.26959175680003","","","","","","","","","","",""
"psychophysics","88","269784","0.0-10.0-0.0","5c10724111fe9a00013cd815","609a8bf73b2ac84e2732f618","609d7ea5111c0a03b5d915c1","623","","","","37","","","","key","24.372238805970184","800","393","true","-1","180","30","0","-1","","","","","","","","","","","","","",""
"psychophysics","89","271196","0.0-10.0-0.1","5c10724111fe9a00013cd815","609a8bf73b2ac84e2732f618","609d7ea5111c0a03b5d915c1","403","","","","39","","","","key","21.95174603174544","800","393","true","1","180","30","0","-1","-1","","","","","","","","","","","","",""
"psychophysics","90","272855","0.0-10.0-0.2","5c10724111fe9a00013cd815","609a8bf73b2ac84e2732f618","609d7ea5111c0a03b5d915c1","614","","","","39","","","","key","27.04262295081929","800","393","true","1","150","30","0","-1","-1","","","","","","","","","","","","",""
"psychophysics","91","274278","0.0-10.0-0.3","5c10724111fe9a00013cd815","609a8bf73b2ac84e2732f618","609d7ea5111c0a03b5d915c1","402","","","","37","","","","key","23.844137931033842","800","393","true","-1","150","30","0","-1","-1","","","","","","","","","","","","",""
"psychophysics","92","275924","0.0-10.0-0.4","5c10724111fe9a00013cd815","609a8bf73b2ac84e2732f618","609d7ea5111c0a03b5d915c1","644","","","","37","","","","key","22.06675675675679","800","393","true","1","129","24","1","1","-1","","","","","","","","","","","","",""
"psychophysics","93","277319","0.0-10.0-0.5","5c10724111fe9a00013cd815","609a8bf73b2ac84e2732f618","609d7ea5111c0a03b5d915c1","381","","","","39","","","","key","19.3573529411763","800","393","true","1","153","24","1","-1","1","","","","","","","","","","","","",""
"psychophysics","94","278806","0.0-10.0-0.6","5c10724111fe9a00013cd815","609a8bf73b2ac84e2732f618","609d7ea5111c0a03b5d915c1","468","","","","37","","","","key","26.84481481481473","800","393","true","-1","153","19.2","2","-1","-1","","","","","","","","","","","","",""
"psychophysics","95","280512","0.0-10.0-0.7","5c10724111fe9a00013cd815","609a8bf73b2ac84e2732f618","609d7ea5111c0a03b5d915c1","703","","","","39","","","","key","20.276385542168704","800","393","true","-1","133.8","15.36","3","1","-1","","","","","","","","","","","","",""
"psychophysics","96","282466","0.0-10.0-0.8","5c10724111fe9a00013cd815","609a8bf73b2ac84e2732f618","609d7ea5111c0a03b5d915c1","946","","","","39","","","","key","20.10326086956522","800","393","true","1","149.16000000000003","15.36","3","-1","1","","","","","","","","","","","","",""
"psychophysics","97","285991","0.0-10.0-0.9","5c10724111fe9a00013cd815","609a8bf73b2ac84e2732f618","609d7ea5111c0a03b5d915c1","2475","","","","37","","","","key","22.288311688311463","800","393","true","-1","149.16000000000003","12.287999999999998","4","-1","-1","","","","","","","","","","","","",""
"psychophysics","98","287771","0.0-10.0-0.10","5c10724111fe9a00013cd815","609a8bf73b2ac84e2732f618","609d7ea5111c0a03b5d915c1","778","","","","39","","","","key","18.41621052631557","800","393","true","-1","136.872","9.8304","5","1","-1","","","","","","","","","","","","",""
"psychophysics","99","289337","0.0-10.0-0.11","5c10724111fe9a00013cd815","609a8bf73b2ac84e2732f618","609d7ea5111c0a03b5d915c1","545","","","","39","","","","key","18.6703614457833","800","393","true","1","146.7024","9.8304","5","-1","1","","","","","","","","","","","","",""
"psychophysics","100","290686","0.0-10.0-0.12","5c10724111fe9a00013cd815","609a8bf73b2ac84e2732f618","609d7ea5111c0a03b5d915c1","347","","","","37","","","","key","19.60176470588297","800","393","true","-1","146.7024","7.864319999999999","6","-1","-1","","","","","","","","","","","","",""
"psychophysics","101","292248","0.0-10.0-0.13","5c10724111fe9a00013cd815","609a8bf73b2ac84e2732f618","609d7ea5111c0a03b5d915c1","541","","","","37","","","","key","19.404556962024845","800","393","true","1","138.83808000000002","6.291456","7","1","-1","","","","","","","","","","","","",""
"psychophysics","102","293840","0.0-10.0-0.14","5c10724111fe9a00013cd815","609a8bf73b2ac84e2732f618","609d7ea5111c0a03b5d915c1","588","","","","37","","","","key","19.130370370370343","800","393","true","-1","145.12953600000003","6.291456","7","-1","1","","","","","","","","","","","","",""
"psychophysics","103","295455","0.0-10.0-0.15","5c10724111fe9a00013cd815","609a8bf73b2ac84e2732f618","609d7ea5111c0a03b5d915c1","605","","","","37","","","","key","22.613999999999734","800","393","true","-1","145.12953600000003","5.033164800000001","8","-1","-1","","","","","","","","","","","","",""
"psychophysics","104","297191","0.0-10.0-0.16","5c10724111fe9a00013cd815","609a8bf73b2ac84e2732f618","609d7ea5111c0a03b5d915c1","668","","","","37","","","","key","19.06866666666659","800","393","true","1","140.09637120000002","4.0265318400000005","9","1","-1","","","","","","","","","","","","",""
"psychophysics","105","298770","0.0-10.0-0.17","5c10724111fe9a00013cd815","609a8bf73b2ac84e2732f618","609d7ea5111c0a03b5d915c1","566","","","","39","","","","key","19.369750000000202","800","393","true","-1","144.12290304","4.0265318400000005","9","1","1","","","","","","","","","","","","",""
"psychophysics","106","300620","0.0-10.0-0.18","5c10724111fe9a00013cd815","609a8bf73b2ac84e2732f618","609d7ea5111c0a03b5d915c1","847","","","","39","","","","key","21.170352941176937","800","393","true","1","148.14943488","4.0265318400000005","9","-1","1","","","","","","","","","","","","",""
"psychophysics","107","302094","0.0-10.0-0.19","5c10724111fe9a00013cd815","609a8bf73b2ac84e2732f618","609d7ea5111c0a03b5d915c1","455","","","","39","","","","key","19.074999999999388","800","393","true","1","148.14943488","3.2212254720000004","10","-1","-1","","","","","","","","","","","","",""
"psychophysics","108","303383","0.0-10.0-0.20","5c10724111fe9a00013cd815","609a8bf73b2ac84e2732f618","609d7ea5111c0a03b5d915c1","286","","","","39","","","","key","18.352753623187933","800","393","true","1","144.928209408","3.2212254720000004","10","-1","-1","","","","","","","","","","","","",""
"psychophysics","109","305179","0.0-10.0-0.21","5c10724111fe9a00013cd815","609a8bf73b2ac84e2732f618","609d7ea5111c0a03b5d915c1","794","","","","37","","","","key","24.093783783783817","800","393","true","1","144.928209408","2.5769803776000004","11","1","-1","","","","","","","","","","","","",""
"psychophysics","110","306799","0.0-10.0-0.22","5c10724111fe9a00013cd815","609a8bf73b2ac84e2732f618","609d7ea5111c0a03b5d915c1","604","","","","39","","","","key","23.98272727272706","800","393","true","1","147.50518978559998","2.5769803776000004","11","-1","1","","","","","","","","","","","","",""
"psychophysics","111","308376","0.0-10.0-0.23","5c10724111fe9a00013cd815","609a8bf73b2ac84e2732f618","609d7ea5111c0a03b5d915c1","576","","","","39","","","","key","22.375428571428138","800","393","true","1","147.50518978559998","2.0615843020800004","12","-1","-1","","","","","","","","","","","","",""
"psychophysics","112","310050","0.0-10.0-0.24","5c10724111fe9a00013cd815","609a8bf73b2ac84e2732f618","609d7ea5111c0a03b5d915c1","669","","","","37","","","","key","19.637142857142386","800","393","true","-1","145.44360548351997","2.0615843020800004","12","-1","-1","","","","","","","","","","","","",""
"psychophysics","113","311766","0.0-10.0-0.25","5c10724111fe9a00013cd815","609a8bf73b2ac84e2732f618","609d7ea5111c0a03b5d915c1","680","","","","37","","","","key","20.117073170731423","800","393","true","-1","145.44360548351997","2.0615843020800004","12","-1","-1","","","","","","","","","","","","",""
"psychophysics","114","313515","0.0-10.0-0.26","5c10724111fe9a00013cd815","609a8bf73b2ac84e2732f618","609d7ea5111c0a03b5d915c1","702","","","","37","","","","key","21.24449999999997","800","393","true","1","143.38202118143997","1.6492674416640005","13","1","-1","","","","","","","","","","","","",""
"psychophysics","115","315343","0.0-10.0-0.27","5c10724111fe9a00013cd815","609a8bf73b2ac84e2732f618","609d7ea5111c0a03b5d915c1","807","","","","37","","","","key","19.14425531914891","800","393","true","-1","145.03128862310396","1.6492674416640005","13","-1","1","","","","","","","","","","","","",""
"psychophysics","116","316831","0.0-10.0-0.28","5c10724111fe9a00013cd815","609a8bf73b2ac84e2732f618","609d7ea5111c0a03b5d915c1","466","","","","39","","","","key","23.275555555555332","800","393","true","1","145.03128862310396","1.3194139533312006","14","-1","-1","","","","","","","","","","","","",""
"psychophysics","117","318542","0.0-10.0-0.29","5c10724111fe9a00013cd815","609a8bf73b2ac84e2732f618","609d7ea5111c0a03b5d915c1","708","","","","39","","","","key","19.096404494382206","800","393","true","1","143.71187466977275","1.3194139533312006","14","-1","-1","","","","","","","","","","","","",""
"psychophysics","118","320262","0.0-10.0-0.30","5c10724111fe9a00013cd815","609a8bf73b2ac84e2732f618","609d7ea5111c0a03b5d915c1","712","","","","37","","","","key","18.883999999999975","800","393","true","-1","143.71187466977275","1.3194139533312006","14","-1","-1","","","","","","","","","","","","",""
"psychophysics","119","321808","0.0-10.0-0.31","5c10724111fe9a00013cd815","609a8bf73b2ac84e2732f618","609d7ea5111c0a03b5d915c1","542","","","","37","","","","key","19.40329113924033","800","393","true","-1","142.39246071644155","1.3194139533312006","14","-1","-1","","","","","","","","","","","","",""
"psychophysics","120","323179","0.0-10.0-0.32","5c10724111fe9a00013cd815","609a8bf73b2ac84e2732f618","609d7ea5111c0a03b5d915c1","368","","","","39","","","","key","18.745000000000193","800","393","true","1","142.39246071644155","1.3194139533312006","14","-1","-1","","","","","","","","","","","","",""
"psychophysics","121","324835","0.0-10.0-0.33","5c10724111fe9a00013cd815","609a8bf73b2ac84e2732f618","609d7ea5111c0a03b5d915c1","656","","","","39","","","","key","21.55013333333346","800","393","true","-1","141.07304676311034","1.0555311626649604","15","1","-1","","","","","","","","","","","","",""
"psychophysics","122","326500","0.0-10.0-0.34","5c10724111fe9a00013cd815","609a8bf73b2ac84e2732f618","609d7ea5111c0a03b5d915c1","663","","","","39","","","","key","19.578749999999854","800","393","true","-1","142.1285779257753","1.0555311626649604","15","1","1","","","","","","","","","","","","",""
"psychophysics","123","328011","0.0-10.0-0.35","5c10724111fe9a00013cd815","609a8bf73b2ac84e2732f618","609d7ea5111c0a03b5d915c1","498","","","","37","","","","key","19.85780821917802","800","393","true","-1","143.18410908844024","1.0555311626649604","15","-1","1","","","","","","","","","","","","",""
"psychophysics","124","329613","0.0-10.0-0.36","5c10724111fe9a00013cd815","609a8bf73b2ac84e2732f618","609d7ea5111c0a03b5d915c1","599","","","","37","","","","key","21.68328767123294","800","393","true","-1","143.18410908844024","1","16","-1","-1","","","","","","","","","","","","",""
"psychophysics","125","331173","0.0-10.0-0.37","5c10724111fe9a00013cd815","609a8bf73b2ac84e2732f618","609d7ea5111c0a03b5d915c1","516","","","","37","","","","key","19.370500000000174","800","393","true","1","142.18410908844024","1","17","1","-1","","","","","","","","","","","","",""
"psychophysics","126","332976","0.0-10.0-0.38","5c10724111fe9a00013cd815","609a8bf73b2ac84e2732f618","609d7ea5111c0a03b5d915c1","801","","","","37","","","","key","19.170107526881797","800","393","true","1","143.18410908844024","1","17","1","1","","","","","","","","","","","","",""
"psychophysics","127","334602","0.0-10.0-0.39","5c10724111fe9a00013cd815","609a8bf73b2ac84e2732f618","609d7ea5111c0a03b5d915c1","622","","","","39","","","","key","20.72128205128217","800","393","true","-1","144.18410908844024","1","17","1","1","","","","","","","","","","","","",""
"html-keyboard-response","128","338842","0.0-11.0","5c10724111fe9a00013cd815","609a8bf73b2ac84e2732f618","609d7ea5111c0a03b5d915c1","4236","<p>Well Done !</p><p>Prepare for a new block.</p><p>DON'T EXIT THE FULL SCREEN MODE</p><p>Press the Spacebar to start.</p>","","","32","","","","","","","","","","","","","","","true","143.3479363209789","","","","","","","","","","",""
"psychophysics","129","339942","0.0-12.0-0.0","5c10724111fe9a00013cd815","609a8bf73b2ac84e2732f618","609d7ea5111c0a03b5d915c1","86","","","","37","","","","key","19.001403508772217","800","393","true","-1","180","30","0","-1","","","","","","","","","","","","","",""
"psychophysics","130","341083","0.0-12.0-0.1","5c10724111fe9a00013cd815","609a8bf73b2ac84e2732f618","609d7ea5111c0a03b5d915c1","124","","","","37","","","","key","18.63864406779649","800","393","true","-1","180","30","0","-1","-1","","","","","","","","","","","","",""
"psychophysics","131","342540","0.0-12.0-0.2","5c10724111fe9a00013cd815","609a8bf73b2ac84e2732f618","609d7ea5111c0a03b5d915c1","453","","","","39","","","","key","20.827352941176606","800","393","true","1","150","30","0","-1","-1","","","","","","","","","","","","",""
"psychophysics","132","343984","0.0-12.0-0.3","5c10724111fe9a00013cd815","609a8bf73b2ac84e2732f618","609d7ea5111c0a03b5d915c1","428","","","","39","","","","key","20.768115942028984","800","393","true","1","150","30","0","-1","-1","","","","","","","","","","","","",""
"psychophysics","133","345642","0.0-12.0-0.4","5c10724111fe9a00013cd815","609a8bf73b2ac84e2732f618","609d7ea5111c0a03b5d915c1","652","","","","39","","","","key","18.985581395348945","800","393","true","-1","129","24","1","1","-1","","","","","","","","","","","","",""
"psychophysics","134","347136","0.0-12.0-0.5","5c10724111fe9a00013cd815","609a8bf73b2ac84e2732f618","609d7ea5111c0a03b5d915c1","484","","","","37","","","","key","20.598611111111595","800","393","true","-1","153","24","1","-1","1","","","","","","","","","","","","",""
"psychophysics","135","348787","0.0-12.0-0.6","5c10724111fe9a00013cd815","609a8bf73b2ac84e2732f618","609d7ea5111c0a03b5d915c1","543","","","","37","","","","key","23.8406153846156","800","393","true","-1","153","19.2","2","-1","-1","","","","","","","","","","","","",""
"psychophysics","136","350456","0.0-12.0-0.7","5c10724111fe9a00013cd815","609a8bf73b2ac84e2732f618","609d7ea5111c0a03b5d915c1","664","","","","37","","","","key","24.61999999999969","800","393","true","-1","133.8","19.2","2","-1","-1","","","","","","","","","","","","",""
"psychophysics","137","352229","0.0-12.0-0.8","5c10724111fe9a00013cd815","609a8bf73b2ac84e2732f618","609d7ea5111c0a03b5d915c1","770","","","","37","","","","key","20.676385542168845","800","393","true","1","133.8","15.36","3","1","-1","","","","","","","","","","","","",""
"psychophysics","138","353769","0.0-12.0-0.9","5c10724111fe9a00013cd815","609a8bf73b2ac84e2732f618","609d7ea5111c0a03b5d915c1","532","","","","39","","","","key","19.995466666667102","800","393","true","1","149.16000000000003","15.36","3","-1","1","","","","","","","","","","","","",""
"psychophysics","139","355333","0.0-12.0-0.10","5c10724111fe9a00013cd815","609a8bf73b2ac84e2732f618","609d7ea5111c0a03b5d915c1","462","","","","37","","","","key","21.590422535211037","800","393","true","-1","149.16000000000003","12.287999999999998","4","-1","-1","","","","","","","","","","","","",""
"psychophysics","140","357054","0.0-12.0-0.11","5c10724111fe9a00013cd815","609a8bf73b2ac84e2732f618","609d7ea5111c0a03b5d915c1","716","","","","37","","","","key","20.77679012345659","800","393","true","1","136.872","9.8304","5","1","-1","","","","","","","","","","","","",""
"psychophysics","141","358581","0.0-12.0-0.12","5c10724111fe9a00013cd815","609a8bf73b2ac84e2732f618","609d7ea5111c0a03b5d915c1","525","","","","39","","","","key","20.77123287671297","800","393","true","1","146.7024","9.8304","5","-1","1","","","","","","","","","","","","",""
"psychophysics","142","360405","0.0-12.0-0.13","5c10724111fe9a00013cd815","609a8bf73b2ac84e2732f618","609d7ea5111c0a03b5d915c1","802","","","","39","","","","key","21.171058823529165","800","393","true","1","146.7024","7.864319999999999","6","-1","-1","","","","","","","","","","","","",""
"psychophysics","143","362103","0.0-12.0-0.14","5c10724111fe9a00013cd815","609a8bf73b2ac84e2732f618","609d7ea5111c0a03b5d915c1","662","","","","39","","","","key","24.039714285714684","800","393","true","1","138.83808000000002","7.864319999999999","6","-1","-1","","","","","","","","","","","","",""
"psychophysics","144","363723","0.0-12.0-0.15","5c10724111fe9a00013cd815","609a8bf73b2ac84e2732f618","609d7ea5111c0a03b5d915c1","540","","","","37","","","","key","26.223606557377277","800","393","true","-1","138.83808000000002","7.864319999999999","6","-1","-1","","","","","","","","","","","","",""
"psychophysics","145","365820","0.0-12.0-0.16","5c10724111fe9a00013cd815","609a8bf73b2ac84e2732f618","609d7ea5111c0a03b5d915c1","999","","","","37","","","","key","22.956888888888837","800","393","true","-1","130.97376000000003","7.864319999999999","6","-1","-1","","","","","","","","","","","","",""
"psychophysics","146","367647","0.0-12.0-0.17","5c10724111fe9a00013cd815","609a8bf73b2ac84e2732f618","609d7ea5111c0a03b5d915c1","794","","","","37","","","","key","24.092702702702514","800","393","true","-1","130.97376000000003","7.864319999999999","6","-1","-1","","","","","","","","","","","","",""
"psychophysics","147","369368","0.0-12.0-0.18","5c10724111fe9a00013cd815","609a8bf73b2ac84e2732f618","609d7ea5111c0a03b5d915c1","715","","","","37","","","","key","22.362368421052356","800","393","true","-1","129","7.864319999999999","6","-1","-1","","","","","","","","","","","","",""
"psychophysics","148","371129","0.0-12.0-0.19","5c10724111fe9a00013cd815","609a8bf73b2ac84e2732f618","609d7ea5111c0a03b5d915c1","745","","","","39","","","","key","29.159333333333294","800","393","true","-1","129","6.291456","7","1","-1","","","","","","","","","","","","",""
"psychophysics","149","373086","0.0-12.0-0.20","5c10724111fe9a00013cd815","609a8bf73b2ac84e2732f618","609d7ea5111c0a03b5d915c1","897","","","","39","","","","key","24.88441558441604","800","393","true","1","135.291456","6.291456","7","-1","1","","","","","","","","","","","","",""
"psychophysics","150","375001","0.0-12.0-0.21","5c10724111fe9a00013cd815","609a8bf73b2ac84e2732f618","609d7ea5111c0a03b5d915c1","756","","","","39","","","","key","22.15152941176476","800","393","true","-1","135.291456","5.033164800000001","8","1","-1","","","","","","","","","","","","",""
"psychophysics","151","376719","0.0-12.0-0.22","5c10724111fe9a00013cd815","609a8bf73b2ac84e2732f618","609d7ea5111c0a03b5d915c1","634","","","","37","","","","key","24.631304347826052","800","393","true","1","140.32462080000002","5.033164800000001","8","1","1","","","","","","","","","","","","",""
"psychophysics","152","379064","0.0-12.0-0.23","5c10724111fe9a00013cd815","609a8bf73b2ac84e2732f618","609d7ea5111c0a03b5d915c1","1296","","","","37","","","","key","21.645046728971593","800","393","true","-1","145.35778560000003","5.033164800000001","8","-1","1","","","","","","","","","","","","",""
"psychophysics","153","380744","0.0-12.0-0.24","5c10724111fe9a00013cd815","609a8bf73b2ac84e2732f618","609d7ea5111c0a03b5d915c1","627","","","","39","","","","key","30.2967272727274","800","393","true","-1","145.35778560000003","4.0265318400000005","9","1","-1","","","","","","","","","","","","",""
"psychophysics","154","382616","0.0-12.0-0.25","5c10724111fe9a00013cd815","609a8bf73b2ac84e2732f618","609d7ea5111c0a03b5d915c1","796","","","","39","","","","key","27.604179104478202","800","393","true","-1","149.38431744000002","4.0265318400000005","9","1","1","","","","","","","","","","","","",""
"psychophysics","155","384198","0.0-12.0-0.26","5c10724111fe9a00013cd815","609a8bf73b2ac84e2732f618","609d7ea5111c0a03b5d915c1","558","","","","37","","","","key","23.129253731342903","800","393","true","-1","153.41084928","4.0265318400000005","9","-1","1","","","","","","","","","","","","",""
"psychophysics","156","385822","0.0-12.0-0.27","5c10724111fe9a00013cd815","609a8bf73b2ac84e2732f618","609d7ea5111c0a03b5d915c1","574","","","","37","","","","key","24.60800000000029","800","393","true","-1","153.41084928","3.2212254720000004","10","-1","-1","","","","","","","","","","","","",""
"psychophysics","157","387496","0.0-12.0-0.28","5c10724111fe9a00013cd815","609a8bf73b2ac84e2732f618","609d7ea5111c0a03b5d915c1","663","","","","39","","","","key","21.683561643835937","800","393","true","1","150.18962380800002","3.2212254720000004","10","-1","-1","","","","","","","","","","","","",""
"psychophysics","158","389143","0.0-12.0-0.29","5c10724111fe9a00013cd815","609a8bf73b2ac84e2732f618","609d7ea5111c0a03b5d915c1","644","","","","37","","","","key","22.593559322034213","800","393","true","-1","150.18962380800002","3.2212254720000004","10","-1","-1","","","","","","","","","","","","",""
"psychophysics","159","390859","0.0-12.0-0.30","5c10724111fe9a00013cd815","609a8bf73b2ac84e2732f618","609d7ea5111c0a03b5d915c1","710","","","","37","","","","key","23.80349206349199","800","393","true","1","146.968398336","2.5769803776000004","11","1","-1","","","","","","","","","","","","",""
"psychophysics","160","392526","0.0-12.0-0.31","5c10724111fe9a00013cd815","609a8bf73b2ac84e2732f618","609d7ea5111c0a03b5d915c1","664","","","","39","","","","key","28.840000000000984","800","393","true","1","149.5453787136","2.5769803776000004","11","-1","1","","","","","","","","","","","","",""
"psychophysics","161","394241","0.0-12.0-0.32","5c10724111fe9a00013cd815","609a8bf73b2ac84e2732f618","609d7ea5111c0a03b5d915c1","711","","","","39","","","","key","24.61910447761166","800","393","true","1","149.5453787136","2.0615843020800004","12","-1","-1","","","","","","","","","","","","",""
"psychophysics","162","395771","0.0-12.0-0.33","5c10724111fe9a00013cd815","609a8bf73b2ac84e2732f618","609d7ea5111c0a03b5d915c1","511","","","","39","","","","key","19.226153846153277","800","393","true","1","147.48379441152","2.0615843020800004","12","-1","-1","","","","","","","","","","","","",""
"psychophysics","163","397314","0.0-12.0-0.34","5c10724111fe9a00013cd815","609a8bf73b2ac84e2732f618","609d7ea5111c0a03b5d915c1","538","","","","39","","","","key","19.95052631578935","800","393","true","1","147.48379441152","2.0615843020800004","12","-1","-1","","","","","","","","","","","","",""
"psychophysics","164","398936","0.0-12.0-0.35","5c10724111fe9a00013cd815","609a8bf73b2ac84e2732f618","609d7ea5111c0a03b5d915c1","597","","","","39","","","","key","21.550666666667286","800","393","true","1","145.42221010944","2.0615843020800004","12","-1","-1","","","","","","","","","","","","",""
"psychophysics","165","400603","0.0-12.0-0.36","5c10724111fe9a00013cd815","609a8bf73b2ac84e2732f618","609d7ea5111c0a03b5d915c1","648","","","","37","","","","key","20.11658536585363","800","393","true","1","145.42221010944","1.6492674416640005","13","1","-1","","","","","","","","","","","","",""
"psychophysics","166","402130","0.0-12.0-0.37","5c10724111fe9a00013cd815","609a8bf73b2ac84e2732f618","609d7ea5111c0a03b5d915c1","519","","","","39","","","","key","19.995466666667102","800","393","true","1","147.07147755110398","1.6492674416640005","13","-1","1","","","","","","","","","","","","",""
"psychophysics","167","403680","0.0-12.0-0.38","5c10724111fe9a00013cd815","609a8bf73b2ac84e2732f618","609d7ea5111c0a03b5d915c1","504","","","","39","","","","key","21.35605633802774","800","393","true","1","147.07147755110398","1.3194139533312006","14","-1","-1","","","","","","","","","","","","",""
"psychophysics","168","405160","0.0-12.0-0.39","5c10724111fe9a00013cd815","609a8bf73b2ac84e2732f618","609d7ea5111c0a03b5d915c1","405","","","","37","","","","key","19.364864864864863","800","393","true","-1","145.75206359777277","1.3194139533312006","14","-1","-1","","","","","","","","","","","","",""
"html-keyboard-response","169","408884","0.0-13.0","5c10724111fe9a00013cd815","609a8bf73b2ac84e2732f618","609d7ea5111c0a03b5d915c1","3723","<p>Well Done !</p><p>Prepare for a new block.</p><p>DON'T EXIT THE FULL SCREEN MODE</p><p>Press the Spacebar to start.</p>","","","32","","","","","","","","","","","","","","","true","148.55676314140672","","","","","","","","","","",""
"html-keyboard-response","170","409027","0.0-14.0","5c10724111fe9a00013cd815","609a8bf73b2ac84e2732f618","609d7ea5111c0a03b5d915c1","null","","","","null","","","","","","","","","","","","","","","","","140.54956422879638","true","153.09912845759277","","","","","","","",""
"instructions","171","466406","0.0-15.0","5c10724111fe9a00013cd815","609a8bf73b2ac84e2732f618","609d7ea5111c0a03b5d915c1","57378","","","","","","","[{""page_index"":0,""viewing_time"":48392},{""page_index"":1,""viewing_time"":4241},{""page_index"":2,""viewing_time"":4745}]","","","","","","","","","","","","","","","","","","","","","","","",""
"psychophysics","172","469805","0.0-16.0-0.0","5c10724111fe9a00013cd815","609a8bf73b2ac84e2732f618","609d7ea5111c0a03b5d915c1","null","","","","null","","","","key","17.742307692307243","800","393","","","","","","","","","","","","","","","","","","","",""
"psychophysics","173","470312","0.0-16.0-1.0","5c10724111fe9a00013cd815","609a8bf73b2ac84e2732f618","609d7ea5111c0a03b5d915c1","null","","","","null","","","","key","21.962727272726955","800","393","","","","","","","","","","","","","153","-1","3","false","","","",""
"psychophysics","174","471453","0.0-16.0-2.0","5c10724111fe9a00013cd815","609a8bf73b2ac84e2732f618","609d7ea5111c0a03b5d915c1","1131","","","","90","","","","key","19.878947368421667","800","393","","","","","","","","","","","","","","","","","","","",""
"psychophysics","175","472269","0.0-16.0-0.1","5c10724111fe9a00013cd815","609a8bf73b2ac84e2732f618","609d7ea5111c0a03b5d915c1","null","","","","null","","","","key","17.030666666665475","800","393","","","","","","","","","","","","","","","","","","","",""
"psychophysics","176","472808","0.0-16.0-1.1","5c10724111fe9a00013cd815","609a8bf73b2ac84e2732f618","609d7ea5111c0a03b5d915c1","null","","","","null","","","","key","19.996799999999347","800","393","","","","","","","","","","","","","153","-1","5","false","","","",""
"psychophysics","177","473735","0.0-16.0-2.1","5c10724111fe9a00013cd815","609a8bf73b2ac84e2732f618","609d7ea5111c0a03b5d915c1","925","","","","77","","","","key","20.365333333333385","800","393","","","","","","","","","","","","","","","","","","","",""
"psychophysics","178","474960","0.0-16.0-0.2","5c10724111fe9a00013cd815","609a8bf73b2ac84e2732f618","609d7ea5111c0a03b5d915c1","null","","","","null","","","","key","19.66721311475429","800","393","","","","","","","","","","","","","","","","","","","",""
"psychophysics","179","475471","0.0-16.0-1.2","5c10724111fe9a00013cd815","609a8bf73b2ac84e2732f618","609d7ea5111c0a03b5d915c1","null","","","","null","","","","key","19.992000000001863","800","393","","","","","","","","","","","","","153","1","5","false","","","",""
"psychophysics","180","476112","0.0-16.0-2.2","5c10724111fe9a00013cd815","609a8bf73b2ac84e2732f618","609d7ea5111c0a03b5d915c1","637","","","","77","","","","key","18.68484848484778","800","393","","","","","","","","","","","","","","","","","","","",""
"psychophysics","181","477166","0.0-16.0-0.3","5c10724111fe9a00013cd815","609a8bf73b2ac84e2732f618","609d7ea5111c0a03b5d915c1","null","","","","null","","","","key","19.1288888888882","800","393","","","","","","","","","","","","","","","","","","","",""
"psychophysics","182","477674","0.0-16.0-1.3","5c10724111fe9a00013cd815","609a8bf73b2ac84e2732f618","609d7ea5111c0a03b5d915c1","null","","","","null","","","","key","22.723636363638267","800","393","","","","","","","","","","","","","153","1","3","false","","","",""
"psychophysics","183","478049","0.0-16.0-2.3","5c10724111fe9a00013cd815","609a8bf73b2ac84e2732f618","609d7ea5111c0a03b5d915c1","372","","","","77","","","","key","16.659047619048838","800","393","","","","","","","","","","","","","","","","","","","",""
"psychophysics","184","479201","0.0-16.0-0.4","5c10724111fe9a00013cd815","609a8bf73b2ac84e2732f618","609d7ea5111c0a03b5d915c1","null","","","","null","","","","key","21.291111111110595","800","393","","","","","","","","","","","","","","","","","","","",""
"psychophysics","185","479790","0.0-16.0-1.4","5c10724111fe9a00013cd815","609a8bf73b2ac84e2732f618","609d7ea5111c0a03b5d915c1","null","","","","null","","","","key","21.995200000000185","800","393","","","","","","","","","","","","","153","1","4","false","","","",""
"psychophysics","186","479989","0.0-16.0-2.4","5c10724111fe9a00013cd815","609a8bf73b2ac84e2732f618","609d7ea5111c0a03b5d915c1","197","","","","77","","","","key","61.08666666666977","800","393","","","","","","","","","","","","","","","","","","","",""
"psychophysics","187","480523","0.0-16.0-0.5","5c10724111fe9a00013cd815","609a8bf73b2ac84e2732f618","609d7ea5111c0a03b5d915c1","null","","","","null","","","","key","24.159999999997673","800","393","","","","","","","","","","","","","","","","","","","",""
"psychophysics","188","481031","0.0-16.0-1.5","5c10724111fe9a00013cd815","609a8bf73b2ac84e2732f618","609d7ea5111c0a03b5d915c1","null","","","","null","","","","key","17.85357142857226","800","393","","","","","","","","","","","","","153","-1","2","false","","","",""
"psychophysics","189","481516","0.0-16.0-2.5","5c10724111fe9a00013cd815","609a8bf73b2ac84e2732f618","609d7ea5111c0a03b5d915c1","483","","","","90","","","","key","25.48352941176306","800","393","","","","","","","","","","","","","","","","","","","",""
"psychophysics","190","482222","0.0-16.0-0.6","5c10724111fe9a00013cd815","609a8bf73b2ac84e2732f618","609d7ea5111c0a03b5d915c1","null","","","","null","","","","key","19.68969696969549","800","393","","","","","","","","","","","","","","","","","","","",""
"psychophysics","191","482724","0.0-16.0-1.6","5c10724111fe9a00013cd815","609a8bf73b2ac84e2732f618","609d7ea5111c0a03b5d915c1","null","","","","null","","","","key","16.664137931034805","800","393","","","","","","","","","","","","","153","-1","4","false","","","",""
"psychophysics","192","483057","0.0-16.0-2.6","5c10724111fe9a00013cd815","609a8bf73b2ac84e2732f618","609d7ea5111c0a03b5d915c1","331","","","","90","","","","key","23.06923076923256","800","393","","","","","","","","","","","","","","","","","","","",""
"psychophysics","193","483799","0.0-16.0-0.7","5c10724111fe9a00013cd815","609a8bf73b2ac84e2732f618","609d7ea5111c0a03b5d915c1","null","","","","null","","","","key","19.294210526315606","800","393","","","","","","","","","","","","","","","","","","","",""
"psychophysics","194","484302","0.0-16.0-1.7","5c10724111fe9a00013cd815","609a8bf73b2ac84e2732f618","609d7ea5111c0a03b5d915c1","null","","","","null","","","","key","16.661379310346593","800","393","","","","","","","","","","","","","153","1","2","false","","","",""
"psychophysics","195","484889","0.0-16.0-2.7","5c10724111fe9a00013cd815","609a8bf73b2ac84e2732f618","609d7ea5111c0a03b5d915c1","586","","","","77","","","","key","18.274838709676143","800","393","","","","","","","","","","","","","","","","","","","",""
"psychophysics","196","486168","0.0-16.0-0.8","5c10724111fe9a00013cd815","609a8bf73b2ac84e2732f618","609d7ea5111c0a03b5d915c1","null","","","","null","","","","key","24.830196078430735","800","393","","","","","","","","","","","","","","","","","","","",""
"psychophysics","197","486763","0.0-16.0-1.8","5c10724111fe9a00013cd815","609a8bf73b2ac84e2732f618","609d7ea5111c0a03b5d915c1","null","","","","null","","","","key","17.85142857142741","800","393","","","","","","","","","","","","","153","-1","6","false","","","",""
"psychophysics","198","487335","0.0-16.0-2.8","5c10724111fe9a00013cd815","609a8bf73b2ac84e2732f618","609d7ea5111c0a03b5d915c1","569","","","","77","","","","key","20.66","800","393","","","","","","","","","","","","","","","","","","","",""
"psychophysics","199","488801","0.0-16.0-0.9","5c10724111fe9a00013cd815","609a8bf73b2ac84e2732f618","609d7ea5111c0a03b5d915c1","null","","","","null","","","","key","19.364864864864863","800","393","","","","","","","","","","","","","","","","","","","",""
"psychophysics","200","489304","0.0-16.0-1.9","5c10724111fe9a00013cd815","609a8bf73b2ac84e2732f618","609d7ea5111c0a03b5d915c1","null","","","","null","","","","key","17.89333333333316","800","393","","","","","","","","","","","","","153","1","6","false","","","",""
"psychophysics","201","489638","0.0-16.0-2.9","5c10724111fe9a00013cd815","609a8bf73b2ac84e2732f618","609d7ea5111c0a03b5d915c1","332","","","","77","","","","key","17.592222222224034","800","393","","","","","","","","","","","","","","","","","","","",""
"psychophysics","202","490435","0.0-16.0-0.10","5c10724111fe9a00013cd815","609a8bf73b2ac84e2732f618","609d7ea5111c0a03b5d915c1","null","","","","null","","","","key","22.374285714286714","800","393","","","","","","","","","","","","","","","","","","","",""
"psychophysics","203","490937","0.0-16.0-1.10","5c10724111fe9a00013cd815","609a8bf73b2ac84e2732f618","609d7ea5111c0a03b5d915c1","null","","","","null","","","","key","17.894814814813866","800","393","","","","","","","","","","","","","153","-1","0","false","","","",""
"psychophysics","204","491454","0.0-16.0-2.10","5c10724111fe9a00013cd815","609a8bf73b2ac84e2732f618","609d7ea5111c0a03b5d915c1","516","","","","77","","","","key","18.51555555555495","800","393","","","","","","","","","","","","","","","","","","","",""
"psychophysics","205","492856","0.0-16.0-0.11","5c10724111fe9a00013cd815","609a8bf73b2ac84e2732f618","609d7ea5111c0a03b5d915c1","null","","","","null","","","","key","19.801449275362994","800","393","","","","","","","","","","","","","","","","","","","",""
"psychophysics","206","493411","0.0-16.0-1.11","5c10724111fe9a00013cd815","609a8bf73b2ac84e2732f618","609d7ea5111c0a03b5d915c1","null","","","","null","","","","key","22.91166666666686","800","393","","","","","","","","","","","","","153","1","0","false","","","",""
"psychophysics","207","493754","0.0-16.0-2.11","5c10724111fe9a00013cd815","609a8bf73b2ac84e2732f618","609d7ea5111c0a03b5d915c1","339","","","","77","","","","key","45.22571428571661","800","393","","","","","","","","","","","","","","","","","","","",""
"psychophysics","208","495051","0.0-16.0-0.12","5c10724111fe9a00013cd815","609a8bf73b2ac84e2732f618","609d7ea5111c0a03b5d915c1","null","","","","null","","","","key","20.615932203389278","800","393","","","","","","","","","","","","","","","","","","","",""
"psychophysics","209","495581","0.0-16.0-1.12","5c10724111fe9a00013cd815","609a8bf73b2ac84e2732f618","609d7ea5111c0a03b5d915c1","null","","","","null","","","","key","35.70571428571462","800","393","","","","","","","","","","","","","153","-1","2","false","","","",""
"psychophysics","210","496154","0.0-16.0-2.12","5c10724111fe9a00013cd815","609a8bf73b2ac84e2732f618","609d7ea5111c0a03b5d915c1","571","","","","90","","","","key","23.907826086956725","800","393","","","","","","","","","","","","","","","","","","","",""
"psychophysics","211","497464","0.0-16.0-0.13","5c10724111fe9a00013cd815","609a8bf73b2ac84e2732f618","609d7ea5111c0a03b5d915c1","null","","","","null","","","","key","28.8808888888892","800","393","","","","","","","","","","","","","","","","","","","",""
"psychophysics","212","497982","0.0-16.0-1.13","5c10724111fe9a00013cd815","609a8bf73b2ac84e2732f618","609d7ea5111c0a03b5d915c1","null","","","","null","","","","key","33.32399999999907","800","393","","","","","","","","","","","","","153","-1","6","false","","","",""
"psychophysics","213","498382","0.0-16.0-2.13","5c10724111fe9a00013cd815","609a8bf73b2ac84e2732f618","609d7ea5111c0a03b5d915c1","400","","","","77","","","","key","26.915384615381928","800","393","","","","","","","","","","","","","","","","","","","",""
"psychophysics","214","499404","0.0-16.0-0.14","5c10724111fe9a00013cd815","609a8bf73b2ac84e2732f618","609d7ea5111c0a03b5d915c1","null","","","","null","","","","key","81.92500000000291","800","393","","","","","","","","","","","","","","","","","","","",""
"psychophysics","215","499935","0.0-16.0-1.14","5c10724111fe9a00013cd815","609a8bf73b2ac84e2732f618","609d7ea5111c0a03b5d915c1","null","","","","null","","","","key","46.95636363636533","800","393","","","","","","","","","","","","","153","1","5","false","","","",""
"psychophysics","216","500427","0.0-16.0-2.14","5c10724111fe9a00013cd815","609a8bf73b2ac84e2732f618","609d7ea5111c0a03b5d915c1","490","","","","77","","","","key","23.008571428571095","800","393","","","","","","","","","","","","","","","","","","","",""
"psychophysics","217","501399","0.0-16.0-0.15","5c10724111fe9a00013cd815","609a8bf73b2ac84e2732f618","609d7ea5111c0a03b5d915c1","null","","","","null","","","","key","23.164390243903632","800","393","","","","","","","","","","","","","","","","","","","",""
"psychophysics","218","501902","0.0-16.0-1.15","5c10724111fe9a00013cd815","609a8bf73b2ac84e2732f618","609d7ea5111c0a03b5d915c1","null","","","","null","","","","key","21.960909090909727","800","393","","","","","","","","","","","","","153","-1","4","false","","","",""
"psychophysics","219","502260","0.0-16.0-2.15","5c10724111fe9a00013cd815","609a8bf73b2ac84e2732f618","609d7ea5111c0a03b5d915c1","358","","","","77","","","","key","17.5","800","393","","","","","","","","","","","","","","","","","","","",""
"psychophysics","220","502985","0.0-16.0-0.16","5c10724111fe9a00013cd815","609a8bf73b2ac84e2732f618","609d7ea5111c0a03b5d915c1","null","","","","null","","","","key","74.05111111111344","800","393","","","","","","","","","","","","","","","","","","","",""
"psychophysics","221","503600","0.0-16.0-1.16","5c10724111fe9a00013cd815","609a8bf73b2ac84e2732f618","609d7ea5111c0a03b5d915c1","null","","","","null","","","","key","30.551111111110206","800","393","","","","","","","","","","","","","153","1","4","false","","","",""
"psychophysics","222","504052","0.0-16.0-2.16","5c10724111fe9a00013cd815","609a8bf73b2ac84e2732f618","609d7ea5111c0a03b5d915c1","430","","","","77","","","","key","18.220000000001164","800","393","","","","","","","","","","","","","","","","","","","",""
"psychophysics","223","504746","0.0-16.0-0.17","5c10724111fe9a00013cd815","609a8bf73b2ac84e2732f618","609d7ea5111c0a03b5d915c1","null","","","","null","","","","key","41.65625","800","393","","","","","","","","","","","","","","","","","","","",""
"psychophysics","224","505254","0.0-16.0-1.17","5c10724111fe9a00013cd815","609a8bf73b2ac84e2732f618","609d7ea5111c0a03b5d915c1","null","","","","null","","","","key","30.63000000000102","800","393","","","","","","","","","","","","","153","1","6","false","","","",""
"psychophysics","225","505852","0.0-16.0-2.17","5c10724111fe9a00013cd815","609a8bf73b2ac84e2732f618","609d7ea5111c0a03b5d915c1","592","","","","77","","","","key","17.704999999999927","800","393","","","","","","","","","","","","","","","","","","","",""
"psychophysics","226","507143","0.0-16.0-0.18","5c10724111fe9a00013cd815","609a8bf73b2ac84e2732f618","609d7ea5111c0a03b5d915c1","null","","","","null","","","","key","28.510222222222687","800","393","","","","","","","","","","","","","","","","","","","",""
"psychophysics","227","507645","0.0-16.0-1.18","5c10724111fe9a00013cd815","609a8bf73b2ac84e2732f618","609d7ea5111c0a03b5d915c1","null","","","","null","","","","key","19.329599999999626","800","393","","","","","","","","","","","","","153","1","3","false","","","",""
"psychophysics","228","507991","0.0-16.0-2.18","5c10724111fe9a00013cd815","609a8bf73b2ac84e2732f618","609d7ea5111c0a03b5d915c1","345","","","","77","","","","key","66.64799999999813","800","393","","","","","","","","","","","","","","","","","","","",""
"psychophysics","229","508797","0.0-16.0-0.19","5c10724111fe9a00013cd815","609a8bf73b2ac84e2732f618","609d7ea5111c0a03b5d915c1","null","","","","null","","","","key","22.373142857142792","800","393","","","","","","","","","","","","","","","","","","","",""
"psychophysics","230","509312","0.0-16.0-1.19","5c10724111fe9a00013cd815","609a8bf73b2ac84e2732f618","609d7ea5111c0a03b5d915c1","null","","","","null","","","","key","21.733043478260264","800","393","","","","","","","","","","","","","153","1","0","false","","","",""
"psychophysics","231","509536","0.0-16.0-2.19","5c10724111fe9a00013cd815","609a8bf73b2ac84e2732f618","609d7ea5111c0a03b5d915c1","222","","","","77","","","","key","41.66500000000815","800","393","","","","","","","","","","","","","","","","","","","",""
"psychophysics","232","510363","0.0-16.0-0.20","5c10724111fe9a00013cd815","609a8bf73b2ac84e2732f618","609d7ea5111c0a03b5d915c1","null","","","","null","","","","key","28.383703703703187","800","393","","","","","","","","","","","","","","","","","","","",""
"psychophysics","233","510866","0.0-16.0-1.20","5c10724111fe9a00013cd815","609a8bf73b2ac84e2732f618","609d7ea5111c0a03b5d915c1","null","","","","null","","","","key","18.586923076923433","800","393","","","","","","","","","","","","","153","-1","3","false","","","",""
"psychophysics","234","511393","0.0-16.0-2.20","5c10724111fe9a00013cd815","609a8bf73b2ac84e2732f618","609d7ea5111c0a03b5d915c1","527","","","","90","","","","key","22.460000000000708","800","393","","","","","","","","","","","","","","","","","","","",""
"psychophysics","235","512229","0.0-16.0-0.21","5c10724111fe9a00013cd815","609a8bf73b2ac84e2732f618","609d7ea5111c0a03b5d915c1","null","","","","null","","","","key","32.6316666666656","800","393","","","","","","","","","","","","","","","","","","","",""
"psychophysics","236","512732","0.0-16.0-1.21","5c10724111fe9a00013cd815","609a8bf73b2ac84e2732f618","609d7ea5111c0a03b5d915c1","null","","","","null","","","","key","20.130833333333914","800","393","","","","","","","","","","","","","153","1","2","false","","","",""
"psychophysics","237","513115","0.0-16.0-2.21","5c10724111fe9a00013cd815","609a8bf73b2ac84e2732f618","609d7ea5111c0a03b5d915c1","382","","","","77","","","","key","17.459047619048285","800","393","","","","","","","","","","","","","","","","","","","",""
"psychophysics","238","513942","0.0-16.0-0.22","5c10724111fe9a00013cd815","609a8bf73b2ac84e2732f618","609d7ea5111c0a03b5d915c1","null","","","","null","","","","key","33.326666666667734","800","393","","","","","","","","","","","","","","","","","","","",""
"psychophysics","239","514447","0.0-16.0-1.22","5c10724111fe9a00013cd815","609a8bf73b2ac84e2732f618","609d7ea5111c0a03b5d915c1","null","","","","null","","","","key","16.663448275861747","800","393","","","","","","","","","","","","","153","-1","0","false","","","",""
"psychophysics","240","514819","0.0-16.0-2.22","5c10724111fe9a00013cd815","609a8bf73b2ac84e2732f618","609d7ea5111c0a03b5d915c1","371","","","","77","","","","key","26.9107692307712","800","393","","","","","","","","","","","","","","","","","","","",""
"psychophysics","241","515333","0.0-16.0-0.23","5c10724111fe9a00013cd815","609a8bf73b2ac84e2732f618","609d7ea5111c0a03b5d915c1","null","","","","null","","","","key","34.61076923076941","800","393","","","","","","","","","","","","","","","","","","","",""
"psychophysics","242","515842","0.0-16.0-1.23","5c10724111fe9a00013cd815","609a8bf73b2ac84e2732f618","609d7ea5111c0a03b5d915c1","null","","","","null","","","","key","29.403529411763884","800","393","","","","","","","","","","","","","153","-1","5","false","","","",""
"psychophysics","243","516449","0.0-16.0-2.23","5c10724111fe9a00013cd815","609a8bf73b2ac84e2732f618","609d7ea5111c0a03b5d915c1","607","","","","77","","","","key","16.660571428571295","800","393","","","","","","","","","","","","","","","","","","","",""
"html-keyboard-response","244","523103","0.0-17.0","5c10724111fe9a00013cd815","609a8bf73b2ac84e2732f618","609d7ea5111c0a03b5d915c1","6653","<p>Well Done !</p><p>Training Complete. Press the spacebar to start.</p><p>DON'T EXIT THE FULL SCREEN MODE</p>","","","32","","","","","","","","","","","","","","","","","","","","","","","","","","",""
"psychophysics","245","526430","0.0-18.0-0.0","5c10724111fe9a00013cd815","609a8bf73b2ac84e2732f618","609d7ea5111c0a03b5d915c1","null","","","","null","","","","key","20.57000000000135","800","393","","","","","","","","","","","","","","","","","","","",""
"psychophysics","246","526939","0.0-18.0-1.0","5c10724111fe9a00013cd815","609a8bf73b2ac84e2732f618","609d7ea5111c0a03b5d915c1","null","","","","null","","","","key","22.720909090908457","800","393","","","","","","","","","","","","","153","-1","6","true","","","",""
"psychophysics","247","527629","0.0-18.0-2.0","5c10724111fe9a00013cd815","609a8bf73b2ac84e2732f618","609d7ea5111c0a03b5d915c1","689","","","","77","","","","key","19.603529411765255","800","393","","","","","","","","","","","","","","","","","","","",""
"psychophysics","248","528896","0.0-18.0-0.1","5c10724111fe9a00013cd815","609a8bf73b2ac84e2732f618","609d7ea5111c0a03b5d915c1","null","","","","null","","","","key","29.755714285714063","800","393","","","","","","","","","","","","","","","","","","","",""
"psychophysics","249","529426","0.0-18.0-1.1","5c10724111fe9a00013cd815","609a8bf73b2ac84e2732f618","609d7ea5111c0a03b5d915c1","null","","","","null","","","","key","16.659354838707873","800","393","","","","","","","","","","","","","153","1","4","true","","","",""
"psychophysics","250","529819","0.0-18.0-2.1","5c10724111fe9a00013cd815","609a8bf73b2ac84e2732f618","609d7ea5111c0a03b5d915c1","391","","","","90","","","","key","35.18222222222377","800","393","","","","","","","","","","","","","","","","","","","",""
"psychophysics","251","530599","0.0-18.0-0.2","5c10724111fe9a00013cd815","609a8bf73b2ac84e2732f618","609d7ea5111c0a03b5d915c1","null","","","","null","","","","key","41.09866666666542","800","393","","","","","","","","","","","","","","","","","","","",""
"psychophysics","252","531172","0.0-18.0-1.2","5c10724111fe9a00013cd815","609a8bf73b2ac84e2732f618","609d7ea5111c0a03b5d915c1","null","","","","null","","","","key","23.605000000000775","800","393","","","","","","","","","","","","","153","-1","0","true","","","",""
"psychophysics","253","531859","0.0-18.0-2.2","5c10724111fe9a00013cd815","609a8bf73b2ac84e2732f618","609d7ea5111c0a03b5d915c1","688","","","","90","","","","key","20.19636363636307","800","393","","","","","","","","","","","","","","","","","","","",""
"psychophysics","254","532876","0.0-18.0-0.3","5c10724111fe9a00013cd815","609a8bf73b2ac84e2732f618","609d7ea5111c0a03b5d915c1","null","","","","null","","","","key","24.992631578946632","800","393","","","","","","","","","","","","","","","","","","","",""
"psychophysics","255","533434","0.0-18.0-1.3","5c10724111fe9a00013cd815","609a8bf73b2ac84e2732f618","609d7ea5111c0a03b5d915c1","null","","","","null","","","","key","29.622222222219634","800","393","","","","","","","","","","","","","153","-1","4","true","","","",""
"psychophysics","256","533776","0.0-18.0-2.3","5c10724111fe9a00013cd815","609a8bf73b2ac84e2732f618","609d7ea5111c0a03b5d915c1","340","","","","77","","","","key","52.76333333334575","800","393","","","","","","","","","","","","","","","","","","","",""
"psychophysics","257","534737","0.0-18.0-0.4","5c10724111fe9a00013cd815","609a8bf73b2ac84e2732f618","609d7ea5111c0a03b5d915c1","null","","","","null","","","","key","28.780606060606342","800","393","","","","","","","","","","","","","","","","","","","",""
"psychophysics","258","535241","0.0-18.0-1.4","5c10724111fe9a00013cd815","609a8bf73b2ac84e2732f618","609d7ea5111c0a03b5d915c1","null","","","","null","","","","key","45.22000000000532","800","393","","","","","","","","","","","","","153","1","0","true","","","",""
"psychophysics","259","536066","0.0-18.0-2.4","5c10724111fe9a00013cd815","609a8bf73b2ac84e2732f618","609d7ea5111c0a03b5d915c1","823","","","","77","","","","key","21.617297297296417","800","393","","","","","","","","","","","","","","","","","","","",""
"psychophysics","260","536928","0.0-18.0-0.5","5c10724111fe9a00013cd815","609a8bf73b2ac84e2732f618","609d7ea5111c0a03b5d915c1","null","","","","null","","","","key","23.033529411765116","800","393","","","","","","","","","","","","","","","","","","","",""
"psychophysics","261","537437","0.0-18.0-1.5","5c10724111fe9a00013cd815","609a8bf73b2ac84e2732f618","609d7ea5111c0a03b5d915c1","null","","","","null","","","","key","34.518571428572095","800","393","","","","","","","","","","","","","153","-1","5","true","","","",""
"psychophysics","262","538005","0.0-18.0-2.5","5c10724111fe9a00013cd815","609a8bf73b2ac84e2732f618","609d7ea5111c0a03b5d915c1","565","","","","77","","","","key","17.85142857142741","800","393","","","","","","","","","","","","","","","","","","","",""
"psychophysics","263","538923","0.0-18.0-0.6","5c10724111fe9a00013cd815","609a8bf73b2ac84e2732f618","609d7ea5111c0a03b5d915c1","null","","","","null","","","","key","24.99333333333359","800","393","","","","","","","","","","","","","","","","","","","",""
"psychophysics","264","539442","0.0-18.0-1.6","5c10724111fe9a00013cd815","609a8bf73b2ac84e2732f618","609d7ea5111c0a03b5d915c1","null","","","","null","","","","key","20.133333333331393","800","393","","","","","","","","","","","","","153","-1","3","true","","","",""
"psychophysics","265","539907","0.0-18.0-2.6","5c10724111fe9a00013cd815","609a8bf73b2ac84e2732f618","609d7ea5111c0a03b5d915c1","463","","","","77","","","","key","34.60615384615421","800","393","","","","","","","","","","","","","","","","","","","",""
"psychophysics","266","541252","0.0-18.0-0.7","5c10724111fe9a00013cd815","609a8bf73b2ac84e2732f618","609d7ea5111c0a03b5d915c1","null","","","","null","","","","key","30.225116279068253","800","393","","","","","","","","","","","","","","","","","","","",""
"psychophysics","267","541804","0.0-18.0-1.7","5c10724111fe9a00013cd815","609a8bf73b2ac84e2732f618","609d7ea5111c0a03b5d915c1","null","","","","null","","","","key","66.64250000000175","800","393","","","","","","","","","","","","","153","1","5","true","","","",""
"psychophysics","268","542353","0.0-18.0-2.7","5c10724111fe9a00013cd815","609a8bf73b2ac84e2732f618","609d7ea5111c0a03b5d915c1","547","","","","77","","","","key","35.54933333333271","800","393","","","","","","","","","","","","","","","","","","","",""
"psychophysics","269","543333","0.0-18.0-0.8","5c10724111fe9a00013cd815","609a8bf73b2ac84e2732f618","609d7ea5111c0a03b5d915c1","null","","","","null","","","","key","19.328400000000837","800","393","","","","","","","","","","","","","","","","","","","",""
"psychophysics","270","543873","0.0-18.0-1.8","5c10724111fe9a00013cd815","609a8bf73b2ac84e2732f618","609d7ea5111c0a03b5d915c1","null","","","","null","","","","key","73.7914285714339","800","393","","","","","","","","","","","","","153","1","2","true","","","",""
"psychophysics","271","544330","0.0-18.0-2.8","5c10724111fe9a00013cd815","609a8bf73b2ac84e2732f618","609d7ea5111c0a03b5d915c1","455","","","","77","","","","key","20.632380952382285","800","393","","","","","","","","","","","","","","","","","","","",""
"psychophysics","272","544989","0.0-18.0-0.9","5c10724111fe9a00013cd815","609a8bf73b2ac84e2732f618","609d7ea5111c0a03b5d915c1","null","","","","null","","","","key","19.88774193548447","800","393","","","","","","","","","","","","","","","","","","","",""
"psychophysics","273","545502","0.0-18.0-1.9","5c10724111fe9a00013cd815","609a8bf73b2ac84e2732f618","609d7ea5111c0a03b5d915c1","null","","","","null","","","","key","46.94909090909641","800","393","","","","","","","","","","","","","153","1","6","true","","","",""
"psychophysics","274","546015","0.0-18.0-2.9","5c10724111fe9a00013cd815","609a8bf73b2ac84e2732f618","609d7ea5111c0a03b5d915c1","510","","","","77","","","","key","25.923333333333076","800","393","","","","","","","","","","","","","","","","","","","",""
"psychophysics","275","547301","0.0-18.0-0.10","5c10724111fe9a00013cd815","609a8bf73b2ac84e2732f618","609d7ea5111c0a03b5d915c1","null","","","","null","","","","key","21.83413793103456","800","393","","","","","","","","","","","","","","","","","","","",""
"psychophysics","276","547805","0.0-18.0-1.10","5c10724111fe9a00013cd815","609a8bf73b2ac84e2732f618","609d7ea5111c0a03b5d915c1","null","","","","null","","","","key","24.159999999997673","800","393","","","","","","","","","","","","","153","-1","2","true","","","",""
"psychophysics","277","548207","0.0-18.0-2.10","5c10724111fe9a00013cd815","609a8bf73b2ac84e2732f618","609d7ea5111c0a03b5d915c1","400","","","","90","","","","key","16.661739130433567","800","393","","","","","","","","","","","","","","","","","","","",""
"psychophysics","278","549140","0.0-18.0-0.11","5c10724111fe9a00013cd815","609a8bf73b2ac84e2732f618","609d7ea5111c0a03b5d915c1","null","","","","null","","","","key","30.546000000000156","800","393","","","","","","","","","","","","","","","","","","","",""
"psychophysics","279","549683","0.0-18.0-1.11","5c10724111fe9a00013cd815","609a8bf73b2ac84e2732f618","609d7ea5111c0a03b5d915c1","null","","","","null","","","","key","23.185217391304754","800","393","","","","","","","","","","","","","153","1","3","true","","","",""
"psychophysics","280","549851","0.0-18.0-2.11","5c10724111fe9a00013cd815","609a8bf73b2ac84e2732f618","609d7ea5111c0a03b5d915c1","165","","","","77","","","","key","18.73750000000291","800","393","","","","","","","","","","","","","","","","","","","",""
"psychophysics","281","550561","0.0-18.0-0.12","5c10724111fe9a00013cd815","609a8bf73b2ac84e2732f618","609d7ea5111c0a03b5d915c1","null","","","","null","","","","key","22.217333333333954","800","393","","","","","","","","","","","","","","","","","","","",""
"psychophysics","282","551069","0.0-18.0-1.12","5c10724111fe9a00013cd815","609a8bf73b2ac84e2732f618","609d7ea5111c0a03b5d915c1","null","","","","null","","","","key","43.927272727279075","800","393","","","","","","","","","","","","","153","-1","2","true","","","",""
"psychophysics","283","551499","0.0-18.0-2.12","5c10724111fe9a00013cd815","609a8bf73b2ac84e2732f618","609d7ea5111c0a03b5d915c1","428","","","","90","","","","key","18.91909090908964","800","393","","","","","","","","","","","","","","","","","","","",""
"psychophysics","284","552369","0.0-18.0-0.13","5c10724111fe9a00013cd815","609a8bf73b2ac84e2732f618","609d7ea5111c0a03b5d915c1","null","","","","null","","","","key","38.596842105261445","800","393","","","","","","","","","","","","","","","","","","","",""
"psychophysics","285","552870","0.0-18.0-1.13","5c10724111fe9a00013cd815","609a8bf73b2ac84e2732f618","609d7ea5111c0a03b5d915c1","null","","","","null","","","","key","25.922222222220928","800","393","","","","","","","","","","","","","153","-1","6","true","","","",""
"psychophysics","286","553302","0.0-18.0-2.13","5c10724111fe9a00013cd815","609a8bf73b2ac84e2732f618","609d7ea5111c0a03b5d915c1","430","","","","90","","","","key","27.774666666666356","800","393","","","","","","","","","","","","","","","","","","","",""
"psychophysics","287","554706","0.0-18.0-0.14","5c10724111fe9a00013cd815","609a8bf73b2ac84e2732f618","609d7ea5111c0a03b5d915c1","null","","","","null","","","","key","21.276307692307117","800","393","","","","","","","","","","","","","","","","","","","",""
"psychophysics","288","555213","0.0-18.0-1.14","5c10724111fe9a00013cd815","609a8bf73b2ac84e2732f618","609d7ea5111c0a03b5d915c1","null","","","","null","","","","key","17.23655172413745","800","393","","","","","","","","","","","","","153","1","0","true","","","",""
"psychophysics","289","556185","0.0-18.0-2.14","5c10724111fe9a00013cd815","609a8bf73b2ac84e2732f618","609d7ea5111c0a03b5d915c1","970","","","","90","","","","key","27.137142857144188","800","393","","","","","","","","","","","","","","","","","","","",""
"psychophysics","290","557531","0.0-18.0-0.15","5c10724111fe9a00013cd815","609a8bf73b2ac84e2732f618","609d7ea5111c0a03b5d915c1","null","","","","null","","","","key","19.042857142857144","800","393","","","","","","","","","","","","","","","","","","","",""
"psychophysics","291","558054","0.0-18.0-1.15","5c10724111fe9a00013cd815","609a8bf73b2ac84e2732f618","609d7ea5111c0a03b5d915c1","null","","","","null","","","","key","35.707142857136205","800","393","","","","","","","","","","","","","153","-1","0","true","","","",""
"psychophysics","292","558468","0.0-18.0-2.15","5c10724111fe9a00013cd815","609a8bf73b2ac84e2732f618","609d7ea5111c0a03b5d915c1","413","","","","90","","","","key","18.42105263157895","800","393","","","","","","","","","","","","","","","","","","","",""
"psychophysics","293","559391","0.0-18.0-0.16","5c10724111fe9a00013cd815","609a8bf73b2ac84e2732f618","609d7ea5111c0a03b5d915c1","null","","","","null","","","","key","21.538048780486328","800","393","","","","","","","","","","","","","","","","","","","",""
"psychophysics","294","559896","0.0-18.0-1.16","5c10724111fe9a00013cd815","609a8bf73b2ac84e2732f618","609d7ea5111c0a03b5d915c1","null","","","","null","","","","key","23.011428571428127","800","393","","","","","","","","","","","","","153","1","2","true","","","",""
"psychophysics","295","560465","0.0-18.0-2.16","5c10724111fe9a00013cd815","609a8bf73b2ac84e2732f618","609d7ea5111c0a03b5d915c1","566","","","","90","","","","key","17.73612903225641","800","393","","","","","","","","","","","","","","","","","","","",""
"psychophysics","296","561653","0.0-18.0-0.17","5c10724111fe9a00013cd815","609a8bf73b2ac84e2732f618","609d7ea5111c0a03b5d915c1","null","","","","null","","","","key","22.869019607842134","800","393","","","","","","","","","","","","","","","","","","","",""
"psychophysics","297","562163","0.0-18.0-1.17","5c10724111fe9a00013cd815","609a8bf73b2ac84e2732f618","609d7ea5111c0a03b5d915c1","null","","","","null","","","","key","16.662666666666823","800","393","","","","","","","","","","","","","153","1","6","true","","","",""
"psychophysics","298","562412","0.0-18.0-2.17","5c10724111fe9a00013cd815","609a8bf73b2ac84e2732f618","609d7ea5111c0a03b5d915c1","247","","","","77","","","","key","18.04833333332984","800","393","","","","","","","","","","","","","","","","","","","",""
"psychophysics","299","563813","0.0-18.0-0.18","5c10724111fe9a00013cd815","609a8bf73b2ac84e2732f618","609d7ea5111c0a03b5d915c1","null","","","","null","","","","key","31.054090909091016","800","393","","","","","","","","","","","","","","","","","","","",""
"psychophysics","300","564331","0.0-18.0-1.18","5c10724111fe9a00013cd815","609a8bf73b2ac84e2732f618","609d7ea5111c0a03b5d915c1","null","","","","null","","","","key","19.99119999999646","800","393","","","","","","","","","","","","","153","-1","3","true","","","",""
"psychophysics","301","564679","0.0-18.0-2.18","5c10724111fe9a00013cd815","609a8bf73b2ac84e2732f618","609d7ea5111c0a03b5d915c1","344","","","","77","","","","key","55.5533333333442","800","393","","","","","","","","","","","","","","","","","","","",""
"psychophysics","302","565548","0.0-18.0-0.19","5c10724111fe9a00013cd815","609a8bf73b2ac84e2732f618","609d7ea5111c0a03b5d915c1","null","","","","null","","","","key","21.244999999998253","800","393","","","","","","","","","","","","","","","","","","","",""
"psychophysics","303","566086","0.0-18.0-1.19","5c10724111fe9a00013cd815","609a8bf73b2ac84e2732f618","609d7ea5111c0a03b5d915c1","null","","","","null","","","","key","16.659999999997673","800","393","","","","","","","","","","","","","153","-1","5","true","","","",""
"psychophysics","304","566392","0.0-18.0-2.19","5c10724111fe9a00013cd815","609a8bf73b2ac84e2732f618","609d7ea5111c0a03b5d915c1","258","","","","77","","","","key","94.42666666667598","800","393","","","","","","","","","","","","","","","","","","","",""
"psychophysics","305","567314","0.0-18.0-0.20","5c10724111fe9a00013cd815","609a8bf73b2ac84e2732f618","609d7ea5111c0a03b5d915c1","null","","","","null","","","","key","20.78380952380775","800","393","","","","","","","","","","","","","","","","","","","",""
"psychophysics","306","567819","0.0-18.0-1.20","5c10724111fe9a00013cd815","609a8bf73b2ac84e2732f618","609d7ea5111c0a03b5d915c1","null","","","","null","","","","key","19.560869565218404","800","393","","","","","","","","","","","","","153","1","5","true","","","",""
"psychophysics","307","568101","0.0-18.0-2.20","5c10724111fe9a00013cd815","609a8bf73b2ac84e2732f618","609d7ea5111c0a03b5d915c1","282","","","","77","","","","key","44.43333333332945","800","393","","","","","","","","","","","","","","","","","","","",""
"psychophysics","308","568696","0.0-18.0-0.21","5c10724111fe9a00013cd815","609a8bf73b2ac84e2732f618","609d7ea5111c0a03b5d915c1","null","","","","null","","","","key","24.989000000001397","800","393","","","","","","","","","","","","","","","","","","","",""
"psychophysics","309","569198","0.0-18.0-1.21","5c10724111fe9a00013cd815","609a8bf73b2ac84e2732f618","609d7ea5111c0a03b5d915c1","null","","","","null","","","","key","19.323199999998323","800","393","","","","","","","","","","","","","153","1","3","true","","","",""
"psychophysics","310","569649","0.0-18.0-2.21","5c10724111fe9a00013cd815","609a8bf73b2ac84e2732f618","609d7ea5111c0a03b5d915c1","450","","","","90","","","","key","21.66699999999837","800","393","","","","","","","","","","","","","","","","","","","",""
"psychophysics","311","570202","0.0-18.0-0.22","5c10724111fe9a00013cd815","609a8bf73b2ac84e2732f618","609d7ea5111c0a03b5d915c1","null","","","","null","","","","key","33.32749999999942","800","393","","","","","","","","","","","","","","","","","","","",""
"psychophysics","312","570712","0.0-18.0-1.22","5c10724111fe9a00013cd815","609a8bf73b2ac84e2732f618","609d7ea5111c0a03b5d915c1","null","","","","null","","","","key","20.827499999999418","800","393","","","","","","","","","","","","","153","-1","4","true","","","",""
"psychophysics","313","571082","0.0-18.0-2.22","5c10724111fe9a00013cd815","609a8bf73b2ac84e2732f618","609d7ea5111c0a03b5d915c1","369","","","","90","","","","key","16.66190476190587","800","393","","","","","","","","","","","","","","","","","","","",""
"psychophysics","314","572064","0.0-18.0-0.23","5c10724111fe9a00013cd815","609a8bf73b2ac84e2732f618","609d7ea5111c0a03b5d915c1","null","","","","null","","","","key","25.668648648648396","800","393","","","","","","","","","","","","","","","","","","","",""
"psychophysics","315","572566","0.0-18.0-1.23","5c10724111fe9a00013cd815","609a8bf73b2ac84e2732f618","609d7ea5111c0a03b5d915c1","null","","","","null","","","","key","17.898518518518863","800","393","","","","","","","","","","","","","153","1","4","true","","","",""
"psychophysics","316","572784","0.0-18.0-2.23","5c10724111fe9a00013cd815","609a8bf73b2ac84e2732f618","609d7ea5111c0a03b5d915c1","214","","","","77","","","","key","16.656666666667054","800","393","","","","","","","","","","","","","","","","","","","",""
"psychophysics","317","573750","0.0-18.0-0.24","5c10724111fe9a00013cd815","609a8bf73b2ac84e2732f618","609d7ea5111c0a03b5d915c1","null","","","","null","","","","key","23.16439024390221","800","393","","","","","","","","","","","","","","","","","","","",""
"psychophysics","318","574264","0.0-18.0-1.24","5c10724111fe9a00013cd815","609a8bf73b2ac84e2732f618","609d7ea5111c0a03b5d915c1","null","","","","null","","","","key","48.32600000000093","800","393","","","","","","","","","","","","","153","1","6","true","","","",""
"psychophysics","319","574894","0.0-18.0-2.24","5c10724111fe9a00013cd815","609a8bf73b2ac84e2732f618","609d7ea5111c0a03b5d915c1","628","","","","77","","","","key","17.614857142854348","800","393","","","","","","","","","","","","","","","","","","","",""
"psychophysics","320","575847","0.0-18.0-0.25","5c10724111fe9a00013cd815","609a8bf73b2ac84e2732f618","609d7ea5111c0a03b5d915c1","null","","","","null","","","","key","22.49550000000163","800","393","","","","","","","","","","","","","","","","","","","",""
"psychophysics","321","576349","0.0-18.0-1.25","5c10724111fe9a00013cd815","609a8bf73b2ac84e2732f618","609d7ea5111c0a03b5d915c1","null","","","","null","","","","key","48.320000000006985","800","393","","","","","","","","","","","","","153","-1","2","true","","","",""
"psychophysics","322","576800","0.0-18.0-2.25","5c10724111fe9a00013cd815","609a8bf73b2ac84e2732f618","609d7ea5111c0a03b5d915c1","450","","","","90","","","","key","16.663076923081043","800","393","","","","","","","","","","","","","","","","","","","",""
"psychophysics","323","578115","0.0-18.0-0.26","5c10724111fe9a00013cd815","609a8bf73b2ac84e2732f618","609d7ea5111c0a03b5d915c1","null","","","","null","","","","key","22.02813559322089","800","393","","","","","","","","","","","","","","","","","","","",""
"psychophysics","324","578644","0.0-18.0-1.26","5c10724111fe9a00013cd815","609a8bf73b2ac84e2732f618","609d7ea5111c0a03b5d915c1","null","","","","null","","","","key","17.85142857142741","800","393","","","","","","","","","","","","","153","-1","4","true","","","",""
"psychophysics","325","578925","0.0-18.0-2.26","5c10724111fe9a00013cd815","609a8bf73b2ac84e2732f618","609d7ea5111c0a03b5d915c1","279","","","","77","","","","key","20.513846153850093","800","393","","","","","","","","","","","","","","","","","","","",""
"psychophysics","326","579863","0.0-18.0-0.27","5c10724111fe9a00013cd815","609a8bf73b2ac84e2732f618","609d7ea5111c0a03b5d915c1","null","","","","null","","","","key","24.117368421054714","800","393","","","","","","","","","","","","","","","","","","","",""
"psychophysics","327","580364","0.0-18.0-1.27","5c10724111fe9a00013cd815","609a8bf73b2ac84e2732f618","609d7ea5111c0a03b5d915c1","null","","","","null","","","","key","16.662758620692706","800","393","","","","","","","","","","","","","153","-1","5","true","","","",""
"psychophysics","328","580666","0.0-18.0-2.27","5c10724111fe9a00013cd815","609a8bf73b2ac84e2732f618","609d7ea5111c0a03b5d915c1","300","","","","77","","","","key","22.21500000000621","800","393","","","","","","","","","","","","","","","","","","","",""
"psychophysics","329","581579","0.0-18.0-0.28","5c10724111fe9a00013cd815","609a8bf73b2ac84e2732f618","609d7ea5111c0a03b5d915c1","null","","","","null","","","","key","24.994444444445737","800","393","","","","","","","","","","","","","","","","","","","",""
"psychophysics","330","582161","0.0-18.0-1.28","5c10724111fe9a00013cd815","609a8bf73b2ac84e2732f618","609d7ea5111c0a03b5d915c1","null","","","","null","","","","key","16.661481481480966","800","393","","","","","","","","","","","","","153","1","5","true","","","",""
"psychophysics","331","582495","0.0-18.0-2.28","5c10724111fe9a00013cd815","609a8bf73b2ac84e2732f618","609d7ea5111c0a03b5d915c1","333","","","","77","","","","key","18.622352941180853","800","393","","","","","","","","","","","","","","","","","","","",""
"psychophysics","332","583057","0.0-18.0-0.29","5c10724111fe9a00013cd815","609a8bf73b2ac84e2732f618","609d7ea5111c0a03b5d915c1","null","","","","null","","","","key","32.34705882352393","800","393","","","","","","","","","","","","","","","","","","","",""
"psychophysics","333","583566","0.0-18.0-1.29","5c10724111fe9a00013cd815","609a8bf73b2ac84e2732f618","609d7ea5111c0a03b5d915c1","null","","","","null","","","","key","24.155999999999768","800","393","","","","","","","","","","","","","153","1","3","true","","","",""
"psychophysics","334","583979","0.0-18.0-2.29","5c10724111fe9a00013cd815","609a8bf73b2ac84e2732f618","609d7ea5111c0a03b5d915c1","405","","","","77","","","","key","16.666666666666668","800","393","","","","","","","","","","","","","","","","","","","",""
"psychophysics","335","585005","0.0-18.0-0.30","5c10724111fe9a00013cd815","609a8bf73b2ac84e2732f618","609d7ea5111c0a03b5d915c1","null","","","","null","","","","key","50.81900000000023","800","393","","","","","","","","","","","","","","","","","","","",""
"psychophysics","336","585510","0.0-18.0-1.30","5c10724111fe9a00013cd815","609a8bf73b2ac84e2732f618","609d7ea5111c0a03b5d915c1","null","","","","null","","","","key","21.965454545454122","800","393","","","","","","","","","","","","","153","1","4","true","","","",""
"psychophysics","337","585791","0.0-18.0-2.30","5c10724111fe9a00013cd815","609a8bf73b2ac84e2732f618","609d7ea5111c0a03b5d915c1","279","","","","77","","","","key","17.769333333335815","800","393","","","","","","","","","","","","","","","","","","","",""
"psychophysics","338","587268","0.0-18.0-0.31","5c10724111fe9a00013cd815","609a8bf73b2ac84e2732f618","609d7ea5111c0a03b5d915c1","null","","","","null","","","","key","19.85780821917802","800","393","","","","","","","","","","","","","","","","","","","",""
"psychophysics","339","587776","0.0-18.0-1.31","5c10724111fe9a00013cd815","609a8bf73b2ac84e2732f618","609d7ea5111c0a03b5d915c1","null","","","","null","","","","key","16.664666666668683","800","393","","","","","","","","","","","","","153","-1","3","true","","","",""
"psychophysics","340","588298","0.0-18.0-2.31","5c10724111fe9a00013cd815","609a8bf73b2ac84e2732f618","609d7ea5111c0a03b5d915c1","517","","","","90","","","","key","21.73130434782892","800","393","","","","","","","","","","","","","","","","","","","",""
"psychophysics","341","589355","0.0-18.0-0.32","5c10724111fe9a00013cd815","609a8bf73b2ac84e2732f618","609d7ea5111c0a03b5d915c1","null","","","","null","","","","key","27.186842105265608","800","393","","","","","","","","","","","","","","","","","","","",""
"psychophysics","342","589904","0.0-18.0-1.32","5c10724111fe9a00013cd815","609a8bf73b2ac84e2732f618","609d7ea5111c0a03b5d915c1","null","","","","null","","","","key","46.95454545454545","800","393","","","","","","","","","","","","","153","1","0","true","","","",""
