"trial_type","trial_index","time_elapsed","internal_node_id","PROLIFIC_PID","STUDY_ID","SESSION_ID","rt","stimulus","button_pressed","success","key_press","responses","isData","view_history","response_type","avg_frame_time","center_x","center_y","isSC","stim_side","trial_luminance","step_size","nReversal","correct","prev_ans","isThreshold","SC_threshold","final_threshold","isLuminance","FF_luminance","luminance","stimSide","ISInt","isFF","question_order","isSPQ","isCAPS","isAQ"
"pavlovia","0","18","0.0-0.0","5e5fac726816852e4d9cbe24","609a8bf73b2ac84e2732f618","609d5f398d7ffc75ff39a0f7","","","","","","","","","","","","","","","","","","","","","","","","","","","","","","","",""
"html-button-response","1","14879","0.0-1.0","5e5fac726816852e4d9cbe24","609a8bf73b2ac84e2732f618","609d5f398d7ffc75ff39a0f7","14851.640000008047","<div style='background-color: white; width:60%; margin: auto; padding: 50px; text-align: justify; text-justify: inter-word; margin-bottom: 20px;'><h1 style='text-align: center;'>Consent Form</h1><p>Please read this consent form carefully before deciding whether you would like to participate in this study. You have to be 18 years old or older to participate to this study.</p><p style='text-decoration: underline;'>Participation is voluntary:</p><p>It is your choice whether or not to participate in this research. If you choose to participate, you may change your mind and leave the study at any time. Refusal to participate or stopping your participation will involve no penalty or loss of benefits to which you are otherwise entitled.</p><p style='text-decoration: underline;'>Purpose of the Study:</p><p>To understand the mechanisms underlying human perception.</p><p style='text-decoration: underline;'>What you will do in this study:</p><p>You will be presented with a series of visual images and then you will press buttons on the keyboard of your computer to respond to simple questions about the images (e.g. Were one or two images presented?). In addition, you will be asked to complete a questionnaire concerning your beliefs and everyday mental and perceptual experiences.'</p><p style='text-decoration: underline;'> Time Required:</p><p>The study will take 40 minutes to complete. </p><p style='text-decoration: underline;'>Risks:</p><p>There are no anticipated risks associated with participating in this study that are beyond those experienced in everyday life. </p><p style='text-decoration: underline;'>Benefits:</p><p>There are no benefits to you in participating in the study. However, this study may lead to a better understanding of how different kinds of visual information are used.</p><p style='text-decoration: underline;'>Compensation:</p><p>You will be paid US$6.6/hour. </p><p style='text-decoration: underline;'>Privacy and Confidentiality:</p><p>Your participation in this study will be anonymous. No personal information about your name or identity will be asked or recorded. This anonymous data will be stored for several years and may be used for a variety of research purposes. The overall results of the study may be published, or the data files may be shared with other researchers, but your identity will not be revealed in any way. The online services we are using for this study may temporarily store your data, but this data will be downloaded and then promptly deleted from those services.Your data will not be permanently associated with your name, IP address, or any other identifiable information (e.g., your information will only be connected to your payment, not to any of your responses), though they may be temporarily stored together before we download and separate them. Even so, no guarantee of internet survey security can be given because, although unlikely, transmissions can be intercepted and IP addresses can be identified. The anonymous data may be shared publicly (for example, in conjunction with a resulting academic publication).</p><p style='text-decoration: underline;'>Participation and Withdrawal:</p><p>Your participation in this study is completely voluntary. You may stop responding to the stimuli or stop answering questions if you so choose and without penalty by exiting the full screen mode, closing this tab of your browser or redirecting it to a different website.</p><p style='text-decoration: underline;'>Contact Info of the Researcher: </p><p>If you have questions about this study, or if you would like to talk to the research team, please contact David Melcher (david.melcher@nyu.edu, md5050@nyu.edu) at the Perception and Active Cognition Laboratory, New York University Abu Dhabi, Computational Research Building, Saadiyat Island, Abu Dhabi, UAE.This research has been reviewed by the New York University Abu Dhabi Institutional Review Board (NYUAD IRB). To contact about your rights in this research, for questions, suggestions, or complaints that are not addressed by the researchers, please email IRBnyuad@nyu.edu, or call the NYUAD IRB at +971 2 628 4313. </p></div>","0","","","","","","","","","","","","","","","","","","","","","","","","","","","","",""
"fullscreen","2","18652","0.0-2.0","5e5fac726816852e4d9cbe24","609a8bf73b2ac84e2732f618","609d5f398d7ffc75ff39a0f7","","","","true","","","","","","","","","","","","","","","","","","","","","","","","","","","",""
"html-keyboard-response","3","324241","0.0-3.0","5e5fac726816852e4d9cbe24","609a8bf73b2ac84e2732f618","609d5f398d7ffc75ff39a0f7","305584.81500000926","<p>Welcome !</p><p>READ CAREFULLY THE FOLLOWING INDICATIONS:</p><p>From this moment you have ~40 minutes to complete the experiment.</p><p>During the experiment you will be prompted to take several breaks. Each break should not last longer than 2-3 minutes.</p><p>Make sure that your computer is plugged in and it's not running on battery power, even if the battery is already fully charged.</p><p>Turn off your phone and music, make sure that you are in a quiet room and that you will not be distracted for the next hour.</p><p>Failure to comply with the instructions and indications provided during the experiment will most likely result in the rejection of your data.<p>Press the spacebar to start.</p>","","","32","","","","","","","","","","","","","","","","","","","","","","","","","","",""
"survey-html-form","4","332995","0.0-4.0","5e5fac726816852e4d9cbe24","609a8bf73b2ac84e2732f618","609d5f398d7ffc75ff39a0f7","8735.814999963623","","","","","{""age"":""21"",""sex"":""Male""}","true","","","","","","","","","","","","","","","","","","","","","","","","",""
"instructions","5","421516","0.0-5.0","5e5fac726816852e4d9cbe24","609a8bf73b2ac84e2732f618","609d5f398d7ffc75ff39a0f7","88520.4950000043","","","","","","","[{""page_index"":0,""viewing_time"":31114.520000002813},{""page_index"":1,""viewing_time"":44836.89500001492},{""page_index"":2,""viewing_time"":12568.654999951832}]","","","","","","","","","","","","","","","","","","","","","","","",""
"psychophysics","6","422578","0.0-6.0-0.0","5e5fac726816852e4d9cbe24","609a8bf73b2ac84e2732f618","609d5f398d7ffc75ff39a0f7","36.635000025853515","","","","37","","","","key","18.764771929824636","720","378.5","true","-1","180","30","0","-1","","","","","","","","","","","","","",""
"psychophysics","7","423745","0.0-6.0-0.1","5e5fac726816852e4d9cbe24","609a8bf73b2ac84e2732f618","609d5f398d7ffc75ff39a0f7","161.469999991823","","","","39","","","","key","16.71026470588164","720","378.5","true","1","180","30","0","-1","-1","","","","","","","","","","","","",""
"psychophysics","8","424818","0.0-6.0-0.2","5e5fac726816852e4d9cbe24","609a8bf73b2ac84e2732f618","609d5f398d7ffc75ff39a0f7","68.28000000678003","","","","39","","","","key","16.713703125000393","720","378.5","true","1","150","30","0","-1","-1","","","","","","","","","","","","",""
"psychophysics","9","427095","0.0-6.0-0.3","5e5fac726816852e4d9cbe24","609a8bf73b2ac84e2732f618","609d5f398d7ffc75ff39a0f7","1272.960000031162","","","","37","","","","key","16.711444444444325","720","378.5","true","-1","150","30","0","-1","-1","","","","","","","","","","","","",""
"psychophysics","10","429485","0.0-6.0-0.4","5e5fac726816852e4d9cbe24","609a8bf73b2ac84e2732f618","609d5f398d7ffc75ff39a0f7","1387.319999979809","","","","39","","","","key","16.710288732394602","720","378.5","true","1","129","30","0","-1","-1","","","","","","","","","","","","",""
"psychophysics","11","431646","0.0-6.0-0.5","5e5fac726816852e4d9cbe24","609a8bf73b2ac84e2732f618","609d5f398d7ffc75ff39a0f7","1158.3899999968708","","","","39","","","","key","16.711320312499993","720","378.5","true","1","129","30","0","-1","-1","","","","","","","","","","","","",""
"psychophysics","12","434887","0.0-6.0-0.6","5e5fac726816852e4d9cbe24","609a8bf73b2ac84e2732f618","609d5f398d7ffc75ff39a0f7","2234.1250000172295","","","","37","","","","key","16.71188082901545","720","378.5","true","1","129","24","1","1","-1","","","","","","","","","","","","",""
"psychophysics","13","436334","0.0-6.0-0.7","5e5fac726816852e4d9cbe24","609a8bf73b2ac84e2732f618","609d5f398d7ffc75ff39a0f7","443.85000003967434","","","","39","","","","key","16.71156976744194","720","378.5","true","1","153","24","1","-1","1","","","","","","","","","","","","",""
"psychophysics","14","437911","0.0-6.0-0.8","5e5fac726816852e4d9cbe24","609a8bf73b2ac84e2732f618","609d5f398d7ffc75ff39a0f7","574.3350000120699","","","","37","","","","key","16.7116774193547","720","378.5","true","-1","153","19.2","2","-1","-1","","","","","","","","","","","","",""
"psychophysics","15","440063","0.0-6.0-0.9","5e5fac726816852e4d9cbe24","609a8bf73b2ac84e2732f618","609d5f398d7ffc75ff39a0f7","1147.0400000107475","","","","39","","","","key","16.711453124999935","720","378.5","true","-1","133.8","15.36","3","1","-1","","","","","","","","","","","","",""
"psychophysics","16","441551","0.0-6.0-0.10","5e5fac726816852e4d9cbe24","609a8bf73b2ac84e2732f618","609d5f398d7ffc75ff39a0f7","483.16499998327345","","","","39","","","","key","16.711852272727068","720","378.5","true","1","149.16000000000003","15.36","3","-1","1","","","","","","","","","","","","",""
"psychophysics","17","443099","0.0-6.0-0.11","5e5fac726816852e4d9cbe24","609a8bf73b2ac84e2732f618","609d5f398d7ffc75ff39a0f7","544.3949999753386","","","","37","","","","key","16.711384615384983","720","378.5","true","-1","149.16000000000003","12.287999999999998","4","-1","-1","","","","","","","","","","","","",""
"psychophysics","18","444602","0.0-6.0-0.12","5e5fac726816852e4d9cbe24","609a8bf73b2ac84e2732f618","609d5f398d7ffc75ff39a0f7","498.8899999880232","","","","37","","","","key","16.71162921348338","720","378.5","true","-1","136.872","12.287999999999998","4","-1","-1","","","","","","","","","","","","",""
"psychophysics","19","446143","0.0-6.0-0.13","5e5fac726816852e4d9cbe24","609a8bf73b2ac84e2732f618","609d5f398d7ffc75ff39a0f7","536.7349999723956","","","","37","","","","key","16.711456521739425","720","378.5","true","-1","136.872","12.287999999999998","4","-1","-1","","","","","","","","","","","","",""
"psychophysics","20","449670","0.0-6.0-0.14","5e5fac726816852e4d9cbe24","609a8bf73b2ac84e2732f618","609d5f398d7ffc75ff39a0f7","2523.8399999798276","","","","39","","","","key","16.71115714285711","720","378.5","true","-1","129","9.8304","5","1","-1","","","","","","","","","","","","",""
"psychophysics","21","451214","0.0-6.0-0.15","5e5fac726816852e4d9cbe24","609a8bf73b2ac84e2732f618","609d5f398d7ffc75ff39a0f7","540.8150000148453","","","","37","","","","key","16.711329670329988","720","378.5","true","-1","138.8304","9.8304","5","-1","1","","","","","","","","","","","","",""
"psychophysics","22","452695","0.0-6.0-0.16","5e5fac726816852e4d9cbe24","609a8bf73b2ac84e2732f618","609d5f398d7ffc75ff39a0f7","476.10000002896413","","","","37","","","","key","16.712250000000164","720","378.5","true","-1","138.8304","7.864319999999999","6","-1","-1","","","","","","","","","","","","",""
"psychophysics","23","455214","0.0-6.0-0.17","5e5fac726816852e4d9cbe24","609a8bf73b2ac84e2732f618","609d5f398d7ffc75ff39a0f7","1515.1450000121258","","","","39","","","","key","16.71048666666689","720","378.5","true","1","130.96608","7.864319999999999","6","-1","-1","","","","","","","","","","","","",""
"psychophysics","24","456634","0.0-6.0-0.18","5e5fac726816852e4d9cbe24","609a8bf73b2ac84e2732f618","609d5f398d7ffc75ff39a0f7","417.32500004582107","","","","37","","","","key","16.711698795180677","720","378.5","true","1","130.96608","6.291456","7","1","-1","","","","","","","","","","","","",""
"psychophysics","25","458215","0.0-6.0-0.19","5e5fac726816852e4d9cbe24","609a8bf73b2ac84e2732f618","609d5f398d7ffc75ff39a0f7","576.0100000188686","","","","37","","","","key","16.71184042553192","720","378.5","true","-1","137.25753600000002","6.291456","7","-1","1","","","","","","","","","","","","",""
"psychophysics","26","459792","0.0-6.0-0.20","5e5fac726816852e4d9cbe24","609a8bf73b2ac84e2732f618","609d5f398d7ffc75ff39a0f7","570.7500000135042","","","","37","","","","key","16.710548387096836","720","378.5","true","-1","137.25753600000002","5.033164800000001","8","-1","-1","","","","","","","","","","","","",""
"psychophysics","27","461982","0.0-6.0-0.21","5e5fac726816852e4d9cbe24","609a8bf73b2ac84e2732f618","609d5f398d7ffc75ff39a0f7","1186.2449999898672","","","","39","","","","key","16.711236641221085","720","378.5","true","1","132.2243712","5.033164800000001","8","-1","-1","","","","","","","","","","","","",""
"psychophysics","28","466480","0.0-6.0-0.22","5e5fac726816852e4d9cbe24","609a8bf73b2ac84e2732f618","609d5f398d7ffc75ff39a0f7","3493.6699999962","","","","37","","","","key","16.711567164179147","720","378.5","true","1","132.2243712","4.0265318400000005","9","1","-1","","","","","","","","","","","","",""
"psychophysics","29","467952","0.0-6.0-0.23","5e5fac726816852e4d9cbe24","609a8bf73b2ac84e2732f618","609d5f398d7ffc75ff39a0f7","464.9300000164658","","","","39","","","","key","16.71262068965475","720","378.5","true","1","136.25090304","4.0265318400000005","9","-1","1","","","","","","","","","","","","",""
"psychophysics","30","469434","0.0-6.0-0.24","5e5fac726816852e4d9cbe24","609a8bf73b2ac84e2732f618","609d5f398d7ffc75ff39a0f7","476.3150000362657","","","","39","","","","key","16.711218390804476","720","378.5","true","1","136.25090304","3.2212254720000004","10","-1","-1","","","","","","","","","","","","",""
"psychophysics","31","471336","0.0-6.0-0.25","5e5fac726816852e4d9cbe24","609a8bf73b2ac84e2732f618","609d5f398d7ffc75ff39a0f7","895.8850000053644","","","","39","","","","key","16.711663716814204","720","378.5","true","-1","133.029677568","2.5769803776000004","11","1","-1","","","","","","","","","","","","",""
"psychophysics","32","472962","0.0-6.0-0.26","5e5fac726816852e4d9cbe24","609a8bf73b2ac84e2732f618","609d5f398d7ffc75ff39a0f7","617.7100000204518","","","","39","","","","key","16.710639175257437","720","378.5","true","1","135.6066579456","2.5769803776000004","11","-1","1","","","","","","","","","","","","",""
"psychophysics","33","474512","0.0-6.0-0.27","5e5fac726816852e4d9cbe24","609a8bf73b2ac84e2732f618","609d5f398d7ffc75ff39a0f7","545.8849999704398","","","","39","","","","key","16.71101098901088","720","378.5","true","-1","135.6066579456","2.0615843020800004","12","1","-1","","","","","","","","","","","","",""
"psychophysics","34","475991","0.0-6.0-0.28","5e5fac726816852e4d9cbe24","609a8bf73b2ac84e2732f618","609d5f398d7ffc75ff39a0f7","471.74499998800457","","","","37","","","","key","16.71171590909084","720","378.5","true","-1","137.66824224768","2.0615843020800004","12","-1","1","","","","","","","","","","","","",""
"psychophysics","35","477529","0.0-6.0-0.29","5e5fac726816852e4d9cbe24","609a8bf73b2ac84e2732f618","609d5f398d7ffc75ff39a0f7","532.4099999852479","","","","39","","","","key","16.711208791208485","720","378.5","true","1","137.66824224768","1.6492674416640005","13","-1","-1","","","","","","","","","","","","",""
"psychophysics","36","479015","0.0-6.0-0.30","5e5fac726816852e4d9cbe24","609a8bf73b2ac84e2732f618","609d5f398d7ffc75ff39a0f7","483.3999999682419","","","","37","","","","key","16.71167045454521","720","378.5","true","-1","136.01897480601602","1.6492674416640005","13","-1","-1","","","","","","","","","","","","",""
"psychophysics","37","480439","0.0-6.0-0.31","5e5fac726816852e4d9cbe24","609a8bf73b2ac84e2732f618","609d5f398d7ffc75ff39a0f7","419.54999999143183","","","","39","","","","key","16.710976190476295","720","378.5","true","1","136.01897480601602","1.6492674416640005","13","-1","-1","","","","","","","","","","","","",""
"psychophysics","38","481792","0.0-6.0-0.32","5e5fac726816852e4d9cbe24","609a8bf73b2ac84e2732f618","609d5f398d7ffc75ff39a0f7","348.7599999643862","","","","37","","","","key","16.71192500000034","720","378.5","true","-1","134.36970736435202","1.6492674416640005","13","-1","-1","","","","","","","","","","","","",""
"psychophysics","39","484704","0.0-6.0-0.33","5e5fac726816852e4d9cbe24","609a8bf73b2ac84e2732f618","609d5f398d7ffc75ff39a0f7","1908.594999986235","","","","39","","","","key","16.71156069364182","720","378.5","true","-1","134.36970736435202","1.3194139533312006","14","1","-1","","","","","","","","","","","","",""
"psychophysics","40","486183","0.0-6.0-0.34","5e5fac726816852e4d9cbe24","609a8bf73b2ac84e2732f618","609d5f398d7ffc75ff39a0f7","469.7850000229664","","","","39","","","","key","16.711363636363373","720","378.5","true","1","135.68912131768323","1.3194139533312006","14","-1","1","","","","","","","","","","","","",""
"psychophysics","41","487704","0.0-6.0-0.35","5e5fac726816852e4d9cbe24","609a8bf73b2ac84e2732f618","609d5f398d7ffc75ff39a0f7","519.144999969285","","","","39","","","","key","16.7126999999998","720","378.5","true","1","135.68912131768323","1.0555311626649604","15","-1","-1","","","","","","","","","","","","",""
"psychophysics","42","490736","0.0-6.0-0.36","5e5fac726816852e4d9cbe24","609a8bf73b2ac84e2732f618","609d5f398d7ffc75ff39a0f7","2027.6449999655597","","","","37","","","","key","16.711288888888927","720","378.5","true","1","134.63359015501828","1","16","1","-1","","","","","","","","","","","","",""
"psychophysics","43","492191","0.0-6.0-0.37","5e5fac726816852e4d9cbe24","609a8bf73b2ac84e2732f618","609d5f398d7ffc75ff39a0f7","452.69000000553206","","","","37","","","","key","16.711930232557744","720","378.5","true","-1","135.63359015501828","1","16","-1","1","","","","","","","","","","","","",""
"psychophysics","44","493649","0.0-6.0-0.38","5e5fac726816852e4d9cbe24","609a8bf73b2ac84e2732f618","609d5f398d7ffc75ff39a0f7","446.3800000376068","","","","37","","","","key","16.71070930232608","720","378.5","true","-1","135.63359015501828","1","17","-1","-1","","","","","","","","","","","","",""
"psychophysics","45","495112","0.0-6.0-0.39","5e5fac726816852e4d9cbe24","609a8bf73b2ac84e2732f618","609d5f398d7ffc75ff39a0f7","457.8299999702722","","","","39","","","","key","16.71229885057506","720","378.5","true","1","134.63359015501828","1","17","-1","-1","","","","","","","","","","","","",""
"html-keyboard-response","46","500529","0.0-7.0","5e5fac726816852e4d9cbe24","609a8bf73b2ac84e2732f618","609d5f398d7ffc75ff39a0f7","5414.459999999963","<p>Well Done !</p><p>Prepare for a new block.</p><p>DON'T EXIT THE FULL SCREEN MODE</p><p>Press the Spacebar to start.</p>","","","32","","","","","","","","","","","","","","","true","135.48462970338238","","","","","","","","","","",""
"psychophysics","47","501767","0.0-8.0-0.0","5e5fac726816852e4d9cbe24","609a8bf73b2ac84e2732f618","609d5f398d7ffc75ff39a0f7","227.93500003172085","","","","37","","","","key","16.71179729729743","720","378.5","true","-1","180","30","0","-1","","","","","","","","","","","","","",""
"psychophysics","48","503080","0.0-8.0-0.1","5e5fac726816852e4d9cbe24","609a8bf73b2ac84e2732f618","609d5f398d7ffc75ff39a0f7","308.44499997328967","","","","37","","","","key","16.713269230768603","720","378.5","true","-1","180","30","0","-1","-1","","","","","","","","","","","","",""
"psychophysics","49","504392","0.0-8.0-0.2","5e5fac726816852e4d9cbe24","609a8bf73b2ac84e2732f618","609d5f398d7ffc75ff39a0f7","308.019999996759","","","","39","","","","key","16.711064935064655","720","378.5","true","1","150","30","0","-1","-1","","","","","","","","","","","","",""
"psychophysics","50","505687","0.0-8.0-0.3","5e5fac726816852e4d9cbe24","609a8bf73b2ac84e2732f618","609d5f398d7ffc75ff39a0f7","288.08499994920567","","","","37","","","","key","16.711519480519627","720","378.5","true","-1","150","30","0","-1","-1","","","","","","","","","","","","",""
"psychophysics","51","507522","0.0-8.0-0.4","5e5fac726816852e4d9cbe24","609a8bf73b2ac84e2732f618","609d5f398d7ffc75ff39a0f7","829.314999980852","","","","37","","","","key","16.866462962962775","720","378.5","true","1","129","24","1","1","-1","","","","","","","","","","","","",""
"psychophysics","52","508864","0.0-8.0-0.5","5e5fac726816852e4d9cbe24","609a8bf73b2ac84e2732f618","609d5f398d7ffc75ff39a0f7","337.5549999764189","","","","37","","","","key","16.712189873417433","720","378.5","true","-1","153","24","1","-1","1","","","","","","","","","","","","",""
"psychophysics","53","510145","0.0-8.0-0.6","5e5fac726816852e4d9cbe24","609a8bf73b2ac84e2732f618","609d5f398d7ffc75ff39a0f7","277.66999998129904","","","","39","","","","key","16.71107894736863","720","378.5","true","1","153","19.2","2","-1","-1","","","","","","","","","","","","",""
"psychophysics","54","511450","0.0-8.0-0.7","5e5fac726816852e4d9cbe24","609a8bf73b2ac84e2732f618","609d5f398d7ffc75ff39a0f7","302.4250000016764","","","","39","","","","key","16.712025974025988","720","378.5","true","1","133.8","19.2","2","-1","-1","","","","","","","","","","","","",""
"psychophysics","55","513496","0.0-8.0-0.8","5e5fac726816852e4d9cbe24","609a8bf73b2ac84e2732f618","609d5f398d7ffc75ff39a0f7","1038.4950000443496","","","","39","","","","key","16.711677685950512","720","378.5","true","1","133.8","19.2","2","-1","-1","","","","","","","","","","","","",""
"psychophysics","56","515446","0.0-8.0-0.9","5e5fac726816852e4d9cbe24","609a8bf73b2ac84e2732f618","609d5f398d7ffc75ff39a0f7","945.914999989327","","","","39","","","","key","16.711353448275798","720","378.5","true","-1","129","15.36","3","1","-1","","","","","","","","","","","","",""
"psychophysics","57","516848","0.0-8.0-0.10","5e5fac726816852e4d9cbe24","609a8bf73b2ac84e2732f618","609d5f398d7ffc75ff39a0f7","399.40500003285706","","","","37","","","","key","16.711987951806893","720","378.5","true","-1","144.36","15.36","3","-1","1","","","","","","","","","","","","",""
"psychophysics","58","518202","0.0-8.0-0.11","5e5fac726816852e4d9cbe24","609a8bf73b2ac84e2732f618","609d5f398d7ffc75ff39a0f7","349.77999998955056","","","","37","","","","key","16.710787499999423","720","378.5","true","-1","144.36","12.287999999999998","4","-1","-1","","","","","","","","","","","","",""
"psychophysics","59","520920","0.0-8.0-0.12","5e5fac726816852e4d9cbe24","609a8bf73b2ac84e2732f618","609d5f398d7ffc75ff39a0f7","1674.4500000495464","","","","37","","","","key","16.71105031446523","720","378.5","true","-1","132.072","12.287999999999998","4","-1","-1","","","","","","","","","","","","",""
"psychophysics","60","522398","0.0-8.0-0.13","5e5fac726816852e4d9cbe24","609a8bf73b2ac84e2732f618","609d5f398d7ffc75ff39a0f7","473.1700000120327","","","","37","","","","key","16.898056179775562","720","378.5","true","-1","132.072","12.287999999999998","4","-1","-1","","","","","","","","","","","","",""
"psychophysics","61","524418","0.0-8.0-0.14","5e5fac726816852e4d9cbe24","609a8bf73b2ac84e2732f618","609d5f398d7ffc75ff39a0f7","1017.4949999782257","","","","37","","","","key","16.71161666666691","720","378.5","true","-1","129","12.287999999999998","4","-1","-1","","","","","","","","","","","","",""
"psychophysics","62","526440","0.0-8.0-0.15","5e5fac726816852e4d9cbe24","609a8bf73b2ac84e2732f618","609d5f398d7ffc75ff39a0f7","1015.8499999670312","","","","39","","","","key","16.711725000000055","720","378.5","true","1","129","12.287999999999998","4","-1","-1","","","","","","","","","","","","",""
"psychophysics","63","527865","0.0-8.0-0.16","5e5fac726816852e4d9cbe24","609a8bf73b2ac84e2732f618","609d5f398d7ffc75ff39a0f7","418.66000002482906","","","","37","","","","key","16.711095238096146","720","378.5","true","1","129","9.8304","5","1","-1","","","","","","","","","","","","",""
"psychophysics","64","529297","0.0-8.0-0.17","5e5fac726816852e4d9cbe24","609a8bf73b2ac84e2732f618","609d5f398d7ffc75ff39a0f7","422.81000001821667","","","","37","","","","key","16.71147058823502","720","378.5","true","-1","138.8304","9.8304","5","-1","1","","","","","","","","","","","","",""
"psychophysics","65","530678","0.0-8.0-0.18","5e5fac726816852e4d9cbe24","609a8bf73b2ac84e2732f618","609d5f398d7ffc75ff39a0f7","374.53499995172024","","","","39","","","","key","16.710123456790352","720","378.5","true","1","138.8304","7.864319999999999","6","-1","-1","","","","","","","","","","","","",""
"psychophysics","66","533247","0.0-8.0-0.19","5e5fac726816852e4d9cbe24","609a8bf73b2ac84e2732f618","609d5f398d7ffc75ff39a0f7","1562.1650000102818","","","","39","","","","key","16.71190849673216","720","378.5","true","-1","130.96608","6.291456","7","1","-1","","","","","","","","","","","","",""
"psychophysics","67","534595","0.0-8.0-0.20","5e5fac726816852e4d9cbe24","609a8bf73b2ac84e2732f618","609d5f398d7ffc75ff39a0f7","344.62000004714355","","","","39","","","","key","16.713212500000374","720","378.5","true","1","137.25753600000002","6.291456","7","-1","1","","","","","","","","","","","","",""
"psychophysics","68","536024","0.0-8.0-0.21","5e5fac726816852e4d9cbe24","609a8bf73b2ac84e2732f618","609d5f398d7ffc75ff39a0f7","424.5999999693595","","","","39","","","","key","16.711428571428684","720","378.5","true","1","137.25753600000002","5.033164800000001","8","-1","-1","","","","","","","","","","","","",""
"psychophysics","69","537770","0.0-8.0-0.22","5e5fac726816852e4d9cbe24","609a8bf73b2ac84e2732f618","609d5f398d7ffc75ff39a0f7","740.8750000176951","","","","39","","","","key","16.711999999999534","720","378.5","true","1","132.2243712","5.033164800000001","8","-1","-1","","","","","","","","","","","","",""
"psychophysics","70","539129","0.0-8.0-0.23","5e5fac726816852e4d9cbe24","609a8bf73b2ac84e2732f618","609d5f398d7ffc75ff39a0f7","354.665000049863","","","","37","","","","key","16.710837499999617","720","378.5","true","-1","132.2243712","5.033164800000001","8","-1","-1","","","","","","","","","","","","",""
"psychophysics","71","544221","0.0-8.0-0.24","5e5fac726816852e4d9cbe24","609a8bf73b2ac84e2732f618","609d5f398d7ffc75ff39a0f7","4085.7950000208803","","","","39","","","","key","16.71121052631574","720","378.5","true","1","129","5.033164800000001","8","-1","-1","","","","","","","","","","","","",""
"psychophysics","72","546264","0.0-8.0-0.25","5e5fac726816852e4d9cbe24","609a8bf73b2ac84e2732f618","609d5f398d7ffc75ff39a0f7","1038.3699999656528","","","","39","","","","key","16.71053719008245","720","378.5","true","1","129","5.033164800000001","8","-1","-1","","","","","","","","","","","","",""
"psychophysics","73","548032","0.0-8.0-0.26","5e5fac726816852e4d9cbe24","609a8bf73b2ac84e2732f618","609d5f398d7ffc75ff39a0f7","755.8200000203215","","","","39","","","","key","16.71144761904808","720","378.5","true","1","129","5.033164800000001","8","-1","-1","","","","","","","","","","","","",""
"psychophysics","74","550071","0.0-8.0-0.27","5e5fac726816852e4d9cbe24","609a8bf73b2ac84e2732f618","609d5f398d7ffc75ff39a0f7","1035.6050000409596","","","","37","","","","key","16.711082644627837","720","378.5","true","1","129","4.0265318400000005","9","1","-1","","","","","","","","","","","","",""
"psychophysics","75","551473","0.0-8.0-0.28","5e5fac726816852e4d9cbe24","609a8bf73b2ac84e2732f618","609d5f398d7ffc75ff39a0f7","394.8649999802001","","","","39","","","","key","16.711963855421608","720","378.5","true","1","133.02653184","4.0265318400000005","9","-1","1","","","","","","","","","","","","",""
"psychophysics","76","552864","0.0-8.0-0.29","5e5fac726816852e4d9cbe24","609a8bf73b2ac84e2732f618","609d5f398d7ffc75ff39a0f7","385.45000000158325","","","","39","","","","key","16.710414634147238","720","378.5","true","-1","133.02653184","3.2212254720000004","10","1","-1","","","","","","","","","","","","",""
"psychophysics","77","554263","0.0-8.0-0.30","5e5fac726816852e4d9cbe24","609a8bf73b2ac84e2732f618","609d5f398d7ffc75ff39a0f7","393.83499999530613","","","","39","","","","key","16.71102409638571","720","378.5","true","1","136.24775731199998","3.2212254720000004","10","-1","1","","","","","","","","","","","","",""
"psychophysics","78","555704","0.0-8.0-0.31","5e5fac726816852e4d9cbe24","609a8bf73b2ac84e2732f618","609d5f398d7ffc75ff39a0f7","437.2599999769591","","","","39","","","","key","16.710988235294217","720","378.5","true","1","136.24775731199998","2.5769803776000004","11","-1","-1","","","","","","","","","","","","",""
"psychophysics","79","557968","0.0-8.0-0.32","5e5fac726816852e4d9cbe24","609a8bf73b2ac84e2732f618","609d5f398d7ffc75ff39a0f7","1260.2150000166148","","","","39","","","","key","16.711537313432114","720","378.5","true","-1","133.67077693439998","2.0615843020800004","12","1","-1","","","","","","","","","","","","",""
"psychophysics","80","559359","0.0-8.0-0.33","5e5fac726816852e4d9cbe24","609a8bf73b2ac84e2732f618","609d5f398d7ffc75ff39a0f7","379.38499997835606","","","","37","","","","key","16.711578313252854","720","378.5","true","-1","135.73236123648","2.0615843020800004","12","-1","1","","","","","","","","","","","","",""
"psychophysics","81","560983","0.0-8.0-0.34","5e5fac726816852e4d9cbe24","609a8bf73b2ac84e2732f618","609d5f398d7ffc75ff39a0f7","621.9450000207871","","","","37","","","","key","16.710989583333383","720","378.5","true","-1","135.73236123648","1.6492674416640005","13","-1","-1","","","","","","","","","","","","",""
"psychophysics","82","562652","0.0-8.0-0.35","5e5fac726816852e4d9cbe24","609a8bf73b2ac84e2732f618","609d5f398d7ffc75ff39a0f7","663.1699999561533","","","","39","","","","key","16.711224489795445","720","378.5","true","1","134.083093794816","1.6492674416640005","13","-1","-1","","","","","","","","","","","","",""
"psychophysics","83","564324","0.0-8.0-0.36","5e5fac726816852e4d9cbe24","609a8bf73b2ac84e2732f618","609d5f398d7ffc75ff39a0f7","668.4899999527261","","","","37","","","","key","16.711439999999712","720","378.5","true","-1","134.083093794816","1.6492674416640005","13","-1","-1","","","","","","","","","","","","",""
"psychophysics","84","566318","0.0-8.0-0.37","5e5fac726816852e4d9cbe24","609a8bf73b2ac84e2732f618","609d5f398d7ffc75ff39a0f7","991.1399999982677","","","","39","","","","key","16.71035593220376","720","378.5","true","1","132.433826353152","1.6492674416640005","13","-1","-1","","","","","","","","","","","","",""
"psychophysics","85","567735","0.0-8.0-0.38","5e5fac726816852e4d9cbe24","609a8bf73b2ac84e2732f618","609d5f398d7ffc75ff39a0f7","413.26000000117347","","","","37","","","","key","16.712083333332668","720","378.5","true","-1","132.433826353152","1.6492674416640005","13","-1","-1","","","","","","","","","","","","",""
"psychophysics","86","571594","0.0-8.0-0.39","5e5fac726816852e4d9cbe24","609a8bf73b2ac84e2732f618","609d5f398d7ffc75ff39a0f7","2855.48500000732","","","","37","","","","key","16.711856521739442","720","378.5","true","-1","130.784558911488","1.6492674416640005","13","-1","-1","","","","","","","","","","","","",""
"html-keyboard-response","87","573744","0.0-9.0","5e5fac726816852e4d9cbe24","609a8bf73b2ac84e2732f618","609d5f398d7ffc75ff39a0f7","2147.4350000498816","<p>Well Done !</p><p>Prepare for a new block.</p><p>DON'T EXIT THE FULL SCREEN MODE</p><p>Press the Spacebar to start.</p>","","","32","","","","","","","","","","","","","","","true","132.9668317945856","","","","","","","","","","",""
"psychophysics","88","574881","0.0-10.0-0.0","5e5fac726816852e4d9cbe24","609a8bf73b2ac84e2732f618","609d5f398d7ffc75ff39a0f7","131.5900000045076","","","","37","","","","key","16.712805970149713","720","378.5","true","-1","180","30","0","-1","","","","","","","","","","","","","",""
"psychophysics","89","576473","0.0-10.0-0.1","5e5fac726816852e4d9cbe24","609a8bf73b2ac84e2732f618","609d5f398d7ffc75ff39a0f7","588.2650000276044","","","","37","","","","key","16.712010526316437","720","378.5","true","-1","180","30","0","-1","-1","","","","","","","","","","","","",""
"psychophysics","90","577855","0.0-10.0-0.2","5e5fac726816852e4d9cbe24","609a8bf73b2ac84e2732f618","609d5f398d7ffc75ff39a0f7","377.550000033807","","","","37","","","","key","16.710925925926905","720","378.5","true","-1","150","30","0","-1","-1","","","","","","","","","","","","",""
"psychophysics","91","579208","0.0-10.0-0.3","5e5fac726816852e4d9cbe24","609a8bf73b2ac84e2732f618","609d5f398d7ffc75ff39a0f7","349.71999999834225","","","","37","","","","key","16.712237499999173","720","378.5","true","-1","150","30","0","-1","-1","","","","","","","","","","","","",""
"psychophysics","92","581175","0.0-10.0-0.4","5e5fac726816852e4d9cbe24","609a8bf73b2ac84e2732f618","609d5f398d7ffc75ff39a0f7","960.6849999981932","","","","37","","","","key","16.7108290598282","720","378.5","true","-1","129","30","0","-1","-1","","","","","","","","","","","","",""
"psychophysics","93","582928","0.0-10.0-0.5","5e5fac726816852e4d9cbe24","609a8bf73b2ac84e2732f618","609d5f398d7ffc75ff39a0f7","750.2399999648333","","","","37","","","","key","16.712125000000995","720","378.5","true","-1","129","30","0","-1","-1","","","","","","","","","","","","",""
"psychophysics","94","584377","0.0-10.0-0.6","5e5fac726816852e4d9cbe24","609a8bf73b2ac84e2732f618","609d5f398d7ffc75ff39a0f7","445.63999999081716","","","","39","","","","key","16.71175581395361","720","378.5","true","1","129","30","0","-1","-1","","","","","","","","","","","","",""
"psychophysics","95","587974","0.0-10.0-0.7","5e5fac726816852e4d9cbe24","609a8bf73b2ac84e2732f618","609d5f398d7ffc75ff39a0f7","2592.4050000030547","","","","37","","","","key","16.711514018691975","720","378.5","true","1","129","24","1","1","-1","","","","","","","","","","","","",""
"psychophysics","96","589306","0.0-10.0-0.8","5e5fac726816852e4d9cbe24","609a8bf73b2ac84e2732f618","609d5f398d7ffc75ff39a0f7","323.9649999886751","","","","39","","","","key","16.711012658226906","720","378.5","true","1","153","24","1","-1","1","","","","","","","","","","","","",""
"psychophysics","97","590641","0.0-10.0-0.9","5e5fac726816852e4d9cbe24","609a8bf73b2ac84e2732f618","609d5f398d7ffc75ff39a0f7","330.72500000707805","","","","37","","","","key","16.71066666666705","720","378.5","true","-1","153","19.2","2","-1","-1","","","","","","","","","","","","",""
"psychophysics","98","591982","0.0-10.0-0.10","5e5fac726816852e4d9cbe24","609a8bf73b2ac84e2732f618","609d5f398d7ffc75ff39a0f7","334.62999999755993","","","","39","","","","key","16.711137500000767","720","378.5","true","1","133.8","19.2","2","-1","-1","","","","","","","","","","","","",""
"psychophysics","99","593296","0.0-10.0-0.11","5e5fac726816852e4d9cbe24","609a8bf73b2ac84e2732f618","609d5f398d7ffc75ff39a0f7","311.7750000092201","","","","39","","","","key","16.712701298700125","720","378.5","true","1","133.8","19.2","2","-1","-1","","","","","","","","","","","","",""
"psychophysics","100","595407","0.0-10.0-0.12","5e5fac726816852e4d9cbe24","609a8bf73b2ac84e2732f618","609d5f398d7ffc75ff39a0f7","1104.4699999620207","","","","37","","","","key","16.711396825396353","720","378.5","true","1","129","15.36","3","1","-1","","","","","","","","","","","","",""
"psychophysics","101","596783","0.0-10.0-0.13","5e5fac726816852e4d9cbe24","609a8bf73b2ac84e2732f618","609d5f398d7ffc75ff39a0f7","374.405000009574","","","","39","","","","key","16.712395061728728","720","378.5","true","1","144.36","15.36","3","-1","1","","","","","","","","","","","","",""
"psychophysics","102","598121","0.0-10.0-0.14","5e5fac726816852e4d9cbe24","609a8bf73b2ac84e2732f618","609d5f398d7ffc75ff39a0f7","334.20000004116446","","","","39","","","","key","16.71073417721428","720","378.5","true","1","144.36","12.287999999999998","4","-1","-1","","","","","","","","","","","","",""
"psychophysics","103","600433","0.0-10.0-0.15","5e5fac726816852e4d9cbe24","609a8bf73b2ac84e2732f618","609d5f398d7ffc75ff39a0f7","1306.5549999591894","","","","39","","","","key","16.711992700730388","720","378.5","true","-1","132.072","9.8304","5","1","-1","","","","","","","","","","","","",""
"psychophysics","104","601600","0.0-10.0-0.16","5e5fac726816852e4d9cbe24","609a8bf73b2ac84e2732f618","609d5f398d7ffc75ff39a0f7","163.3049999945797","","","","37","","","","key","16.71168115942071","720","378.5","true","-1","141.9024","9.8304","5","-1","1","","","","","","","","","","","","",""
"psychophysics","105","602911","0.0-10.0-0.17","5e5fac726816852e4d9cbe24","609a8bf73b2ac84e2732f618","609d5f398d7ffc75ff39a0f7","303.8550000055693","","","","37","","","","key","16.71187179487121","720","378.5","true","-1","141.9024","7.864319999999999","6","-1","-1","","","","","","","","","","","","",""
"psychophysics","106","604239","0.0-10.0-0.18","5e5fac726816852e4d9cbe24","609a8bf73b2ac84e2732f618","609d5f398d7ffc75ff39a0f7","324.9400000204332","","","","39","","","","key","16.71228205128155","720","378.5","true","1","134.03808","7.864319999999999","6","-1","-1","","","","","","","","","","","","",""
"psychophysics","107","605634","0.0-10.0-0.19","5e5fac726816852e4d9cbe24","609a8bf73b2ac84e2732f618","609d5f398d7ffc75ff39a0f7","384.58499999251217","","","","37","","","","key","16.711638554216766","720","378.5","true","-1","134.03808","7.864319999999999","6","-1","-1","","","","","","","","","","","","",""
"psychophysics","108","607504","0.0-10.0-0.20","5e5fac726816852e4d9cbe24","609a8bf73b2ac84e2732f618","609d5f398d7ffc75ff39a0f7","855.3749999846332","","","","39","","","","key","16.709585585586332","720","378.5","true","1","129","7.864319999999999","6","-1","-1","","","","","","","","","","","","",""
"psychophysics","109","609628","0.0-10.0-0.21","5e5fac726816852e4d9cbe24","609a8bf73b2ac84e2732f618","609d5f398d7ffc75ff39a0f7","1122.2750000306405","","","","39","","","","key","16.71210317460299","720","378.5","true","-1","129","6.291456","7","1","-1","","","","","","","","","","","","",""
"psychophysics","110","611023","0.0-10.0-0.22","5e5fac726816852e4d9cbe24","609a8bf73b2ac84e2732f618","609d5f398d7ffc75ff39a0f7","388.9399999752641","","","","37","","","","key","16.712060975609347","720","378.5","true","-1","135.291456","6.291456","7","-1","1","","","","","","","","","","","","",""
"psychophysics","111","612462","0.0-10.0-0.23","5e5fac726816852e4d9cbe24","609a8bf73b2ac84e2732f618","609d5f398d7ffc75ff39a0f7","435.1650000317022","","","","39","","","","key","16.709964705881774","720","378.5","true","-1","135.291456","5.033164800000001","8","1","-1","","","","","","","","","","","","",""
"psychophysics","112","613791","0.0-10.0-0.24","5e5fac726816852e4d9cbe24","609a8bf73b2ac84e2732f618","609d5f398d7ffc75ff39a0f7","319.870000006631","","","","37","","","","key","16.712518987343117","720","378.5","true","-1","140.32462080000002","5.033164800000001","8","-1","1","","","","","","","","","","","","",""
"psychophysics","113","615193","0.0-10.0-0.25","5e5fac726816852e4d9cbe24","609a8bf73b2ac84e2732f618","609d5f398d7ffc75ff39a0f7","396.58000000054017","","","","37","","","","key","16.712048192770805","720","378.5","true","-1","140.32462080000002","4.0265318400000005","9","-1","-1","","","","","","","","","","","","",""
"psychophysics","114","616871","0.0-10.0-0.26","5e5fac726816852e4d9cbe24","609a8bf73b2ac84e2732f618","609d5f398d7ffc75ff39a0f7","672.9150000028312","","","","37","","","","key","16.711101010100766","720","378.5","true","-1","136.29808896000003","4.0265318400000005","9","-1","-1","","","","","","","","","","","","",""
"psychophysics","115","618219","0.0-10.0-0.27","5e5fac726816852e4d9cbe24","609a8bf73b2ac84e2732f618","609d5f398d7ffc75ff39a0f7","343.20000000298023","","","","39","","","","key","16.711875000000873","720","378.5","true","1","136.29808896000003","4.0265318400000005","9","-1","-1","","","","","","","","","","","","",""
"psychophysics","116","620360","0.0-10.0-0.28","5e5fac726816852e4d9cbe24","609a8bf73b2ac84e2732f618","609d5f398d7ffc75ff39a0f7","1137.589999998454","","","","39","","","","key","16.711519685039466","720","378.5","true","-1","132.27155712000004","3.2212254720000004","10","1","-1","","","","","","","","","","","","",""
"psychophysics","117","621714","0.0-10.0-0.29","5e5fac726816852e4d9cbe24","609a8bf73b2ac84e2732f618","609d5f398d7ffc75ff39a0f7","348.92499999841675","","","","39","","","","key","16.7111625000005","720","378.5","true","1","135.49278259200003","3.2212254720000004","10","-1","1","","","","","","","","","","","","",""
"psychophysics","118","623214","0.0-10.0-0.30","5e5fac726816852e4d9cbe24","609a8bf73b2ac84e2732f618","609d5f398d7ffc75ff39a0f7","496.81499996222556","","","","39","","","","key","16.71026966292045","720","378.5","true","1","135.49278259200003","2.5769803776000004","11","-1","-1","","","","","","","","","","","","",""
"psychophysics","119","624695","0.0-10.0-0.31","5e5fac726816852e4d9cbe24","609a8bf73b2ac84e2732f618","609d5f398d7ffc75ff39a0f7","478.1850000144914","","","","39","","","","key","16.71302298850503","720","378.5","true","-1","132.91580221440003","2.0615843020800004","12","1","-1","","","","","","","","","","","","",""
"psychophysics","120","626256","0.0-10.0-0.32","5e5fac726816852e4d9cbe24","609a8bf73b2ac84e2732f618","609d5f398d7ffc75ff39a0f7","552.510000008624","","","","39","","","","key","16.711344086021807","720","378.5","true","1","134.97738651648004","2.0615843020800004","12","-1","1","","","","","","","","","","","","",""
"psychophysics","121","627657","0.0-10.0-0.33","5e5fac726816852e4d9cbe24","609a8bf73b2ac84e2732f618","609d5f398d7ffc75ff39a0f7","396.92500000819564","","","","39","","","","key","16.710301204820176","720","378.5","true","1","134.97738651648004","1.6492674416640005","13","-1","-1","","","","","","","","","","","","",""
"psychophysics","122","629271","0.0-10.0-0.34","5e5fac726816852e4d9cbe24","609a8bf73b2ac84e2732f618","609d5f398d7ffc75ff39a0f7","610.4949999717064","","","","39","","","","key","16.71239999999954","720","378.5","true","1","133.32811907481604","1.6492674416640005","13","-1","-1","","","","","","","","","","","","",""
"psychophysics","123","630552","0.0-10.0-0.35","5e5fac726816852e4d9cbe24","609a8bf73b2ac84e2732f618","609d5f398d7ffc75ff39a0f7","277.70500001497567","","","","39","","","","key","16.71160526315706","720","378.5","true","1","133.32811907481604","1.6492674416640005","13","-1","-1","","","","","","","","","","","","",""
"psychophysics","124","632047","0.0-10.0-0.36","5e5fac726816852e4d9cbe24","609a8bf73b2ac84e2732f618","609d5f398d7ffc75ff39a0f7","491.52000003959984","","","","39","","","","key","16.712477272726986","720","378.5","true","1","131.67885163315205","1.6492674416640005","13","-1","-1","","","","","","","","","","","","",""
"psychophysics","125","633950","0.0-10.0-0.37","5e5fac726816852e4d9cbe24","609a8bf73b2ac84e2732f618","609d5f398d7ffc75ff39a0f7","894.109999993816","","","","39","","","","key","16.711283185840706","720","378.5","true","-1","131.67885163315205","1.3194139533312006","14","1","-1","","","","","","","","","","","","",""
"psychophysics","126","636639","0.0-10.0-0.38","5e5fac726816852e4d9cbe24","609a8bf73b2ac84e2732f618","609d5f398d7ffc75ff39a0f7","1685.5450000148267","","","","37","","","","key","16.712137500000246","720","378.5","true","1","132.99826558648326","1.3194139533312006","14","1","1","","","","","","","","","","","","",""
"psychophysics","127","638014","0.0-10.0-0.39","5e5fac726816852e4d9cbe24","609a8bf73b2ac84e2732f618","609d5f398d7ffc75ff39a0f7","371.12000002525747","","","","39","","","","key","16.710222222221393","720","378.5","true","1","134.31767953981446","1.3194139533312006","14","-1","1","","","","","","","","","","","","",""
"html-keyboard-response","128","640368","0.0-11.0","5e5fac726816852e4d9cbe24","609a8bf73b2ac84e2732f618","609d5f398d7ffc75ff39a0f7","2349.9749999609776","<p>Well Done !</p><p>Prepare for a new block.</p><p>DON'T EXIT THE FULL SCREEN MODE</p><p>Press the Spacebar to start.</p>","","","92","","","","","","","","","","","","","","","true","134.42522552090628","","","","","","","","","","",""
"psychophysics","129","644683","0.0-12.0-0.0","5e5fac726816852e4d9cbe24","609a8bf73b2ac84e2732f618","609d5f398d7ffc75ff39a0f7","3309.1150000109337","","","","37","","","","key","17.816760330578344","720","378.5","true","-1","180","30","0","-1","","","","","","","","","","","","","",""
"psychophysics","130","646031","0.0-12.0-0.1","5e5fac726816852e4d9cbe24","609a8bf73b2ac84e2732f618","609d5f398d7ffc75ff39a0f7","341.62999998079613","","","","37","","","","key","16.712012500000128","720","378.5","true","-1","180","30","0","-1","-1","","","","","","","","","","","","",""
"psychophysics","131","647454","0.0-12.0-0.2","5e5fac726816852e4d9cbe24","609a8bf73b2ac84e2732f618","609d5f398d7ffc75ff39a0f7","418.1700000190176","","","","39","","","","key","16.711357142856635","720","378.5","true","1","150","30","0","-1","-1","","","","","","","","","","","","",""
"psychophysics","132","648838","0.0-12.0-0.3","5e5fac726816852e4d9cbe24","609a8bf73b2ac84e2732f618","609d5f398d7ffc75ff39a0f7","381.0149999917485","","","","39","","","","key","16.71107317073265","720","378.5","true","1","150","30","0","-1","-1","","","","","","","","","","","","",""
"psychophysics","133","650439","0.0-12.0-0.4","5e5fac726816852e4d9cbe24","609a8bf73b2ac84e2732f618","609d5f398d7ffc75ff39a0f7","599.1550000035204","","","","39","","","","key","16.71270526315723","720","378.5","true","1","129","30","0","-1","-1","","","","","","","","","","","","",""
"psychophysics","134","653087","0.0-12.0-0.5","5e5fac726816852e4d9cbe24","609a8bf73b2ac84e2732f618","609d5f398d7ffc75ff39a0f7","1644.5099999546073","","","","37","","","","key","16.711363057324895","720","378.5","true","1","129","24","1","1","-1","","","","","","","","","","","","",""
"psychophysics","135","654547","0.0-12.0-0.6","5e5fac726816852e4d9cbe24","609a8bf73b2ac84e2732f618","609d5f398d7ffc75ff39a0f7","450.24500001454726","","","","37","","","","key","16.71141860465151","720","378.5","true","-1","153","24","1","-1","1","","","","","","","","","","","","",""
"psychophysics","136","655943","0.0-12.0-0.7","5e5fac726816852e4d9cbe24","609a8bf73b2ac84e2732f618","609d5f398d7ffc75ff39a0f7","391.5649999980815","","","","39","","","","key","16.71103614457765","720","378.5","true","1","153","19.2","2","-1","-1","","","","","","","","","","","","",""
"psychophysics","137","657371","0.0-12.0-0.8","5e5fac726816852e4d9cbe24","609a8bf73b2ac84e2732f618","609d5f398d7ffc75ff39a0f7","425.0400000018999","","","","39","","","","key","16.71254761904683","720","378.5","true","1","133.8","19.2","2","-1","-1","","","","","","","","","","","","",""
"psychophysics","138","658944","0.0-12.0-0.9","5e5fac726816852e4d9cbe24","609a8bf73b2ac84e2732f618","609d5f398d7ffc75ff39a0f7","569.469999987632","","","","37","","","","key","16.711851063830917","720","378.5","true","-1","133.8","19.2","2","-1","-1","","","","","","","","","","","","",""
"psychophysics","139","661191","0.0-12.0-0.10","5e5fac726816852e4d9cbe24","609a8bf73b2ac84e2732f618","609d5f398d7ffc75ff39a0f7","1240.8150000264868","","","","39","","","","key","16.710969924812094","720","378.5","true","1","129","19.2","2","-1","-1","","","","","","","","","","","","",""
"psychophysics","140","664178","0.0-12.0-0.11","5e5fac726816852e4d9cbe24","609a8bf73b2ac84e2732f618","609d5f398d7ffc75ff39a0f7","1982.7599999844097","","","","37","","","","key","16.711440677965708","720","378.5","true","-1","129","19.2","2","-1","-1","","","","","","","","","","","","",""
"psychophysics","141","665615","0.0-12.0-0.12","5e5fac726816852e4d9cbe24","609a8bf73b2ac84e2732f618","609d5f398d7ffc75ff39a0f7","433.4750000271015","","","","39","","","","key","16.71302325581471","720","378.5","true","1","129","19.2","2","-1","-1","","","","","","","","","","","","",""
"psychophysics","142","668608","0.0-12.0-0.13","5e5fac726816852e4d9cbe24","609a8bf73b2ac84e2732f618","609d5f398d7ffc75ff39a0f7","1988.9199999743141","","","","37","","","","key","16.71133707865178","720","378.5","true","-1","129","19.2","2","-1","-1","","","","","","","","","","","","",""
"psychophysics","143","670015","0.0-12.0-0.14","5e5fac726816852e4d9cbe24","609a8bf73b2ac84e2732f618","609d5f398d7ffc75ff39a0f7","402.74499997030944","","","","37","","","","key","16.712108433734716","720","378.5","true","-1","129","19.2","2","-1","-1","","","","","","","","","","","","",""
"psychophysics","144","672369","0.0-12.0-0.15","5e5fac726816852e4d9cbe24","609a8bf73b2ac84e2732f618","609d5f398d7ffc75ff39a0f7","1342.7650000085123","","","","37","","","","key","16.711564285713912","720","378.5","true","-1","129","19.2","2","-1","-1","","","","","","","","","","","","",""
"psychophysics","145","673748","0.0-12.0-0.16","5e5fac726816852e4d9cbe24","609a8bf73b2ac84e2732f618","609d5f398d7ffc75ff39a0f7","374.5249999919906","","","","37","","","","key","16.710938271605066","720","378.5","true","1","129","15.36","3","1","-1","","","","","","","","","","","","",""
"psychophysics","146","675311","0.0-12.0-0.17","5e5fac726816852e4d9cbe24","609a8bf73b2ac84e2732f618","609d5f398d7ffc75ff39a0f7","559.8400000017136","","","","37","","","","key","16.711763440860405","720","378.5","true","-1","144.36","15.36","3","-1","1","","","","","","","","","","","","",""
"psychophysics","147","676559","0.0-12.0-0.18","5e5fac726816852e4d9cbe24","609a8bf73b2ac84e2732f618","609d5f398d7ffc75ff39a0f7","243.38499997975305","","","","39","","","","key","16.71194594594606","720","378.5","true","1","144.36","12.287999999999998","4","-1","-1","","","","","","","","","","","","",""
"psychophysics","148","678519","0.0-12.0-0.19","5e5fac726816852e4d9cbe24","609a8bf73b2ac84e2732f618","609d5f398d7ffc75ff39a0f7","955.1949999877252","","","","37","","","","key","16.711051724137587","720","378.5","true","-1","132.072","12.287999999999998","4","-1","-1","","","","","","","","","","","","",""
"psychophysics","149","680160","0.0-12.0-0.20","5e5fac726816852e4d9cbe24","609a8bf73b2ac84e2732f618","609d5f398d7ffc75ff39a0f7","636.8099999963306","","","","37","","","","key","16.71172164948465","720","378.5","true","1","132.072","9.8304","5","1","-1","","","","","","","","","","","","",""
"psychophysics","150","681607","0.0-12.0-0.21","5e5fac726816852e4d9cbe24","609a8bf73b2ac84e2732f618","609d5f398d7ffc75ff39a0f7","437.78000003658235","","","","37","","","","key","16.711104651163115","720","378.5","true","-1","141.9024","9.8304","5","-1","1","","","","","","","","","","","","",""
"psychophysics","151","682911","0.0-12.0-0.22","5e5fac726816852e4d9cbe24","609a8bf73b2ac84e2732f618","609d5f398d7ffc75ff39a0f7","298.1900000013411","","","","37","","","","key","16.711740259740306","720","378.5","true","-1","141.9024","7.864319999999999","6","-1","-1","","","","","","","","","","","","",""
"psychophysics","152","685151","0.0-12.0-0.23","5e5fac726816852e4d9cbe24","609a8bf73b2ac84e2732f618","609d5f398d7ffc75ff39a0f7","1232.9599999939092","","","","39","","","","key","16.712601503759057","720","378.5","true","1","134.03808","7.864319999999999","6","-1","-1","","","","","","","","","","","","",""
"psychophysics","153","686784","0.0-12.0-0.24","5e5fac726816852e4d9cbe24","609a8bf73b2ac84e2732f618","609d5f398d7ffc75ff39a0f7","628.3150000381283","","","","37","","","","key","16.711309278350246","720","378.5","true","1","134.03808","6.291456","7","1","-1","","","","","","","","","","","","",""
"psychophysics","154","688310","0.0-12.0-0.25","5e5fac726816852e4d9cbe24","609a8bf73b2ac84e2732f618","609d5f398d7ffc75ff39a0f7","521.1800000397488","","","","37","","","","key","16.709655555554978","720","378.5","true","-1","140.32953600000002","6.291456","7","-1","1","","","","","","","","","","","","",""
"psychophysics","155","689489","0.0-12.0-0.26","5e5fac726816852e4d9cbe24","609a8bf73b2ac84e2732f618","609d5f398d7ffc75ff39a0f7","176.52999999700114","","","","39","","","","key","16.711173913043424","720","378.5","true","1","140.32953600000002","5.033164800000001","8","-1","-1","","","","","","","","","","","","",""
"psychophysics","156","690663","0.0-12.0-0.27","5e5fac726816852e4d9cbe24","609a8bf73b2ac84e2732f618","609d5f398d7ffc75ff39a0f7","171.42999998759478","","","","37","","","","key","16.711357142857743","720","378.5","true","-1","135.2963712","5.033164800000001","8","-1","-1","","","","","","","","","","","","",""
"psychophysics","157","692083","0.0-12.0-0.28","5e5fac726816852e4d9cbe24","609a8bf73b2ac84e2732f618","609d5f398d7ffc75ff39a0f7","417.2649999964051","","","","39","","","","key","16.71196428571351","720","378.5","true","1","135.2963712","5.033164800000001","8","-1","-1","","","","","","","","","","","","",""
"psychophysics","158","694138","0.0-12.0-0.29","5e5fac726816852e4d9cbe24","609a8bf73b2ac84e2732f618","609d5f398d7ffc75ff39a0f7","1048.7999999895692","","","","37","","","","key","16.710795081967724","720","378.5","true","-1","130.2632064","5.033164800000001","8","-1","-1","","","","","","","","","","","","",""
"psychophysics","159","697519","0.0-12.0-0.30","5e5fac726816852e4d9cbe24","609a8bf73b2ac84e2732f618","609d5f398d7ffc75ff39a0f7","2377.0849999855272","","","","39","","","","key","16.710970149253292","720","378.5","true","1","130.2632064","5.033164800000001","8","-1","-1","","","","","","","","","","","","",""
"psychophysics","160","699986","0.0-12.0-0.31","5e5fac726816852e4d9cbe24","609a8bf73b2ac84e2732f618","609d5f398d7ffc75ff39a0f7","1465.41000000434","","","","39","","","","key","16.711748299320373","720","378.5","true","-1","129","4.0265318400000005","9","1","-1","","","","","","","","","","","","",""
"psychophysics","161","702616","0.0-12.0-0.32","5e5fac726816852e4d9cbe24","609a8bf73b2ac84e2732f618","609d5f398d7ffc75ff39a0f7","1623.989999992773","","","","39","","","","key","16.71135256410269","720","378.5","true","-1","133.02653184","4.0265318400000005","9","1","1","","","","","","","","","","","","",""
"psychophysics","162","704130","0.0-12.0-0.33","5e5fac726816852e4d9cbe24","609a8bf73b2ac84e2732f618","609d5f398d7ffc75ff39a0f7","509.19000001158565","","","","39","","","","key","16.711393258427112","720","378.5","true","1","137.05306367999998","4.0265318400000005","9","-1","1","","","","","","","","","","","","",""
"psychophysics","163","705458","0.0-12.0-0.34","5e5fac726816852e4d9cbe24","609a8bf73b2ac84e2732f618","609d5f398d7ffc75ff39a0f7","323.87000002199784","","","","37","","","","key","16.711645569621375","720","378.5","true","-1","137.05306367999998","3.2212254720000004","10","-1","-1","","","","","","","","","","","","",""
"psychophysics","164","707055","0.0-12.0-0.35","5e5fac726816852e4d9cbe24","609a8bf73b2ac84e2732f618","609d5f398d7ffc75ff39a0f7","593.5499999905005","","","","37","","","","key","16.71170526315875","720","378.5","true","-1","133.83183820799997","3.2212254720000004","10","-1","-1","","","","","","","","","","","","",""
"psychophysics","165","708479","0.0-12.0-0.36","5e5fac726816852e4d9cbe24","609a8bf73b2ac84e2732f618","609d5f398d7ffc75ff39a0f7","420.285000000149","","","","39","","","","key","16.711940476189955","720","378.5","true","1","133.83183820799997","3.2212254720000004","10","-1","-1","","","","","","","","","","","","",""
"psychophysics","166","710574","0.0-12.0-0.37","5e5fac726816852e4d9cbe24","609a8bf73b2ac84e2732f618","609d5f398d7ffc75ff39a0f7","1089.0249999938533","","","","39","","","","key","16.711024193547576","720","378.5","true","1","130.61061273599995","3.2212254720000004","10","-1","-1","","","","","","","","","","","","",""
"psychophysics","167","712390","0.0-12.0-0.38","5e5fac726816852e4d9cbe24","609a8bf73b2ac84e2732f618","609d5f398d7ffc75ff39a0f7","807.6000000000931","","","","37","","","","key","16.711787037037237","720","378.5","true","1","130.61061273599995","2.5769803776000004","11","1","-1","","","","","","","","","","","","",""
"psychophysics","168","714323","0.0-12.0-0.39","5e5fac726816852e4d9cbe24","609a8bf73b2ac84e2732f618","609d5f398d7ffc75ff39a0f7","929.4499999959953","","","","37","","","","key","16.71227192982476","720","378.5","true","-1","133.18759311359995","2.5769803776000004","11","-1","1","","","","","","","","","","","","",""
"html-keyboard-response","169","716127","0.0-13.0","5e5fac726816852e4d9cbe24","609a8bf73b2ac84e2732f618","609d5f398d7ffc75ff39a0f7","1801.7799999797717","<p>Well Done !</p><p>Prepare for a new block.</p><p>DON'T EXIT THE FULL SCREEN MODE</p><p>Press the Spacebar to start.</p>","","","32","","","","","","","","","","","","","","","true","133.99889209343993","","","","","","","","","","",""
"html-keyboard-response","170","716231","0.0-14.0","5e5fac726816852e4d9cbe24","609a8bf73b2ac84e2732f618","609d5f398d7ffc75ff39a0f7","null","","","","null","","","","","","","","","","","","","","","","","134.21889477807855","true","140.4377895561571","","","","","","","",""
"instructions","171","756737","0.0-15.0","5e5fac726816852e4d9cbe24","609a8bf73b2ac84e2732f618","609d5f398d7ffc75ff39a0f7","40503.70500003919","","","","","","","[{""page_index"":0,""viewing_time"":29814.35500003863},{""page_index"":1,""viewing_time"":4596.979999972973},{""page_index"":2,""viewing_time"":6091.625000000931}]","","","","","","","","","","","","","","","","","","","","","","","",""
"psychophysics","172","760142","0.0-16.0-0.0","5e5fac726816852e4d9cbe24","609a8bf73b2ac84e2732f618","609d5f398d7ffc75ff39a0f7","null","","","","null","","","","key","16.71180722891516","720","378.5","","","","","","","","","","","","","","","","","","","",""
"psychophysics","173","760647","0.0-16.0-1.0","5e5fac726816852e4d9cbe24","609a8bf73b2ac84e2732f618","609d5f398d7ffc75ff39a0f7","null","","","","null","","","","key","16.70963333333299","720","378.5","","","","","","","","","","","","","140","1","5","false","","","",""
"psychophysics","174","765010","0.0-16.0-2.0","5e5fac726816852e4d9cbe24","609a8bf73b2ac84e2732f618","609d5f398d7ffc75ff39a0f7","4358.319999999367","","","","90","","","","key","16.711511538461604","720","378.5","","","","","","","","","","","","","","","","","","","",""
"psychophysics","175","765925","0.0-16.0-0.1","5e5fac726816852e4d9cbe24","609a8bf73b2ac84e2732f618","609d5f398d7ffc75ff39a0f7","null","","","","null","","","","key","16.710796296296866","720","378.5","","","","","","","","","","","","","","","","","","","",""
"psychophysics","176","766432","0.0-16.0-1.1","5e5fac726816852e4d9cbe24","609a8bf73b2ac84e2732f618","609d5f398d7ffc75ff39a0f7","null","","","","null","","","","key","16.712620689658095","720","378.5","","","","","","","","","","","","","140","-1","0","false","","","",""
"psychophysics","177","767016","0.0-16.0-2.1","5e5fac726816852e4d9cbe24","609a8bf73b2ac84e2732f618","609d5f398d7ffc75ff39a0f7","579.7799999709241","","","","90","","","","key","16.70950000000063","720","378.5","","","","","","","","","","","","","","","","","","","",""
"psychophysics","178","768358","0.0-16.0-0.2","5e5fac726816852e4d9cbe24","609a8bf73b2ac84e2732f618","609d5f398d7ffc75ff39a0f7","null","","","","null","","","","key","16.710835443037457","720","378.5","","","","","","","","","","","","","","","","","","","",""
"psychophysics","179","768862","0.0-16.0-1.2","5e5fac726816852e4d9cbe24","609a8bf73b2ac84e2732f618","609d5f398d7ffc75ff39a0f7","null","","","","null","","","","key","16.70934482758608","720","378.5","","","","","","","","","","","","","140","-1","6","false","","","",""
"psychophysics","180","769439","0.0-16.0-2.2","5e5fac726816852e4d9cbe24","609a8bf73b2ac84e2732f618","609d5f398d7ffc75ff39a0f7","539.2449999926612","","","","77","","","","key","16.713941176469877","720","378.5","","","","","","","","","","","","","","","","","","","",""
"psychophysics","181","770073","0.0-16.0-0.3","5e5fac726816852e4d9cbe24","609a8bf73b2ac84e2732f618","609d5f398d7ffc75ff39a0f7","null","","","","null","","","","key","16.710270270271025","720","378.5","","","","","","","","","","","","","","","","","","","",""
"psychophysics","182","770577","0.0-16.0-1.3","5e5fac726816852e4d9cbe24","609a8bf73b2ac84e2732f618","609d5f398d7ffc75ff39a0f7","null","","","","null","","","","key","16.711413793101233","720","378.5","","","","","","","","","","","","","140","-1","2","false","","","",""
"psychophysics","183","771127","0.0-16.0-2.3","5e5fac726816852e4d9cbe24","609a8bf73b2ac84e2732f618","609d5f398d7ffc75ff39a0f7","546.4349999674596","","","","90","","","","key","16.711124999997992","720","378.5","","","","","","","","","","","","","","","","","","","",""
"psychophysics","184","772472","0.0-16.0-0.4","5e5fac726816852e4d9cbe24","609a8bf73b2ac84e2732f618","609d5f398d7ffc75ff39a0f7","null","","","","null","","","","key","16.71070886076033","720","378.5","","","","","","","","","","","","","","","","","","","",""
"psychophysics","185","772978","0.0-16.0-1.4","5e5fac726816852e4d9cbe24","609a8bf73b2ac84e2732f618","609d5f398d7ffc75ff39a0f7","null","","","","null","","","","key","16.710533333333053","720","378.5","","","","","","","","","","","","","140","1","0","false","","","",""
"psychophysics","186","773530","0.0-16.0-2.4","5e5fac726816852e4d9cbe24","609a8bf73b2ac84e2732f618","609d5f398d7ffc75ff39a0f7","548.2600000104867","","","","90","","","","key","17.27106666666611","720","378.5","","","","","","","","","","","","","","","","","","","",""
"psychophysics","187","774621","0.0-16.0-0.5","5e5fac726816852e4d9cbe24","609a8bf73b2ac84e2732f618","609d5f398d7ffc75ff39a0f7","null","","","","null","","","","key","16.71200000000043","720","378.5","","","","","","","","","","","","","","","","","","","",""
"psychophysics","188","775131","0.0-16.0-1.5","5e5fac726816852e4d9cbe24","609a8bf73b2ac84e2732f618","609d5f398d7ffc75ff39a0f7","null","","","","null","","","","key","16.71000000000289","720","378.5","","","","","","","","","","","","","140","1","4","false","","","",""
"psychophysics","189","775590","0.0-16.0-2.5","5e5fac726816852e4d9cbe24","609a8bf73b2ac84e2732f618","609d5f398d7ffc75ff39a0f7","449.350000009872","","","","77","","","","key","16.710370370367954","720","378.5","","","","","","","","","","","","","","","","","","","",""
"psychophysics","190","776666","0.0-16.0-0.6","5e5fac726816852e4d9cbe24","609a8bf73b2ac84e2732f618","609d5f398d7ffc75ff39a0f7","null","","","","null","","","","key","16.71169841269748","720","378.5","","","","","","","","","","","","","","","","","","","",""
"psychophysics","191","777176","0.0-16.0-1.6","5e5fac726816852e4d9cbe24","609a8bf73b2ac84e2732f618","609d5f398d7ffc75ff39a0f7","null","","","","null","","","","key","16.713200000002203","720","378.5","","","","","","","","","","","","","140","-1","3","false","","","",""
"psychophysics","192","778135","0.0-16.0-2.6","5e5fac726816852e4d9cbe24","609a8bf73b2ac84e2732f618","609d5f398d7ffc75ff39a0f7","956.5350000048056","","","","77","","","","key","16.710339285713935","720","378.5","","","","","","","","","","","","","","","","","","","",""
"psychophysics","193","779249","0.0-16.0-0.7","5e5fac726816852e4d9cbe24","609a8bf73b2ac84e2732f618","609d5f398d7ffc75ff39a0f7","null","","","","null","","","","key","16.712318181816954","720","378.5","","","","","","","","","","","","","","","","","","","",""
"psychophysics","194","779752","0.0-16.0-1.7","5e5fac726816852e4d9cbe24","609a8bf73b2ac84e2732f618","609d5f398d7ffc75ff39a0f7","null","","","","null","","","","key","16.711965517241282","720","378.5","","","","","","","","","","","","","140","1","3","false","","","",""
"psychophysics","195","780239","0.0-16.0-2.7","5e5fac726816852e4d9cbe24","609a8bf73b2ac84e2732f618","609d5f398d7ffc75ff39a0f7","484.2950000311248","","","","90","","","","key","16.711607142858806","720","378.5","","","","","","","","","","","","","","","","","","","",""
"psychophysics","196","781061","0.0-16.0-0.8","5e5fac726816852e4d9cbe24","609a8bf73b2ac84e2732f618","609d5f398d7ffc75ff39a0f7","null","","","","null","","","","key","16.711562500000582","720","378.5","","","","","","","","","","","","","","","","","","","",""
"psychophysics","197","781564","0.0-16.0-1.8","5e5fac726816852e4d9cbe24","609a8bf73b2ac84e2732f618","609d5f398d7ffc75ff39a0f7","null","","","","null","","","","key","16.711379310344988","720","378.5","","","","","","","","","","","","","140","-1","4","false","","","",""
"psychophysics","198","781887","0.0-16.0-2.8","5e5fac726816852e4d9cbe24","609a8bf73b2ac84e2732f618","609d5f398d7ffc75ff39a0f7","316.5949999820441","","","","77","","","","key","16.71221052631613","720","378.5","","","","","","","","","","","","","","","","","","","",""
"psychophysics","199","782551","0.0-16.0-0.9","5e5fac726816852e4d9cbe24","609a8bf73b2ac84e2732f618","609d5f398d7ffc75ff39a0f7","null","","","","null","","","","key","16.71152631579102","720","378.5","","","","","","","","","","","","","","","","","","","",""
"psychophysics","200","783058","0.0-16.0-1.9","5e5fac726816852e4d9cbe24","609a8bf73b2ac84e2732f618","609d5f398d7ffc75ff39a0f7","null","","","","null","","","","key","16.714566666663934","720","378.5","","","","","","","","","","","","","140","1","2","false","","","",""
"psychophysics","201","783449","0.0-16.0-2.9","5e5fac726816852e4d9cbe24","609a8bf73b2ac84e2732f618","609d5f398d7ffc75ff39a0f7","387.83500000135973","","","","90","","","","key","16.708681818182495","720","378.5","","","","","","","","","","","","","","","","","","","",""
"psychophysics","202","783969","0.0-16.0-0.10","5e5fac726816852e4d9cbe24","609a8bf73b2ac84e2732f618","609d5f398d7ffc75ff39a0f7","null","","","","null","","","","key","16.713066666666418","720","378.5","","","","","","","","","","","","","","","","","","","",""
"psychophysics","203","784474","0.0-16.0-1.10","5e5fac726816852e4d9cbe24","609a8bf73b2ac84e2732f618","609d5f398d7ffc75ff39a0f7","null","","","","null","","","","key","16.711586206894495","720","378.5","","","","","","","","","","","","","140","1","6","false","","","",""
"psychophysics","204","784736","0.0-16.0-2.10","5e5fac726816852e4d9cbe24","609a8bf73b2ac84e2732f618","609d5f398d7ffc75ff39a0f7","247.71999998483807","","","","77","","","","key","16.71233333333706","720","378.5","","","","","","","","","","","","","","","","","","","",""
"psychophysics","205","786170","0.0-16.0-0.11","5e5fac726816852e4d9cbe24","609a8bf73b2ac84e2732f618","609d5f398d7ffc75ff39a0f7","null","","","","null","","","","key","16.711129411764663","720","378.5","","","","","","","","","","","","","","","","","","","",""
"psychophysics","206","786674","0.0-16.0-1.11","5e5fac726816852e4d9cbe24","609a8bf73b2ac84e2732f618","609d5f398d7ffc75ff39a0f7","null","","","","null","","","","key","16.708310344826494","720","378.5","","","","","","","","","","","","","140","-1","5","false","","","",""
"psychophysics","207","788207","0.0-16.0-2.11","5e5fac726816852e4d9cbe24","609a8bf73b2ac84e2732f618","609d5f398d7ffc75ff39a0f7","1530.7449999963865","","","","77","","","","key","16.710604395604804","720","378.5","","","","","","","","","","","","","","","","","","","",""
"psychophysics","208","788741","0.0-16.0-0.12","5e5fac726816852e4d9cbe24","609a8bf73b2ac84e2732f618","609d5f398d7ffc75ff39a0f7","null","","","","null","","","","key","16.71593548387154","720","378.5","","","","","","","","","","","","","","","","","","","",""
"psychophysics","209","789244","0.0-16.0-1.12","5e5fac726816852e4d9cbe24","609a8bf73b2ac84e2732f618","609d5f398d7ffc75ff39a0f7","null","","","","null","","","","key","16.709689655172607","720","378.5","","","","","","","","","","","","","140","-1","5","false","","","",""
"psychophysics","210","789608","0.0-16.0-2.12","5e5fac726816852e4d9cbe24","609a8bf73b2ac84e2732f618","609d5f398d7ffc75ff39a0f7","360.3450000518933","","","","77","","","","key","16.70985714285745","720","378.5","","","","","","","","","","","","","","","","","","","",""
"psychophysics","211","790647","0.0-16.0-0.13","5e5fac726816852e4d9cbe24","609a8bf73b2ac84e2732f618","609d5f398d7ffc75ff39a0f7","null","","","","null","","","","key","16.713295081968145","720","378.5","","","","","","","","","","","","","","","","","","","",""
"psychophysics","212","791150","0.0-16.0-1.13","5e5fac726816852e4d9cbe24","609a8bf73b2ac84e2732f618","609d5f398d7ffc75ff39a0f7","null","","","","null","","","","key","16.714999999999517","720","378.5","","","","","","","","","","","","","140","-1","3","false","","","",""
"psychophysics","213","791655","0.0-16.0-2.13","5e5fac726816852e4d9cbe24","609a8bf73b2ac84e2732f618","609d5f398d7ffc75ff39a0f7","501.9050000119023","","","","77","","","","key","16.711724137931515","720","378.5","","","","","","","","","","","","","","","","","","","",""
"psychophysics","214","793100","0.0-16.0-0.14","5e5fac726816852e4d9cbe24","609a8bf73b2ac84e2732f618","609d5f398d7ffc75ff39a0f7","null","","","","null","","","","key","16.71154651162756","720","378.5","","","","","","","","","","","","","","","","","","","",""
"psychophysics","215","793604","0.0-16.0-1.14","5e5fac726816852e4d9cbe24","609a8bf73b2ac84e2732f618","609d5f398d7ffc75ff39a0f7","null","","","","null","","","","key","16.710793103448694","720","378.5","","","","","","","","","","","","","140","1","5","false","","","",""
"psychophysics","216","793988","0.0-16.0-2.14","5e5fac726816852e4d9cbe24","609a8bf73b2ac84e2732f618","609d5f398d7ffc75ff39a0f7","379.7550000017509","","","","77","","","","key","16.705863636362746","720","378.5","","","","","","","","","","","","","","","","","","","",""
"psychophysics","217","794991","0.0-16.0-0.15","5e5fac726816852e4d9cbe24","609a8bf73b2ac84e2732f618","609d5f398d7ffc75ff39a0f7","null","","","","null","","","","key","16.711711864405455","720","378.5","","","","","","","","","","","","","","","","","","","",""
"psychophysics","218","795494","0.0-16.0-1.15","5e5fac726816852e4d9cbe24","609a8bf73b2ac84e2732f618","609d5f398d7ffc75ff39a0f7","null","","","","null","","","","key","16.709655172412347","720","378.5","","","","","","","","","","","","","140","1","4","false","","","",""
"psychophysics","219","795951","0.0-16.0-2.15","5e5fac726816852e4d9cbe24","609a8bf73b2ac84e2732f618","609d5f398d7ffc75ff39a0f7","453.2650000182912","","","","77","","","","key","16.7079230769215","720","378.5","","","","","","","","","","","","","","","","","","","",""
"psychophysics","220","796828","0.0-16.0-0.16","5e5fac726816852e4d9cbe24","609a8bf73b2ac84e2732f618","609d5f398d7ffc75ff39a0f7","null","","","","null","","","","key","16.711173076923632","720","378.5","","","","","","","","","","","","","","","","","","","",""
"psychophysics","221","797335","0.0-16.0-1.16","5e5fac726816852e4d9cbe24","609a8bf73b2ac84e2732f618","609d5f398d7ffc75ff39a0f7","null","","","","null","","","","key","16.711448275861493","720","378.5","","","","","","","","","","","","","140","1","2","false","","","",""
"psychophysics","222","797811","0.0-16.0-2.16","5e5fac726816852e4d9cbe24","609a8bf73b2ac84e2732f618","609d5f398d7ffc75ff39a0f7","472.49999997438863","","","","90","","","","key","16.711555555557695","720","378.5","","","","","","","","","","","","","","","","","","","",""
"psychophysics","223","798561","0.0-16.0-0.17","5e5fac726816852e4d9cbe24","609a8bf73b2ac84e2732f618","609d5f398d7ffc75ff39a0f7","null","","","","null","","","","key","16.712500000002116","720","378.5","","","","","","","","","","","","","","","","","","","",""
"psychophysics","224","799068","0.0-16.0-1.17","5e5fac726816852e4d9cbe24","609a8bf73b2ac84e2732f618","609d5f398d7ffc75ff39a0f7","null","","","","null","","","","key","16.708466666665238","720","378.5","","","","","","","","","","","","","140","-1","0","false","","","",""
"psychophysics","225","799554","0.0-16.0-2.17","5e5fac726816852e4d9cbe24","609a8bf73b2ac84e2732f618","609d5f398d7ffc75ff39a0f7","482.42000001482666","","","","90","","","","key","16.71282142857256","720","378.5","","","","","","","","","","","","","","","","","","","",""
"psychophysics","226","800507","0.0-16.0-0.18","5e5fac726816852e4d9cbe24","609a8bf73b2ac84e2732f618","609d5f398d7ffc75ff39a0f7","null","","","","null","","","","key","16.711785714285465","720","378.5","","","","","","","","","","","","","","","","","","","",""
"psychophysics","227","801011","0.0-16.0-1.18","5e5fac726816852e4d9cbe24","609a8bf73b2ac84e2732f618","609d5f398d7ffc75ff39a0f7","null","","","","null","","","","key","16.708344827586753","720","378.5","","","","","","","","","","","","","140","-1","4","false","","","",""
"psychophysics","228","801311","0.0-16.0-2.18","5e5fac726816852e4d9cbe24","609a8bf73b2ac84e2732f618","609d5f398d7ffc75ff39a0f7","296.6899999883026","","","","77","","","","key","16.71200000000296","720","378.5","","","","","","","","","","","","","","","","","","","",""
"psychophysics","229","801880","0.0-16.0-0.19","5e5fac726816852e4d9cbe24","609a8bf73b2ac84e2732f618","609d5f398d7ffc75ff39a0f7","null","","","","null","","","","key","16.711030303027876","720","378.5","","","","","","","","","","","","","","","","","","","",""
"psychophysics","230","802383","0.0-16.0-1.19","5e5fac726816852e4d9cbe24","609a8bf73b2ac84e2732f618","609d5f398d7ffc75ff39a0f7","null","","","","null","","","","key","16.711413793101233","720","378.5","","","","","","","","","","","","","140","1","0","false","","","",""
"psychophysics","231","802793","0.0-16.0-2.19","5e5fac726816852e4d9cbe24","609a8bf73b2ac84e2732f618","609d5f398d7ffc75ff39a0f7","390.00999997369945","","","","77","","","","key","16.708875000001473","720","378.5","","","","","","","","","","","","","","","","","","","",""
"psychophysics","232","803653","0.0-16.0-0.20","5e5fac726816852e4d9cbe24","609a8bf73b2ac84e2732f618","609d5f398d7ffc75ff39a0f7","null","","","","null","","","","key","16.7117799999984","720","378.5","","","","","","","","","","","","","","","","","","","",""
"psychophysics","233","804158","0.0-16.0-1.20","5e5fac726816852e4d9cbe24","609a8bf73b2ac84e2732f618","609d5f398d7ffc75ff39a0f7","null","","","","null","","","","key","16.711206896551722","720","378.5","","","","","","","","","","","","","140","1","3","false","","","",""
"psychophysics","234","804499","0.0-16.0-2.20","5e5fac726816852e4d9cbe24","609a8bf73b2ac84e2732f618","609d5f398d7ffc75ff39a0f7","331.7350000143051","","","","77","","","","key","16.71624999999767","720","378.5","","","","","","","","","","","","","","","","","","","",""
"psychophysics","235","805067","0.0-16.0-0.21","5e5fac726816852e4d9cbe24","609a8bf73b2ac84e2732f618","609d5f398d7ffc75ff39a0f7","null","","","","null","","","","key","16.710757575759832","720","378.5","","","","","","","","","","","","","","","","","","","",""
"psychophysics","236","805571","0.0-16.0-1.21","5e5fac726816852e4d9cbe24","609a8bf73b2ac84e2732f618","609d5f398d7ffc75ff39a0f7","null","","","","null","","","","key","16.709413793106595","720","378.5","","","","","","","","","","","","","140","-1","6","false","","","",""
"psychophysics","237","805856","0.0-16.0-2.21","5e5fac726816852e4d9cbe24","609a8bf73b2ac84e2732f618","609d5f398d7ffc75ff39a0f7","282.5450000236742","","","","90","","","","key","16.714374999995925","720","378.5","","","","","","","","","","","","","","","","","","","",""
"psychophysics","238","807067","0.0-16.0-0.22","5e5fac726816852e4d9cbe24","609a8bf73b2ac84e2732f618","609d5f398d7ffc75ff39a0f7","null","","","","null","","","","key","16.71166197183004","720","378.5","","","","","","","","","","","","","","","","","","","",""
"psychophysics","239","807573","0.0-16.0-1.22","5e5fac726816852e4d9cbe24","609a8bf73b2ac84e2732f618","609d5f398d7ffc75ff39a0f7","null","","","","null","","","","key","16.7088333333338","720","378.5","","","","","","","","","","","","","140","-1","2","false","","","",""
"psychophysics","240","808401","0.0-16.0-2.22","5e5fac726816852e4d9cbe24","609a8bf73b2ac84e2732f618","609d5f398d7ffc75ff39a0f7","820.5849999794737","","","","77","","","","key","16.71352083333477","720","378.5","","","","","","","","","","","","","","","","","","","",""
"psychophysics","241","809069","0.0-16.0-0.23","5e5fac726816852e4d9cbe24","609a8bf73b2ac84e2732f618","609d5f398d7ffc75ff39a0f7","null","","","","null","","","","key","16.71366666666626","720","378.5","","","","","","","","","","","","","","","","","","","",""
"psychophysics","242","809574","0.0-16.0-1.23","5e5fac726816852e4d9cbe24","609a8bf73b2ac84e2732f618","609d5f398d7ffc75ff39a0f7","null","","","","null","","","","key","16.713034482761124","720","378.5","","","","","","","","","","","","","140","1","6","false","","","",""
"psychophysics","243","809882","0.0-16.0-2.23","5e5fac726816852e4d9cbe24","609a8bf73b2ac84e2732f618","609d5f398d7ffc75ff39a0f7","300.79499998828396","","","","77","","","","key","16.71394444444579","720","378.5","","","","","","","","","","","","","","","","","","","",""
"html-keyboard-response","244","810823","0.0-17.0","5e5fac726816852e4d9cbe24","609a8bf73b2ac84e2732f618","609d5f398d7ffc75ff39a0f7","938.3800000068732","<p>Well Done !</p><p>Training Complete. Press the spacebar to start.</p><p>DON'T EXIT THE FULL SCREEN MODE</p>","","","32","","","","","","","","","","","","","","","","","","","","","","","","","","",""
"psychophysics","245","813440","0.0-18.0-0.0","5e5fac726816852e4d9cbe24","609a8bf73b2ac84e2732f618","609d5f398d7ffc75ff39a0f7","null","","","","null","","","","key","16.70970270270167","720","378.5","","","","","","","","","","","","","","","","","","","",""
"psychophysics","246","813944","0.0-18.0-1.0","5e5fac726816852e4d9cbe24","609a8bf73b2ac84e2732f618","609d5f398d7ffc75ff39a0f7","null","","","","null","","","","key","16.713689655169908","720","378.5","","","","","","","","","","","","","140","1","2","true","","","",""
"psychophysics","247","814121","0.0-18.0-2.0","5e5fac726816852e4d9cbe24","609a8bf73b2ac84e2732f618","609d5f398d7ffc75ff39a0f7","173.33000001963228","","","","77","","","","key","16.714777777786367","720","378.5","","","","","","","","","","","","","","","","","","","",""
"psychophysics","248","814835","0.0-18.0-0.1","5e5fac726816852e4d9cbe24","609a8bf73b2ac84e2732f618","609d5f398d7ffc75ff39a0f7","null","","","","null","","","","key","16.714428571427042","720","378.5","","","","","","","","","","","","","","","","","","","",""
"psychophysics","249","815338","0.0-18.0-1.1","5e5fac726816852e4d9cbe24","609a8bf73b2ac84e2732f618","609d5f398d7ffc75ff39a0f7","null","","","","null","","","","key","16.71293103448035","720","378.5","","","","","","","","","","","","","140","-1","2","true","","","",""
"psychophysics","250","815503","0.0-18.0-2.1","5e5fac726816852e4d9cbe24","609a8bf73b2ac84e2732f618","609d5f398d7ffc75ff39a0f7","118.89500002143905","","","","77","","","","key","18.788249999997788","720","378.5","","","","","","","","","","","","","","","","","","","",""
"psychophysics","251","816533","0.0-18.0-0.2","5e5fac726816852e4d9cbe24","609a8bf73b2ac84e2732f618","609d5f398d7ffc75ff39a0f7","null","","","","null","","","","key","16.71298360655687","720","378.5","","","","","","","","","","","","","","","","","","","",""
"psychophysics","252","817036","0.0-18.0-1.2","5e5fac726816852e4d9cbe24","609a8bf73b2ac84e2732f618","609d5f398d7ffc75ff39a0f7","null","","","","null","","","","key","16.711068965514706","720","378.5","","","","","","","","","","","","","140","-1","4","true","","","",""
"psychophysics","253","817207","0.0-18.0-2.2","5e5fac726816852e4d9cbe24","609a8bf73b2ac84e2732f618","609d5f398d7ffc75ff39a0f7","161.41999996034428","","","","77","","","","key","16.71277777776898","720","378.5","","","","","","","","","","","","","","","","","","","",""
"psychophysics","254","818145","0.0-18.0-0.3","5e5fac726816852e4d9cbe24","609a8bf73b2ac84e2732f618","609d5f398d7ffc75ff39a0f7","null","","","","null","","","","key","16.71123636363667","720","378.5","","","","","","","","","","","","","","","","","","","",""
"psychophysics","255","818653","0.0-18.0-1.3","5e5fac726816852e4d9cbe24","609a8bf73b2ac84e2732f618","609d5f398d7ffc75ff39a0f7","null","","","","null","","","","key","16.71459999999885","720","378.5","","","","","","","","","","","","","140","1","0","true","","","",""
"psychophysics","256","819008","0.0-18.0-2.3","5e5fac726816852e4d9cbe24","609a8bf73b2ac84e2732f618","609d5f398d7ffc75ff39a0f7","351.7400000127964","","","","90","","","","key","16.71130000000121","720","378.5","","","","","","","","","","","","","","","","","","","",""
"psychophysics","257","819866","0.0-18.0-0.4","5e5fac726816852e4d9cbe24","609a8bf73b2ac84e2732f618","609d5f398d7ffc75ff39a0f7","null","","","","null","","","","key","16.712560000000522","720","378.5","","","","","","","","","","","","","","","","","","","",""
"psychophysics","258","820373","0.0-18.0-1.4","5e5fac726816852e4d9cbe24","609a8bf73b2ac84e2732f618","609d5f398d7ffc75ff39a0f7","null","","","","null","","","","key","16.711833333336592","720","378.5","","","","","","","","","","","","","140","1","4","true","","","",""
"psychophysics","259","820593","0.0-18.0-2.4","5e5fac726816852e4d9cbe24","609a8bf73b2ac84e2732f618","609d5f398d7ffc75ff39a0f7","215.94500000355765","","","","77","","","","key","16.70808333333116","720","378.5","","","","","","","","","","","","","","","","","","","",""
"psychophysics","260","821616","0.0-18.0-0.5","5e5fac726816852e4d9cbe24","609a8bf73b2ac84e2732f618","609d5f398d7ffc75ff39a0f7","null","","","","null","","","","key","16.710883333332216","720","378.5","","","","","","","","","","","","","","","","","","","",""
"psychophysics","261","822118","0.0-18.0-1.5","5e5fac726816852e4d9cbe24","609a8bf73b2ac84e2732f618","609d5f398d7ffc75ff39a0f7","null","","","","null","","","","key","16.712103448274288","720","378.5","","","","","","","","","","","","","140","-1","6","true","","","",""
"psychophysics","262","822385","0.0-18.0-2.5","5e5fac726816852e4d9cbe24","609a8bf73b2ac84e2732f618","609d5f398d7ffc75ff39a0f7","263.0699999863282","","","","77","","","","key","16.702615384621403","720","378.5","","","","","","","","","","","","","","","","","","","",""
"psychophysics","263","823622","0.0-18.0-0.6","5e5fac726816852e4d9cbe24","609a8bf73b2ac84e2732f618","609d5f398d7ffc75ff39a0f7","null","","","","null","","","","key","16.71277333333312","720","378.5","","","","","","","","","","","","","","","","","","","",""
"psychophysics","264","824126","0.0-18.0-1.6","5e5fac726816852e4d9cbe24","609a8bf73b2ac84e2732f618","609d5f398d7ffc75ff39a0f7","null","","","","null","","","","key","16.713241379310634","720","378.5","","","","","","","","","","","","","140","-1","5","true","","","",""
"psychophysics","265","824391","0.0-18.0-2.6","5e5fac726816852e4d9cbe24","609a8bf73b2ac84e2732f618","609d5f398d7ffc75ff39a0f7","258.99000000208616","","","","77","","","","key","16.71066666666884","720","378.5","","","","","","","","","","","","","","","","","","","",""
"psychophysics","266","825386","0.0-18.0-0.7","5e5fac726816852e4d9cbe24","609a8bf73b2ac84e2732f618","609d5f398d7ffc75ff39a0f7","null","","","","null","","","","key","16.71181355932159","720","378.5","","","","","","","","","","","","","","","","","","","",""
"psychophysics","267","825890","0.0-18.0-1.7","5e5fac726816852e4d9cbe24","609a8bf73b2ac84e2732f618","609d5f398d7ffc75ff39a0f7","null","","","","null","","","","key","16.71013793103188","720","378.5","","","","","","","","","","","","","140","-1","0","true","","","",""
"psychophysics","268","826590","0.0-18.0-2.7","5e5fac726816852e4d9cbe24","609a8bf73b2ac84e2732f618","609d5f398d7ffc75ff39a0f7","697.3550000111572","","","","90","","","","key","16.710195121951628","720","378.5","","","","","","","","","","","","","","","","","","","",""
"psychophysics","269","827104","0.0-18.0-0.8","5e5fac726816852e4d9cbe24","609a8bf73b2ac84e2732f618","609d5f398d7ffc75ff39a0f7","null","","","","null","","","","key","16.711275862068227","720","378.5","","","","","","","","","","","","","","","","","","","",""
"psychophysics","270","827610","0.0-18.0-1.8","5e5fac726816852e4d9cbe24","609a8bf73b2ac84e2732f618","609d5f398d7ffc75ff39a0f7","null","","","","null","","","","key","16.710533333333053","720","378.5","","","","","","","","","","","","","140","-1","3","true","","","",""
"psychophysics","271","827760","0.0-18.0-2.8","5e5fac726816852e4d9cbe24","609a8bf73b2ac84e2732f618","609d5f398d7ffc75ff39a0f7","147.37999998033047","","","","77","","","","key","16.7091250000085","720","378.5","","","","","","","","","","","","","","","","","","","",""
"psychophysics","272","828390","0.0-18.0-0.9","5e5fac726816852e4d9cbe24","609a8bf73b2ac84e2732f618","609d5f398d7ffc75ff39a0f7","null","","","","null","","","","key","16.713027777780855","720","378.5","","","","","","","","","","","","","","","","","","","",""
"psychophysics","273","828897","0.0-18.0-1.9","5e5fac726816852e4d9cbe24","609a8bf73b2ac84e2732f618","609d5f398d7ffc75ff39a0f7","null","","","","null","","","","key","16.711799999997798","720","378.5","","","","","","","","","","","","","140","1","5","true","","","",""
"psychophysics","274","829222","0.0-18.0-2.9","5e5fac726816852e4d9cbe24","609a8bf73b2ac84e2732f618","609d5f398d7ffc75ff39a0f7","321.460000006482","","","","77","","","","key","16.709388888887286","720","378.5","","","","","","","","","","","","","","","","","","","",""
"psychophysics","275","830149","0.0-18.0-0.10","5e5fac726816852e4d9cbe24","609a8bf73b2ac84e2732f618","609d5f398d7ffc75ff39a0f7","null","","","","null","","","","key","16.71327272727239","720","378.5","","","","","","","","","","","","","","","","","","","",""
"psychophysics","276","830651","0.0-18.0-1.10","5e5fac726816852e4d9cbe24","609a8bf73b2ac84e2732f618","609d5f398d7ffc75ff39a0f7","null","","","","null","","","","key","16.713793103450683","720","378.5","","","","","","","","","","","","","140","1","3","true","","","",""
"psychophysics","277","830921","0.0-18.0-2.10","5e5fac726816852e4d9cbe24","609a8bf73b2ac84e2732f618","609d5f398d7ffc75ff39a0f7","266.88500004820526","","","","90","","","","key","16.71486666666654","720","378.5","","","","","","","","","","","","","","","","","","","",""
"psychophysics","278","831899","0.0-18.0-0.11","5e5fac726816852e4d9cbe24","609a8bf73b2ac84e2732f618","609d5f398d7ffc75ff39a0f7","null","","","","null","","","","key","16.709684210527165","720","378.5","","","","","","","","","","","","","","","","","","","",""
"psychophysics","279","832405","0.0-18.0-1.11","5e5fac726816852e4d9cbe24","609a8bf73b2ac84e2732f618","609d5f398d7ffc75ff39a0f7","null","","","","null","","","","key","16.712966666665547","720","378.5","","","","","","","","","","","","","140","1","6","true","","","",""
"psychophysics","280","832544","0.0-18.0-2.11","5e5fac726816852e4d9cbe24","609a8bf73b2ac84e2732f618","609d5f398d7ffc75ff39a0f7","135.13000000966713","","","","77","","","","key","16.714285714285715","720","378.5","","","","","","","","","","","","","","","","","","","",""
"psychophysics","281","833333","0.0-18.0-0.12","5e5fac726816852e4d9cbe24","609a8bf73b2ac84e2732f618","609d5f398d7ffc75ff39a0f7","null","","","","null","","","","key","16.712369565216765","720","378.5","","","","","","","","","","","","","","","","","","","",""
"psychophysics","282","833836","0.0-18.0-1.12","5e5fac726816852e4d9cbe24","609a8bf73b2ac84e2732f618","609d5f398d7ffc75ff39a0f7","null","","","","null","","","","key","16.71072413793219","720","378.5","","","","","","","","","","","","","140","-1","0","true","","","",""
"psychophysics","283","834280","0.0-18.0-2.12","5e5fac726816852e4d9cbe24","609a8bf73b2ac84e2732f618","609d5f398d7ffc75ff39a0f7","427.2800000035204","","","","90","","","","key","16.713307692306653","720","378.5","","","","","","","","","","","","","","","","","","","",""
"psychophysics","284","834990","0.0-18.0-0.13","5e5fac726816852e4d9cbe24","609a8bf73b2ac84e2732f618","609d5f398d7ffc75ff39a0f7","null","","","","null","","","","key","16.70985365853497","720","378.5","","","","","","","","","","","","","","","","","","","",""
"psychophysics","285","835496","0.0-18.0-1.13","5e5fac726816852e4d9cbe24","609a8bf73b2ac84e2732f618","609d5f398d7ffc75ff39a0f7","null","","","","null","","","","key","16.71260000000087","720","378.5","","","","","","","","","","","","","140","1","4","true","","","",""
"psychophysics","286","836152","0.0-18.0-2.13","5e5fac726816852e4d9cbe24","609a8bf73b2ac84e2732f618","609d5f398d7ffc75ff39a0f7","652.2550000227056","","","","90","","","","key","16.711552631578677","720","378.5","","","","","","","","","","","","","","","","","","","",""
"psychophysics","287","837582","0.0-18.0-0.14","5e5fac726816852e4d9cbe24","609a8bf73b2ac84e2732f618","609d5f398d7ffc75ff39a0f7","null","","","","null","","","","key","16.712011904762004","720","378.5","","","","","","","","","","","","","","","","","","","",""
"psychophysics","288","838090","0.0-18.0-1.14","5e5fac726816852e4d9cbe24","609a8bf73b2ac84e2732f618","609d5f398d7ffc75ff39a0f7","null","","","","null","","","","key","16.70663333333408","720","378.5","","","","","","","","","","","","","140","-1","3","true","","","",""
"psychophysics","289","838343","0.0-18.0-2.14","5e5fac726816852e4d9cbe24","609a8bf73b2ac84e2732f618","609d5f398d7ffc75ff39a0f7","245.68999995244667","","","","77","","","","key","16.722428571424512","720","378.5","","","","","","","","","","","","","","","","","","","",""
"psychophysics","290","838939","0.0-18.0-0.15","5e5fac726816852e4d9cbe24","609a8bf73b2ac84e2732f618","609d5f398d7ffc75ff39a0f7","null","","","","null","","","","key","16.710914285713805","720","378.5","","","","","","","","","","","","","","","","","","","",""
"psychophysics","291","839442","0.0-18.0-1.15","5e5fac726816852e4d9cbe24","609a8bf73b2ac84e2732f618","609d5f398d7ffc75ff39a0f7","null","","","","null","","","","key","16.71037931034566","720","378.5","","","","","","","","","","","","","140","1","6","true","","","",""
"psychophysics","292","840383","0.0-18.0-2.15","5e5fac726816852e4d9cbe24","609a8bf73b2ac84e2732f618","609d5f398d7ffc75ff39a0f7","938.9700000174344","","","","77","","","","key","17.021481481482084","720","378.5","","","","","","","","","","","","","","","","","","","",""
"psychophysics","293","840911","0.0-18.0-0.16","5e5fac726816852e4d9cbe24","609a8bf73b2ac84e2732f618","609d5f398d7ffc75ff39a0f7","null","","","","null","","","","key","16.710032258062594","720","378.5","","","","","","","","","","","","","","","","","","","",""
"psychophysics","294","841415","0.0-18.0-1.16","5e5fac726816852e4d9cbe24","609a8bf73b2ac84e2732f618","609d5f398d7ffc75ff39a0f7","null","","","","null","","","","key","16.712068965514028","720","378.5","","","","","","","","","","","","","140","1","5","true","","","",""
"psychophysics","295","841600","0.0-18.0-2.16","5e5fac726816852e4d9cbe24","609a8bf73b2ac84e2732f618","609d5f398d7ffc75ff39a0f7","181.02999997790903","","","","77","","","","key","16.703599999996367","720","378.5","","","","","","","","","","","","","","","","","","","",""
"psychophysics","296","842278","0.0-18.0-0.17","5e5fac726816852e4d9cbe24","609a8bf73b2ac84e2732f618","609d5f398d7ffc75ff39a0f7","null","","","","null","","","","key","16.71082051282223","720","378.5","","","","","","","","","","","","","","","","","","","",""
"psychophysics","297","842782","0.0-18.0-1.17","5e5fac726816852e4d9cbe24","609a8bf73b2ac84e2732f618","609d5f398d7ffc75ff39a0f7","null","","","","null","","","","key","16.71270000000174","720","378.5","","","","","","","","","","","","","140","1","3","true","","","",""
"psychophysics","298","842958","0.0-18.0-2.17","5e5fac726816852e4d9cbe24","609a8bf73b2ac84e2732f618","609d5f398d7ffc75ff39a0f7","172.69999999552965","","","","77","","","","key","21.470142857138335","720","378.5","","","","","","","","","","","","","","","","","","","",""
"psychophysics","299","843723","0.0-18.0-0.18","5e5fac726816852e4d9cbe24","609a8bf73b2ac84e2732f618","609d5f398d7ffc75ff39a0f7","null","","","","null","","","","key","16.70991111111103","720","378.5","","","","","","","","","","","","","","","","","","","",""
"psychophysics","300","844225","0.0-18.0-1.18","5e5fac726816852e4d9cbe24","609a8bf73b2ac84e2732f618","609d5f398d7ffc75ff39a0f7","null","","","","null","","","","key","16.714448275859468","720","378.5","","","","","","","","","","","","","140","-1","6","true","","","",""
"psychophysics","301","844390","0.0-18.0-2.18","5e5fac726816852e4d9cbe24","609a8bf73b2ac84e2732f618","609d5f398d7ffc75ff39a0f7","162.7100000041537","","","","77","","","","key","16.71255555554914","720","378.5","","","","","","","","","","","","","","","","","","","",""
"psychophysics","302","845140","0.0-18.0-0.19","5e5fac726816852e4d9cbe24","609a8bf73b2ac84e2732f618","609d5f398d7ffc75ff39a0f7","null","","","","null","","","","key","16.712159090908244","720","378.5","","","","","","","","","","","","","","","","","","","",""
"psychophysics","303","845643","0.0-18.0-1.19","5e5fac726816852e4d9cbe24","609a8bf73b2ac84e2732f618","609d5f398d7ffc75ff39a0f7","null","","","","null","","","","key","16.710965517241956","720","378.5","","","","","","","","","","","","","140","-1","2","true","","","",""
"psychophysics","304","845914","0.0-18.0-2.19","5e5fac726816852e4d9cbe24","609a8bf73b2ac84e2732f618","609d5f398d7ffc75ff39a0f7","266.669999982696","","","","90","","","","key","16.710999999994723","720","378.5","","","","","","","","","","","","","","","","","","","",""
"psychophysics","305","846860","0.0-18.0-0.20","5e5fac726816852e4d9cbe24","609a8bf73b2ac84e2732f618","609d5f398d7ffc75ff39a0f7","null","","","","null","","","","key","16.710857142856444","720","378.5","","","","","","","","","","","","","","","","","","","",""
"psychophysics","306","847362","0.0-18.0-1.20","5e5fac726816852e4d9cbe24","609a8bf73b2ac84e2732f618","609d5f398d7ffc75ff39a0f7","null","","","","null","","","","key","16.71506896551602","720","378.5","","","","","","","","","","","","","140","-1","4","true","","","",""
"psychophysics","307","847511","0.0-18.0-2.20","5e5fac726816852e4d9cbe24","609a8bf73b2ac84e2732f618","609d5f398d7ffc75ff39a0f7","146.12499997019768","","","","77","","","","key","16.699499999987893","720","378.5","","","","","","","","","","","","","","","","","","","",""
"psychophysics","308","848156","0.0-18.0-0.21","5e5fac726816852e4d9cbe24","609a8bf73b2ac84e2732f618","609d5f398d7ffc75ff39a0f7","null","","","","null","","","","key","16.712459459457218","720","378.5","","","","","","","","","","","","","","","","","","","",""
"psychophysics","309","848660","0.0-18.0-1.21","5e5fac726816852e4d9cbe24","609a8bf73b2ac84e2732f618","609d5f398d7ffc75ff39a0f7","null","","","","null","","","","key","16.712137931034547","720","378.5","","","","","","","","","","","","","140","-1","5","true","","","",""
"psychophysics","310","848819","0.0-18.0-2.21","5e5fac726816852e4d9cbe24","609a8bf73b2ac84e2732f618","609d5f398d7ffc75ff39a0f7","150.03999997861683","","","","77","","","","key","16.7107777777904","720","378.5","","","","","","","","","","","","","","","","","","","",""
"psychophysics","311","850139","0.0-18.0-0.22","5e5fac726816852e4d9cbe24","609a8bf73b2ac84e2732f618","609d5f398d7ffc75ff39a0f7","null","","","","null","","","","key","16.711487179486237","720","378.5","","","","","","","","","","","","","","","","","","","",""
"psychophysics","312","850642","0.0-18.0-1.22","5e5fac726816852e4d9cbe24","609a8bf73b2ac84e2732f618","609d5f398d7ffc75ff39a0f7","null","","","","null","","","","key","16.709965517242633","720","378.5","","","","","","","","","","","","","140","1","0","true","","","",""
"psychophysics","313","851095","0.0-18.0-2.22","5e5fac726816852e4d9cbe24","609a8bf73b2ac84e2732f618","609d5f398d7ffc75ff39a0f7","451.43000001553446","","","","90","","","","key","16.712307692308407","720","378.5","","","","","","","","","","","","","","","","","","","",""
"psychophysics","314","852031","0.0-18.0-0.23","5e5fac726816852e4d9cbe24","609a8bf73b2ac84e2732f618","609d5f398d7ffc75ff39a0f7","null","","","","null","","","","key","17.021462962962687","720","378.5","","","","","","","","","","","","","","","","","","","",""
"psychophysics","315","852536","0.0-18.0-1.23","5e5fac726816852e4d9cbe24","609a8bf73b2ac84e2732f618","609d5f398d7ffc75ff39a0f7","null","","","","null","","","","key","16.712827586207602","720","378.5","","","","","","","","","","","","","140","1","2","true","","","",""
"psychophysics","316","852996","0.0-18.0-2.23","5e5fac726816852e4d9cbe24","609a8bf73b2ac84e2732f618","609d5f398d7ffc75ff39a0f7","435.2499999804422","","","","90","","","","key","16.719740740739294","720","378.5","","","","","","","","","","","","","","","","","","","",""
"psychophysics","317","854167","0.0-18.0-0.24","5e5fac726816852e4d9cbe24","609a8bf73b2ac84e2732f618","609d5f398d7ffc75ff39a0f7","null","","","","null","","","","key","16.711275362318542","720","378.5","","","","","","","","","","","","","","","","","","","",""
"psychophysics","318","854673","0.0-18.0-1.24","5e5fac726816852e4d9cbe24","609a8bf73b2ac84e2732f618","609d5f398d7ffc75ff39a0f7","null","","","","null","","","","key","16.715344827590062","720","378.5","","","","","","","","","","","","","140","-1","0","true","","","",""
"psychophysics","319","855201","0.0-18.0-2.24","5e5fac726816852e4d9cbe24","609a8bf73b2ac84e2732f618","609d5f398d7ffc75ff39a0f7","524.8499999870546","","","","77","","","","key","16.71167741935595","720","378.5","","","","","","","","","","","","","","","","","","","",""
"psychophysics","320","856608","0.0-18.0-0.25","5e5fac726816852e4d9cbe24","609a8bf73b2ac84e2732f618","609d5f398d7ffc75ff39a0f7","null","","","","null","","","","key","16.712072289156087","720","378.5","","","","","","","","","","","","","","","","","","","",""
"psychophysics","321","857111","0.0-18.0-1.25","5e5fac726816852e4d9cbe24","609a8bf73b2ac84e2732f618","609d5f398d7ffc75ff39a0f7","null","","","","null","","","","key","16.710965517241956","720","378.5","","","","","","","","","","","","","140","1","2","true","","","",""
"psychophysics","322","857776","0.0-18.0-2.25","5e5fac726816852e4d9cbe24","609a8bf73b2ac84e2732f618","609d5f398d7ffc75ff39a0f7","652.9650000156835","","","","77","","","","key","16.711666666666787","720","378.5","","","","","","","","","","","","","","","","","","","",""
"psychophysics","323","859051","0.0-18.0-0.26","5e5fac726816852e4d9cbe24","609a8bf73b2ac84e2732f618","609d5f398d7ffc75ff39a0f7","null","","","","null","","","","key","16.710466666667102","720","378.5","","","","","","","","","","","","","","","","","","","",""
"psychophysics","324","859553","0.0-18.0-1.26","5e5fac726816852e4d9cbe24","609a8bf73b2ac84e2732f618","609d5f398d7ffc75ff39a0f7","null","","","","null","","","","key","16.712655172410326","720","378.5","","","","","","","","","","","","","140","-1","4","true","","","",""
"psychophysics","325","859903","0.0-18.0-2.26","5e5fac726816852e4d9cbe24","609a8bf73b2ac84e2732f618","609d5f398d7ffc75ff39a0f7","344.57499999552965","","","","77","","","","key","16.715400000003864","720","378.5","","","","","","","","","","","","","","","","","","","",""
"psychophysics","326","861102","0.0-18.0-0.27","5e5fac726816852e4d9cbe24","609a8bf73b2ac84e2732f618","609d5f398d7ffc75ff39a0f7","null","","","","null","","","","key","16.71115492957703","720","378.5","","","","","","","","","","","","","","","","","","","",""
"psychophysics","327","861638","0.0-18.0-1.27","5e5fac726816852e4d9cbe24","609a8bf73b2ac84e2732f618","609d5f398d7ffc75ff39a0f7","null","","","","null","","","","key","16.709967741934253","720","378.5","","","","","","","","","","","","","140","-1","5","true","","","",""
"psychophysics","328","861694","0.0-18.0-2.27","5e5fac726816852e4d9cbe24","609a8bf73b2ac84e2732f618","609d5f398d7ffc75ff39a0f7","53.5900000249967","","","","77","","","","key","16.6710000000312","720","378.5","","","","","","","","","","","","","","","","","","","",""
