"trial_type","trial_index","time_elapsed","internal_node_id","PROLIFIC_PID","STUDY_ID","SESSION_ID","rt","stimulus","button_pressed","success","key_press","responses","isData","view_history","response_type","avg_frame_time","center_x","center_y","isSC","stim_side","trial_luminance","step_size","nReversal","correct","prev_ans","isThreshold","SC_threshold","final_threshold","isLuminance","FF_luminance","luminance","stimSide","ISInt","isFF","question_order","isSPQ","isCAPS","isAQ"
"pavlovia","0","39","0.0-0.0","5f59392172042215e00ab069","609a8bf73b2ac84e2732f618","609d7421cc5ac572b61788f5","","","","","","","","","","","","","","","","","","","","","","","","","","","","","","","",""
"html-button-response","1","6969","0.0-1.0","5f59392172042215e00ab069","609a8bf73b2ac84e2732f618","609d7421cc5ac572b61788f5","6927.0699999997305","<div style='background-color: white; width:60%; margin: auto; padding: 50px; text-align: justify; text-justify: inter-word; margin-bottom: 20px;'><h1 style='text-align: center;'>Consent Form</h1><p>Please read this consent form carefully before deciding whether you would like to participate in this study. You have to be 18 years old or older to participate to this study.</p><p style='text-decoration: underline;'>Participation is voluntary:</p><p>It is your choice whether or not to participate in this research. If you choose to participate, you may change your mind and leave the study at any time. Refusal to participate or stopping your participation will involve no penalty or loss of benefits to which you are otherwise entitled.</p><p style='text-decoration: underline;'>Purpose of the Study:</p><p>To understand the mechanisms underlying human perception.</p><p style='text-decoration: underline;'>What you will do in this study:</p><p>You will be presented with a series of visual images and then you will press buttons on the keyboard of your computer to respond to simple questions about the images (e.g. Were one or two images presented?). In addition, you will be asked to complete a questionnaire concerning your beliefs and everyday mental and perceptual experiences.'</p><p style='text-decoration: underline;'> Time Required:</p><p>The study will take 40 minutes to complete. </p><p style='text-decoration: underline;'>Risks:</p><p>There are no anticipated risks associated with participating in this study that are beyond those experienced in everyday life. </p><p style='text-decoration: underline;'>Benefits:</p><p>There are no benefits to you in participating in the study. However, this study may lead to a better understanding of how different kinds of visual information are used.</p><p style='text-decoration: underline;'>Compensation:</p><p>You will be paid US$6.6/hour. </p><p style='text-decoration: underline;'>Privacy and Confidentiality:</p><p>Your participation in this study will be anonymous. No personal information about your name or identity will be asked or recorded. This anonymous data will be stored for several years and may be used for a variety of research purposes. The overall results of the study may be published, or the data files may be shared with other researchers, but your identity will not be revealed in any way. The online services we are using for this study may temporarily store your data, but this data will be downloaded and then promptly deleted from those services.Your data will not be permanently associated with your name, IP address, or any other identifiable information (e.g., your information will only be connected to your payment, not to any of your responses), though they may be temporarily stored together before we download and separate them. Even so, no guarantee of internet survey security can be given because, although unlikely, transmissions can be intercepted and IP addresses can be identified. The anonymous data may be shared publicly (for example, in conjunction with a resulting academic publication).</p><p style='text-decoration: underline;'>Participation and Withdrawal:</p><p>Your participation in this study is completely voluntary. You may stop responding to the stimuli or stop answering questions if you so choose and without penalty by exiting the full screen mode, closing this tab of your browser or redirecting it to a different website.</p><p style='text-decoration: underline;'>Contact Info of the Researcher: </p><p>If you have questions about this study, or if you would like to talk to the research team, please contact David Melcher (david.melcher@nyu.edu, md5050@nyu.edu) at the Perception and Active Cognition Laboratory, New York University Abu Dhabi, Computational Research Building, Saadiyat Island, Abu Dhabi, UAE.This research has been reviewed by the New York University Abu Dhabi Institutional Review Board (NYUAD IRB). To contact about your rights in this research, for questions, suggestions, or complaints that are not addressed by the researchers, please email IRBnyuad@nyu.edu, or call the NYUAD IRB at +971 2 628 4313. </p></div>","0","","","","","","","","","","","","","","","","","","","","","","","","","","","","",""
"fullscreen","2","8469","0.0-2.0","5f59392172042215e00ab069","609a8bf73b2ac84e2732f618","609d7421cc5ac572b61788f5","","","","true","","","","","","","","","","","","","","","","","","","","","","","","","","","",""
"html-keyboard-response","3","11196","0.0-3.0","5f59392172042215e00ab069","609a8bf73b2ac84e2732f618","609d7421cc5ac572b61788f5","2725.944999999683","<p>Welcome !</p><p>READ CAREFULLY THE FOLLOWING INDICATIONS:</p><p>From this moment you have ~40 minutes to complete the experiment.</p><p>During the experiment you will be prompted to take several breaks. Each break should not last longer than 2-3 minutes.</p><p>Make sure that your computer is plugged in and it's not running on battery power, even if the battery is already fully charged.</p><p>Turn off your phone and music, make sure that you are in a quiet room and that you will not be distracted for the next hour.</p><p>Failure to comply with the instructions and indications provided during the experiment will most likely result in the rejection of your data.<p>Press the spacebar to start.</p>","","","32","","","","","","","","","","","","","","","","","","","","","","","","","","",""
"survey-html-form","4","15109","0.0-4.0","5f59392172042215e00ab069","609a8bf73b2ac84e2732f618","609d7421cc5ac572b61788f5","3910.8250000003864","","","","","{""age"":""27"",""sex"":""F""}","true","","","","","","","","","","","","","","","","","","","","","","","","",""
"instructions","5","54203","0.0-5.0","5f59392172042215e00ab069","609a8bf73b2ac84e2732f618","609d7421cc5ac572b61788f5","39091.99499999978","","","","","","","[{""page_index"":0,""viewing_time"":20976.284999999738},{""page_index"":1,""viewing_time"":12248.230000000141},{""page_index"":2,""viewing_time"":5867.139999999839}]","","","","","","","","","","","","","","","","","","","","","","","",""
"psychophysics","6","55440","0.0-6.0-0.0","5f59392172042215e00ab069","609a8bf73b2ac84e2732f618","609d7421cc5ac572b61788f5","230.29499999983818","","","","39","","","","key","16.673999999999964","640","344.5","true","1","180","30","0","-1","","","","","","","","","","","","","",""
"psychophysics","7","60625","0.0-6.0-0.1","5f59392172042215e00ab069","609a8bf73b2ac84e2732f618","609d7421cc5ac572b61788f5","4182.459999999992","","","","39","","","","key","16.696951612903227","640","344.5","true","-1","180","30","0","1","-1","","","","","","","","","","","","",""
"psychophysics","8","64095","0.0-6.0-0.2","5f59392172042215e00ab069","609a8bf73b2ac84e2732f618","609d7421cc5ac572b61788f5","2467.3149999998714","","","","39","","","","key","16.67399999999998","640","344.5","true","1","210","30","0","-1","1","","","","","","","","","","","","",""
"psychophysics","9","65200","0.0-6.0-0.3","5f59392172042215e00ab069","609a8bf73b2ac84e2732f618","609d7421cc5ac572b61788f5","104.07499999973516","","","","37","","","","key","16.673999999999964","640","344.5","true","-1","210","24","1","-1","-1","","","","","","","","","","","","",""
"psychophysics","10","67165","0.0-6.0-0.4","5f59392172042215e00ab069","609a8bf73b2ac84e2732f618","609d7421cc5ac572b61788f5","962.9950000003155","","","","37","","","","key","16.677367521367586","640","344.5","true","-1","186","24","1","-1","-1","","","","","","","","","","","","",""
"psychophysics","11","68247","0.0-6.0-0.5","5f59392172042215e00ab069","609a8bf73b2ac84e2732f618","609d7421cc5ac572b61788f5","80.10000000013679","","","","39","","","","key","16.673999999999978","640","344.5","true","1","186","24","1","-1","-1","","","","","","","","","","","","",""
"psychophysics","12","70182","0.0-6.0-0.6","5f59392172042215e00ab069","609a8bf73b2ac84e2732f618","609d7421cc5ac572b61788f5","934.2000000001426","","","","39","","","","key","16.673999999999953","640","344.5","true","1","162","24","1","-1","-1","","","","","","","","","","","","",""
"psychophysics","13","71268","0.0-6.0-0.7","5f59392172042215e00ab069","609a8bf73b2ac84e2732f618","609d7421cc5ac572b61788f5","82.64999999983411","","","","37","","","","key","16.674000000000206","640","344.5","true","-1","162","24","1","-1","-1","","","","","","","","","","","","",""
"psychophysics","14","73006","0.0-6.0-0.8","5f59392172042215e00ab069","609a8bf73b2ac84e2732f618","609d7421cc5ac572b61788f5","734.7500000000728","","","","37","","","","key","16.673999999999918","640","344.5","true","-1","138","24","1","-1","-1","","","","","","","","","","","","",""
"psychophysics","15","74358","0.0-6.0-0.9","5f59392172042215e00ab069","609a8bf73b2ac84e2732f618","609d7421cc5ac572b61788f5","350.4400000001624","","","","37","","","","key","16.673999999999978","640","344.5","true","-1","138","24","1","-1","-1","","","","","","","","","","","","",""
"psychophysics","16","76911","0.0-6.0-0.10","5f59392172042215e00ab069","609a8bf73b2ac84e2732f618","609d7421cc5ac572b61788f5","1550.3949999997567","","","","37","","","","key","16.676326797385638","640","344.5","true","1","129","19.2","2","1","-1","","","","","","","","","","","","",""
"psychophysics","17","78185","0.0-6.0-0.11","5f59392172042215e00ab069","609a8bf73b2ac84e2732f618","609d7421cc5ac572b61788f5","270.93000000013853","","","","37","","","","key","16.67400000000004","640","344.5","true","-1","148.2","19.2","2","-1","1","","","","","","","","","","","","",""
"psychophysics","18","79278","0.0-6.0-0.12","5f59392172042215e00ab069","609a8bf73b2ac84e2732f618","609d7421cc5ac572b61788f5","91.77499999987776","","","","39","","","","key","16.673999999999978","640","344.5","true","1","148.2","15.36","3","-1","-1","","","","","","","","","","","","",""
"psychophysics","19","80925","0.0-6.0-0.13","5f59392172042215e00ab069","609a8bf73b2ac84e2732f618","609d7421cc5ac572b61788f5","645.6699999998964","","","","39","","","","key","16.67400000000011","640","344.5","true","-1","132.83999999999997","12.287999999999998","4","1","-1","","","","","","","","","","","","",""
"psychophysics","20","81973","0.0-6.0-0.14","5f59392172042215e00ab069","609a8bf73b2ac84e2732f618","609d7421cc5ac572b61788f5","45.11999999976251","","","","37","","","","key","16.674000000000007","640","344.5","true","-1","145.128","12.287999999999998","4","-1","1","","","","","","","","","","","","",""
"psychophysics","21","83757","0.0-6.0-0.15","5f59392172042215e00ab069","609a8bf73b2ac84e2732f618","609d7421cc5ac572b61788f5","781.1999999998952","","","","39","","","","key","16.673999999999893","640","344.5","true","1","145.128","9.8304","5","-1","-1","","","","","","","","","","","","",""
"psychophysics","22","85430","0.0-6.0-0.16","5f59392172042215e00ab069","609a8bf73b2ac84e2732f618","609d7421cc5ac572b61788f5","671.3500000000786","","","","37","","","","key","16.67399999999995","640","344.5","true","-1","135.2976","9.8304","5","-1","-1","","","","","","","","","","","","",""
"psychophysics","23","87407","0.0-6.0-0.17","5f59392172042215e00ab069","609a8bf73b2ac84e2732f618","609d7421cc5ac572b61788f5","974.075000000099","","","","37","","","","key","16.676398305084767","640","344.5","true","-1","135.2976","9.8304","5","-1","-1","","","","","","","","","","","","",""
"psychophysics","24","89358","0.0-6.0-0.18","5f59392172042215e00ab069","609a8bf73b2ac84e2732f618","609d7421cc5ac572b61788f5","950.3700000000244","","","","37","","","","key","16.673999999999946","640","344.5","true","1","129","7.864319999999999","6","1","-1","","","","","","","","","","","","",""
"psychophysics","25","90942","0.0-6.0-0.19","5f59392172042215e00ab069","609a8bf73b2ac84e2732f618","609d7421cc5ac572b61788f5","582.2400000001799","","","","39","","","","key","16.673999999999996","640","344.5","true","1","136.86432","7.864319999999999","6","-1","1","","","","","","","","","","","","",""
"psychophysics","26","92398","0.0-6.0-0.20","5f59392172042215e00ab069","609a8bf73b2ac84e2732f618","609d7421cc5ac572b61788f5","453.9150000000518","","","","39","","","","key","16.674000000000085","640","344.5","true","1","136.86432","6.291456","7","-1","-1","","","","","","","","","","","","",""
"psychophysics","27","94993","0.0-6.0-0.21","5f59392172042215e00ab069","609a8bf73b2ac84e2732f618","609d7421cc5ac572b61788f5","1591.7850000000763","","","","37","","","","key","16.674000000000007","640","344.5","true","1","130.57286399999998","5.033164800000001","8","1","-1","","","","","","","","","","","","",""
"psychophysics","28","96566","0.0-6.0-0.22","5f59392172042215e00ab069","609a8bf73b2ac84e2732f618","609d7421cc5ac572b61788f5","571.7100000001665","","","","39","","","","key","16.674000000000007","640","344.5","true","1","135.6060288","5.033164800000001","8","-1","1","","","","","","","","","","","","",""
"psychophysics","29","98209","0.0-6.0-0.23","5f59392172042215e00ab069","609a8bf73b2ac84e2732f618","609d7421cc5ac572b61788f5","640.0450000001001","","","","37","","","","key","16.67399999999996","640","344.5","true","-1","135.6060288","4.0265318400000005","9","-1","-1","","","","","","","","","","","","",""
"psychophysics","30","99750","0.0-6.0-0.24","5f59392172042215e00ab069","609a8bf73b2ac84e2732f618","609d7421cc5ac572b61788f5","539.3450000001467","","","","37","","","","key","16.674000000000028","640","344.5","true","-1","131.57949696","4.0265318400000005","9","-1","-1","","","","","","","","","","","","",""
"psychophysics","31","101565","0.0-6.0-0.25","5f59392172042215e00ab069","609a8bf73b2ac84e2732f618","609d7421cc5ac572b61788f5","812.734999999986","","","","37","","","","key","16.67400000000001","640","344.5","true","-1","131.57949696","4.0265318400000005","9","-1","-1","","","","","","","","","","","","",""
"psychophysics","32","103055","0.0-6.0-0.26","5f59392172042215e00ab069","609a8bf73b2ac84e2732f618","609d7421cc5ac572b61788f5","488.11999999996624","","","","37","","","","key","16.67400000000006","640","344.5","true","1","129","3.2212254720000004","10","1","-1","","","","","","","","","","","","",""
"psychophysics","33","104902","0.0-6.0-0.27","5f59392172042215e00ab069","609a8bf73b2ac84e2732f618","609d7421cc5ac572b61788f5","844.2899999999936","","","","37","","","","key","16.673999999999996","640","344.5","true","1","132.22122547200001","3.2212254720000004","10","1","1","","","","","","","","","","","","",""
"psychophysics","34","106086","0.0-6.0-0.28","5f59392172042215e00ab069","609a8bf73b2ac84e2732f618","609d7421cc5ac572b61788f5","181.68000000013853","","","","39","","","","key","16.6739999999999","640","344.5","true","1","135.44245094400003","3.2212254720000004","10","-1","1","","","","","","","","","","","","",""
"psychophysics","35","107621","0.0-6.0-0.29","5f59392172042215e00ab069","609a8bf73b2ac84e2732f618","609d7421cc5ac572b61788f5","533.7449999997189","","","","39","","","","key","16.67768131868126","640","344.5","true","1","135.44245094400003","2.5769803776000004","11","-1","-1","","","","","","","","","","","","",""
"psychophysics","36","109237","0.0-6.0-0.30","5f59392172042215e00ab069","609a8bf73b2ac84e2732f618","609d7421cc5ac572b61788f5","613.8649999998015","","","","39","","","","key","16.673999999999978","640","344.5","true","-1","132.86547056640003","2.0615843020800004","12","1","-1","","","","","","","","","","","","",""
"psychophysics","37","110470","0.0-6.0-0.31","5f59392172042215e00ab069","609a8bf73b2ac84e2732f618","609d7421cc5ac572b61788f5","231.11999999992258","","","","37","","","","key","16.674000000000067","640","344.5","true","-1","134.92705486848004","2.0615843020800004","12","-1","1","","","","","","","","","","","","",""
"psychophysics","38","112650","0.0-6.0-0.32","5f59392172042215e00ab069","609a8bf73b2ac84e2732f618","609d7421cc5ac572b61788f5","1176.8849999998492","","","","39","","","","key","16.673999999999964","640","344.5","true","1","134.92705486848004","1.6492674416640005","13","-1","-1","","","","","","","","","","","","",""
"psychophysics","39","114374","0.0-6.0-0.33","5f59392172042215e00ab069","609a8bf73b2ac84e2732f618","609d7421cc5ac572b61788f5","723.0599999998085","","","","39","","","","key","16.674000000000067","640","344.5","true","-1","133.27778742681605","1.3194139533312006","14","1","-1","","","","","","","","","","","","",""
"psychophysics","40","116153","0.0-6.0-0.34","5f59392172042215e00ab069","609a8bf73b2ac84e2732f618","609d7421cc5ac572b61788f5","776.1799999998475","","","","39","","","","key","16.674000000000028","640","344.5","true","1","134.59720138014725","1.3194139533312006","14","-1","1","","","","","","","","","","","","",""
"psychophysics","41","117542","0.0-6.0-0.35","5f59392172042215e00ab069","609a8bf73b2ac84e2732f618","609d7421cc5ac572b61788f5","387.74499999999534","","","","39","","","","key","16.6784024390244","640","344.5","true","1","134.59720138014725","1.0555311626649604","15","-1","-1","","","","","","","","","","","","",""
"psychophysics","42","118986","0.0-6.0-0.36","5f59392172042215e00ab069","609a8bf73b2ac84e2732f618","609d7421cc5ac572b61788f5","440.2650000001886","","","","37","","","","key","16.673999999999914","640","344.5","true","-1","133.5416702174823","1.0555311626649604","15","-1","-1","","","","","","","","","","","","",""
"psychophysics","43","121207","0.0-6.0-0.37","5f59392172042215e00ab069","609a8bf73b2ac84e2732f618","609d7421cc5ac572b61788f5","1218.7749999998196","","","","39","","","","key","16.67400000000006","640","344.5","true","1","133.5416702174823","1.0555311626649604","15","-1","-1","","","","","","","","","","","","",""
"psychophysics","44","122726","0.0-6.0-0.38","5f59392172042215e00ab069","609a8bf73b2ac84e2732f618","609d7421cc5ac572b61788f5","517.7000000003318","","","","39","","","","key","16.67400000000004","640","344.5","true","-1","132.48613905481736","1","16","1","-1","","","","","","","","","","","","",""
"psychophysics","45","124094","0.0-6.0-0.39","5f59392172042215e00ab069","609a8bf73b2ac84e2732f618","609d7421cc5ac572b61788f5","366.6250000001164","","","","39","","","","key","16.673999999999968","640","344.5","true","-1","133.48613905481736","1","16","1","1","","","","","","","","","","","","",""
"html-keyboard-response","46","126919","0.0-7.0","5f59392172042215e00ab069","609a8bf73b2ac84e2732f618","609d7421cc5ac572b61788f5","2823.8450000003504","<p>Well Done !</p><p>Prepare for a new block.</p><p>DON'T EXIT THE FULL SCREEN MODE</p><p>Press the Spacebar to start.</p>","","","32","","","","","","","","","","","","","","","true","133.462200890338","","","","","","","","","","",""
"psychophysics","47","129074","0.0-8.0-0.0","5f59392172042215e00ab069","609a8bf73b2ac84e2732f618","609d7421cc5ac572b61788f5","1151.8599999999424","","","","39","","","","key","16.6766511627907","640","344.5","true","1","180","30","0","-1","","","","","","","","","","","","","",""
"psychophysics","48","130144","0.0-8.0-0.1","5f59392172042215e00ab069","609a8bf73b2ac84e2732f618","609d7421cc5ac572b61788f5","67.16499999992084","","","","39","","","","key","16.67399999999976","640","344.5","true","1","180","30","0","-1","-1","","","","","","","","","","","","",""
"psychophysics","49","131582","0.0-8.0-0.2","5f59392172042215e00ab069","609a8bf73b2ac84e2732f618","609d7421cc5ac572b61788f5","436.69499999986147","","","","37","","","","key","16.674000000000095","640","344.5","true","-1","150","30","0","-1","-1","","","","","","","","","","","","",""
"psychophysics","50","133079","0.0-8.0-0.3","5f59392172042215e00ab069","609a8bf73b2ac84e2732f618","609d7421cc5ac572b61788f5","495.25999999968917","","","","37","","","","key","16.67400000000005","640","344.5","true","-1","150","30","0","-1","-1","","","","","","","","","","","","",""
"psychophysics","51","134896","0.0-8.0-0.4","5f59392172042215e00ab069","609a8bf73b2ac84e2732f618","609d7421cc5ac572b61788f5","815.4899999999616","","","","37","","","","key","16.674000000000145","640","344.5","true","-1","129","30","0","-1","-1","","","","","","","","","","","","",""
"psychophysics","52","136313","0.0-8.0-0.5","5f59392172042215e00ab069","609a8bf73b2ac84e2732f618","609d7421cc5ac572b61788f5","415.6400000001595","","","","37","","","","key","16.67399999999976","640","344.5","true","1","129","24","1","1","-1","","","","","","","","","","","","",""
"psychophysics","53","137779","0.0-8.0-0.6","5f59392172042215e00ab069","609a8bf73b2ac84e2732f618","609d7421cc5ac572b61788f5","463.824999999837","","","","37","","","","key","16.687758620689895","640","344.5","true","-1","153","24","1","-1","1","","","","","","","","","","","","",""
"psychophysics","54","139301","0.0-8.0-0.7","5f59392172042215e00ab069","609a8bf73b2ac84e2732f618","609d7421cc5ac572b61788f5","520.6100000000442","","","","37","","","","key","16.673999999999715","640","344.5","true","-1","153","19.2","2","-1","-1","","","","","","","","","","","","",""
"psychophysics","55","140718","0.0-8.0-0.8","5f59392172042215e00ab069","609a8bf73b2ac84e2732f618","609d7421cc5ac572b61788f5","414.1899999999441","","","","39","","","","key","16.67399999999976","640","344.5","true","1","133.8","19.2","2","-1","-1","","","","","","","","","","","","",""
"psychophysics","56","142114","0.0-8.0-0.9","5f59392172042215e00ab069","609a8bf73b2ac84e2732f618","609d7421cc5ac572b61788f5","394.8399999999383","","","","39","","","","key","16.67400000000012","640","344.5","true","1","133.8","19.2","2","-1","-1","","","","","","","","","","","","",""
"psychophysics","57","143417","0.0-8.0-0.10","5f59392172042215e00ab069","609a8bf73b2ac84e2732f618","609d7421cc5ac572b61788f5","300.36000000018976","","","","39","","","","key","16.673999999999825","640","344.5","true","1","129","19.2","2","-1","-1","","","","","","","","","","","","",""
"psychophysics","58","144790","0.0-8.0-0.11","5f59392172042215e00ab069","609a8bf73b2ac84e2732f618","609d7421cc5ac572b61788f5","370.520000000397","","","","39","","","","key","16.674000000000145","640","344.5","true","1","129","19.2","2","-1","-1","","","","","","","","","","","","",""
"psychophysics","59","146142","0.0-8.0-0.12","5f59392172042215e00ab069","609a8bf73b2ac84e2732f618","609d7421cc5ac572b61788f5","350.3399999999383","","","","39","","","","key","16.67400000000016","640","344.5","true","1","129","19.2","2","-1","-1","","","","","","","","","","","","",""
"psychophysics","60","147542","0.0-8.0-0.13","5f59392172042215e00ab069","609a8bf73b2ac84e2732f618","609d7421cc5ac572b61788f5","397.06500000011874","","","","39","","","","key","16.678012048192702","640","344.5","true","1","129","19.2","2","-1","-1","","","","","","","","","","","","",""
"psychophysics","61","148927","0.0-8.0-0.14","5f59392172042215e00ab069","609a8bf73b2ac84e2732f618","609d7421cc5ac572b61788f5","381.7349999999278","","","","39","","","","key","16.67399999999978","640","344.5","true","1","129","19.2","2","-1","-1","","","","","","","","","","","","",""
"psychophysics","62","150554","0.0-8.0-0.15","5f59392172042215e00ab069","609a8bf73b2ac84e2732f618","609d7421cc5ac572b61788f5","624.4000000001688","","","","39","","","","key","16.673999999999968","640","344.5","true","-1","129","15.36","3","1","-1","","","","","","","","","","","","",""
"psychophysics","63","151910","0.0-8.0-0.16","5f59392172042215e00ab069","609a8bf73b2ac84e2732f618","609d7421cc5ac572b61788f5","354.2849999999162","","","","37","","","","key","16.673999999999797","640","344.5","true","-1","144.36","15.36","3","-1","1","","","","","","","","","","","","",""
"psychophysics","64","153289","0.0-8.0-0.17","5f59392172042215e00ab069","609a8bf73b2ac84e2732f618","609d7421cc5ac572b61788f5","376.4649999998219","","","","37","","","","key","16.674000000000134","640","344.5","true","-1","144.36","12.287999999999998","4","-1","-1","","","","","","","","","","","","",""
"psychophysics","65","155246","0.0-8.0-0.18","5f59392172042215e00ab069","609a8bf73b2ac84e2732f618","609d7421cc5ac572b61788f5","955.7199999999139","","","","37","","","","key","16.67400000000007","640","344.5","true","-1","132.072","12.287999999999998","4","-1","-1","","","","","","","","","","","","",""
"psychophysics","66","157094","0.0-8.0-0.19","5f59392172042215e00ab069","609a8bf73b2ac84e2732f618","609d7421cc5ac572b61788f5","846.5050000000047","","","","39","","","","key","16.67698181818176","640","344.5","true","-1","132.072","9.8304","5","1","-1","","","","","","","","","","","","",""
"psychophysics","67","158425","0.0-8.0-0.20","5f59392172042215e00ab069","609a8bf73b2ac84e2732f618","609d7421cc5ac572b61788f5","329.17499999984284","","","","39","","","","key","16.673999999999804","640","344.5","true","1","141.9024","9.8304","5","-1","1","","","","","","","","","","","","",""
"psychophysics","68","159776","0.0-8.0-0.21","5f59392172042215e00ab069","609a8bf73b2ac84e2732f618","609d7421cc5ac572b61788f5","349.6500000001106","","","","39","","","","key","16.67400000000016","640","344.5","true","1","141.9024","7.864319999999999","6","-1","-1","","","","","","","","","","","","",""
"psychophysics","69","161377","0.0-8.0-0.22","5f59392172042215e00ab069","609a8bf73b2ac84e2732f618","609d7421cc5ac572b61788f5","599.5900000002584","","","","39","","","","key","16.67399999999999","640","344.5","true","1","134.03808","7.864319999999999","6","-1","-1","","","","","","","","","","","","",""
"psychophysics","70","162734","0.0-8.0-0.23","5f59392172042215e00ab069","609a8bf73b2ac84e2732f618","609d7421cc5ac572b61788f5","355.50500000000466","","","","39","","","","key","16.67400000000016","640","344.5","true","-1","134.03808","6.291456","7","1","-1","","","","","","","","","","","","",""
"psychophysics","71","165486","0.0-8.0-0.24","5f59392172042215e00ab069","609a8bf73b2ac84e2732f618","609d7421cc5ac572b61788f5","1750.3050000000221","","","","37","","","","key","16.673999999999957","640","344.5","true","-1","140.32953600000002","6.291456","7","-1","1","","","","","","","","","","","","",""
"psychophysics","72","166879","0.0-8.0-0.25","5f59392172042215e00ab069","609a8bf73b2ac84e2732f618","609d7421cc5ac572b61788f5","390.625","","","","39","","","","key","16.67400000000012","640","344.5","true","1","140.32953600000002","5.033164800000001","8","-1","-1","","","","","","","","","","","","",""
"psychophysics","73","168281","0.0-8.0-0.26","5f59392172042215e00ab069","609a8bf73b2ac84e2732f618","609d7421cc5ac572b61788f5","397.29500000021653","","","","39","","","","key","16.678253012047996","640","344.5","true","1","135.2963712","5.033164800000001","8","-1","-1","","","","","","","","","","","","",""
"psychophysics","74","169697","0.0-8.0-0.27","5f59392172042215e00ab069","609a8bf73b2ac84e2732f618","609d7421cc5ac572b61788f5","414.6599999999162","","","","39","","","","key","16.67400000000011","640","344.5","true","1","135.2963712","5.033164800000001","8","-1","-1","","","","","","","","","","","","",""
"psychophysics","75","171102","0.0-8.0-0.28","5f59392172042215e00ab069","609a8bf73b2ac84e2732f618","609d7421cc5ac572b61788f5","403.9100000000035","","","","39","","","","key","16.67400000000012","640","344.5","true","-1","130.2632064","4.0265318400000005","9","1","-1","","","","","","","","","","","","",""
"psychophysics","76","172182","0.0-8.0-0.29","5f59392172042215e00ab069","609a8bf73b2ac84e2732f618","609d7421cc5ac572b61788f5","77.65499999959138","","","","37","","","","key","16.673999999999978","640","344.5","true","-1","134.28973824","4.0265318400000005","9","-1","1","","","","","","","","","","","","",""
"psychophysics","77","173330","0.0-8.0-0.30","5f59392172042215e00ab069","609a8bf73b2ac84e2732f618","609d7421cc5ac572b61788f5","146.2249999999476","","","","39","","","","key","16.673999999999925","640","344.5","true","1","134.28973824","3.2212254720000004","10","-1","-1","","","","","","","","","","","","",""
"psychophysics","78","174800","0.0-8.0-0.31","5f59392172042215e00ab069","609a8bf73b2ac84e2732f618","609d7421cc5ac572b61788f5","468.5549999999348","","","","39","","","","key","16.67400000000007","640","344.5","true","-1","131.068512768","2.5769803776000004","11","1","-1","","","","","","","","","","","","",""
"psychophysics","79","176151","0.0-8.0-0.32","5f59392172042215e00ab069","609a8bf73b2ac84e2732f618","609d7421cc5ac572b61788f5","349.4349999996484","","","","39","","","","key","16.673999999999797","640","344.5","true","1","133.6454931456","2.5769803776000004","11","-1","1","","","","","","","","","","","","",""
"psychophysics","80","177470","0.0-8.0-0.33","5f59392172042215e00ab069","609a8bf73b2ac84e2732f618","609d7421cc5ac572b61788f5","316.96999999985565","","","","37","","","","key","16.67844871794902","640","344.5","true","-1","133.6454931456","2.0615843020800004","12","-1","-1","","","","","","","","","","","","",""
"psychophysics","81","179143","0.0-8.0-0.34","5f59392172042215e00ab069","609a8bf73b2ac84e2732f618","609d7421cc5ac572b61788f5","671.0899999998219","","","","39","","","","key","16.67399999999995","640","344.5","true","1","131.58390884352","2.0615843020800004","12","-1","-1","","","","","","","","","","","","",""
"psychophysics","82","182403","0.0-8.0-0.35","5f59392172042215e00ab069","609a8bf73b2ac84e2732f618","609d7421cc5ac572b61788f5","2257.449999999604","","","","39","","","","key","16.673999999999964","640","344.5","true","-1","131.58390884352","1.6492674416640005","13","1","-1","","","","","","","","","","","","",""
"psychophysics","83","183895","0.0-8.0-0.36","5f59392172042215e00ab069","609a8bf73b2ac84e2732f618","609d7421cc5ac572b61788f5","489.4599999997881","","","","39","","","","key","16.67400000000006","640","344.5","true","-1","133.233176285184","1.6492674416640005","13","1","1","","","","","","","","","","","","",""
"psychophysics","84","185203","0.0-8.0-0.37","5f59392172042215e00ab069","609a8bf73b2ac84e2732f618","609d7421cc5ac572b61788f5","304.4899999999907","","","","37","","","","key","16.673999999999815","640","344.5","true","-1","134.88244372684798","1.6492674416640005","13","-1","1","","","","","","","","","","","","",""
"psychophysics","85","186587","0.0-8.0-0.38","5f59392172042215e00ab069","609a8bf73b2ac84e2732f618","609d7421cc5ac572b61788f5","381.3199999999488","","","","39","","","","key","16.674000000000134","640","344.5","true","1","134.88244372684798","1.3194139533312006","14","-1","-1","","","","","","","","","","","","",""
"psychophysics","86","188923","0.0-8.0-0.39","5f59392172042215e00ab069","609a8bf73b2ac84e2732f618","609d7421cc5ac572b61788f5","1333.7599999999802","","","","39","","","","key","16.676532374100724","640","344.5","true","-1","133.56302977351677","1.0555311626649604","15","1","-1","","","","","","","","","","","","",""
"html-keyboard-response","87","190528","0.0-9.0","5f59392172042215e00ab069","609a8bf73b2ac84e2732f618","609d7421cc5ac572b61788f5","1604.1100000002189","<p>Well Done !</p><p>Prepare for a new block.</p><p>DON'T EXIT THE FULL SCREEN MODE</p><p>Press the Spacebar to start.</p>","","","32","","","","","","","","","","","","","","","true","133.85689143590912","","","","","","","","","","",""
"psychophysics","88","193218","0.0-10.0-0.0","5f59392172042215e00ab069","609a8bf73b2ac84e2732f618","609d7421cc5ac572b61788f5","1688.6949999998033","","","","37","","","","key","16.67399999999997","640","344.5","true","-1","180","30","0","-1","","","","","","","","","","","","","",""
"psychophysics","89","194911","0.0-10.0-0.1","5f59392172042215e00ab069","609a8bf73b2ac84e2732f618","609d7421cc5ac572b61788f5","691.1350000000093","","","","37","","","","key","16.67400000000022","640","344.5","true","-1","180","30","0","-1","-1","","","","","","","","","","","","",""
"psychophysics","90","196358","0.0-10.0-0.2","5f59392172042215e00ab069","609a8bf73b2ac84e2732f618","609d7421cc5ac572b61788f5","445.01000000038766","","","","37","","","","key","16.673999999999747","640","344.5","true","-1","150","30","0","-1","-1","","","","","","","","","","","","",""
"psychophysics","91","197818","0.0-10.0-0.3","5f59392172042215e00ab069","609a8bf73b2ac84e2732f618","609d7421cc5ac572b61788f5","457.0549999998475","","","","37","","","","key","16.624264367816277","640","344.5","true","-1","150","30","0","-1","-1","","","","","","","","","","","","",""
"psychophysics","92","199290","0.0-10.0-0.4","5f59392172042215e00ab069","609a8bf73b2ac84e2732f618","609d7421cc5ac572b61788f5","468.76000000018394","","","","37","","","","key","16.67400000000007","640","344.5","true","-1","129","30","0","-1","-1","","","","","","","","","","","","",""
"psychophysics","93","200785","0.0-10.0-0.5","5f59392172042215e00ab069","609a8bf73b2ac84e2732f618","609d7421cc5ac572b61788f5","493.61499999984517","","","","37","","","","key","16.67400000000005","640","344.5","true","-1","129","30","0","-1","-1","","","","","","","","","","","","",""
"psychophysics","94","202260","0.0-10.0-0.6","5f59392172042215e00ab069","609a8bf73b2ac84e2732f618","609d7421cc5ac572b61788f5","471.1600000000617","","","","37","","","","key","16.673999999999747","640","344.5","true","1","129","24","1","1","-1","","","","","","","","","","","","",""
"psychophysics","95","203626","0.0-10.0-0.7","5f59392172042215e00ab069","609a8bf73b2ac84e2732f618","609d7421cc5ac572b61788f5","362.25500000000466","","","","39","","","","key","16.674000000000134","640","344.5","true","1","153","24","1","-1","1","","","","","","","","","","","","",""
"psychophysics","96","204993","0.0-10.0-0.8","5f59392172042215e00ab069","609a8bf73b2ac84e2732f618","609d7421cc5ac572b61788f5","366.18499999988126","","","","39","","","","key","16.674000000000145","640","344.5","true","1","153","19.2","2","-1","-1","","","","","","","","","","","","",""
"psychophysics","97","206863","0.0-10.0-0.9","5f59392172042215e00ab069","609a8bf73b2ac84e2732f618","609d7421cc5ac572b61788f5","869.0849999998172","","","","39","","","","key","16.673999999999854","640","344.5","true","1","133.8","19.2","2","-1","-1","","","","","","","","","","","","",""
"psychophysics","98","208215","0.0-10.0-0.10","5f59392172042215e00ab069","609a8bf73b2ac84e2732f618","609d7421cc5ac572b61788f5","349.2399999999907","","","","37","","","","key","16.678350000000137","640","344.5","true","-1","133.8","19.2","2","-1","-1","","","","","","","","","","","","",""
"psychophysics","99","209647","0.0-10.0-0.11","5f59392172042215e00ab069","609a8bf73b2ac84e2732f618","609d7421cc5ac572b61788f5","430.034999999858","","","","39","","","","key","16.674000000000095","640","344.5","true","1","129","19.2","2","-1","-1","","","","","","","","","","","","",""
"psychophysics","100","211168","0.0-10.0-0.12","5f59392172042215e00ab069","609a8bf73b2ac84e2732f618","609d7421cc5ac572b61788f5","518.4950000002573","","","","37","","","","key","16.67400000000004","640","344.5","true","-1","129","19.2","2","-1","-1","","","","","","","","","","","","",""
"psychophysics","101","212811","0.0-10.0-0.13","5f59392172042215e00ab069","609a8bf73b2ac84e2732f618","609d7421cc5ac572b61788f5","642.0149999998976","","","","37","","","","key","16.67399999999996","640","344.5","true","1","129","15.36","3","1","-1","","","","","","","","","","","","",""
"psychophysics","102","214228","0.0-10.0-0.14","5f59392172042215e00ab069","609a8bf73b2ac84e2732f618","609d7421cc5ac572b61788f5","414.1750000003376","","","","37","","","","key","16.67399999999976","640","344.5","true","-1","144.36","15.36","3","-1","1","","","","","","","","","","","","",""
"psychophysics","103","215720","0.0-10.0-0.15","5f59392172042215e00ab069","609a8bf73b2ac84e2732f618","609d7421cc5ac572b61788f5","490.72500000009313","","","","37","","","","key","16.67400000000006","640","344.5","true","-1","144.36","12.287999999999998","4","-1","-1","","","","","","","","","","","","",""
"psychophysics","104","217368","0.0-10.0-0.16","5f59392172042215e00ab069","609a8bf73b2ac84e2732f618","609d7421cc5ac572b61788f5","644.87999999983","","","","37","","","","key","16.67744897959198","640","344.5","true","-1","132.072","12.287999999999998","4","-1","-1","","","","","","","","","","","","",""
"psychophysics","105","218751","0.0-10.0-0.17","5f59392172042215e00ab069","609a8bf73b2ac84e2732f618","609d7421cc5ac572b61788f5","381.2050000001327","","","","37","","","","key","16.67399999999978","640","344.5","true","-1","132.072","12.287999999999998","4","-1","-1","","","","","","","","","","","","",""
"psychophysics","106","220131","0.0-10.0-0.18","5f59392172042215e00ab069","609a8bf73b2ac84e2732f618","609d7421cc5ac572b61788f5","377.910000000149","","","","37","","","","key","16.674000000000134","640","344.5","true","-1","129","12.287999999999998","4","-1","-1","","","","","","","","","","","","",""
"psychophysics","107","221576","0.0-10.0-0.19","5f59392172042215e00ab069","609a8bf73b2ac84e2732f618","609d7421cc5ac572b61788f5","442.8999999999942","","","","37","","","","key","16.674000000000095","640","344.5","true","-1","129","12.287999999999998","4","-1","-1","","","","","","","","","","","","",""
"psychophysics","108","222960","0.0-10.0-0.20","5f59392172042215e00ab069","609a8bf73b2ac84e2732f618","609d7421cc5ac572b61788f5","381.15500000002794","","","","37","","","","key","16.674000000000134","640","344.5","true","-1","129","12.287999999999998","4","-1","-1","","","","","","","","","","","","",""
"psychophysics","109","226137","0.0-10.0-0.21","5f59392172042215e00ab069","609a8bf73b2ac84e2732f618","609d7421cc5ac572b61788f5","2174.365000000311","","","","39","","","","key","16.67399999999999","640","344.5","true","-1","129","9.8304","5","1","-1","","","","","","","","","","","","",""
"psychophysics","110","227744","0.0-10.0-0.22","5f59392172042215e00ab069","609a8bf73b2ac84e2732f618","609d7421cc5ac572b61788f5","604.6799999999057","","","","39","","","","key","16.677052631578714","640","344.5","true","1","138.8304","9.8304","5","-1","1","","","","","","","","","","","","",""
"psychophysics","111","229160","0.0-10.0-0.23","5f59392172042215e00ab069","609a8bf73b2ac84e2732f618","609d7421cc5ac572b61788f5","412.91499999989173","","","","37","","","","key","16.67400000000011","640","344.5","true","-1","138.8304","7.864319999999999","6","-1","-1","","","","","","","","","","","","",""
"psychophysics","112","231344","0.0-10.0-0.24","5f59392172042215e00ab069","609a8bf73b2ac84e2732f618","609d7421cc5ac572b61788f5","1181.6050000002142","","","","39","","","","key","16.673999999999964","640","344.5","true","1","130.96608","7.864319999999999","6","-1","-1","","","","","","","","","","","","",""
"psychophysics","113","232874","0.0-10.0-0.25","5f59392172042215e00ab069","609a8bf73b2ac84e2732f618","609d7421cc5ac572b61788f5","525.4100000001781","","","","39","","","","key","16.674000000000028","640","344.5","true","-1","130.96608","6.291456","7","1","-1","","","","","","","","","","","","",""
"psychophysics","114","234295","0.0-10.0-0.26","5f59392172042215e00ab069","609a8bf73b2ac84e2732f618","609d7421cc5ac572b61788f5","420.5600000000268","","","","39","","","","key","16.67400000000011","640","344.5","true","1","137.25753600000002","6.291456","7","-1","1","","","","","","","","","","","","",""
"psychophysics","115","235696","0.0-10.0-0.27","5f59392172042215e00ab069","609a8bf73b2ac84e2732f618","609d7421cc5ac572b61788f5","397.82500000001164","","","","39","","","","key","16.67400000000012","640","344.5","true","1","137.25753600000002","5.033164800000001","8","-1","-1","","","","","","","","","","","","",""
"psychophysics","116","237876","0.0-10.0-0.28","5f59392172042215e00ab069","609a8bf73b2ac84e2732f618","609d7421cc5ac572b61788f5","1176.7049999998417","","","","39","","","","key","16.67712307692295","640","344.5","true","1","132.2243712","5.033164800000001","8","-1","-1","","","","","","","","","","","","",""
"psychophysics","117","239724","0.0-10.0-0.29","5f59392172042215e00ab069","609a8bf73b2ac84e2732f618","609d7421cc5ac572b61788f5","845.8649999997579","","","","39","","","","key","16.674000000000127","640","344.5","true","-1","132.2243712","4.0265318400000005","9","1","-1","","","","","","","","","","","","",""
"psychophysics","118","241210","0.0-10.0-0.30","5f59392172042215e00ab069","609a8bf73b2ac84e2732f618","609d7421cc5ac572b61788f5","483.66000000032363","","","","39","","","","key","16.67400000000006","640","344.5","true","1","136.25090304","4.0265318400000005","9","-1","1","","","","","","","","","","","","",""
"psychophysics","119","242692","0.0-10.0-0.31","5f59392172042215e00ab069","609a8bf73b2ac84e2732f618","609d7421cc5ac572b61788f5","479.80000000004657","","","","39","","","","key","16.67400000000006","640","344.5","true","1","136.25090304","3.2212254720000004","10","-1","-1","","","","","","","","","","","","",""
"psychophysics","120","244129","0.0-10.0-0.32","5f59392172042215e00ab069","609a8bf73b2ac84e2732f618","609d7421cc5ac572b61788f5","435.5700000000943","","","","39","","","","key","16.673999999999754","640","344.5","true","1","133.029677568","3.2212254720000004","10","-1","-1","","","","","","","","","","","","",""
"psychophysics","121","245552","0.0-10.0-0.33","5f59392172042215e00ab069","609a8bf73b2ac84e2732f618","609d7421cc5ac572b61788f5","421.4299999998766","","","","39","","","","key","16.67400000000011","640","344.5","true","1","133.029677568","3.2212254720000004","10","-1","-1","","","","","","","","","","","","",""
"psychophysics","122","247257","0.0-10.0-0.34","5f59392172042215e00ab069","609a8bf73b2ac84e2732f618","609d7421cc5ac572b61788f5","702.5149999999558","","","","39","","","","key","16.673999999999925","640","344.5","true","-1","129.808452096","2.5769803776000004","11","1","-1","","","","","","","","","","","","",""
"psychophysics","123","248703","0.0-10.0-0.35","5f59392172042215e00ab069","609a8bf73b2ac84e2732f618","609d7421cc5ac572b61788f5","443.365000000078","","","","39","","","","key","16.677776470588288","640","344.5","true","1","132.3854324736","2.5769803776000004","11","-1","1","","","","","","","","","","","","",""
"psychophysics","124","250180","0.0-10.0-0.36","5f59392172042215e00ab069","609a8bf73b2ac84e2732f618","609d7421cc5ac572b61788f5","473.59499999994296","","","","39","","","","key","16.67400000000006","640","344.5","true","1","132.3854324736","2.0615843020800004","12","-1","-1","","","","","","","","","","","","",""
"psychophysics","125","251580","0.0-10.0-0.37","5f59392172042215e00ab069","609a8bf73b2ac84e2732f618","609d7421cc5ac572b61788f5","397.31500000014785","","","","39","","","","key","16.67400000000012","640","344.5","true","1","130.32384817151998","2.0615843020800004","12","-1","-1","","","","","","","","","","","","",""
"psychophysics","126","254193","0.0-10.0-0.38","5f59392172042215e00ab069","609a8bf73b2ac84e2732f618","609d7421cc5ac572b61788f5","1611.3999999997905","","","","39","","","","key","16.674000000000007","640","344.5","true","1","130.32384817151998","2.0615843020800004","12","-1","-1","","","","","","","","","","","","",""
"psychophysics","127","255748","0.0-10.0-0.39","5f59392172042215e00ab069","609a8bf73b2ac84e2732f618","609d7421cc5ac572b61788f5","552.5299999999115","","","","39","","","","key","16.674000000000007","640","344.5","true","1","129","2.0615843020800004","12","-1","-1","","","","","","","","","","","","",""
"html-keyboard-response","128","256945","0.0-11.0","5f59392172042215e00ab069","609a8bf73b2ac84e2732f618","609d7421cc5ac572b61788f5","1194.785000000149","<p>Well Done !</p><p>Prepare for a new block.</p><p>DON'T EXIT THE FULL SCREEN MODE</p><p>Press the Spacebar to start.</p>","","","32","","","","","","","","","","","","","","","true","132.84787126681601","","","","","","","","","","",""
"psychophysics","129","258468","0.0-12.0-0.0","5f59392172042215e00ab069","609a8bf73b2ac84e2732f618","609d7421cc5ac572b61788f5","520.5950000004086","","","","39","","","","key","16.67024175824174","640","344.5","true","1","180","30","0","-1","","","","","","","","","","","","","",""
"psychophysics","130","259904","0.0-12.0-0.1","5f59392172042215e00ab069","609a8bf73b2ac84e2732f618","609d7421cc5ac572b61788f5","434.29999999990105","","","","37","","","","key","16.674000000000095","640","344.5","true","-1","180","30","0","-1","-1","","","","","","","","","","","","",""
"psychophysics","131","261408","0.0-12.0-0.2","5f59392172042215e00ab069","609a8bf73b2ac84e2732f618","609d7421cc5ac572b61788f5","502.13500000018394","","","","37","","","","key","16.673999999999722","640","344.5","true","-1","150","30","0","-1","-1","","","","","","","","","","","","",""
"psychophysics","132","262959","0.0-12.0-0.3","5f59392172042215e00ab069","609a8bf73b2ac84e2732f618","609d7421cc5ac572b61788f5","549.0399999999208","","","","37","","","","key","16.674000000000333","640","344.5","true","-1","150","30","0","-1","-1","","","","","","","","","","","","",""
"psychophysics","133","264423","0.0-12.0-0.4","5f59392172042215e00ab069","609a8bf73b2ac84e2732f618","609d7421cc5ac572b61788f5","461.6249999999418","","","","39","","","","key","16.673999999999737","640","344.5","true","-1","129","24","1","1","-1","","","","","","","","","","","","",""
"psychophysics","134","265776","0.0-12.0-0.5","5f59392172042215e00ab069","609a8bf73b2ac84e2732f618","609d7421cc5ac572b61788f5","348.93000000010943","","","","39","","","","key","16.674000000000525","640","344.5","true","1","153","24","1","-1","1","","","","","","","","","","","","",""
"psychophysics","135","267143","0.0-12.0-0.6","5f59392172042215e00ab069","609a8bf73b2ac84e2732f618","609d7421cc5ac572b61788f5","365.7149999999092","","","","37","","","","key","16.673999999999786","640","344.5","true","-1","153","19.2","2","-1","-1","","","","","","","","","","","","",""
"psychophysics","136","268474","0.0-12.0-0.7","5f59392172042215e00ab069","609a8bf73b2ac84e2732f618","609d7421cc5ac572b61788f5","328.28999999992084","","","","39","","","","key","16.67832911392391","640","344.5","true","1","133.8","19.2","2","-1","-1","","","","","","","","","","","","",""
"psychophysics","137","269818","0.0-12.0-0.8","5f59392172042215e00ab069","609a8bf73b2ac84e2732f618","609d7421cc5ac572b61788f5","342.4549999999581","","","","37","","","","key","16.673999999999797","640","344.5","true","-1","133.8","19.2","2","-1","-1","","","","","","","","","","","","",""
"psychophysics","138","272096","0.0-12.0-0.9","5f59392172042215e00ab069","609a8bf73b2ac84e2732f618","609d7421cc5ac572b61788f5","1275.3600000000442","","","","39","","","","key","16.674000000000362","640","344.5","true","1","129","19.2","2","-1","-1","","","","","","","","","","","","",""
"psychophysics","139","273492","0.0-12.0-0.10","5f59392172042215e00ab069","609a8bf73b2ac84e2732f618","609d7421cc5ac572b61788f5","394.54999999998836","","","","39","","","","key","16.67399999999977","640","344.5","true","1","129","19.2","2","-1","-1","","","","","","","","","","","","",""
"psychophysics","140","275632","0.0-12.0-0.11","5f59392172042215e00ab069","609a8bf73b2ac84e2732f618","609d7421cc5ac572b61788f5","1137.9200000001001","","","","39","","","","key","16.673999999999985","640","344.5","true","-1","129","15.36","3","1","-1","","","","","","","","","","","","",""
"psychophysics","141","276985","0.0-12.0-0.12","5f59392172042215e00ab069","609a8bf73b2ac84e2732f618","609d7421cc5ac572b61788f5","351.05499999964377","","","","39","","","","key","16.673999999999797","640","344.5","true","1","144.36","15.36","3","-1","1","","","","","","","","","","","","",""
"psychophysics","142","278416","0.0-12.0-0.13","5f59392172042215e00ab069","609a8bf73b2ac84e2732f618","609d7421cc5ac572b61788f5","429.18499999993946","","","","39","","","","key","16.677917647059076","640","344.5","true","1","144.36","12.287999999999998","4","-1","-1","","","","","","","","","","","","",""
"psychophysics","143","279784","0.0-12.0-0.14","5f59392172042215e00ab069","609a8bf73b2ac84e2732f618","609d7421cc5ac572b61788f5","365.69000000006054","","","","39","","","","key","16.673999999999786","640","344.5","true","1","132.072","12.287999999999998","4","-1","-1","","","","","","","","","","","","",""
"psychophysics","144","281113","0.0-12.0-0.15","5f59392172042215e00ab069","609a8bf73b2ac84e2732f618","609d7421cc5ac572b61788f5","327.5399999998044","","","","39","","","","key","16.673999999999804","640","344.5","true","-1","132.072","9.8304","5","1","-1","","","","","","","","","","","","",""
"psychophysics","145","282400","0.0-12.0-0.16","5f59392172042215e00ab069","609a8bf73b2ac84e2732f618","609d7421cc5ac572b61788f5","285.37000000005355","","","","37","","","","key","16.6740000000006","640","344.5","true","-1","141.9024","9.8304","5","-1","1","","","","","","","","","","","","",""
"psychophysics","146","283829","0.0-12.0-0.17","5f59392172042215e00ab069","609a8bf73b2ac84e2732f618","609d7421cc5ac572b61788f5","425.2349999997532","","","","37","","","","key","16.673999999999754","640","344.5","true","-1","141.9024","7.864319999999999","6","-1","-1","","","","","","","","","","","","",""
"psychophysics","147","285242","0.0-12.0-0.18","5f59392172042215e00ab069","609a8bf73b2ac84e2732f618","609d7421cc5ac572b61788f5","411.5649999998277","","","","37","","","","key","16.67399999999976","640","344.5","true","-1","134.03808","7.864319999999999","6","-1","-1","","","","","","","","","","","","",""
"psychophysics","148","286613","0.0-12.0-0.19","5f59392172042215e00ab069","609a8bf73b2ac84e2732f618","609d7421cc5ac572b61788f5","368.1450000003679","","","","37","","","","key","16.674000000000508","640","344.5","true","1","134.03808","6.291456","7","1","-1","","","","","","","","","","","","",""
"psychophysics","149","287916","0.0-12.0-0.20","5f59392172042215e00ab069","609a8bf73b2ac84e2732f618","609d7421cc5ac572b61788f5","300.6799999998184","","","","37","","","","key","16.67866233766212","640","344.5","true","-1","140.32953600000002","6.291456","7","-1","1","","","","","","","","","","","","",""
"psychophysics","150","289300","0.0-12.0-0.21","5f59392172042215e00ab069","609a8bf73b2ac84e2732f618","609d7421cc5ac572b61788f5","382.99499999993714","","","","37","","","","key","16.67399999999978","640","344.5","true","-1","140.32953600000002","5.033164800000001","8","-1","-1","","","","","","","","","","","","",""
"psychophysics","151","290667","0.0-12.0-0.22","5f59392172042215e00ab069","609a8bf73b2ac84e2732f618","609d7421cc5ac572b61788f5","365.5250000001397","","","","37","","","","key","16.674000000000508","640","344.5","true","-1","135.2963712","5.033164800000001","8","-1","-1","","","","","","","","","","","","",""
"psychophysics","152","292072","0.0-12.0-0.23","5f59392172042215e00ab069","609a8bf73b2ac84e2732f618","609d7421cc5ac572b61788f5","403.2750000001397","","","","39","","","","key","16.67399999999977","640","344.5","true","1","135.2963712","5.033164800000001","8","-1","-1","","","","","","","","","","","","",""
"psychophysics","153","293704","0.0-12.0-0.24","5f59392172042215e00ab069","609a8bf73b2ac84e2732f618","609d7421cc5ac572b61788f5","628.6999999997788","","","","39","","","","key","16.67400000000027","640","344.5","true","1","130.2632064","5.033164800000001","8","-1","-1","","","","","","","","","","","","",""
"psychophysics","154","296472","0.0-12.0-0.25","5f59392172042215e00ab069","609a8bf73b2ac84e2732f618","609d7421cc5ac572b61788f5","1766.9000000000815","","","","39","","","","key","16.673999999999776","640","344.5","true","1","130.2632064","5.033164800000001","8","-1","-1","","","","","","","","","","","","",""
"psychophysics","155","298392","0.0-12.0-0.26","5f59392172042215e00ab069","609a8bf73b2ac84e2732f618","609d7421cc5ac572b61788f5","918.0500000002212","","","","39","","","","key","16.67692105263153","640","344.5","true","1","129","5.033164800000001","8","-1","-1","","","","","","","","","","","","",""
"psychophysics","156","299906","0.0-12.0-0.27","5f59392172042215e00ab069","609a8bf73b2ac84e2732f618","609d7421cc5ac572b61788f5","512.534999999858","","","","37","","","","key","16.674000000000362","640","344.5","true","1","129","4.0265318400000005","9","1","-1","","","","","","","","","","","","",""
"psychophysics","157","301592","0.0-12.0-0.28","5f59392172042215e00ab069","609a8bf73b2ac84e2732f618","609d7421cc5ac572b61788f5","684.409999999858","","","","39","","","","key","16.67399999999965","640","344.5","true","-1","133.02653184","4.0265318400000005","9","1","1","","","","","","","","","","","","",""
"psychophysics","158","303021","0.0-12.0-0.29","5f59392172042215e00ab069","609a8bf73b2ac84e2732f618","609d7421cc5ac572b61788f5","424.5150000001886","","","","37","","","","key","16.67400000000044","640","344.5","true","-1","137.05306367999998","4.0265318400000005","9","-1","1","","","","","","","","","","","","",""
"psychophysics","159","304341","0.0-12.0-0.30","5f59392172042215e00ab069","609a8bf73b2ac84e2732f618","609d7421cc5ac572b61788f5","317.63000000000466","","","","39","","","","key","16.673999999999815","640","344.5","true","1","137.05306367999998","3.2212254720000004","10","-1","-1","","","","","","","","","","","","",""
"psychophysics","160","305675","0.0-12.0-0.31","5f59392172042215e00ab069","609a8bf73b2ac84e2732f618","609d7421cc5ac572b61788f5","332.69000000017695","","","","39","","","","key","16.673999999999804","640","344.5","true","1","133.83183820799997","3.2212254720000004","10","-1","-1","","","","","","","","","","","","",""
"psychophysics","161","306941","0.0-12.0-0.32","5f59392172042215e00ab069","609a8bf73b2ac84e2732f618","609d7421cc5ac572b61788f5","264.789999999688","","","","39","","","","key","16.67400000000062","640","344.5","true","1","133.83183820799997","3.2212254720000004","10","-1","-1","","","","","","","","","","","","",""
"psychophysics","162","308374","0.0-12.0-0.33","5f59392172042215e00ab069","609a8bf73b2ac84e2732f618","609d7421cc5ac572b61788f5","431.05999999988126","","","","39","","","","key","16.876595238094783","640","344.5","true","1","130.61061273599995","3.2212254720000004","10","-1","-1","","","","","","","","","","","","",""
"psychophysics","163","309859","0.0-12.0-0.34","5f59392172042215e00ab069","609a8bf73b2ac84e2732f618","609d7421cc5ac572b61788f5","483.6449999997858","","","","39","","","","key","16.67400000000039","640","344.5","true","-1","130.61061273599995","2.5769803776000004","11","1","-1","","","","","","","","","","","","",""
"psychophysics","164","311232","0.0-12.0-0.35","5f59392172042215e00ab069","609a8bf73b2ac84e2732f618","609d7421cc5ac572b61788f5","371.6600000002072","","","","39","","","","key","16.673999999999786","640","344.5","true","1","133.18759311359995","2.5769803776000004","11","-1","1","","","","","","","","","","","","",""
"psychophysics","165","313200","0.0-12.0-0.36","5f59392172042215e00ab069","609a8bf73b2ac84e2732f618","609d7421cc5ac572b61788f5","966.6299999998882","","","","39","","","","key","16.674000000000063","640","344.5","true","-1","133.18759311359995","2.0615843020800004","12","1","-1","","","","","","","","","","","","",""
"psychophysics","166","314433","0.0-12.0-0.37","5f59392172042215e00ab069","609a8bf73b2ac84e2732f618","609d7421cc5ac572b61788f5","229.57999999966705","","","","37","","","","key","16.673999999999864","640","344.5","true","-1","135.24917741567995","2.0615843020800004","12","-1","1","","","","","","","","","","","","",""
"psychophysics","167","315864","0.0-12.0-0.38","5f59392172042215e00ab069","609a8bf73b2ac84e2732f618","609d7421cc5ac572b61788f5","429.6199999998789","","","","37","","","","key","16.673999999999754","640","344.5","true","1","135.24917741567995","1.6492674416640005","13","1","-1","","","","","","","","","","","","",""
"psychophysics","168","317213","0.0-12.0-0.39","5f59392172042215e00ab069","609a8bf73b2ac84e2732f618","609d7421cc5ac572b61788f5","347.5399999997462","","","","37","","","","key","16.674000000000525","640","344.5","true","-1","136.89844485734395","1.6492674416640005","13","-1","1","","","","","","","","","","","","",""
"html-keyboard-response","169","321665","0.0-13.0","5f59392172042215e00ab069","609a8bf73b2ac84e2732f618","609d7421cc5ac572b61788f5","4450.739999999758","<p>Well Done !</p><p>Prepare for a new block.</p><p>DON'T EXIT THE FULL SCREEN MODE</p><p>Press the Spacebar to start.</p>","","","32","","","","","","","","","","","","","","","true","133.20351689359353","","","","","","","","","","",""
"html-keyboard-response","170","321768","0.0-14.0","5f59392172042215e00ab069","609a8bf73b2ac84e2732f618","609d7421cc5ac572b61788f5","null","","","","null","","","","","","","","","","","","","","","","","133.34262012166417","true","138.68524024332834","","","","","","","",""
"instructions","171","342354","0.0-15.0","5f59392172042215e00ab069","609a8bf73b2ac84e2732f618","609d7421cc5ac572b61788f5","20584.269999999844","","","","","","","[{""page_index"":0,""viewing_time"":15503.034999999742},{""page_index"":1,""viewing_time"":1439.6750000000466},{""page_index"":2,""viewing_time"":3641.20000000007}]","","","","","","","","","","","","","","","","","","","","","","","",""
"psychophysics","172","345009","0.0-16.0-0.0","5f59392172042215e00ab069","609a8bf73b2ac84e2732f618","609d7421cc5ac572b61788f5","null","","","","null","","","","key","16.76410256410376","640","344.5","","","","","","","","","","","","","","","","","","","",""
"psychophysics","173","345511","0.0-16.0-1.0","5f59392172042215e00ab069","609a8bf73b2ac84e2732f618","609d7421cc5ac572b61788f5","null","","","","null","","","","key","16.67399999999907","640","344.5","","","","","","","","","","","","","139","-1","6","false","","","",""
"psychophysics","174","346941","0.0-16.0-2.0","5f59392172042215e00ab069","609a8bf73b2ac84e2732f618","609d7421cc5ac572b61788f5","1427.899999999674","","","","90","","","","key","16.673999999999754","640","344.5","","","","","","","","","","","","","","","","","","","",""
"psychophysics","175","347999","0.0-16.0-0.1","5f59392172042215e00ab069","609a8bf73b2ac84e2732f618","609d7421cc5ac572b61788f5","null","","","","null","","","","key","16.674000000000007","640","344.5","","","","","","","","","","","","","","","","","","","",""
"psychophysics","176","348502","0.0-16.0-1.1","5f59392172042215e00ab069","609a8bf73b2ac84e2732f618","609d7421cc5ac572b61788f5","null","","","","null","","","","key","16.674000000001076","640","344.5","","","","","","","","","","","","","139","-1","3","false","","","",""
"psychophysics","177","349113","0.0-16.0-2.1","5f59392172042215e00ab069","609a8bf73b2ac84e2732f618","609d7421cc5ac572b61788f5","606.5100000000675","","","","90","","","","key","16.674000000000685","640","344.5","","","","","","","","","","","","","","","","","","","",""
"psychophysics","178","349786","0.0-16.0-0.2","5f59392172042215e00ab069","609a8bf73b2ac84e2732f618","609d7421cc5ac572b61788f5","null","","","","null","","","","key","16.67399999999907","640","344.5","","","","","","","","","","","","","","","","","","","",""
"psychophysics","179","350287","0.0-16.0-1.2","5f59392172042215e00ab069","609a8bf73b2ac84e2732f618","609d7421cc5ac572b61788f5","null","","","","null","","","","key","16.674000000001076","640","344.5","","","","","","","","","","","","","139","1","6","false","","","",""
"psychophysics","180","351201","0.0-16.0-2.2","5f59392172042215e00ab069","609a8bf73b2ac84e2732f618","609d7421cc5ac572b61788f5","910.99500000017","","","","90","","","","key","16.674000000000145","640","344.5","","","","","","","","","","","","","","","","","","","",""
"psychophysics","181","352420","0.0-16.0-0.3","5f59392172042215e00ab069","609a8bf73b2ac84e2732f618","609d7421cc5ac572b61788f5","null","","","","null","","","","key","16.67399999999988","640","344.5","","","","","","","","","","","","","","","","","","","",""
"psychophysics","182","352922","0.0-16.0-1.3","5f59392172042215e00ab069","609a8bf73b2ac84e2732f618","609d7421cc5ac572b61788f5","null","","","","null","","","","key","16.67399999999907","640","344.5","","","","","","","","","","","","","139","-1","0","false","","","",""
"psychophysics","183","353265","0.0-16.0-2.3","5f59392172042215e00ab069","609a8bf73b2ac84e2732f618","609d7421cc5ac572b61788f5","339.16999999975087","","","","90","","","","key","16.67400000000198","640","344.5","","","","","","","","","","","","","","","","","","","",""
"psychophysics","184","354075","0.0-16.0-0.4","5f59392172042215e00ab069","609a8bf73b2ac84e2732f618","609d7421cc5ac572b61788f5","null","","","","null","","","","key","16.67399999999907","640","344.5","","","","","","","","","","","","","","","","","","","",""
"psychophysics","185","354577","0.0-16.0-1.4","5f59392172042215e00ab069","609a8bf73b2ac84e2732f618","609d7421cc5ac572b61788f5","null","","","","null","","","","key","16.549066666666963","640","344.5","","","","","","","","","","","","","139","-1","4","false","","","",""
"psychophysics","186","354585","0.0-16.0-2.4","5f59392172042215e00ab069","609a8bf73b2ac84e2732f618","609d7421cc5ac572b61788f5","5.275000000023283","","","","90","","","","key","NaN","640","344.5","","","","","","","","","","","","","","","","","","","",""
"psychophysics","187","355246","0.0-16.0-0.5","5f59392172042215e00ab069","609a8bf73b2ac84e2732f618","609d7421cc5ac572b61788f5","null","","","","null","","","","key","16.67400000000056","640","344.5","","","","","","","","","","","","","","","","","","","",""
"psychophysics","188","355747","0.0-16.0-1.5","5f59392172042215e00ab069","609a8bf73b2ac84e2732f618","609d7421cc5ac572b61788f5","null","","","","null","","","","key","16.67399999999907","640","344.5","","","","","","","","","","","","","139","-1","2","false","","","",""
"psychophysics","189","356201","0.0-16.0-2.5","5f59392172042215e00ab069","609a8bf73b2ac84e2732f618","609d7421cc5ac572b61788f5","451.86000000016065","","","","90","","","","key","16.674000000001307","640","344.5","","","","","","","","","","","","","","","","","","","",""
"psychophysics","190","357377","0.0-16.0-0.6","5f59392172042215e00ab069","609a8bf73b2ac84e2732f618","609d7421cc5ac572b61788f5","null","","","","null","","","","key","16.6739999999999","640","344.5","","","","","","","","","","","","","","","","","","","",""
"psychophysics","191","357880","0.0-16.0-1.6","5f59392172042215e00ab069","609a8bf73b2ac84e2732f618","609d7421cc5ac572b61788f5","null","","","","null","","","","key","16.67399999999907","640","344.5","","","","","","","","","","","","","139","1","5","false","","","",""
"psychophysics","192","358185","0.0-16.0-2.6","5f59392172042215e00ab069","609a8bf73b2ac84e2732f618","609d7421cc5ac572b61788f5","302.72999999986496","","","","90","","","","key","16.674000000002493","640","344.5","","","","","","","","","","","","","","","","","","","",""
"psychophysics","193","359590","0.0-16.0-0.7","5f59392172042215e00ab069","609a8bf73b2ac84e2732f618","609d7421cc5ac572b61788f5","null","","","","null","","","","key","16.67399999999977","640","344.5","","","","","","","","","","","","","","","","","","","",""
"psychophysics","194","360092","0.0-16.0-1.7","5f59392172042215e00ab069","609a8bf73b2ac84e2732f618","609d7421cc5ac572b61788f5","null","","","","null","","","","key","16.67399999999907","640","344.5","","","","","","","","","","","","","139","1","0","false","","","",""
"psychophysics","195","360185","0.0-16.0-2.7","5f59392172042215e00ab069","609a8bf73b2ac84e2732f618","609d7421cc5ac572b61788f5","88.25500000012107","","","","90","","","","key","16.67400000001362","640","344.5","","","","","","","","","","","","","","","","","","","",""
"psychophysics","196","361337","0.0-16.0-0.8","5f59392172042215e00ab069","609a8bf73b2ac84e2732f618","609d7421cc5ac572b61788f5","null","","","","null","","","","key","16.673999999999925","640","344.5","","","","","","","","","","","","","","","","","","","",""
"psychophysics","197","361838","0.0-16.0-1.8","5f59392172042215e00ab069","609a8bf73b2ac84e2732f618","609d7421cc5ac572b61788f5","null","","","","null","","","","key","16.67399999999907","640","344.5","","","","","","","","","","","","","139","1","2","false","","","",""
"psychophysics","198","362210","0.0-16.0-2.8","5f59392172042215e00ab069","609a8bf73b2ac84e2732f618","609d7421cc5ac572b61788f5","370.46000000007916","","","","90","","","","key","16.67399999999907","640","344.5","","","","","","","","","","","","","","","","","","","",""
"psychophysics","199","362904","0.0-16.0-0.9","5f59392172042215e00ab069","609a8bf73b2ac84e2732f618","609d7421cc5ac572b61788f5","null","","","","null","","","","key","16.674000000000525","640","344.5","","","","","","","","","","","","","","","","","","","",""
"psychophysics","200","363407","0.0-16.0-1.9","5f59392172042215e00ab069","609a8bf73b2ac84e2732f618","609d7421cc5ac572b61788f5","null","","","","null","","","","key","16.674000000001076","640","344.5","","","","","","","","","","","","","139","1","4","false","","","",""
"psychophysics","201","363750","0.0-16.0-2.9","5f59392172042215e00ab069","609a8bf73b2ac84e2732f618","609d7421cc5ac572b61788f5","339.425000000163","","","","90","","","","key","16.67399999999907","640","344.5","","","","","","","","","","","","","","","","","","","",""
"psychophysics","202","364418","0.0-16.0-0.10","5f59392172042215e00ab069","609a8bf73b2ac84e2732f618","609d7421cc5ac572b61788f5","null","","","","null","","","","key","16.67400000000056","640","344.5","","","","","","","","","","","","","","","","","","","",""
"psychophysics","203","364921","0.0-16.0-1.10","5f59392172042215e00ab069","609a8bf73b2ac84e2732f618","609d7421cc5ac572b61788f5","null","","","","null","","","","key","16.68786206896465","640","344.5","","","","","","","","","","","","","139","1","3","false","","","",""
"psychophysics","204","365035","0.0-16.0-2.10","5f59392172042215e00ab069","609a8bf73b2ac84e2732f618","609d7421cc5ac572b61788f5","112.35499999974854","","","","90","","","","key","16.67399999999907","640","344.5","","","","","","","","","","","","","","","","","","","",""
"psychophysics","205","365823","0.0-16.0-0.11","5f59392172042215e00ab069","609a8bf73b2ac84e2732f618","609d7421cc5ac572b61788f5","null","","","","null","","","","key","16.674000000000333","640","344.5","","","","","","","","","","","","","","","","","","","",""
"psychophysics","206","366326","0.0-16.0-1.11","5f59392172042215e00ab069","609a8bf73b2ac84e2732f618","609d7421cc5ac572b61788f5","null","","","","null","","","","key","16.67399999999907","640","344.5","","","","","","","","","","","","","139","-1","5","false","","","",""
"psychophysics","207","366419","0.0-16.0-2.11","5f59392172042215e00ab069","609a8bf73b2ac84e2732f618","609d7421cc5ac572b61788f5","88.63000000017928","","","","90","","","","key","16.67399999999907","640","344.5","","","","","","","","","","","","","","","","","","","",""
"psychophysics","208","367676","0.0-16.0-0.12","5f59392172042215e00ab069","609a8bf73b2ac84e2732f618","609d7421cc5ac572b61788f5","null","","","","null","","","","key","16.674000000000643","640","344.5","","","","","","","","","","","","","","","","","","","",""
"psychophysics","209","368178","0.0-16.0-1.12","5f59392172042215e00ab069","609a8bf73b2ac84e2732f618","609d7421cc5ac572b61788f5","null","","","","null","","","","key","16.67399999999907","640","344.5","","","","","","","","","","","","","139","-1","5","false","","","",""
"psychophysics","210","368300","0.0-16.0-2.12","5f59392172042215e00ab069","609a8bf73b2ac84e2732f618","609d7421cc5ac572b61788f5","117.58000000013271","","","","90","","","","key","16.67399999999907","640","344.5","","","","","","","","","","","","","","","","","","","",""
"psychophysics","211","369356","0.0-16.0-0.13","5f59392172042215e00ab069","609a8bf73b2ac84e2732f618","609d7421cc5ac572b61788f5","null","","","","null","","","","key","16.674000000000007","640","344.5","","","","","","","","","","","","","","","","","","","",""
"psychophysics","212","369859","0.0-16.0-1.13","5f59392172042215e00ab069","609a8bf73b2ac84e2732f618","609d7421cc5ac572b61788f5","null","","","","null","","","","key","16.674000000001076","640","344.5","","","","","","","","","","","","","139","-1","6","false","","","",""
"psychophysics","213","370020","0.0-16.0-2.13","5f59392172042215e00ab069","609a8bf73b2ac84e2732f618","609d7421cc5ac572b61788f5","158.90500000026077","","","","90","","","","key","16.67399999999907","640","344.5","","","","","","","","","","","","","","","","","","","",""
"psychophysics","214","370618","0.0-16.0-0.14","5f59392172042215e00ab069","609a8bf73b2ac84e2732f618","609d7421cc5ac572b61788f5","null","","","","null","","","","key","16.67400000000073","640","344.5","","","","","","","","","","","","","","","","","","","",""
"psychophysics","215","371120","0.0-16.0-1.14","5f59392172042215e00ab069","609a8bf73b2ac84e2732f618","609d7421cc5ac572b61788f5","null","","","","null","","","","key","16.67399999999907","640","344.5","","","","","","","","","","","","","139","1","4","false","","","",""
"psychophysics","216","371519","0.0-16.0-2.14","5f59392172042215e00ab069","609a8bf73b2ac84e2732f618","609d7421cc5ac572b61788f5","383.0549999997602","","","","90","","","","key","16.67399999999907","640","344.5","","","","","","","","","","","","","","","","","","","",""
"psychophysics","217","372959","0.0-16.0-0.15","5f59392172042215e00ab069","609a8bf73b2ac84e2732f618","609d7421cc5ac572b61788f5","null","","","","null","","","","key","16.67400000000044","640","344.5","","","","","","","","","","","","","","","","","","","",""
"psychophysics","218","373462","0.0-16.0-1.15","5f59392172042215e00ab069","609a8bf73b2ac84e2732f618","609d7421cc5ac572b61788f5","null","","","","null","","","","key","16.67399999999907","640","344.5","","","","","","","","","","","","","139","1","5","false","","","",""
"psychophysics","219","373609","0.0-16.0-2.15","5f59392172042215e00ab069","609a8bf73b2ac84e2732f618","609d7421cc5ac572b61788f5","145.53000000026077","","","","90","","","","key","16.67399999999907","640","344.5","","","","","","","","","","","","","","","","","","","",""
"psychophysics","220","374151","0.0-16.0-0.16","5f59392172042215e00ab069","609a8bf73b2ac84e2732f618","609d7421cc5ac572b61788f5","null","","","","null","","","","key","16.674000000000888","640","344.5","","","","","","","","","","","","","","","","","","","",""
"psychophysics","221","374653","0.0-16.0-1.16","5f59392172042215e00ab069","609a8bf73b2ac84e2732f618","609d7421cc5ac572b61788f5","null","","","","null","","","","key","16.685689655172734","640","344.5","","","","","","","","","","","","","139","-1","4","false","","","",""
"psychophysics","222","374730","0.0-16.0-2.16","5f59392172042215e00ab069","609a8bf73b2ac84e2732f618","609d7421cc5ac572b61788f5","74.59000000014203","","","","90","","","","key","16.67399999999907","640","344.5","","","","","","","","","","","","","","","","","","","",""
"psychophysics","223","375369","0.0-16.0-0.17","5f59392172042215e00ab069","609a8bf73b2ac84e2732f618","609d7421cc5ac572b61788f5","null","","","","null","","","","key","16.67399999999907","640","344.5","","","","","","","","","","","","","","","","","","","",""
"psychophysics","224","375871","0.0-16.0-1.17","5f59392172042215e00ab069","609a8bf73b2ac84e2732f618","609d7421cc5ac572b61788f5","null","","","","null","","","","key","16.674000000001076","640","344.5","","","","","","","","","","","","","139","1","0","false","","","",""
"psychophysics","225","377913","0.0-16.0-2.17","5f59392172042215e00ab069","609a8bf73b2ac84e2732f618","609d7421cc5ac572b61788f5","2039.3850000000675","","","","90","","","","key","16.67400000000003","640","344.5","","","","","","","","","","","","","","","","","","","",""
"psychophysics","226","379395","0.0-16.0-0.18","5f59392172042215e00ab069","609a8bf73b2ac84e2732f618","609d7421cc5ac572b61788f5","null","","","","null","","","","key","16.67399999999973","640","344.5","","","","","","","","","","","","","","","","","","","",""
"psychophysics","227","379899","0.0-16.0-1.18","5f59392172042215e00ab069","609a8bf73b2ac84e2732f618","609d7421cc5ac572b61788f5","null","","","","null","","","","key","16.674000000001076","640","344.5","","","","","","","","","","","","","139","-1","0","false","","","",""
"psychophysics","228","380266","0.0-16.0-2.18","5f59392172042215e00ab069","609a8bf73b2ac84e2732f618","609d7421cc5ac572b61788f5","363.1350000000093","","","","90","","","","key","16.67399999999907","640","344.5","","","","","","","","","","","","","","","","","","","",""
"psychophysics","229","381028","0.0-16.0-0.19","5f59392172042215e00ab069","609a8bf73b2ac84e2732f618","609d7421cc5ac572b61788f5","null","","","","null","","","","key","16.674000000000362","640","344.5","","","","","","","","","","","","","","","","","","","",""
"psychophysics","230","381531","0.0-16.0-1.19","5f59392172042215e00ab069","609a8bf73b2ac84e2732f618","609d7421cc5ac572b61788f5","null","","","","null","","","","key","16.67399999999907","640","344.5","","","","","","","","","","","","","139","1","3","false","","","",""
"psychophysics","231","381574","0.0-16.0-2.19","5f59392172042215e00ab069","609a8bf73b2ac84e2732f618","609d7421cc5ac572b61788f5","41.14000000030501","","","","90","","","","key","16.67399999999907","640","344.5","","","","","","","","","","","","","","","","","","","",""
"psychophysics","232","382439","0.0-16.0-0.20","5f59392172042215e00ab069","609a8bf73b2ac84e2732f618","609d7421cc5ac572b61788f5","null","","","","null","","","","key","16.67400000000021","640","344.5","","","","","","","","","","","","","","","","","","","",""
"psychophysics","233","382941","0.0-16.0-1.20","5f59392172042215e00ab069","609a8bf73b2ac84e2732f618","609d7421cc5ac572b61788f5","null","","","","null","","","","key","16.674000000001076","640","344.5","","","","","","","","","","","","","139","-1","3","false","","","",""
"psychophysics","234","382995","0.0-16.0-2.20","5f59392172042215e00ab069","609a8bf73b2ac84e2732f618","609d7421cc5ac572b61788f5","51.83500000019558","","","","90","","","","key","16.67399999999907","640","344.5","","","","","","","","","","","","","","","","","","","",""
"psychophysics","235","383733","0.0-16.0-0.21","5f59392172042215e00ab069","609a8bf73b2ac84e2732f618","609d7421cc5ac572b61788f5","null","","","","null","","","","key","16.67399999999907","640","344.5","","","","","","","","","","","","","","","","","","","",""
"psychophysics","236","384236","0.0-16.0-1.21","5f59392172042215e00ab069","609a8bf73b2ac84e2732f618","609d7421cc5ac572b61788f5","null","","","","null","","","","key","16.674000000001076","640","344.5","","","","","","","","","","","","","139","1","2","false","","","",""
"psychophysics","237","384444","0.0-16.0-2.21","5f59392172042215e00ab069","609a8bf73b2ac84e2732f618","609d7421cc5ac572b61788f5","203.09499999985565","","","","77","","","","key","16.67399999999907","640","344.5","","","","","","","","","","","","","","","","","","","",""
"psychophysics","238","385671","0.0-16.0-0.22","5f59392172042215e00ab069","609a8bf73b2ac84e2732f618","609d7421cc5ac572b61788f5","null","","","","null","","","","key","16.67873972602753","640","344.5","","","","","","","","","","","","","","","","","","","",""
"psychophysics","239","386175","0.0-16.0-1.22","5f59392172042215e00ab069","609a8bf73b2ac84e2732f618","609d7421cc5ac572b61788f5","null","","","","null","","","","key","16.67399999999907","640","344.5","","","","","","","","","","","","","139","1","6","false","","","",""
"psychophysics","240","386326","0.0-16.0-2.22","5f59392172042215e00ab069","609a8bf73b2ac84e2732f618","609d7421cc5ac572b61788f5","148.91499999974621","","","","90","","","","key","16.674000000006345","640","344.5","","","","","","","","","","","","","","","","","","","",""
"psychophysics","241","387391","0.0-16.0-0.23","5f59392172042215e00ab069","609a8bf73b2ac84e2732f618","609d7421cc5ac572b61788f5","null","","","","null","","","","key","16.673999999999992","640","344.5","","","","","","","","","","","","","","","","","","","",""
"psychophysics","242","387893","0.0-16.0-1.23","5f59392172042215e00ab069","609a8bf73b2ac84e2732f618","609d7421cc5ac572b61788f5","null","","","","null","","","","key","16.67399999999907","640","344.5","","","","","","","","","","","","","139","-1","2","false","","","",""
"psychophysics","243","388355","0.0-16.0-2.23","5f59392172042215e00ab069","609a8bf73b2ac84e2732f618","609d7421cc5ac572b61788f5","459.24499999999534","","","","90","","","","key","16.674000000001307","640","344.5","","","","","","","","","","","","","","","","","","","",""
"html-keyboard-response","244","389819","0.0-17.0","5f59392172042215e00ab069","609a8bf73b2ac84e2732f618","609d7421cc5ac572b61788f5","1462.9650000002002","<p>Well Done !</p><p>Training Complete. Press the spacebar to start.</p><p>DON'T EXIT THE FULL SCREEN MODE</p>","","","32","","","","","","","","","","","","","","","","","","","","","","","","","","",""
"psychophysics","245","392609","0.0-18.0-0.0","5f59392172042215e00ab069","609a8bf73b2ac84e2732f618","609d7421cc5ac572b61788f5","null","","","","null","","","","key","16.674000000000333","640","344.5","","","","","","","","","","","","","","","","","","","",""
"psychophysics","246","393111","0.0-18.0-1.0","5f59392172042215e00ab069","609a8bf73b2ac84e2732f618","609d7421cc5ac572b61788f5","null","","","","null","","","","key","16.67399999999907","640","344.5","","","","","","","","","","","","","139","-1","6","true","","","",""
"psychophysics","247","397147","0.0-18.0-2.0","5f59392172042215e00ab069","609a8bf73b2ac84e2732f618","609d7421cc5ac572b61788f5","4034.4850000001024","","","","90","","","","key","16.662215767634784","640","344.5","","","","","","","","","","","","","","","","","","","",""
"psychophysics","248","397789","0.0-18.0-0.1","5f59392172042215e00ab069","609a8bf73b2ac84e2732f618","609d7421cc5ac572b61788f5","null","","","","null","","","","key","16.674000000000643","640","344.5","","","","","","","","","","","","","","","","","","","",""
"psychophysics","249","398291","0.0-18.0-1.1","5f59392172042215e00ab069","609a8bf73b2ac84e2732f618","609d7421cc5ac572b61788f5","null","","","","null","","","","key","16.67400000000101","640","344.5","","","","","","","","","","","","","139","1","5","true","","","",""
"psychophysics","250","398494","0.0-18.0-2.1","5f59392172042215e00ab069","609a8bf73b2ac84e2732f618","609d7421cc5ac572b61788f5","197.72000000008848","","","","90","","","","key","16.67399999999907","640","344.5","","","","","","","","","","","","","","","","","","","",""
"psychophysics","251","399442","0.0-18.0-0.2","5f59392172042215e00ab069","609a8bf73b2ac84e2732f618","609d7421cc5ac572b61788f5","null","","","","null","","","","key","16.67400000000011","640","344.5","","","","","","","","","","","","","","","","","","","",""
"psychophysics","252","399945","0.0-18.0-1.2","5f59392172042215e00ab069","609a8bf73b2ac84e2732f618","609d7421cc5ac572b61788f5","null","","","","null","","","","key","16.67399999999907","640","344.5","","","","","","","","","","","","","139","-1","4","true","","","",""
"psychophysics","253","399999","0.0-18.0-2.2","5f59392172042215e00ab069","609a8bf73b2ac84e2732f618","609d7421cc5ac572b61788f5","51.70000000001164","","","","90","","","","key","16.67399999999907","640","344.5","","","","","","","","","","","","","","","","","","","",""
"psychophysics","254","401316","0.0-18.0-0.3","5f59392172042215e00ab069","609a8bf73b2ac84e2732f618","609d7421cc5ac572b61788f5","null","","","","null","","","","key","16.673999999999815","640","344.5","","","","","","","","","","","","","","","","","","","",""
"psychophysics","255","401819","0.0-18.0-1.3","5f59392172042215e00ab069","609a8bf73b2ac84e2732f618","609d7421cc5ac572b61788f5","null","","","","null","","","","key","16.674000000001076","640","344.5","","","","","","","","","","","","","139","1","6","true","","","",""
"psychophysics","256","402117","0.0-18.0-2.3","5f59392172042215e00ab069","609a8bf73b2ac84e2732f618","609d7421cc5ac572b61788f5","295.4749999998603","","","","90","","","","key","16.67399999999907","640","344.5","","","","","","","","","","","","","","","","","","","",""
"psychophysics","257","402936","0.0-18.0-0.4","5f59392172042215e00ab069","609a8bf73b2ac84e2732f618","609d7421cc5ac572b61788f5","null","","","","null","","","","key","16.67400000000028","640","344.5","","","","","","","","","","","","","","","","","","","",""
"psychophysics","258","403440","0.0-18.0-1.4","5f59392172042215e00ab069","609a8bf73b2ac84e2732f618","609d7421cc5ac572b61788f5","null","","","","null","","","","key","16.67399999999907","640","344.5","","","","","","","","","","","","","139","-1","2","true","","","",""
"psychophysics","259","403717","0.0-18.0-2.4","5f59392172042215e00ab069","609a8bf73b2ac84e2732f618","609d7421cc5ac572b61788f5","275.215000000142","","","","77","","","","key","16.674000000002707","640","344.5","","","","","","","","","","","","","","","","","","","",""
"psychophysics","260","404298","0.0-18.0-0.5","5f59392172042215e00ab069","609a8bf73b2ac84e2732f618","609d7421cc5ac572b61788f5","null","","","","null","","","","key","16.67399999999907","640","344.5","","","","","","","","","","","","","","","","","","","",""
"psychophysics","261","404800","0.0-18.0-1.5","5f59392172042215e00ab069","609a8bf73b2ac84e2732f618","609d7421cc5ac572b61788f5","null","","","","null","","","","key","16.685758620691246","640","344.5","","","","","","","","","","","","","139","-1","3","true","","","",""
"psychophysics","262","405554","0.0-18.0-2.5","5f59392172042215e00ab069","609a8bf73b2ac84e2732f618","609d7421cc5ac572b61788f5","752.195000000007","","","","90","","","","key","16.67399999999907","640","344.5","","","","","","","","","","","","","","","","","","","",""
"psychophysics","263","406577","0.0-18.0-0.6","5f59392172042215e00ab069","609a8bf73b2ac84e2732f618","609d7421cc5ac572b61788f5","null","","","","null","","","","key","16.67400000000004","640","344.5","","","","","","","","","","","","","","","","","","","",""
"psychophysics","264","407079","0.0-18.0-1.6","5f59392172042215e00ab069","609a8bf73b2ac84e2732f618","609d7421cc5ac572b61788f5","null","","","","null","","","","key","16.67400000000101","640","344.5","","","","","","","","","","","","","139","-1","0","true","","","",""
"psychophysics","265","407436","0.0-18.0-2.6","5f59392172042215e00ab069","609a8bf73b2ac84e2732f618","609d7421cc5ac572b61788f5","353.0449999998091","","","","90","","","","key","16.67399999999907","640","344.5","","","","","","","","","","","","","","","","","","","",""
"psychophysics","266","408661","0.0-18.0-0.7","5f59392172042215e00ab069","609a8bf73b2ac84e2732f618","609d7421cc5ac572b61788f5","null","","","","null","","","","key","16.67399999999988","640","344.5","","","","","","","","","","","","","","","","","","","",""
"psychophysics","267","409163","0.0-18.0-1.7","5f59392172042215e00ab069","609a8bf73b2ac84e2732f618","609d7421cc5ac572b61788f5","null","","","","null","","","","key","16.674000000001076","640","344.5","","","","","","","","","","","","","139","1","2","true","","","",""
"psychophysics","268","409534","0.0-18.0-2.7","5f59392172042215e00ab069","609a8bf73b2ac84e2732f618","609d7421cc5ac572b61788f5","366.7799999998533","","","","90","","","","key","16.67399999999907","640","344.5","","","","","","","","","","","","","","","","","","","",""
"psychophysics","269","410135","0.0-18.0-0.8","5f59392172042215e00ab069","609a8bf73b2ac84e2732f618","609d7421cc5ac572b61788f5","null","","","","null","","","","key","16.67400000000073","640","344.5","","","","","","","","","","","","","","","","","","","",""
"psychophysics","270","410638","0.0-18.0-1.8","5f59392172042215e00ab069","609a8bf73b2ac84e2732f618","609d7421cc5ac572b61788f5","null","","","","null","","","","key","16.67399999999907","640","344.5","","","","","","","","","","","","","139","1","4","true","","","",""
"psychophysics","271","410902","0.0-18.0-2.8","5f59392172042215e00ab069","609a8bf73b2ac84e2732f618","609d7421cc5ac572b61788f5","262.2149999997346","","","","90","","","","key","16.67399999999907","640","344.5","","","","","","","","","","","","","","","","","","","",""
"psychophysics","272","411927","0.0-18.0-0.9","5f59392172042215e00ab069","609a8bf73b2ac84e2732f618","609d7421cc5ac572b61788f5","null","","","","null","","","","key","16.67400000000004","640","344.5","","","","","","","","","","","","","","","","","","","",""
"psychophysics","273","412430","0.0-18.0-1.9","5f59392172042215e00ab069","609a8bf73b2ac84e2732f618","609d7421cc5ac572b61788f5","null","","","","null","","","","key","16.674000000001076","640","344.5","","","","","","","","","","","","","139","1","3","true","","","",""
"psychophysics","274","412778","0.0-18.0-2.9","5f59392172042215e00ab069","609a8bf73b2ac84e2732f618","609d7421cc5ac572b61788f5","344.0700000001234","","","","77","","","","key","16.67399999999907","640","344.5","","","","","","","","","","","","","","","","","","","",""
"psychophysics","275","413953","0.0-18.0-0.10","5f59392172042215e00ab069","609a8bf73b2ac84e2732f618","609d7421cc5ac572b61788f5","null","","","","null","","","","key","16.6739999999999","640","344.5","","","","","","","","","","","","","","","","","","","",""
"psychophysics","276","414454","0.0-18.0-1.10","5f59392172042215e00ab069","609a8bf73b2ac84e2732f618","609d7421cc5ac572b61788f5","null","","","","null","","","","key","16.674000000001076","640","344.5","","","","","","","","","","","","","139","-1","5","true","","","",""
"psychophysics","277","414874","0.0-18.0-2.10","5f59392172042215e00ab069","609a8bf73b2ac84e2732f618","609d7421cc5ac572b61788f5","417.3100000002887","","","","90","","","","key","16.68841666666655","640","344.5","","","","","","","","","","","","","","","","","","","",""
"psychophysics","278","415450","0.0-18.0-0.11","5f59392172042215e00ab069","609a8bf73b2ac84e2732f618","609d7421cc5ac572b61788f5","null","","","","null","","","","key","16.67399999999907","640","344.5","","","","","","","","","","","","","","","","","","","",""
"psychophysics","279","415954","0.0-18.0-1.11","5f59392172042215e00ab069","609a8bf73b2ac84e2732f618","609d7421cc5ac572b61788f5","null","","","","null","","","","key","16.674000000001076","640","344.5","","","","","","","","","","","","","139","1","0","true","","","",""
"psychophysics","280","416357","0.0-18.0-2.11","5f59392172042215e00ab069","609a8bf73b2ac84e2732f618","609d7421cc5ac572b61788f5","400.83499999990454","","","","90","","","","key","16.67399999999907","640","344.5","","","","","","","","","","","","","","","","","","","",""
"psychophysics","281","417307","0.0-18.0-0.12","5f59392172042215e00ab069","609a8bf73b2ac84e2732f618","609d7421cc5ac572b61788f5","null","","","","null","","","","key","16.67400000000011","640","344.5","","","","","","","","","","","","","","","","","","","",""
"psychophysics","282","417809","0.0-18.0-1.12","5f59392172042215e00ab069","609a8bf73b2ac84e2732f618","609d7421cc5ac572b61788f5","null","","","","null","","","","key","16.674000000001076","640","344.5","","","","","","","","","","","","","139","-1","5","true","","","",""
"psychophysics","283","418374","0.0-18.0-2.12","5f59392172042215e00ab069","609a8bf73b2ac84e2732f618","609d7421cc5ac572b61788f5","562.9050000002026","","","","90","","","","key","16.67399999999907","640","344.5","","","","","","","","","","","","","","","","","","","",""
"psychophysics","284","419483","0.0-18.0-0.13","5f59392172042215e00ab069","609a8bf73b2ac84e2732f618","609d7421cc5ac572b61788f5","null","","","","null","","","","key","16.673999999999964","640","344.5","","","","","","","","","","","","","","","","","","","",""
"psychophysics","285","419985","0.0-18.0-1.13","5f59392172042215e00ab069","609a8bf73b2ac84e2732f618","609d7421cc5ac572b61788f5","null","","","","null","","","","key","16.67400000000101","640","344.5","","","","","","","","","","","","","139","1","4","true","","","",""
"psychophysics","286","420147","0.0-18.0-2.13","5f59392172042215e00ab069","609a8bf73b2ac84e2732f618","609d7421cc5ac572b61788f5","157.47000000008848","","","","90","","","","key","16.67399999999907","640","344.5","","","","","","","","","","","","","","","","","","","",""
"psychophysics","287","421193","0.0-18.0-0.14","5f59392172042215e00ab069","609a8bf73b2ac84e2732f618","609d7421cc5ac572b61788f5","null","","","","null","","","","key","16.674000000000007","640","344.5","","","","","","","","","","","","","","","","","","","",""
"psychophysics","288","421695","0.0-18.0-1.14","5f59392172042215e00ab069","609a8bf73b2ac84e2732f618","609d7421cc5ac572b61788f5","null","","","","null","","","","key","16.67399999999907","640","344.5","","","","","","","","","","","","","139","1","0","true","","","",""
"psychophysics","289","424028","0.0-18.0-2.14","5f59392172042215e00ab069","609a8bf73b2ac84e2732f618","609d7421cc5ac572b61788f5","2329.5400000001537","","","","90","","","","key","16.674000000000326","640","344.5","","","","","","","","","","","","","","","","","","","",""
"psychophysics","290","424573","0.0-18.0-0.15","5f59392172042215e00ab069","609a8bf73b2ac84e2732f618","609d7421cc5ac572b61788f5","null","","","","null","","","","key","16.67399999999907","640","344.5","","","","","","","","","","","","","","","","","","","",""
"psychophysics","291","425075","0.0-18.0-1.15","5f59392172042215e00ab069","609a8bf73b2ac84e2732f618","609d7421cc5ac572b61788f5","null","","","","null","","","","key","16.685724137930986","640","344.5","","","","","","","","","","","","","139","-1","4","true","","","",""
"psychophysics","292","425111","0.0-18.0-2.15","5f59392172042215e00ab069","609a8bf73b2ac84e2732f618","609d7421cc5ac572b61788f5","33.53499999962514","","","","90","","","","key","16.67399999999907","640","344.5","","","","","","","","","","","","","","","","","","","",""
"psychophysics","293","426490","0.0-18.0-0.16","5f59392172042215e00ab069","609a8bf73b2ac84e2732f618","609d7421cc5ac572b61788f5","null","","","","null","","","","key","16.67400000000049","640","344.5","","","","","","","","","","","","","","","","","","","",""
"psychophysics","294","426993","0.0-18.0-1.16","5f59392172042215e00ab069","609a8bf73b2ac84e2732f618","609d7421cc5ac572b61788f5","null","","","","null","","","","key","16.67399999999907","640","344.5","","","","","","","","","","","","","139","1","5","true","","","",""
"psychophysics","295","427612","0.0-18.0-2.16","5f59392172042215e00ab069","609a8bf73b2ac84e2732f618","609d7421cc5ac572b61788f5","617.5450000000419","","","","90","","","","key","16.674000000000685","640","344.5","","","","","","","","","","","","","","","","","","","",""
"psychophysics","296","428386","0.0-18.0-0.17","5f59392172042215e00ab069","609a8bf73b2ac84e2732f618","609d7421cc5ac572b61788f5","null","","","","null","","","","key","16.67399999999907","640","344.5","","","","","","","","","","","","","","","","","","","",""
"psychophysics","297","428902","0.0-18.0-1.17","5f59392172042215e00ab069","609a8bf73b2ac84e2732f618","609d7421cc5ac572b61788f5","null","","","","null","","","","key","16.67400000000101","640","344.5","","","","","","","","","","","","","139","1","3","true","","","",""
"psychophysics","298","431202","0.0-18.0-2.17","5f59392172042215e00ab069","609a8bf73b2ac84e2732f618","609d7421cc5ac572b61788f5","2297.5649999998277","","","","90","","","","key","16.673999999999918","640","344.5","","","","","","","","","","","","","","","","","","","",""
"psychophysics","299","431728","0.0-18.0-0.18","5f59392172042215e00ab069","609a8bf73b2ac84e2732f618","609d7421cc5ac572b61788f5","null","","","","null","","","","key","16.674000000000948","640","344.5","","","","","","","","","","","","","","","","","","","",""
"psychophysics","300","432231","0.0-18.0-1.18","5f59392172042215e00ab069","609a8bf73b2ac84e2732f618","609d7421cc5ac572b61788f5","null","","","","null","","","","key","16.67399999999907","640","344.5","","","","","","","","","","","","","139","-1","2","true","","","",""
"psychophysics","301","432479","0.0-18.0-2.18","5f59392172042215e00ab069","609a8bf73b2ac84e2732f618","609d7421cc5ac572b61788f5","245.70500000030734","","","","77","","","","key","16.67399999999907","640","344.5","","","","","","","","","","","","","","","","","","","",""
"psychophysics","302","433232","0.0-18.0-0.19","5f59392172042215e00ab069","609a8bf73b2ac84e2732f618","609d7421cc5ac572b61788f5","null","","","","null","","","","key","16.67400000000039","640","344.5","","","","","","","","","","","","","","","","","","","",""
"psychophysics","303","433735","0.0-18.0-1.19","5f59392172042215e00ab069","609a8bf73b2ac84e2732f618","609d7421cc5ac572b61788f5","null","","","","null","","","","key","16.674000000001076","640","344.5","","","","","","","","","","","","","139","1","2","true","","","",""
"psychophysics","304","433818","0.0-18.0-2.19","5f59392172042215e00ab069","609a8bf73b2ac84e2732f618","609d7421cc5ac572b61788f5","81.06499999988591","","","","90","","","","key","16.67399999999907","640","344.5","","","","","","","","","","","","","","","","","","","",""
"psychophysics","305","434891","0.0-18.0-0.20","5f59392172042215e00ab069","609a8bf73b2ac84e2732f618","609d7421cc5ac572b61788f5","null","","","","null","","","","key","16.67934920634919","640","344.5","","","","","","","","","","","","","","","","","","","",""
"psychophysics","306","435392","0.0-18.0-1.20","5f59392172042215e00ab069","609a8bf73b2ac84e2732f618","609d7421cc5ac572b61788f5","null","","","","null","","","","key","16.67399999999907","640","344.5","","","","","","","","","","","","","139","-1","3","true","","","",""
"psychophysics","307","435586","0.0-18.0-2.20","5f59392172042215e00ab069","609a8bf73b2ac84e2732f618","609d7421cc5ac572b61788f5","189.65500000008615","","","","90","","","","key","16.67399999999907","640","344.5","","","","","","","","","","","","","","","","","","","",""
"psychophysics","308","436088","0.0-18.0-0.21","5f59392172042215e00ab069","609a8bf73b2ac84e2732f618","609d7421cc5ac572b61788f5","null","","","","null","","","","key","16.674000000001076","640","344.5","","","","","","","","","","","","","","","","","","","",""
"psychophysics","309","436592","0.0-18.0-1.21","5f59392172042215e00ab069","609a8bf73b2ac84e2732f618","609d7421cc5ac572b61788f5","null","","","","null","","","","key","16.67399999999907","640","344.5","","","","","","","","","","","","","139","-1","6","true","","","",""
"psychophysics","310","437002","0.0-18.0-2.21","5f59392172042215e00ab069","609a8bf73b2ac84e2732f618","609d7421cc5ac572b61788f5","408.3699999996461","","","","90","","","","key","16.674000000001495","640","344.5","","","","","","","","","","","","","","","","","","","",""
"psychophysics","311","438361","0.0-18.0-0.22","5f59392172042215e00ab069","609a8bf73b2ac84e2732f618","609d7421cc5ac572b61788f5","null","","","","null","","","","key","16.673999999999786","640","344.5","","","","","","","","","","","","","","","","","","","",""
"psychophysics","312","438865","0.0-18.0-1.22","5f59392172042215e00ab069","609a8bf73b2ac84e2732f618","609d7421cc5ac572b61788f5","null","","","","null","","","","key","16.67399999999907","640","344.5","","","","","","","","","","","","","139","1","6","true","","","",""
"psychophysics","313","439383","0.0-18.0-2.22","5f59392172042215e00ab069","609a8bf73b2ac84e2732f618","609d7421cc5ac572b61788f5","515.8400000000256","","","","90","","","","key","16.67400000000101","640","344.5","","","","","","","","","","","","","","","","","","","",""
"psychophysics","314","440118","0.0-18.0-0.23","5f59392172042215e00ab069","609a8bf73b2ac84e2732f618","609d7421cc5ac572b61788f5","null","","","","null","","","","key","16.674000000000422","640","344.5","","","","","","","","","","","","","","","","","","","",""
"psychophysics","315","440621","0.0-18.0-1.23","5f59392172042215e00ab069","609a8bf73b2ac84e2732f618","609d7421cc5ac572b61788f5","null","","","","null","","","","key","16.67399999999907","640","344.5","","","","","","","","","","","","","139","-1","0","true","","","",""
"psychophysics","316","441151","0.0-18.0-2.23","5f59392172042215e00ab069","609a8bf73b2ac84e2732f618","609d7421cc5ac572b61788f5","527.8349999998463","","","","77","","","","key","16.674000000000948","640","344.5","","","","","","","","","","","","","","","","","","","",""
"psychophysics","317","442610","0.0-18.0-0.24","5f59392172042215e00ab069","609a8bf73b2ac84e2732f618","609d7421cc5ac572b61788f5","null","","","","null","","","","key","16.673999999999747","640","344.5","","","","","","","","","","","","","","","","","","","",""
"psychophysics","318","443113","0.0-18.0-1.24","5f59392172042215e00ab069","609a8bf73b2ac84e2732f618","609d7421cc5ac572b61788f5","null","","","","null","","","","key","16.67400000000101","640","344.5","","","","","","","","","","","","","139","1","6","true","","","",""
"psychophysics","319","443403","0.0-18.0-2.24","5f59392172042215e00ab069","609a8bf73b2ac84e2732f618","609d7421cc5ac572b61788f5","286.2150000000838","","","","90","","","","key","16.67399999999907","640","344.5","","","","","","","","","","","","","","","","","","","",""
"psychophysics","320","444329","0.0-18.0-0.25","5f59392172042215e00ab069","609a8bf73b2ac84e2732f618","609d7421cc5ac572b61788f5","null","","","","null","","","","key","16.674000000000145","640","344.5","","","","","","","","","","","","","","","","","","","",""
"psychophysics","321","444830","0.0-18.0-1.25","5f59392172042215e00ab069","609a8bf73b2ac84e2732f618","609d7421cc5ac572b61788f5","null","","","","null","","","","key","16.685699999999876","640","344.5","","","","","","","","","","","","","139","-1","6","true","","","",""
"psychophysics","322","444923","0.0-18.0-2.25","5f59392172042215e00ab069","609a8bf73b2ac84e2732f618","609d7421cc5ac572b61788f5","87.68499999999767","","","","90","","","","key","16.67399999999907","640","344.5","","","","","","","","","","","","","","","","","","","",""
"psychophysics","323","445470","0.0-18.0-0.26","5f59392172042215e00ab069","609a8bf73b2ac84e2732f618","609d7421cc5ac572b61788f5","null","","","","null","","","","key","16.67399999999907","640","344.5","","","","","","","","","","","","","","","","","","","",""
"psychophysics","324","445972","0.0-18.0-1.26","5f59392172042215e00ab069","609a8bf73b2ac84e2732f618","609d7421cc5ac572b61788f5","null","","","","null","","","","key","16.674000000001076","640","344.5","","","","","","","","","","","","","139","-1","0","true","","","",""
"psychophysics","325","446091","0.0-18.0-2.26","5f59392172042215e00ab069","609a8bf73b2ac84e2732f618","609d7421cc5ac572b61788f5","116.98000000027241","","","","90","","","","key","16.67399999999907","640","344.5","","","","","","","","","","","","","","","","","","","",""
"psychophysics","326","446969","0.0-18.0-0.27","5f59392172042215e00ab069","609a8bf73b2ac84e2732f618","609d7421cc5ac572b61788f5","null","","","","null","","","","key","16.674000000000188","640","344.5","","","","","","","","","","","","","","","","","","","",""
"psychophysics","327","447470","0.0-18.0-1.27","5f59392172042215e00ab069","609a8bf73b2ac84e2732f618","609d7421cc5ac572b61788f5","null","","","","null","","","","key","16.67399999999907","640","344.5","","","","","","","","","","","","","139","1","4","true","","","",""
"psychophysics","328","447972","0.0-18.0-2.27","5f59392172042215e00ab069","609a8bf73b2ac84e2732f618","609d7421cc5ac572b61788f5","500.1099999999278","","","","90","","","","key","16.674000000001076","640","344.5","","","","","","","","","","","","","","","","","","","",""
"psychophysics","329","448784","0.0-18.0-0.28","5f59392172042215e00ab069","609a8bf73b2ac84e2732f618","609d7421cc5ac572b61788f5","null","","","","null","","","","key","16.67400000000028","640","344.5","","","","","","","","","","","","","","","","","","","",""
