"trial_type","trial_index","time_elapsed","internal_node_id","PROLIFIC_PID","STUDY_ID","SESSION_ID","rt","stimulus","button_pressed","success","key_press","responses","isData","view_history","response_type","avg_frame_time","center_x","center_y","isSC","stim_side","trial_luminance","step_size","nReversal","correct","prev_ans","isThreshold","SC_threshold","final_threshold","isLuminance","FF_luminance","luminance","stimSide","ISInt","isFF","question_order","isSPQ","isCAPS","isAQ"
"pavlovia","0","12","0.0-0.0","5a3a570307245d0001fc0692","609a8bf73b2ac84e2732f618","609d747d6d72f3e500d55bc4","","","","","","","","","","","","","","","","","","","","","","","","","","","","","","","",""
"html-button-response","1","10538","0.0-1.0","5a3a570307245d0001fc0692","609a8bf73b2ac84e2732f618","609d747d6d72f3e500d55bc4","10523.285000002943","<div style='background-color: white; width:60%; margin: auto; padding: 50px; text-align: justify; text-justify: inter-word; margin-bottom: 20px;'><h1 style='text-align: center;'>Consent Form</h1><p>Please read this consent form carefully before deciding whether you would like to participate in this study. You have to be 18 years old or older to participate to this study.</p><p style='text-decoration: underline;'>Participation is voluntary:</p><p>It is your choice whether or not to participate in this research. If you choose to participate, you may change your mind and leave the study at any time. Refusal to participate or stopping your participation will involve no penalty or loss of benefits to which you are otherwise entitled.</p><p style='text-decoration: underline;'>Purpose of the Study:</p><p>To understand the mechanisms underlying human perception.</p><p style='text-decoration: underline;'>What you will do in this study:</p><p>You will be presented with a series of visual images and then you will press buttons on the keyboard of your computer to respond to simple questions about the images (e.g. Were one or two images presented?). In addition, you will be asked to complete a questionnaire concerning your beliefs and everyday mental and perceptual experiences.'</p><p style='text-decoration: underline;'> Time Required:</p><p>The study will take 40 minutes to complete. </p><p style='text-decoration: underline;'>Risks:</p><p>There are no anticipated risks associated with participating in this study that are beyond those experienced in everyday life. </p><p style='text-decoration: underline;'>Benefits:</p><p>There are no benefits to you in participating in the study. However, this study may lead to a better understanding of how different kinds of visual information are used.</p><p style='text-decoration: underline;'>Compensation:</p><p>You will be paid US$6.6/hour. </p><p style='text-decoration: underline;'>Privacy and Confidentiality:</p><p>Your participation in this study will be anonymous. No personal information about your name or identity will be asked or recorded. This anonymous data will be stored for several years and may be used for a variety of research purposes. The overall results of the study may be published, or the data files may be shared with other researchers, but your identity will not be revealed in any way. The online services we are using for this study may temporarily store your data, but this data will be downloaded and then promptly deleted from those services.Your data will not be permanently associated with your name, IP address, or any other identifiable information (e.g., your information will only be connected to your payment, not to any of your responses), though they may be temporarily stored together before we download and separate them. Even so, no guarantee of internet survey security can be given because, although unlikely, transmissions can be intercepted and IP addresses can be identified. The anonymous data may be shared publicly (for example, in conjunction with a resulting academic publication).</p><p style='text-decoration: underline;'>Participation and Withdrawal:</p><p>Your participation in this study is completely voluntary. You may stop responding to the stimuli or stop answering questions if you so choose and without penalty by exiting the full screen mode, closing this tab of your browser or redirecting it to a different website.</p><p style='text-decoration: underline;'>Contact Info of the Researcher: </p><p>If you have questions about this study, or if you would like to talk to the research team, please contact David Melcher (david.melcher@nyu.edu, md5050@nyu.edu) at the Perception and Active Cognition Laboratory, New York University Abu Dhabi, Computational Research Building, Saadiyat Island, Abu Dhabi, UAE.This research has been reviewed by the New York University Abu Dhabi Institutional Review Board (NYUAD IRB). To contact about your rights in this research, for questions, suggestions, or complaints that are not addressed by the researchers, please email IRBnyuad@nyu.edu, or call the NYUAD IRB at +971 2 628 4313. </p></div>","0","","","","","","","","","","","","","","","","","","","","","","","","","","","","",""
"fullscreen","2","12568","0.0-2.0","5a3a570307245d0001fc0692","609a8bf73b2ac84e2732f618","609d747d6d72f3e500d55bc4","","","","true","","","","","","","","","","","","","","","","","","","","","","","","","","","",""
"html-keyboard-response","3","28447","0.0-3.0","5a3a570307245d0001fc0692","609a8bf73b2ac84e2732f618","609d747d6d72f3e500d55bc4","15877.285000009579","<p>Welcome !</p><p>READ CAREFULLY THE FOLLOWING INDICATIONS:</p><p>From this moment you have ~40 minutes to complete the experiment.</p><p>During the experiment you will be prompted to take several breaks. Each break should not last longer than 2-3 minutes.</p><p>Make sure that your computer is plugged in and it's not running on battery power, even if the battery is already fully charged.</p><p>Turn off your phone and music, make sure that you are in a quiet room and that you will not be distracted for the next hour.</p><p>Failure to comply with the instructions and indications provided during the experiment will most likely result in the rejection of your data.<p>Press the spacebar to start.</p>","","","32","","","","","","","","","","","","","","","","","","","","","","","","","","",""
"survey-html-form","4","36665","0.0-4.0","5a3a570307245d0001fc0692","609a8bf73b2ac84e2732f618","609d747d6d72f3e500d55bc4","8215.335000000778","","","","","{""age"":""48"",""sex"":""M""}","true","","","","","","","","","","","","","","","","","","","","","","","","",""
"instructions","5","95160","0.0-5.0","5a3a570307245d0001fc0692","609a8bf73b2ac84e2732f618","609d747d6d72f3e500d55bc4","58494.800000000396","","","","","","","[{""page_index"":0,""viewing_time"":27110.855000006268},{""page_index"":1,""viewing_time"":3231.914999996661},{""page_index"":0,""viewing_time"":2967.595000009169},{""page_index"":1,""viewing_time"":15944.015000000945},{""page_index"":2,""viewing_time"":9239.999999990687}]","","","","","","","","","","","","","","","","","","","","","","","",""
"psychophysics","6","97042","0.0-6.0-0.0","5a3a570307245d0001fc0692","609a8bf73b2ac84e2732f618","609d747d6d72f3e500d55bc4","858.4249999985332","","","","37","","","","key","16.81416964285719","960","484.5","true","-1","180","30","0","-1","","","","","","","","","","","","","",""
"psychophysics","7","98212","0.0-6.0-0.1","5a3a570307245d0001fc0692","609a8bf73b2ac84e2732f618","609d747d6d72f3e500d55bc4","156.6400000010617","","","","39","","","","key","16.666913043478363","960","484.5","true","1","180","30","0","-1","-1","","","","","","","","","","","","",""
"psychophysics","8","99324","0.0-6.0-0.2","5a3a570307245d0001fc0692","609a8bf73b2ac84e2732f618","609d747d6d72f3e500d55bc4","103.11999999976251","","","","37","","","","key","16.666303030302956","960","484.5","true","-1","150","30","0","-1","-1","","","","","","","","","","","","",""
"psychophysics","9","100797","0.0-6.0-0.3","5a3a570307245d0001fc0692","609a8bf73b2ac84e2732f618","609d747d6d72f3e500d55bc4","465.33499998622574","","","","37","","","","key","16.667022988505778","960","484.5","true","-1","150","30","0","-1","-1","","","","","","","","","","","","",""
"psychophysics","10","105589","0.0-6.0-0.4","5a3a570307245d0001fc0692","609a8bf73b2ac84e2732f618","609d747d6d72f3e500d55bc4","3783.884999997099","","","","39","","","","key","16.66658885017422","960","484.5","true","1","129","30","0","-1","-1","","","","","","","","","","","","",""
"psychophysics","11","109973","0.0-6.0-0.5","5a3a570307245d0001fc0692","609a8bf73b2ac84e2732f618","609d747d6d72f3e500d55bc4","3376.8750000017462","","","","39","","","","key","16.666206106870238","960","484.5","true","-1","129","24","1","1","-1","","","","","","","","","","","","",""
"psychophysics","12","111612","0.0-6.0-0.6","5a3a570307245d0001fc0692","609a8bf73b2ac84e2732f618","609d747d6d72f3e500d55bc4","633.430000001681","","","","37","","","","key","16.666690721649577","960","484.5","true","-1","153","24","1","-1","1","","","","","","","","","","","","",""
"psychophysics","13","113188","0.0-6.0-0.7","5a3a570307245d0001fc0692","609a8bf73b2ac84e2732f618","609d747d6d72f3e500d55bc4","574.4649999978719","","","","39","","","","key","16.664712765957525","960","484.5","true","1","153","19.2","2","-1","-1","","","","","","","","","","","","",""
"psychophysics","14","115692","0.0-6.0-0.8","5a3a570307245d0001fc0692","609a8bf73b2ac84e2732f618","609d747d6d72f3e500d55bc4","1487.3649999935878","","","","39","","","","key","16.66705369127519","960","484.5","true","1","133.8","19.2","2","-1","-1","","","","","","","","","","","","",""
"psychophysics","15","118041","0.0-6.0-0.9","5a3a570307245d0001fc0692","609a8bf73b2ac84e2732f618","609d747d6d72f3e500d55bc4","1345.499999995809","","","","39","","","","key","16.665914285714305","960","484.5","true","-1","133.8","15.36","3","1","-1","","","","","","","","","","","","",""
"psychophysics","16","119689","0.0-6.0-0.10","5a3a570307245d0001fc0692","609a8bf73b2ac84e2732f618","609d747d6d72f3e500d55bc4","644.9100000027101","","","","39","","","","key","16.666775510204054","960","484.5","true","1","149.16000000000003","15.36","3","-1","1","","","","","","","","","","","","",""
"psychophysics","17","121057","0.0-6.0-0.11","5a3a570307245d0001fc0692","609a8bf73b2ac84e2732f618","609d747d6d72f3e500d55bc4","365.17999999341555","","","","37","","","","key","16.6655185185186","960","484.5","true","-1","149.16000000000003","12.287999999999998","4","-1","-1","","","","","","","","","","","","",""
"psychophysics","18","122444","0.0-6.0-0.12","5a3a570307245d0001fc0692","609a8bf73b2ac84e2732f618","609d747d6d72f3e500d55bc4","380.9599999949569","","","","37","","","","key","16.666085365853554","960","484.5","true","-1","136.872","12.287999999999998","4","-1","-1","","","","","","","","","","","","",""
"psychophysics","19","123805","0.0-6.0-0.13","5a3a570307245d0001fc0692","609a8bf73b2ac84e2732f618","609d747d6d72f3e500d55bc4","359.66499999631196","","","","39","","","","key","16.6654444444446","960","484.5","true","1","136.872","12.287999999999998","4","-1","-1","","","","","","","","","","","","",""
"psychophysics","20","126245","0.0-6.0-0.14","5a3a570307245d0001fc0692","609a8bf73b2ac84e2732f618","609d747d6d72f3e500d55bc4","1432.7699999994365","","","","37","","","","key","16.66576551724133","960","484.5","true","1","129","9.8304","5","1","-1","","","","","","","","","","","","",""
"psychophysics","21","128022","0.0-6.0-0.15","5a3a570307245d0001fc0692","609a8bf73b2ac84e2732f618","609d747d6d72f3e500d55bc4","766.3100000063423","","","","37","","","","key","16.665018867924513","960","484.5","true","-1","138.8304","9.8304","5","-1","1","","","","","","","","","","","","",""
"psychophysics","22","129688","0.0-6.0-0.16","5a3a570307245d0001fc0692","609a8bf73b2ac84e2732f618","609d747d6d72f3e500d55bc4","659.1199999966193","","","","37","","","","key","16.667414141414074","960","484.5","true","-1","138.8304","7.864319999999999","6","-1","-1","","","","","","","","","","","","",""
"psychophysics","23","131638","0.0-6.0-0.17","5a3a570307245d0001fc0692","609a8bf73b2ac84e2732f618","609d747d6d72f3e500d55bc4","941.8599999917205","","","","39","","","","key","16.667353448275865","960","484.5","true","1","130.96608","7.864319999999999","6","-1","-1","","","","","","","","","","","","",""
"psychophysics","24","133672","0.0-6.0-0.18","5a3a570307245d0001fc0692","609a8bf73b2ac84e2732f618","609d747d6d72f3e500d55bc4","1026.4749999914784","","","","39","","","","key","16.66681818181816","960","484.5","true","-1","130.96608","6.291456","7","1","-1","","","","","","","","","","","","",""
"psychophysics","25","135288","0.0-6.0-0.19","5a3a570307245d0001fc0692","609a8bf73b2ac84e2732f618","609d747d6d72f3e500d55bc4","608.7949999928242","","","","39","","","","key","16.664874999999785","960","484.5","true","1","137.25753600000002","6.291456","7","-1","1","","","","","","","","","","","","",""
"psychophysics","26","136922","0.0-6.0-0.20","5a3a570307245d0001fc0692","609a8bf73b2ac84e2732f618","609d747d6d72f3e500d55bc4","627.0050000021001","","","","37","","","","key","16.66767010309274","960","484.5","true","-1","137.25753600000002","5.033164800000001","8","-1","-1","","","","","","","","","","","","",""
"psychophysics","27","138756","0.0-6.0-0.21","5a3a570307245d0001fc0692","609a8bf73b2ac84e2732f618","609d747d6d72f3e500d55bc4","827.9900000052294","","","","37","","","","key","16.667229357798192","960","484.5","true","1","132.2243712","4.0265318400000005","9","1","-1","","","","","","","","","","","","",""
"psychophysics","28","140356","0.0-6.0-0.22","5a3a570307245d0001fc0692","609a8bf73b2ac84e2732f618","609d747d6d72f3e500d55bc4","596.3200000114739","","","","39","","","","key","16.665978947368536","960","484.5","true","1","136.25090304","4.0265318400000005","9","-1","1","","","","","","","","","","","","",""
"psychophysics","29","141860","0.0-6.0-0.23","5a3a570307245d0001fc0692","609a8bf73b2ac84e2732f618","609d747d6d72f3e500d55bc4","497.8149999951711","","","","39","","","","key","16.66731460674161","960","484.5","true","1","136.25090304","3.2212254720000004","10","-1","-1","","","","","","","","","","","","",""
"psychophysics","30","144476","0.0-6.0-0.24","5a3a570307245d0001fc0692","609a8bf73b2ac84e2732f618","609d747d6d72f3e500d55bc4","1605.9949999907985","","","","39","","","","key","16.665903846153807","960","484.5","true","-1","133.029677568","2.5769803776000004","11","1","-1","","","","","","","","","","","","",""
"psychophysics","31","146007","0.0-6.0-0.25","5a3a570307245d0001fc0692","609a8bf73b2ac84e2732f618","609d747d6d72f3e500d55bc4","528.3300000010058","","","","37","","","","key","16.666153846153794","960","484.5","true","-1","135.6066579456","2.5769803776000004","11","-1","1","","","","","","","","","","","","",""
"psychophysics","32","147588","0.0-6.0-0.26","5a3a570307245d0001fc0692","609a8bf73b2ac84e2732f618","609d747d6d72f3e500d55bc4","577.6350000087405","","","","37","","","","key","16.667276595744855","960","484.5","true","-1","135.6066579456","2.0615843020800004","12","-1","-1","","","","","","","","","","","","",""
"psychophysics","33","150124","0.0-6.0-0.27","5a3a570307245d0001fc0692","609a8bf73b2ac84e2732f618","609d747d6d72f3e500d55bc4","1527.9000000009546","","","","37","","","","key","16.66628476821209","960","484.5","true","-1","133.54507364352","2.0615843020800004","12","-1","-1","","","","","","","","","","","","",""
"psychophysics","34","152621","0.0-6.0-0.28","5a3a570307245d0001fc0692","609a8bf73b2ac84e2732f618","609d747d6d72f3e500d55bc4","1493.6950000119396","","","","37","","","","key","16.66637583892623","960","484.5","true","1","133.54507364352","1.6492674416640005","13","1","-1","","","","","","","","","","","","",""
"psychophysics","35","154271","0.0-6.0-0.29","5a3a570307245d0001fc0692","609a8bf73b2ac84e2732f618","609d747d6d72f3e500d55bc4","643.0050000053598","","","","39","","","","key","16.66602040816316","960","484.5","true","1","135.194341085184","1.6492674416640005","13","-1","1","","","","","","","","","","","","",""
"psychophysics","36","155861","0.0-6.0-0.30","5a3a570307245d0001fc0692","609a8bf73b2ac84e2732f618","609d747d6d72f3e500d55bc4","581.8850000068778","","","","37","","","","key","16.6670106382978","960","484.5","true","-1","135.194341085184","1.3194139533312006","14","-1","-1","","","","","","","","","","","","",""
"psychophysics","37","157476","0.0-6.0-0.31","5a3a570307245d0001fc0692","609a8bf73b2ac84e2732f618","609d747d6d72f3e500d55bc4","605.4650000005495","","","","37","","","","key","16.665500000000065","960","484.5","true","-1","133.8749271318528","1.3194139533312006","14","-1","-1","","","","","","","","","","","","",""
"psychophysics","38","159587","0.0-6.0-0.32","5a3a570307245d0001fc0692","609a8bf73b2ac84e2732f618","609d747d6d72f3e500d55bc4","1109.6550000074785","","","","37","","","","key","16.666452380952368","960","484.5","true","1","133.8749271318528","1.0555311626649604","15","1","-1","","","","","","","","","","","","",""
"psychophysics","39","161271","0.0-6.0-0.33","5a3a570307245d0001fc0692","609a8bf73b2ac84e2732f618","609d747d6d72f3e500d55bc4","675.665000002482","","","","37","","","","key","16.664989999999815","960","484.5","true","-1","134.93045829451773","1.0555311626649604","15","-1","1","","","","","","","","","","","","",""
"psychophysics","40","162957","0.0-6.0-0.34","5a3a570307245d0001fc0692","609a8bf73b2ac84e2732f618","609d747d6d72f3e500d55bc4","678.8850000011735","","","","39","","","","key","16.66686999999976","960","484.5","true","1","134.93045829451773","1","16","-1","-1","","","","","","","","","","","","",""
"psychophysics","41","165804","0.0-6.0-0.35","5a3a570307245d0001fc0692","609a8bf73b2ac84e2732f618","609d747d6d72f3e500d55bc4","1843.2800000009593","","","","37","","","","key","16.666929411764688","960","484.5","true","1","133.93045829451773","1","17","1","-1","","","","","","","","","","","","",""
"psychophysics","42","168521","0.0-6.0-0.36","5a3a570307245d0001fc0692","609a8bf73b2ac84e2732f618","609d747d6d72f3e500d55bc4","1709.0599999937695","","","","39","","","","key","16.666123456790015","960","484.5","true","-1","134.93045829451773","1","17","1","1","","","","","","","","","","","","",""
"psychophysics","43","170156","0.0-6.0-0.37","5a3a570307245d0001fc0692","609a8bf73b2ac84e2732f618","609d747d6d72f3e500d55bc4","628.5099999950035","","","","39","","","","key","16.664793814433146","960","484.5","true","1","135.93045829451773","1","17","-1","1","","","","","","","","","","","","",""
"psychophysics","44","171805","0.0-6.0-0.38","5a3a570307245d0001fc0692","609a8bf73b2ac84e2732f618","609d747d6d72f3e500d55bc4","643.9500000124099","","","","39","","","","key","16.665683673469324","960","484.5","true","1","135.93045829451773","1","18","-1","-1","","","","","","","","","","","","",""
"psychophysics","45","173354","0.0-6.0-0.39","5a3a570307245d0001fc0692","609a8bf73b2ac84e2732f618","609d747d6d72f3e500d55bc4","544.9200000002747","","","","39","","","","key","16.66566304347836","960","484.5","true","1","134.93045829451773","1","18","-1","-1","","","","","","","","","","","","",""
"html-keyboard-response","46","179429","0.0-7.0","5a3a570307245d0001fc0692","609a8bf73b2ac84e2732f618","609d747d6d72f3e500d55bc4","6073.12999998976","<p>Well Done !</p><p>Prepare for a new block.</p><p>DON'T EXIT THE FULL SCREEN MODE</p><p>Press the Spacebar to start.</p>","","","32","","","","","","","","","","","","","","","true","134.7970138449292","","","","","","","","","","",""
"psychophysics","47","180704","0.0-8.0-0.0","5a3a570307245d0001fc0692","609a8bf73b2ac84e2732f618","609d747d6d72f3e500d55bc4","267.4249999981839","","","","39","","","","key","16.888786666666856","960","484.5","true","1","180","30","0","-1","","","","","","","","","","","","","",""
"psychophysics","48","181908","0.0-8.0-0.1","5a3a570307245d0001fc0692","609a8bf73b2ac84e2732f618","609d747d6d72f3e500d55bc4","197.2399999940535","","","","39","","","","key","16.66653521126751","960","484.5","true","1","180","30","0","-1","-1","","","","","","","","","","","","",""
"psychophysics","49","182988","0.0-8.0-0.2","5a3a570307245d0001fc0692","609a8bf73b2ac84e2732f618","609d747d6d72f3e500d55bc4","76.60000000032596","","","","37","","","","key","16.667171874999894","960","484.5","true","-1","150","30","0","-1","-1","","","","","","","","","","","","",""
"psychophysics","50","184037","0.0-8.0-0.3","5a3a570307245d0001fc0692","609a8bf73b2ac84e2732f618","609d747d6d72f3e500d55bc4","43.70000000926666","","","","39","","","","key","16.66766129032241","960","484.5","true","1","150","30","0","-1","-1","","","","","","","","","","","","",""
"psychophysics","51","185919","0.0-8.0-0.4","5a3a570307245d0001fc0692","609a8bf73b2ac84e2732f618","609d747d6d72f3e500d55bc4","874.0950000064913","","","","37","","","","key","16.66647321428562","960","484.5","true","1","129","24","1","1","-1","","","","","","","","","","","","",""
"psychophysics","52","187444","0.0-8.0-0.5","5a3a570307245d0001fc0692","609a8bf73b2ac84e2732f618","609d747d6d72f3e500d55bc4","518.0099999997765","","","","37","","","","key","16.666522222222152","960","484.5","true","-1","153","24","1","-1","1","","","","","","","","","","","","",""
"psychophysics","53","188887","0.0-8.0-0.6","5a3a570307245d0001fc0692","609a8bf73b2ac84e2732f618","609d747d6d72f3e500d55bc4","433.80999998771586","","","","37","","","","key","16.666267441860793","960","484.5","true","-1","153","19.2","2","-1","-1","","","","","","","","","","","","",""
"psychophysics","54","190524","0.0-8.0-0.7","5a3a570307245d0001fc0692","609a8bf73b2ac84e2732f618","609d747d6d72f3e500d55bc4","630.5149999971036","","","","39","","","","key","16.66586597938152","960","484.5","true","1","133.8","19.2","2","-1","-1","","","","","","","","","","","","",""
"psychophysics","55","192088","0.0-8.0-0.8","5a3a570307245d0001fc0692","609a8bf73b2ac84e2732f618","609d747d6d72f3e500d55bc4","559.6499999955995","","","","39","","","","key","16.666397849462427","960","484.5","true","1","133.8","19.2","2","-1","-1","","","","","","","","","","","","",""
"psychophysics","56","194272","0.0-8.0-0.9","5a3a570307245d0001fc0692","609a8bf73b2ac84e2732f618","609d747d6d72f3e500d55bc4","1177.7900000015507","","","","39","","","","key","16.666276923076992","960","484.5","true","1","129","19.2","2","-1","-1","","","","","","","","","","","","",""
"psychophysics","57","196087","0.0-8.0-0.10","5a3a570307245d0001fc0692","609a8bf73b2ac84e2732f618","609d747d6d72f3e500d55bc4","810.9499999991385","","","","39","","","","key","16.666166666666633","960","484.5","true","1","129","19.2","2","-1","-1","","","","","","","","","","","","",""
"psychophysics","58","198206","0.0-8.0-0.11","5a3a570307245d0001fc0692","609a8bf73b2ac84e2732f618","609d747d6d72f3e500d55bc4","1113.275000010617","","","","39","","","","key","16.66635999999987","960","484.5","true","-1","129","15.36","3","1","-1","","","","","","","","","","","","",""
"psychophysics","59","199720","0.0-8.0-0.12","5a3a570307245d0001fc0692","609a8bf73b2ac84e2732f618","609d747d6d72f3e500d55bc4","509.87500000337604","","","","37","","","","key","16.666835164835174","960","484.5","true","-1","144.36","15.36","3","-1","1","","","","","","","","","","","","",""
"psychophysics","60","201172","0.0-8.0-0.13","5a3a570307245d0001fc0692","609a8bf73b2ac84e2732f618","609d747d6d72f3e500d55bc4","447.9949999949895","","","","37","","","","key","16.66582558139533","960","484.5","true","-1","144.36","12.287999999999998","4","-1","-1","","","","","","","","","","","","",""
"psychophysics","61","202986","0.0-8.0-0.14","5a3a570307245d0001fc0692","609a8bf73b2ac84e2732f618","609d747d6d72f3e500d55bc4","808.7499999965075","","","","39","","","","key","16.666148148148043","960","484.5","true","1","132.072","12.287999999999998","4","-1","-1","","","","","","","","","","","","",""
"psychophysics","62","205554","0.0-8.0-0.15","5a3a570307245d0001fc0692","609a8bf73b2ac84e2732f618","609d747d6d72f3e500d55bc4","1559.5099999918602","","","","39","","","","key","16.66619607843147","960","484.5","true","1","132.072","12.287999999999998","4","-1","-1","","","","","","","","","","","","",""
"psychophysics","63","208404","0.0-8.0-0.16","5a3a570307245d0001fc0692","609a8bf73b2ac84e2732f618","609d747d6d72f3e500d55bc4","1843.4549999947194","","","","39","","","","key","16.665935294117663","960","484.5","true","1","129","12.287999999999998","4","-1","-1","","","","","","","","","","","","",""
"psychophysics","64","210387","0.0-8.0-0.17","5a3a570307245d0001fc0692","609a8bf73b2ac84e2732f618","609d747d6d72f3e500d55bc4","977.7849999954924","","","","37","","","","key","16.66595762711851","960","484.5","true","-1","129","12.287999999999998","4","-1","-1","","","","","","","","","","","","",""
"psychophysics","65","212138","0.0-8.0-0.18","5a3a570307245d0001fc0692","609a8bf73b2ac84e2732f618","609d747d6d72f3e500d55bc4","744.9049999995623","","","","37","","","","key","16.666086538461407","960","484.5","true","-1","129","12.287999999999998","4","-1","-1","","","","","","","","","","","","",""
"psychophysics","66","214137","0.0-8.0-0.19","5a3a570307245d0001fc0692","609a8bf73b2ac84e2732f618","609d747d6d72f3e500d55bc4","996.2799999921117","","","","37","","","","key","16.6660588235294","960","484.5","true","1","129","9.8304","5","1","-1","","","","","","","","","","","","",""
"psychophysics","67","215669","0.0-8.0-0.20","5a3a570307245d0001fc0692","609a8bf73b2ac84e2732f618","609d747d6d72f3e500d55bc4","525.1600000046892","","","","37","","","","key","16.66749450549449","960","484.5","true","-1","138.8304","9.8304","5","-1","1","","","","","","","","","","","","",""
"psychophysics","68","217124","0.0-8.0-0.21","5a3a570307245d0001fc0692","609a8bf73b2ac84e2732f618","609d747d6d72f3e500d55bc4","447.11500000266824","","","","37","","","","key","16.66768604651165","960","484.5","true","-1","138.8304","7.864319999999999","6","-1","-1","","","","","","","","","","","","",""
"psychophysics","69","218924","0.0-8.0-0.22","5a3a570307245d0001fc0692","609a8bf73b2ac84e2732f618","609d747d6d72f3e500d55bc4","796.940000000177","","","","39","","","","key","16.66650467289739","960","484.5","true","1","130.96608","7.864319999999999","6","-1","-1","","","","","","","","","","","","",""
"psychophysics","70","221020","0.0-8.0-0.23","5a3a570307245d0001fc0692","609a8bf73b2ac84e2732f618","609d747d6d72f3e500d55bc4","1093.8199999945937","","","","37","","","","key","16.666888000000036","960","484.5","true","1","130.96608","6.291456","7","1","-1","","","","","","","","","","","","",""
"psychophysics","71","222518","0.0-8.0-0.24","5a3a570307245d0001fc0692","609a8bf73b2ac84e2732f618","609d747d6d72f3e500d55bc4","492.035000002943","","","","37","","","","key","16.665921348314523","960","484.5","true","-1","137.25753600000002","6.291456","7","-1","1","","","","","","","","","","","","",""
"psychophysics","72","223985","0.0-8.0-0.25","5a3a570307245d0001fc0692","609a8bf73b2ac84e2732f618","609d747d6d72f3e500d55bc4","458.1249999901047","","","","37","","","","key","16.665620689655334","960","484.5","true","-1","137.25753600000002","5.033164800000001","8","-1","-1","","","","","","","","","","","","",""
"psychophysics","73","226152","0.0-8.0-0.26","5a3a570307245d0001fc0692","609a8bf73b2ac84e2732f618","609d747d6d72f3e500d55bc4","1159.8099999973783","","","","39","","","","key","16.66617829457346","960","484.5","true","1","132.2243712","5.033164800000001","8","-1","-1","","","","","","","","","","","","",""
"psychophysics","74","228237","0.0-8.0-0.27","5a3a570307245d0001fc0692","609a8bf73b2ac84e2732f618","609d747d6d72f3e500d55bc4","1080.0449999951525","","","","37","","","","key","16.666040322580468","960","484.5","true","-1","132.2243712","5.033164800000001","8","-1","-1","","","","","","","","","","","","",""
"psychophysics","75","229852","0.0-8.0-0.28","5a3a570307245d0001fc0692","609a8bf73b2ac84e2732f618","609d747d6d72f3e500d55bc4","609.550000008312","","","","37","","","","key","16.666635416666697","960","484.5","true","-1","129","5.033164800000001","8","-1","-1","","","","","","","","","","","","",""
"psychophysics","76","232324","0.0-8.0-0.29","5a3a570307245d0001fc0692","609a8bf73b2ac84e2732f618","609d747d6d72f3e500d55bc4","1464.0249999938533","","","","37","","","","key","16.66600680272103","960","484.5","true","1","129","4.0265318400000005","9","1","-1","","","","","","","","","","","","",""
"psychophysics","77","234403","0.0-8.0-0.30","5a3a570307245d0001fc0692","609a8bf73b2ac84e2732f618","609d747d6d72f3e500d55bc4","1067.8699999989476","","","","37","","","","key","16.80197560975595","960","484.5","true","-1","133.02653184","4.0265318400000005","9","-1","1","","","","","","","","","","","","",""
"psychophysics","78","236125","0.0-8.0-0.31","5a3a570307245d0001fc0692","609a8bf73b2ac84e2732f618","609d747d6d72f3e500d55bc4","717.2649999993155","","","","37","","","","key","16.667441176470568","960","484.5","true","-1","133.02653184","3.2212254720000004","10","-1","-1","","","","","","","","","","","","",""
"psychophysics","79","237884","0.0-8.0-0.32","5a3a570307245d0001fc0692","609a8bf73b2ac84e2732f618","609d747d6d72f3e500d55bc4","757.9249999980675","","","","37","","","","key","16.666152380952344","960","484.5","true","1","129.805306368","2.5769803776000004","11","1","-1","","","","","","","","","","","","",""
"psychophysics","80","239652","0.0-8.0-0.33","5a3a570307245d0001fc0692","609a8bf73b2ac84e2732f618","609d747d6d72f3e500d55bc4","758.5850000032224","","","","37","","","","key","16.665742857142774","960","484.5","true","1","132.3822867456","2.5769803776000004","11","1","1","","","","","","","","","","","","",""
"psychophysics","81","241386","0.0-8.0-0.34","5a3a570307245d0001fc0692","609a8bf73b2ac84e2732f618","609d747d6d72f3e500d55bc4","730.9300000051735","","","","37","","","","key","16.665553398058215","960","484.5","true","1","134.9592671232","2.5769803776000004","11","1","1","","","","","","","","","","","","",""
"psychophysics","82","242886","0.0-8.0-0.35","5a3a570307245d0001fc0692","609a8bf73b2ac84e2732f618","609d747d6d72f3e500d55bc4","494.48999999731313","","","","39","","","","key","16.667797752809083","960","484.5","true","1","137.5362475008","2.5769803776000004","11","-1","1","","","","","","","","","","","","",""
"psychophysics","83","244386","0.0-8.0-0.36","5a3a570307245d0001fc0692","609a8bf73b2ac84e2732f618","609d747d6d72f3e500d55bc4","494.73500000021886","","","","37","","","","key","16.665617977527987","960","484.5","true","-1","137.5362475008","2.0615843020800004","12","-1","-1","","","","","","","","","","","","",""
"psychophysics","84","246708","0.0-8.0-0.37","5a3a570307245d0001fc0692","609a8bf73b2ac84e2732f618","609d747d6d72f3e500d55bc4","1315.0649999879533","","","","37","","","","key","16.666463768116007","960","484.5","true","-1","135.47466319871998","2.0615843020800004","12","-1","-1","","","","","","","","","","","","",""
"psychophysics","85","248403","0.0-8.0-0.38","5a3a570307245d0001fc0692","609a8bf73b2ac84e2732f618","609d747d6d72f3e500d55bc4","686.214999994263","","","","39","","","","key","16.666188118811917","960","484.5","true","-1","135.47466319871998","1.6492674416640005","13","1","-1","","","","","","","","","","","","",""
"psychophysics","86","250620","0.0-8.0-0.39","5a3a570307245d0001fc0692","609a8bf73b2ac84e2732f618","609d747d6d72f3e500d55bc4","1210.5000000010477","","","","39","","","","key","16.667204545454517","960","484.5","true","-1","137.12393064038397","1.6492674416640005","13","1","1","","","","","","","","","","","","",""
"html-keyboard-response","87","254653","0.0-9.0","5a3a570307245d0001fc0692","609a8bf73b2ac84e2732f618","609d747d6d72f3e500d55bc4","4031.199999997625","<p>Well Done !</p><p>Prepare for a new block.</p><p>DON'T EXIT THE FULL SCREEN MODE</p><p>Press the Spacebar to start.</p>","","","32","","","","","","","","","","","","","","","true","133.7367969570816","","","","","","","","","","",""
"psychophysics","88","255818","0.0-10.0-0.0","5a3a570307245d0001fc0692","609a8bf73b2ac84e2732f618","609d747d6d72f3e500d55bc4","159.0649999998277","","","","39","","","","key","16.908753623188375","960","484.5","true","1","180","30","0","-1","","","","","","","","","","","","","",""
"psychophysics","89","257020","0.0-10.0-0.1","5a3a570307245d0001fc0692","609a8bf73b2ac84e2732f618","609d747d6d72f3e500d55bc4","198.74500000150874","","","","37","","","","key","16.666084507042477","960","484.5","true","-1","180","30","0","-1","-1","","","","","","","","","","","","",""
"psychophysics","90","258455","0.0-10.0-0.2","5a3a570307245d0001fc0692","609a8bf73b2ac84e2732f618","609d747d6d72f3e500d55bc4","429.5550000097137","","","","37","","","","key","16.66581176470602","960","484.5","true","-1","150","30","0","-1","-1","","","","","","","","","","","","",""
"psychophysics","91","259886","0.0-10.0-0.3","5a3a570307245d0001fc0692","609a8bf73b2ac84e2732f618","609d747d6d72f3e500d55bc4","427.34499998914544","","","","37","","","","key","16.665894117647003","960","484.5","true","-1","150","30","0","-1","-1","","","","","","","","","","","","",""
"psychophysics","92","262734","0.0-10.0-0.4","5a3a570307245d0001fc0692","609a8bf73b2ac84e2732f618","609d747d6d72f3e500d55bc4","1841.840000008233","","","","37","","","","key","16.666211764705846","960","484.5","true","1","129","24","1","1","-1","","","","","","","","","","","","",""
"psychophysics","93","264236","0.0-10.0-0.5","5a3a570307245d0001fc0692","609a8bf73b2ac84e2732f618","609d747d6d72f3e500d55bc4","494.74999999802094","","","","39","","","","key","16.66552808988719","960","484.5","true","1","153","24","1","-1","1","","","","","","","","","","","","",""
"psychophysics","94","265836","0.0-10.0-0.6","5a3a570307245d0001fc0692","609a8bf73b2ac84e2732f618","609d747d6d72f3e500d55bc4","593.9149999903748","","","","39","","","","key","16.666652631578895","960","484.5","true","1","153","19.2","2","-1","-1","","","","","","","","","","","","",""
"psychophysics","95","268172","0.0-10.0-0.7","5a3a570307245d0001fc0692","609a8bf73b2ac84e2732f618","609d747d6d72f3e500d55bc4","1330.9000000008382","","","","39","","","","key","16.665625899280975","960","484.5","true","-1","133.8","15.36","3","1","-1","","","","","","","","","","","","",""
"psychophysics","96","269604","0.0-10.0-0.8","5a3a570307245d0001fc0692","609a8bf73b2ac84e2732f618","609d747d6d72f3e500d55bc4","428.0750000034459","","","","37","","","","key","16.665035294117544","960","484.5","true","-1","149.16000000000003","15.36","3","-1","1","","","","","","","","","","","","",""
"psychophysics","97","271033","0.0-10.0-0.9","5a3a570307245d0001fc0692","609a8bf73b2ac84e2732f618","609d747d6d72f3e500d55bc4","427.2400000045309","","","","37","","","","key","16.66543529411737","960","484.5","true","-1","149.16000000000003","12.287999999999998","4","-1","-1","","","","","","","","","","","","",""
"psychophysics","98","272588","0.0-10.0-0.10","5a3a570307245d0001fc0692","609a8bf73b2ac84e2732f618","609d747d6d72f3e500d55bc4","545.7849999947939","","","","37","","","","key","16.66578260869542","960","484.5","true","-1","136.872","12.287999999999998","4","-1","-1","","","","","","","","","","","","",""
"psychophysics","99","273988","0.0-10.0-0.11","5a3a570307245d0001fc0692","609a8bf73b2ac84e2732f618","609d747d6d72f3e500d55bc4","395.5299999943236","","","","39","","","","key","16.666975903614418","960","484.5","true","1","136.872","12.287999999999998","4","-1","-1","","","","","","","","","","","","",""
"psychophysics","100","275939","0.0-10.0-0.12","5a3a570307245d0001fc0692","609a8bf73b2ac84e2732f618","609d747d6d72f3e500d55bc4","947.3900000011781","","","","39","","","","key","16.66651724137974","960","484.5","true","1","129","12.287999999999998","4","-1","-1","","","","","","","","","","","","",""
"psychophysics","101","278067","0.0-10.0-0.13","5a3a570307245d0001fc0692","609a8bf73b2ac84e2732f618","609d747d6d72f3e500d55bc4","1125.8850000012899","","","","37","","","","key","16.666551181102378","960","484.5","true","1","129","9.8304","5","1","-1","","","","","","","","","","","","",""
"psychophysics","102","279620","0.0-10.0-0.14","5a3a570307245d0001fc0692","609a8bf73b2ac84e2732f618","609d747d6d72f3e500d55bc4","546.0849999944912","","","","37","","","","key","16.666478260869475","960","484.5","true","-1","138.8304","9.8304","5","-1","1","","","","","","","","","","","","",""
"psychophysics","103","281139","0.0-10.0-0.15","5a3a570307245d0001fc0692","609a8bf73b2ac84e2732f618","609d747d6d72f3e500d55bc4","515.6049999932293","","","","37","","","","key","16.666211111110815","960","484.5","true","-1","138.8304","7.864319999999999","6","-1","-1","","","","","","","","","","","","",""
"psychophysics","104","283269","0.0-10.0-0.16","5a3a570307245d0001fc0692","609a8bf73b2ac84e2732f618","609d747d6d72f3e500d55bc4","1127.6699999871198","","","","37","","","","key","16.665921259842406","960","484.5","true","1","130.96608","6.291456","7","1","-1","","","","","","","","","","","","",""
"psychophysics","105","284751","0.0-10.0-0.17","5a3a570307245d0001fc0692","609a8bf73b2ac84e2732f618","609d747d6d72f3e500d55bc4","475.9399999893503","","","","37","","","","key","16.666000000000086","960","484.5","true","-1","137.25753600000002","6.291456","7","-1","1","","","","","","","","","","","","",""
"psychophysics","106","286233","0.0-10.0-0.18","5a3a570307245d0001fc0692","609a8bf73b2ac84e2732f618","609d747d6d72f3e500d55bc4","474.5299999922281","","","","39","","","","key","16.664806818182115","960","484.5","true","1","137.25753600000002","5.033164800000001","8","-1","-1","","","","","","","","","","","","",""
"psychophysics","107","287971","0.0-10.0-0.19","5a3a570307245d0001fc0692","609a8bf73b2ac84e2732f618","609d747d6d72f3e500d55bc4","730.8849999972153","","","","37","","","","key","16.665873786407406","960","484.5","true","1","132.2243712","4.0265318400000005","9","1","-1","","","","","","","","","","","","",""
"psychophysics","108","289451","0.0-10.0-0.20","5a3a570307245d0001fc0692","609a8bf73b2ac84e2732f618","609d747d6d72f3e500d55bc4","477.6500000007218","","","","39","","","","key","16.666534090908748","960","484.5","true","1","136.25090304","4.0265318400000005","9","-1","1","","","","","","","","","","","","",""
"psychophysics","109","290972","0.0-10.0-0.21","5a3a570307245d0001fc0692","609a8bf73b2ac84e2732f618","609d747d6d72f3e500d55bc4","514.5449999981793","","","","39","","","","key","16.66634444444466","960","484.5","true","1","136.25090304","3.2212254720000004","10","-1","-1","","","","","","","","","","","","",""
"psychophysics","110","293966","0.0-10.0-0.22","5a3a570307245d0001fc0692","609a8bf73b2ac84e2732f618","609d747d6d72f3e500d55bc4","1992.3449999914737","","","","39","","","","key","16.665620111731563","960","484.5","true","-1","133.029677568","2.5769803776000004","11","1","-1","","","","","","","","","","","","",""
"psychophysics","111","296034","0.0-10.0-0.23","5a3a570307245d0001fc0692","609a8bf73b2ac84e2732f618","609d747d6d72f3e500d55bc4","1061.3650000013877","","","","37","","","","key","16.666373983740133","960","484.5","true","-1","135.6066579456","2.5769803776000004","11","-1","1","","","","","","","","","","","","",""
"psychophysics","112","297467","0.0-10.0-0.24","5a3a570307245d0001fc0692","609a8bf73b2ac84e2732f618","609d747d6d72f3e500d55bc4","430.20000000251457","","","","39","","","","key","16.66476470588241","960","484.5","true","1","135.6066579456","2.0615843020800004","12","-1","-1","","","","","","","","","","","","",""
"psychophysics","113","299036","0.0-10.0-0.25","5a3a570307245d0001fc0692","609a8bf73b2ac84e2732f618","609d747d6d72f3e500d55bc4","566.4300000062212","","","","37","","","","key","16.66612903225819","960","484.5","true","-1","133.54507364352","2.0615843020800004","12","-1","-1","","","","","","","","","","","","",""
"psychophysics","114","300620","0.0-10.0-0.26","5a3a570307245d0001fc0692","609a8bf73b2ac84e2732f618","609d747d6d72f3e500d55bc4","579.4500000047265","","","","37","","","","key","16.66639361702131","960","484.5","true","1","133.54507364352","1.6492674416640005","13","1","-1","","","","","","","","","","","","",""
"psychophysics","115","302117","0.0-10.0-0.27","5a3a570307245d0001fc0692","609a8bf73b2ac84e2732f618","609d747d6d72f3e500d55bc4","493.9250000024913","","","","39","","","","key","16.66552808988719","960","484.5","true","1","135.194341085184","1.6492674416640005","13","-1","1","","","","","","","","","","","","",""
"psychophysics","116","304124","0.0-10.0-0.28","5a3a570307245d0001fc0692","609a8bf73b2ac84e2732f618","609d747d6d72f3e500d55bc4","998.9149999892106","","","","37","","","","key","16.665873949579844","960","484.5","true","1","135.194341085184","1.3194139533312006","14","1","-1","","","","","","","","","","","","",""
"psychophysics","117","305604","0.0-10.0-0.29","5a3a570307245d0001fc0692","609a8bf73b2ac84e2732f618","609d747d6d72f3e500d55bc4","471.0599999962142","","","","37","","","","key","16.66554545454578","960","484.5","true","-1","136.5137550385152","1.3194139533312006","14","-1","1","","","","","","","","","","","","",""
"psychophysics","118","307134","0.0-10.0-0.30","5a3a570307245d0001fc0692","609a8bf73b2ac84e2732f618","609d747d6d72f3e500d55bc4","526.8800000048941","","","","37","","","","key","16.6674285714283","960","484.5","true","-1","136.5137550385152","1.0555311626649604","15","-1","-1","","","","","","","","","","","","",""
"psychophysics","119","309018","0.0-10.0-0.31","5a3a570307245d0001fc0692","609a8bf73b2ac84e2732f618","609d747d6d72f3e500d55bc4","877.0300000032876","","","","37","","","","key","16.666017857142702","960","484.5","true","-1","135.45822387585025","1.0555311626649604","15","-1","-1","","","","","","","","","","","","",""
"psychophysics","120","310585","0.0-10.0-0.32","5a3a570307245d0001fc0692","609a8bf73b2ac84e2732f618","609d747d6d72f3e500d55bc4","561.1499999940861","","","","37","","","","key","16.66551612903269","960","484.5","true","-1","135.45822387585025","1.0555311626649604","15","-1","-1","","","","","","","","","","","","",""
"psychophysics","121","312683","0.0-10.0-0.33","5a3a570307245d0001fc0692","609a8bf73b2ac84e2732f618","609d747d6d72f3e500d55bc4","1093.1299999938346","","","","37","","","","key","16.666296000000088","960","484.5","true","1","134.4026927131853","1","16","1","-1","","","","","","","","","","","","",""
"psychophysics","122","314418","0.0-10.0-0.34","5a3a570307245d0001fc0692","609a8bf73b2ac84e2732f618","609d747d6d72f3e500d55bc4","727.53499999817","","","","39","","","","key","16.665825242718604","960","484.5","true","1","135.4026927131853","1","16","-1","1","","","","","","","","","","","","",""
"psychophysics","123","316084","0.0-10.0-0.35","5a3a570307245d0001fc0692","609a8bf73b2ac84e2732f618","609d747d6d72f3e500d55bc4","660.36000000895","","","","39","","","","key","16.66593939393954","960","484.5","true","-1","135.4026927131853","1","17","1","-1","","","","","","","","","","","","",""
"psychophysics","124","318100","0.0-10.0-0.36","5a3a570307245d0001fc0692","609a8bf73b2ac84e2732f618","609d747d6d72f3e500d55bc4","1012.7150000043912","","","","39","","","","key","16.665141666666507","960","484.5","true","-1","136.4026927131853","1","17","1","1","","","","","","","","","","","","",""
"psychophysics","125","319541","0.0-10.0-0.37","5a3a570307245d0001fc0692","609a8bf73b2ac84e2732f618","609d747d6d72f3e500d55bc4","433.7449999875389","","","","39","","","","key","16.665329411764876","960","484.5","true","1","137.4026927131853","1","17","-1","1","","","","","","","","","","","","",""
"psychophysics","126","320984","0.0-10.0-0.38","5a3a570307245d0001fc0692","609a8bf73b2ac84e2732f618","609d747d6d72f3e500d55bc4","431.97499999951106","","","","37","","","","key","16.66689534883724","960","484.5","true","-1","137.4026927131853","1","18","-1","-1","","","","","","","","","","","","",""
"psychophysics","127","323419","0.0-10.0-0.39","5a3a570307245d0001fc0692","609a8bf73b2ac84e2732f618","609d747d6d72f3e500d55bc4","1428.074999988894","","","","37","","","","key","16.665468965516954","960","484.5","true","1","136.4026927131853","1","19","1","-1","","","","","","","","","","","","",""
"html-keyboard-response","128","334878","0.0-11.0","5a3a570307245d0001fc0692","609a8bf73b2ac84e2732f618","609d747d6d72f3e500d55bc4","11456.56500000041","<p>Well Done !</p><p>Prepare for a new block.</p><p>DON'T EXIT THE FULL SCREEN MODE</p><p>Press the Spacebar to start.</p>","","","32","","","","","","","","","","","","","","","true","135.6161090852291","","","","","","","","","","",""
"psychophysics","129","336420","0.0-12.0-0.0","5a3a570307245d0001fc0692","609a8bf73b2ac84e2732f618","609d747d6d72f3e500d55bc4","538.4550000017043","","","","37","","","","key","16.850890109889914","960","484.5","true","-1","180","30","0","-1","","","","","","","","","","","","","",""
"psychophysics","130","337836","0.0-12.0-0.1","5a3a570307245d0001fc0692","609a8bf73b2ac84e2732f618","609d747d6d72f3e500d55bc4","412.70000000076834","","","","37","","","","key","16.666999999999895","960","484.5","true","-1","180","30","0","-1","-1","","","","","","","","","","","","",""
"psychophysics","131","339252","0.0-12.0-0.2","5a3a570307245d0001fc0692","609a8bf73b2ac84e2732f618","609d747d6d72f3e500d55bc4","413.05000000284053","","","","37","","","","key","16.665559523809602","960","484.5","true","-1","150","30","0","-1","-1","","","","","","","","","","","","",""
"psychophysics","132","340600","0.0-12.0-0.3","5a3a570307245d0001fc0692","609a8bf73b2ac84e2732f618","609d747d6d72f3e500d55bc4","345.9350000048289","","","","39","","","","key","16.66467499999999","960","484.5","true","1","150","30","0","-1","-1","","","","","","","","","","","","",""
"psychophysics","133","342634","0.0-12.0-0.4","5a3a570307245d0001fc0692","609a8bf73b2ac84e2732f618","609d747d6d72f3e500d55bc4","1029.9050000030547","","","","37","","","","key","16.665785123966923","960","484.5","true","-1","129","30","0","-1","-1","","","","","","","","","","","","",""
"psychophysics","134","344351","0.0-12.0-0.5","5a3a570307245d0001fc0692","609a8bf73b2ac84e2732f618","609d747d6d72f3e500d55bc4","711.7549999966286","","","","37","","","","key","16.831900990098983","960","484.5","true","1","129","24","1","1","-1","","","","","","","","","","","","",""
"psychophysics","135","345804","0.0-12.0-0.6","5a3a570307245d0001fc0692","609a8bf73b2ac84e2732f618","609d747d6d72f3e500d55bc4","449.7350000019651","","","","37","","","","key","16.665686046511752","960","484.5","true","-1","153","24","1","-1","1","","","","","","","","","","","","",""
"psychophysics","136","347249","0.0-12.0-0.7","5a3a570307245d0001fc0692","609a8bf73b2ac84e2732f618","609d747d6d72f3e500d55bc4","442.9299999901559","","","","37","","","","key","16.66702325581397","960","484.5","true","-1","153","19.2","2","-1","-1","","","","","","","","","","","","",""
"psychophysics","137","348816","0.0-12.0-0.8","5a3a570307245d0001fc0692","609a8bf73b2ac84e2732f618","609d747d6d72f3e500d55bc4","559.1649999987567","","","","39","","","","key","16.666204301075215","960","484.5","true","1","133.8","19.2","2","-1","-1","","","","","","","","","","","","",""
"psychophysics","138","350249","0.0-12.0-0.9","5a3a570307245d0001fc0692","609a8bf73b2ac84e2732f618","609d747d6d72f3e500d55bc4","426.8949999968754","","","","39","","","","key","16.66470588235294","960","484.5","true","1","133.8","19.2","2","-1","-1","","","","","","","","","","","","",""
"psychophysics","139","351836","0.0-12.0-0.10","5a3a570307245d0001fc0692","609a8bf73b2ac84e2732f618","609d747d6d72f3e500d55bc4","581.1699999903794","","","","37","","","","key","16.665829787233925","960","484.5","true","-1","129","19.2","2","-1","-1","","","","","","","","","","","","",""
"psychophysics","140","355365","0.0-12.0-0.11","5a3a570307245d0001fc0692","609a8bf73b2ac84e2732f618","609d747d6d72f3e500d55bc4","2525.935000012396","","","","39","","","","key","16.666886255924393","960","484.5","true","1","129","19.2","2","-1","-1","","","","","","","","","","","","",""
"psychophysics","141","356932","0.0-12.0-0.12","5a3a570307245d0001fc0692","609a8bf73b2ac84e2732f618","609d747d6d72f3e500d55bc4","560.4800000000978","","","","37","","","","key","16.665580645161654","960","484.5","true","-1","129","19.2","2","-1","-1","","","","","","","","","","","","",""
"psychophysics","142","358932","0.0-12.0-0.13","5a3a570307245d0001fc0692","609a8bf73b2ac84e2732f618","609d747d6d72f3e500d55bc4","992.9350000020349","","","","37","","","","key","16.66515966386538","960","484.5","true","-1","129","19.2","2","-1","-1","","","","","","","","","","","","",""
"psychophysics","143","360765","0.0-12.0-0.14","5a3a570307245d0001fc0692","609a8bf73b2ac84e2732f618","609d747d6d72f3e500d55bc4","825.0699999916833","","","","37","","","","key","16.66603669724769","960","484.5","true","1","129","15.36","3","1","-1","","","","","","","","","","","","",""
"psychophysics","144","362171","0.0-12.0-0.15","5a3a570307245d0001fc0692","609a8bf73b2ac84e2732f618","609d747d6d72f3e500d55bc4","398.6949999962235","","","","39","","","","key","16.66773493975928","960","484.5","true","1","144.36","15.36","3","-1","1","","","","","","","","","","","","",""
"psychophysics","145","363616","0.0-12.0-0.16","5a3a570307245d0001fc0692","609a8bf73b2ac84e2732f618","609d747d6d72f3e500d55bc4","435.49000000348315","","","","39","","","","key","16.666232558139896","960","484.5","true","1","144.36","12.287999999999998","4","-1","-1","","","","","","","","","","","","",""
"psychophysics","146","366767","0.0-12.0-0.17","5a3a570307245d0001fc0692","609a8bf73b2ac84e2732f618","609d747d6d72f3e500d55bc4","2144.1349999950035","","","","37","","","","key","16.666058510638514","960","484.5","true","1","132.072","9.8304","5","1","-1","","","","","","","","","","","","",""
"psychophysics","147","368219","0.0-12.0-0.18","5a3a570307245d0001fc0692","609a8bf73b2ac84e2732f618","609d747d6d72f3e500d55bc4","447.8150000068126","","","","37","","","","key","16.666779069767365","960","484.5","true","-1","141.9024","9.8304","5","-1","1","","","","","","","","","","","","",""
"psychophysics","148","369698","0.0-12.0-0.19","5a3a570307245d0001fc0692","609a8bf73b2ac84e2732f618","609d747d6d72f3e500d55bc4","476.24000000359956","","","","37","","","","key","16.665749999999456","960","484.5","true","-1","141.9024","7.864319999999999","6","-1","-1","","","","","","","","","","","","",""
"psychophysics","149","371415","0.0-12.0-0.20","5a3a570307245d0001fc0692","609a8bf73b2ac84e2732f618","609d747d6d72f3e500d55bc4","710.0650000065798","","","","37","","","","key","16.666647058823738","960","484.5","true","-1","134.03808","7.864319999999999","6","-1","-1","","","","","","","","","","","","",""
"psychophysics","150","374300","0.0-12.0-0.21","5a3a570307245d0001fc0692","609a8bf73b2ac84e2732f618","609d747d6d72f3e500d55bc4","1878.00499999139","","","","37","","","","key","16.666494186046442","960","484.5","true","1","134.03808","6.291456","7","1","-1","","","","","","","","","","","","",""
"psychophysics","151","375714","0.0-12.0-0.22","5a3a570307245d0001fc0692","609a8bf73b2ac84e2732f618","609d747d6d72f3e500d55bc4","409.70000000379514","","","","39","","","","key","16.66636904761877","960","484.5","true","1","140.32953600000002","6.291456","7","-1","1","","","","","","","","","","","","",""
"psychophysics","152","377166","0.0-12.0-0.23","5a3a570307245d0001fc0692","609a8bf73b2ac84e2732f618","609d747d6d72f3e500d55bc4","447.48499999695923","","","","37","","","","key","16.66590697674465","960","484.5","true","-1","140.32953600000002","5.033164800000001","8","-1","-1","","","","","","","","","","","","",""
"psychophysics","153","378803","0.0-12.0-0.24","5a3a570307245d0001fc0692","609a8bf73b2ac84e2732f618","609d747d6d72f3e500d55bc4","630.7900000101654","","","","39","","","","key","16.665948453608337","960","484.5","true","1","135.2963712","5.033164800000001","8","-1","-1","","","","","","","","","","","","",""
"psychophysics","154","381316","0.0-12.0-0.25","5a3a570307245d0001fc0692","609a8bf73b2ac84e2732f618","609d747d6d72f3e500d55bc4","1510.0800000072923","","","","37","","","","key","16.66646666666648","960","484.5","true","-1","135.2963712","5.033164800000001","8","-1","-1","","","","","","","","","","","","",""
"psychophysics","155","383251","0.0-12.0-0.26","5a3a570307245d0001fc0692","609a8bf73b2ac84e2732f618","609d747d6d72f3e500d55bc4","932.954999996582","","","","37","","","","key","16.66550434782605","960","484.5","true","-1","130.2632064","5.033164800000001","8","-1","-1","","","","","","","","","","","","",""
"psychophysics","156","384764","0.0-12.0-0.27","5a3a570307245d0001fc0692","609a8bf73b2ac84e2732f618","609d747d6d72f3e500d55bc4","508.87499999953434","","","","39","","","","key","16.66535555555537","960","484.5","true","1","130.2632064","5.033164800000001","8","-1","-1","","","","","","","","","","","","",""
"psychophysics","157","386700","0.0-12.0-0.28","5a3a570307245d0001fc0692","609a8bf73b2ac84e2732f618","609d747d6d72f3e500d55bc4","928.4400000033202","","","","39","","","","key","16.666026086956464","960","484.5","true","-1","129","4.0265318400000005","9","1","-1","","","","","","","","","","","","",""
"psychophysics","158","388214","0.0-12.0-0.29","5a3a570307245d0001fc0692","609a8bf73b2ac84e2732f618","609d747d6d72f3e500d55bc4","508.95000000309665","","","","39","","","","key","16.66646666666622","960","484.5","true","-1","133.02653184","4.0265318400000005","9","1","1","","","","","","","","","","","","",""
"psychophysics","159","389668","0.0-12.0-0.30","5a3a570307245d0001fc0692","609a8bf73b2ac84e2732f618","609d747d6d72f3e500d55bc4","448.5300000087591","","","","39","","","","key","16.665732558139837","960","484.5","true","1","137.05306367999998","4.0265318400000005","9","-1","1","","","","","","","","","","","","",""
"psychophysics","160","391116","0.0-12.0-0.31","5a3a570307245d0001fc0692","609a8bf73b2ac84e2732f618","609d747d6d72f3e500d55bc4","444.02500000433065","","","","37","","","","key","16.66680232558107","960","484.5","true","-1","137.05306367999998","3.2212254720000004","10","-1","-1","","","","","","","","","","","","",""
"psychophysics","161","392836","0.0-12.0-0.32","5a3a570307245d0001fc0692","609a8bf73b2ac84e2732f618","609d747d6d72f3e500d55bc4","715.169999995851","","","","39","","","","key","16.666372549019904","960","484.5","true","-1","133.83183820799997","2.5769803776000004","11","1","-1","","","","","","","","","","","","",""
"psychophysics","162","394219","0.0-12.0-0.33","5a3a570307245d0001fc0692","609a8bf73b2ac84e2732f618","609d747d6d72f3e500d55bc4","381.3899999950081","","","","39","","","","key","16.666780487804605","960","484.5","true","1","136.40881858559996","2.5769803776000004","11","-1","1","","","","","","","","","","","","",""
"psychophysics","163","395567","0.0-12.0-0.34","5a3a570307245d0001fc0692","609a8bf73b2ac84e2732f618","609d747d6d72f3e500d55bc4","345.8200000022771","","","","39","","","","key","16.66620000000039","960","484.5","true","1","136.40881858559996","2.0615843020800004","12","-1","-1","","","","","","","","","","","","",""
"psychophysics","164","397114","0.0-12.0-0.35","5a3a570307245d0001fc0692","609a8bf73b2ac84e2732f618","609d747d6d72f3e500d55bc4","544.3300000042655","","","","39","","","","key","16.666934782608777","960","484.5","true","1","134.34723428351995","2.0615843020800004","12","-1","-1","","","","","","","","","","","","",""
"psychophysics","165","398500","0.0-12.0-0.36","5a3a570307245d0001fc0692","609a8bf73b2ac84e2732f618","609d747d6d72f3e500d55bc4","378.88000000384636","","","","39","","","","key","16.666182926829716","960","484.5","true","1","134.34723428351995","2.0615843020800004","12","-1","-1","","","","","","","","","","","","",""
"psychophysics","166","400766","0.0-12.0-0.37","5a3a570307245d0001fc0692","609a8bf73b2ac84e2732f618","609d747d6d72f3e500d55bc4","1261.5850000001956","","","","37","","","","key","16.666503703703725","960","484.5","true","-1","132.28564998143995","2.0615843020800004","12","-1","-1","","","","","","","","","","","","",""
"psychophysics","167","402700","0.0-12.0-0.38","5a3a570307245d0001fc0692","609a8bf73b2ac84e2732f618","609d747d6d72f3e500d55bc4","928.5300000046846","","","","39","","","","key","16.666426086956736","960","484.5","true","1","132.28564998143995","2.0615843020800004","12","-1","-1","","","","","","","","","","","","",""
"psychophysics","168","404346","0.0-12.0-0.39","5a3a570307245d0001fc0692","609a8bf73b2ac84e2732f618","609d747d6d72f3e500d55bc4","641.4250000088941","","","","39","","","","key","16.66737755102032","960","484.5","true","1","130.22406567935994","2.0615843020800004","12","-1","-1","","","","","","","","","","","","",""
"html-keyboard-response","169","408789","0.0-13.0","5a3a570307245d0001fc0692","609a8bf73b2ac84e2732f618","609d747d6d72f3e500d55bc4","4440.484999999171","<p>Well Done !</p><p>Prepare for a new block.</p><p>DON'T EXIT THE FULL SCREEN MODE</p><p>Press the Spacebar to start.</p>","","","32","","","","","","","","","","","","","","","true","133.47298351923195","","","","","","","","","","",""
"html-keyboard-response","170","408900","0.0-14.0","5a3a570307245d0001fc0692","609a8bf73b2ac84e2732f618","609d747d6d72f3e500d55bc4","null","","","","null","","","","","","","","","","","","","","","","","134.40572585161794","true","140.8114517032359","","","","","","","",""
"instructions","171","450208","0.0-15.0","5a3a570307245d0001fc0692","609a8bf73b2ac84e2732f618","609d747d6d72f3e500d55bc4","41307.104999999865","","","","","","","[{""page_index"":0,""viewing_time"":30963.11000001151},{""page_index"":1,""viewing_time"":2527.154999988852},{""page_index"":2,""viewing_time"":7816.440000009607}]","","","","","","","","","","","","","","","","","","","","","","","",""
"psychophysics","172","453262","0.0-16.0-0.0","5a3a570307245d0001fc0692","609a8bf73b2ac84e2732f618","609d747d6d72f3e500d55bc4","null","","","","null","","","","key","16.667387096774615","960","484.5","","","","","","","","","","","","","","","","","","","",""
"psychophysics","173","453769","0.0-16.0-1.0","5a3a570307245d0001fc0692","609a8bf73b2ac84e2732f618","609d747d6d72f3e500d55bc4","null","","","","null","","","","key","16.666103448275205","960","484.5","","","","","","","","","","","","","141","-1","4","false","","","",""
"psychophysics","174","456847","0.0-16.0-2.0","5a3a570307245d0001fc0692","609a8bf73b2ac84e2732f618","609d747d6d72f3e500d55bc4","3062.1549999923445","","","","77","","","","key","16.666331521739345","960","484.5","","","","","","","","","","","","","","","","","","","",""
"psychophysics","175","457386","0.0-16.0-0.1","5a3a570307245d0001fc0692","609a8bf73b2ac84e2732f618","609d747d6d72f3e500d55bc4","null","","","","null","","","","key","16.6696129032268","960","484.5","","","","","","","","","","","","","","","","","","","",""
"psychophysics","176","457895","0.0-16.0-1.1","5a3a570307245d0001fc0692","609a8bf73b2ac84e2732f618","609d747d6d72f3e500d55bc4","null","","","","null","","","","key","16.668499999999767","960","484.5","","","","","","","","","","","","","141","1","2","false","","","",""
"psychophysics","177","458877","0.0-16.0-2.1","5a3a570307245d0001fc0692","609a8bf73b2ac84e2732f618","609d747d6d72f3e500d55bc4","979.6650000062073","","","","90","","","","key","16.66501754385995","960","484.5","","","","","","","","","","","","","","","","","","","",""
"psychophysics","178","460020","0.0-16.0-0.2","5a3a570307245d0001fc0692","609a8bf73b2ac84e2732f618","609d747d6d72f3e500d55bc4","null","","","","null","","","","key","16.66750746268654","960","484.5","","","","","","","","","","","","","","","","","","","",""
"psychophysics","179","460531","0.0-16.0-1.2","5a3a570307245d0001fc0692","609a8bf73b2ac84e2732f618","609d747d6d72f3e500d55bc4","null","","","","null","","","","key","16.669066666668126","960","484.5","","","","","","","","","","","","","141","1","5","false","","","",""
"psychophysics","180","461580","0.0-16.0-2.2","5a3a570307245d0001fc0692","609a8bf73b2ac84e2732f618","609d747d6d72f3e500d55bc4","1046.7050000006566","","","","77","","","","key","16.665274193547965","960","484.5","","","","","","","","","","","","","","","","","","","",""
"psychophysics","181","462863","0.0-16.0-0.3","5a3a570307245d0001fc0692","609a8bf73b2ac84e2732f618","609d747d6d72f3e500d55bc4","null","","","","null","","","","key","16.665973684210545","960","484.5","","","","","","","","","","","","","","","","","","","",""
"psychophysics","182","463370","0.0-16.0-1.3","5a3a570307245d0001fc0692","609a8bf73b2ac84e2732f618","609d747d6d72f3e500d55bc4","null","","","","null","","","","key","16.670310344828035","960","484.5","","","","","","","","","","","","","141","-1","3","false","","","",""
"psychophysics","183","465084","0.0-16.0-2.3","5a3a570307245d0001fc0692","609a8bf73b2ac84e2732f618","609d747d6d72f3e500d55bc4","1700.3900000127032","","","","77","","","","key","16.66665686274463","960","484.5","","","","","","","","","","","","","","","","","","","",""
"psychophysics","184","466329","0.0-16.0-0.4","5a3a570307245d0001fc0692","609a8bf73b2ac84e2732f618","609d747d6d72f3e500d55bc4","null","","","","null","","","","key","16.66450000000013","960","484.5","","","","","","","","","","","","","","","","","","","",""
"psychophysics","185","466837","0.0-16.0-1.4","5a3a570307245d0001fc0692","609a8bf73b2ac84e2732f618","609d747d6d72f3e500d55bc4","null","","","","null","","","","key","16.66444827586308","960","484.5","","","","","","","","","","","","","141","-1","5","false","","","",""
"psychophysics","186","467548","0.0-16.0-2.4","5a3a570307245d0001fc0692","609a8bf73b2ac84e2732f618","609d747d6d72f3e500d55bc4","698.9299999986542","","","","77","","","","key","16.6626904761901","960","484.5","","","","","","","","","","","","","","","","","","","",""
"psychophysics","187","468248","0.0-16.0-0.5","5a3a570307245d0001fc0692","609a8bf73b2ac84e2732f618","609d747d6d72f3e500d55bc4","null","","","","null","","","","key","16.66687804878059","960","484.5","","","","","","","","","","","","","","","","","","","",""
"psychophysics","188","468753","0.0-16.0-1.5","5a3a570307245d0001fc0692","609a8bf73b2ac84e2732f618","609d747d6d72f3e500d55bc4","null","","","","null","","","","key","16.666965517241525","960","484.5","","","","","","","","","","","","","141","1","0","false","","","",""
"psychophysics","189","469831","0.0-16.0-2.5","5a3a570307245d0001fc0692","609a8bf73b2ac84e2732f618","609d747d6d72f3e500d55bc4","1065.969999996014","","","","90","","","","key","16.666171875000146","960","484.5","","","","","","","","","","","","","","","","","","","",""
"psychophysics","190","470812","0.0-16.0-0.6","5a3a570307245d0001fc0692","609a8bf73b2ac84e2732f618","609d747d6d72f3e500d55bc4","null","","","","null","","","","key","16.666551724137488","960","484.5","","","","","","","","","","","","","","","","","","","",""
"psychophysics","191","471319","0.0-16.0-1.6","5a3a570307245d0001fc0692","609a8bf73b2ac84e2732f618","609d747d6d72f3e500d55bc4","null","","","","null","","","","key","16.66724137930954","960","484.5","","","","","","","","","","","","","141","1","4","false","","","",""
"psychophysics","192","474732","0.0-16.0-2.6","5a3a570307245d0001fc0692","609a8bf73b2ac84e2732f618","609d747d6d72f3e500d55bc4","3400.9550000046147","","","","90","","","","key","16.665710784313692","960","484.5","","","","","","","","","","","","","","","","","","","",""
"psychophysics","193","475361","0.0-16.0-0.7","5a3a570307245d0001fc0692","609a8bf73b2ac84e2732f618","609d747d6d72f3e500d55bc4","null","","","","null","","","","key","16.66613513513506","960","484.5","","","","","","","","","","","","","","","","","","","",""
"psychophysics","194","475870","0.0-16.0-1.7","5a3a570307245d0001fc0692","609a8bf73b2ac84e2732f618","609d747d6d72f3e500d55bc4","null","","","","null","","","","key","16.661827586207878","960","484.5","","","","","","","","","","","","","141","1","3","false","","","",""
"psychophysics","195","476597","0.0-16.0-2.7","5a3a570307245d0001fc0692","609a8bf73b2ac84e2732f618","609d747d6d72f3e500d55bc4","714.7400000103517","","","","90","","","","key","16.66348837209232","960","484.5","","","","","","","","","","","","","","","","","","","",""
"psychophysics","196","477295","0.0-16.0-0.8","5a3a570307245d0001fc0692","609a8bf73b2ac84e2732f618","609d747d6d72f3e500d55bc4","null","","","","null","","","","key","16.669341463413907","960","484.5","","","","","","","","","","","","","","","","","","","",""
"psychophysics","197","477803","0.0-16.0-1.8","5a3a570307245d0001fc0692","609a8bf73b2ac84e2732f618","609d747d6d72f3e500d55bc4","null","","","","null","","","","key","16.668344827585628","960","484.5","","","","","","","","","","","","","141","1","6","false","","","",""
"psychophysics","198","478613","0.0-16.0-2.8","5a3a570307245d0001fc0692","609a8bf73b2ac84e2732f618","609d747d6d72f3e500d55bc4","796.0250000032829","","","","77","","","","key","16.666604166667337","960","484.5","","","","","","","","","","","","","","","","","","","",""
"psychophysics","199","479386","0.0-16.0-0.9","5a3a570307245d0001fc0692","609a8bf73b2ac84e2732f618","609d747d6d72f3e500d55bc4","null","","","","null","","","","key","16.66691111111108","960","484.5","","","","","","","","","","","","","","","","","","","",""
"psychophysics","200","479895","0.0-16.0-1.9","5a3a570307245d0001fc0692","609a8bf73b2ac84e2732f618","609d747d6d72f3e500d55bc4","null","","","","null","","","","key","16.66343333333304","960","484.5","","","","","","","","","","","","","141","-1","2","false","","","",""
"psychophysics","201","480667","0.0-16.0-2.9","5a3a570307245d0001fc0692","609a8bf73b2ac84e2732f618","609d747d6d72f3e500d55bc4","770.6550000002608","","","","90","","","","key","16.66495555555577","960","484.5","","","","","","","","","","","","","","","","","","","",""
"psychophysics","202","481261","0.0-16.0-0.10","5a3a570307245d0001fc0692","609a8bf73b2ac84e2732f618","609d747d6d72f3e500d55bc4","null","","","","null","","","","key","16.666942857142672","960","484.5","","","","","","","","","","","","","","","","","","","",""
"psychophysics","203","481765","0.0-16.0-1.10","5a3a570307245d0001fc0692","609a8bf73b2ac84e2732f618","609d747d6d72f3e500d55bc4","null","","","","null","","","","key","16.663827586206526","960","484.5","","","","","","","","","","","","","141","-1","6","false","","","",""
"psychophysics","204","482446","0.0-16.0-2.10","5a3a570307245d0001fc0692","609a8bf73b2ac84e2732f618","609d747d6d72f3e500d55bc4","678.7900000053924","","","","77","","","","key","16.66649999999936","960","484.5","","","","","","","","","","","","","","","","","","","",""
"psychophysics","205","483452","0.0-16.0-0.11","5a3a570307245d0001fc0692","609a8bf73b2ac84e2732f618","609d747d6d72f3e500d55bc4","null","","","","null","","","","key","16.66577966101724","960","484.5","","","","","","","","","","","","","","","","","","","",""
"psychophysics","206","483960","0.0-16.0-1.11","5a3a570307245d0001fc0692","609a8bf73b2ac84e2732f618","609d747d6d72f3e500d55bc4","null","","","","null","","","","key","16.66700000000031","960","484.5","","","","","","","","","","","","","141","-1","0","false","","","",""
"psychophysics","207","486516","0.0-16.0-2.11","5a3a570307245d0001fc0692","609a8bf73b2ac84e2732f618","609d747d6d72f3e500d55bc4","2552.4899999873014","","","","90","","","","key","16.666723684210552","960","484.5","","","","","","","","","","","","","","","","","","","",""
"psychophysics","208","487236","0.0-16.0-0.12","5a3a570307245d0001fc0692","609a8bf73b2ac84e2732f618","609d747d6d72f3e500d55bc4","null","","","","null","","","","key","16.664547619046754","960","484.5","","","","","","","","","","","","","","","","","","","",""
"psychophysics","209","487747","0.0-16.0-1.12","5a3a570307245d0001fc0692","609a8bf73b2ac84e2732f618","609d747d6d72f3e500d55bc4","null","","","","null","","","","key","16.665866666665533","960","484.5","","","","","","","","","","","","","141","1","0","false","","","",""
"psychophysics","210","488669","0.0-16.0-2.12","5a3a570307245d0001fc0692","609a8bf73b2ac84e2732f618","609d747d6d72f3e500d55bc4","918.5900000011316","","","","90","","","","key","16.666240740740992","960","484.5","","","","","","","","","","","","","","","","","","","",""
"psychophysics","211","489436","0.0-16.0-0.13","5a3a570307245d0001fc0692","609a8bf73b2ac84e2732f618","609d747d6d72f3e500d55bc4","null","","","","null","","","","key","16.66933333333323","960","484.5","","","","","","","","","","","","","","","","","","","",""
"psychophysics","212","489943","0.0-16.0-1.13","5a3a570307245d0001fc0692","609a8bf73b2ac84e2732f618","609d747d6d72f3e500d55bc4","null","","","","null","","","","key","16.666233333334095","960","484.5","","","","","","","","","","","","","141","-1","2","false","","","",""
"psychophysics","213","490813","0.0-16.0-2.13","5a3a570307245d0001fc0692","609a8bf73b2ac84e2732f618","609d747d6d72f3e500d55bc4","867.3850000050152","","","","90","","","","key","16.665392156862698","960","484.5","","","","","","","","","","","","","","","","","","","",""
"psychophysics","214","491944","0.0-16.0-0.14","5a3a570307245d0001fc0692","609a8bf73b2ac84e2732f618","609d747d6d72f3e500d55bc4","null","","","","null","","","","key","16.667462686567617","960","484.5","","","","","","","","","","","","","","","","","","","",""
"psychophysics","215","492451","0.0-16.0-1.14","5a3a570307245d0001fc0692","609a8bf73b2ac84e2732f618","609d747d6d72f3e500d55bc4","null","","","","null","","","","key","16.667965517240848","960","484.5","","","","","","","","","","","","","141","-1","3","false","","","",""
"psychophysics","216","493093","0.0-16.0-2.14","5a3a570307245d0001fc0692","609a8bf73b2ac84e2732f618","609d747d6d72f3e500d55bc4","630.6900000054156","","","","77","","","","key","16.668131578948017","960","484.5","","","","","","","","","","","","","","","","","","","",""
"psychophysics","217","493967","0.0-16.0-0.15","5a3a570307245d0001fc0692","609a8bf73b2ac84e2732f618","609d747d6d72f3e500d55bc4","null","","","","null","","","","key","16.666294117646483","960","484.5","","","","","","","","","","","","","","","","","","","",""
"psychophysics","218","494476","0.0-16.0-1.15","5a3a570307245d0001fc0692","609a8bf73b2ac84e2732f618","609d747d6d72f3e500d55bc4","null","","","","null","","","","key","16.66416666666822","960","484.5","","","","","","","","","","","","","141","-1","6","false","","","",""
"psychophysics","219","495061","0.0-16.0-2.15","5a3a570307245d0001fc0692","609a8bf73b2ac84e2732f618","609d747d6d72f3e500d55bc4","582.8000000037719","","","","77","","","","key","16.663588235293417","960","484.5","","","","","","","","","","","","","","","","","","","",""
"psychophysics","220","495780","0.0-16.0-0.16","5a3a570307245d0001fc0692","609a8bf73b2ac84e2732f618","609d747d6d72f3e500d55bc4","null","","","","null","","","","key","16.66592857142816","960","484.5","","","","","","","","","","","","","","","","","","","",""
"psychophysics","221","496285","0.0-16.0-1.16","5a3a570307245d0001fc0692","609a8bf73b2ac84e2732f618","609d747d6d72f3e500d55bc4","null","","","","null","","","","key","16.6673448275863","960","484.5","","","","","","","","","","","","","141","1","2","false","","","",""
"psychophysics","222","496931","0.0-16.0-2.16","5a3a570307245d0001fc0692","609a8bf73b2ac84e2732f618","609d747d6d72f3e500d55bc4","633.8499999983469","","","","90","","","","key","16.666657894737956","960","484.5","","","","","","","","","","","","","","","","","","","",""
"psychophysics","223","498394","0.0-16.0-0.17","5a3a570307245d0001fc0692","609a8bf73b2ac84e2732f618","609d747d6d72f3e500d55bc4","null","","","","null","","","","key","16.665310344827393","960","484.5","","","","","","","","","","","","","","","","","","","",""
"psychophysics","224","498901","0.0-16.0-1.17","5a3a570307245d0001fc0692","609a8bf73b2ac84e2732f618","609d747d6d72f3e500d55bc4","null","","","","null","","","","key","16.668551724137146","960","484.5","","","","","","","","","","","","","141","-1","4","false","","","",""
"psychophysics","225","499628","0.0-16.0-2.17","5a3a570307245d0001fc0692","609a8bf73b2ac84e2732f618","609d747d6d72f3e500d55bc4","715.1050000102259","","","","77","","","","key","16.663558139534786","960","484.5","","","","","","","","","","","","","","","","","","","",""
"psychophysics","226","501011","0.0-16.0-0.18","5a3a570307245d0001fc0692","609a8bf73b2ac84e2732f618","609d747d6d72f3e500d55bc4","null","","","","null","","","","key","16.66597560975593","960","484.5","","","","","","","","","","","","","","","","","","","",""
"psychophysics","227","501515","0.0-16.0-1.18","5a3a570307245d0001fc0692","609a8bf73b2ac84e2732f618","609d747d6d72f3e500d55bc4","null","","","","null","","","","key","16.661206896551324","960","484.5","","","","","","","","","","","","","141","1","3","false","","","",""
"psychophysics","228","502262","0.0-16.0-2.18","5a3a570307245d0001fc0692","609a8bf73b2ac84e2732f618","609d747d6d72f3e500d55bc4","744.3000000057509","","","","90","","","","key","16.66338636363666","960","484.5","","","","","","","","","","","","","","","","","","","",""
"psychophysics","229","502953","0.0-16.0-0.19","5a3a570307245d0001fc0692","609a8bf73b2ac84e2732f618","609d747d6d72f3e500d55bc4","null","","","","null","","","","key","16.66600000000035","960","484.5","","","","","","","","","","","","","","","","","","","",""
"psychophysics","230","503460","0.0-16.0-1.19","5a3a570307245d0001fc0692","609a8bf73b2ac84e2732f618","609d747d6d72f3e500d55bc4","null","","","","null","","","","key","16.666800000000514","960","484.5","","","","","","","","","","","","","141","-1","5","false","","","",""
"psychophysics","231","504283","0.0-16.0-2.19","5a3a570307245d0001fc0692","609a8bf73b2ac84e2732f618","609d747d6d72f3e500d55bc4","819.5199999900069","","","","77","","","","key","16.665020833332772","960","484.5","","","","","","","","","","","","","","","","","","","",""
"psychophysics","232","505169","0.0-16.0-0.20","5a3a570307245d0001fc0692","609a8bf73b2ac84e2732f618","609d747d6d72f3e500d55bc4","null","","","","null","","","","key","16.665134615384606","960","484.5","","","","","","","","","","","","","","","","","","","",""
"psychophysics","233","505680","0.0-16.0-1.20","5a3a570307245d0001fc0692","609a8bf73b2ac84e2732f618","609d747d6d72f3e500d55bc4","null","","","","null","","","","key","16.663999999999458","960","484.5","","","","","","","","","","","","","141","1","5","false","","","",""
"psychophysics","234","506852","0.0-16.0-2.20","5a3a570307245d0001fc0692","609a8bf73b2ac84e2732f618","609d747d6d72f3e500d55bc4","1169.1100000025472","","","","77","","","","key","16.666434782608647","960","484.5","","","","","","","","","","","","","","","","","","","",""
"psychophysics","235","507916","0.0-16.0-0.21","5a3a570307245d0001fc0692","609a8bf73b2ac84e2732f618","609d747d6d72f3e500d55bc4","null","","","","null","","","","key","16.666063492063486","960","484.5","","","","","","","","","","","","","","","","","","","",""
"psychophysics","236","508417","0.0-16.0-1.21","5a3a570307245d0001fc0692","609a8bf73b2ac84e2732f618","609d747d6d72f3e500d55bc4","null","","","","null","","","","key","16.667931034484607","960","484.5","","","","","","","","","","","","","141","-1","0","false","","","",""
"psychophysics","237","509144","0.0-16.0-2.21","5a3a570307245d0001fc0692","609a8bf73b2ac84e2732f618","609d747d6d72f3e500d55bc4","714.879999999539","","","","90","","","","key","16.66634883721045","960","484.5","","","","","","","","","","","","","","","","","","","",""
"psychophysics","238","509760","0.0-16.0-0.22","5a3a570307245d0001fc0692","609a8bf73b2ac84e2732f618","609d747d6d72f3e500d55bc4","null","","","","null","","","","key","16.662694444443332","960","484.5","","","","","","","","","","","","","","","","","","","",""
"psychophysics","239","510263","0.0-16.0-1.22","5a3a570307245d0001fc0692","609a8bf73b2ac84e2732f618","609d747d6d72f3e500d55bc4","null","","","","null","","","","key","16.67017241379503","960","484.5","","","","","","","","","","","","","141","1","6","false","","","",""
"psychophysics","240","511444","0.0-16.0-2.22","5a3a570307245d0001fc0692","609a8bf73b2ac84e2732f618","609d747d6d72f3e500d55bc4","1178.4299999999348","","","","90","","","","key","16.909101449275404","960","484.5","","","","","","","","","","","","","","","","","","","",""
"psychophysics","241","512243","0.0-16.0-0.23","5a3a570307245d0001fc0692","609a8bf73b2ac84e2732f618","609d747d6d72f3e500d55bc4","null","","","","null","","","","key","16.66761702127715","960","484.5","","","","","","","","","","","","","","","","","","","",""
"psychophysics","242","512752","0.0-16.0-1.23","5a3a570307245d0001fc0692","609a8bf73b2ac84e2732f618","609d747d6d72f3e500d55bc4","null","","","","null","","","","key","16.664551724137834","960","484.5","","","","","","","","","","","","","141","1","4","false","","","",""
"psychophysics","243","513283","0.0-16.0-2.23","5a3a570307245d0001fc0692","609a8bf73b2ac84e2732f618","609d747d6d72f3e500d55bc4","516.555000009248","","","","77","","","","key","16.669935483870383","960","484.5","","","","","","","","","","","","","","","","","","","",""
"html-keyboard-response","244","515629","0.0-17.0","5a3a570307245d0001fc0692","609a8bf73b2ac84e2732f618","609d747d6d72f3e500d55bc4","2343.7949999934062","<p>Well Done !</p><p>Training Complete. Press the spacebar to start.</p><p>DON'T EXIT THE FULL SCREEN MODE</p>","","","32","","","","","","","","","","","","","","","","","","","","","","","","","","",""
"psychophysics","245","518242","0.0-18.0-0.0","5a3a570307245d0001fc0692","609a8bf73b2ac84e2732f618","609d747d6d72f3e500d55bc4","null","","","","null","","","","key","16.666972222222185","960","484.5","","","","","","","","","","","","","","","","","","","",""
"psychophysics","246","518745","0.0-18.0-1.0","5a3a570307245d0001fc0692","609a8bf73b2ac84e2732f618","609d747d6d72f3e500d55bc4","null","","","","null","","","","key","16.662793103446944","960","484.5","","","","","","","","","","","","","141","1","5","true","","","",""
"psychophysics","247","519460","0.0-18.0-2.0","5a3a570307245d0001fc0692","609a8bf73b2ac84e2732f618","609d747d6d72f3e500d55bc4","711.2300000007963","","","","77","","","","key","16.66780952380976","960","484.5","","","","","","","","","","","","","","","","","","","",""
"psychophysics","248","520334","0.0-18.0-0.1","5a3a570307245d0001fc0692","609a8bf73b2ac84e2732f618","609d747d6d72f3e500d55bc4","null","","","","null","","","","key","16.66643137254926","960","484.5","","","","","","","","","","","","","","","","","","","",""
"psychophysics","249","520835","0.0-18.0-1.1","5a3a570307245d0001fc0692","609a8bf73b2ac84e2732f618","609d747d6d72f3e500d55bc4","null","","","","null","","","","key","16.668586206897402","960","484.5","","","","","","","","","","","","","141","-1","4","true","","","",""
"psychophysics","250","521443","0.0-18.0-2.1","5a3a570307245d0001fc0692","609a8bf73b2ac84e2732f618","609d747d6d72f3e500d55bc4","593.8049999967916","","","","77","","","","key","16.666444444445208","960","484.5","","","","","","","","","","","","","","","","","","","",""
"psychophysics","251","522043","0.0-18.0-0.2","5a3a570307245d0001fc0692","609a8bf73b2ac84e2732f618","609d747d6d72f3e500d55bc4","null","","","","null","","","","key","16.662514285714963","960","484.5","","","","","","","","","","","","","","","","","","","",""
"psychophysics","252","522552","0.0-18.0-1.2","5a3a570307245d0001fc0692","609a8bf73b2ac84e2732f618","609d747d6d72f3e500d55bc4","null","","","","null","","","","key","16.660517241378265","960","484.5","","","","","","","","","","","","","141","-1","2","true","","","",""
"psychophysics","253","523244","0.0-18.0-2.2","5a3a570307245d0001fc0692","609a8bf73b2ac84e2732f618","609d747d6d72f3e500d55bc4","680.6400000059512","","","","90","","","","key","16.662365853658695","960","484.5","","","","","","","","","","","","","","","","","","","",""
"psychophysics","254","524711","0.0-18.0-0.3","5a3a570307245d0001fc0692","609a8bf73b2ac84e2732f618","609d747d6d72f3e500d55bc4","null","","","","null","","","","key","16.665367816091816","960","484.5","","","","","","","","","","","","","","","","","","","",""
"psychophysics","255","525217","0.0-18.0-1.3","5a3a570307245d0001fc0692","609a8bf73b2ac84e2732f618","609d747d6d72f3e500d55bc4","null","","","","null","","","","key","16.668379310341873","960","484.5","","","","","","","","","","","","","141","-1","3","true","","","",""
"psychophysics","256","526027","0.0-18.0-2.3","5a3a570307245d0001fc0692","609a8bf73b2ac84e2732f618","609d747d6d72f3e500d55bc4","797.5750000041444","","","","77","","","","key","16.66672916666721","960","484.5","","","","","","","","","","","","","","","","","","","",""
"psychophysics","257","526593","0.0-18.0-0.4","5a3a570307245d0001fc0692","609a8bf73b2ac84e2732f618","609d747d6d72f3e500d55bc4","null","","","","null","","","","key","16.66763636363656","960","484.5","","","","","","","","","","","","","","","","","","","",""
"psychophysics","258","527097","0.0-18.0-1.4","5a3a570307245d0001fc0692","609a8bf73b2ac84e2732f618","609d747d6d72f3e500d55bc4","null","","","","null","","","","key","16.66651724138024","960","484.5","","","","","","","","","","","","","141","1","6","true","","","",""
"psychophysics","259","527895","0.0-18.0-2.4","5a3a570307245d0001fc0692","609a8bf73b2ac84e2732f618","609d747d6d72f3e500d55bc4","795.7049999968149","","","","77","","","","key","16.665085106382165","960","484.5","","","","","","","","","","","","","","","","","","","",""
"psychophysics","260","528547","0.0-18.0-0.5","5a3a570307245d0001fc0692","609a8bf73b2ac84e2732f618","609d747d6d72f3e500d55bc4","null","","","","null","","","","key","16.668473684207513","960","484.5","","","","","","","","","","","","","","","","","","","",""
"psychophysics","261","529050","0.0-18.0-1.5","5a3a570307245d0001fc0692","609a8bf73b2ac84e2732f618","609d747d6d72f3e500d55bc4","null","","","","null","","","","key","16.66734482758229","960","484.5","","","","","","","","","","","","","141","-1","6","true","","","",""
"psychophysics","262","529732","0.0-18.0-2.5","5a3a570307245d0001fc0692","609a8bf73b2ac84e2732f618","609d747d6d72f3e500d55bc4","669.6050000027753","","","","77","","","","key","16.666199999998206","960","484.5","","","","","","","","","","","","","","","","","","","",""
"psychophysics","263","530618","0.0-18.0-0.6","5a3a570307245d0001fc0692","609a8bf73b2ac84e2732f618","609d747d6d72f3e500d55bc4","null","","","","null","","","","key","16.668423076923666","960","484.5","","","","","","","","","","","","","","","","","","","",""
"psychophysics","264","531127","0.0-18.0-1.6","5a3a570307245d0001fc0692","609a8bf73b2ac84e2732f618","609d747d6d72f3e500d55bc4","null","","","","null","","","","key","16.66553333333383","960","484.5","","","","","","","","","","","","","141","1","4","true","","","",""
"psychophysics","265","531762","0.0-18.0-2.6","5a3a570307245d0001fc0692","609a8bf73b2ac84e2732f618","609d747d6d72f3e500d55bc4","632.0750000013504","","","","77","","","","key","16.662972972973726","960","484.5","","","","","","","","","","","","","","","","","","","",""
"psychophysics","266","532333","0.0-18.0-0.7","5a3a570307245d0001fc0692","609a8bf73b2ac84e2732f618","609d747d6d72f3e500d55bc4","null","","","","null","","","","key","16.665242424241804","960","484.5","","","","","","","","","","","","","","","","","","","",""
"psychophysics","267","532845","0.0-18.0-1.7","5a3a570307245d0001fc0692","609a8bf73b2ac84e2732f618","609d747d6d72f3e500d55bc4","null","","","","null","","","","key","16.66480000000059","960","484.5","","","","","","","","","","","","","141","1","3","true","","","",""
"psychophysics","268","533611","0.0-18.0-2.7","5a3a570307245d0001fc0692","609a8bf73b2ac84e2732f618","609d747d6d72f3e500d55bc4","762.2900000133086","","","","90","","","","key","16.667777777778813","960","484.5","","","","","","","","","","","","","","","","","","","",""
"psychophysics","269","535010","0.0-18.0-0.8","5a3a570307245d0001fc0692","609a8bf73b2ac84e2732f618","609d747d6d72f3e500d55bc4","null","","","","null","","","","key","16.666132530120358","960","484.5","","","","","","","","","","","","","","","","","","","",""
"psychophysics","270","535515","0.0-18.0-1.8","5a3a570307245d0001fc0692","609a8bf73b2ac84e2732f618","609d747d6d72f3e500d55bc4","null","","","","null","","","","key","16.667068965520293","960","484.5","","","","","","","","","","","","","141","-1","5","true","","","",""
"psychophysics","271","536295","0.0-18.0-2.8","5a3a570307245d0001fc0692","609a8bf73b2ac84e2732f618","609d747d6d72f3e500d55bc4","777.1650000067893","","","","77","","","","key","16.66771739130617","960","484.5","","","","","","","","","","","","","","","","","","","",""
"psychophysics","272","536967","0.0-18.0-0.9","5a3a570307245d0001fc0692","609a8bf73b2ac84e2732f618","609d747d6d72f3e500d55bc4","null","","","","null","","","","key","16.66330769230934","960","484.5","","","","","","","","","","","","","","","","","","","",""
"psychophysics","273","537476","0.0-18.0-1.9","5a3a570307245d0001fc0692","609a8bf73b2ac84e2732f618","609d747d6d72f3e500d55bc4","null","","","","null","","","","key","16.6681999999991","960","484.5","","","","","","","","","","","","","141","1","0","true","","","",""
"psychophysics","274","538761","0.0-18.0-2.9","5a3a570307245d0001fc0692","609a8bf73b2ac84e2732f618","609d747d6d72f3e500d55bc4","1282.2900000028312","","","","90","","","","key","16.665750000000884","960","484.5","","","","","","","","","","","","","","","","","","","",""
"psychophysics","275","539465","0.0-18.0-0.10","5a3a570307245d0001fc0692","609a8bf73b2ac84e2732f618","609d747d6d72f3e500d55bc4","null","","","","null","","","","key","16.666097560976972","960","484.5","","","","","","","","","","","","","","","","","","","",""
"psychophysics","276","539967","0.0-18.0-1.10","5a3a570307245d0001fc0692","609a8bf73b2ac84e2732f618","609d747d6d72f3e500d55bc4","null","","","","null","","","","key","16.66299999999846","960","484.5","","","","","","","","","","","","","141","1","2","true","","","",""
"psychophysics","277","540577","0.0-18.0-2.10","5a3a570307245d0001fc0692","609a8bf73b2ac84e2732f618","609d747d6d72f3e500d55bc4","598.0800000106683","","","","90","","","","key","16.66624999999961","960","484.5","","","","","","","","","","","","","","","","","","","",""
"psychophysics","278","541911","0.0-18.0-0.11","5a3a570307245d0001fc0692","609a8bf73b2ac84e2732f618","609d747d6d72f3e500d55bc4","null","","","","null","","","","key","16.665835443038283","960","484.5","","","","","","","","","","","","","","","","","","","",""
"psychophysics","279","542418","0.0-18.0-1.11","5a3a570307245d0001fc0692","609a8bf73b2ac84e2732f618","609d747d6d72f3e500d55bc4","null","","","","null","","","","key","16.666551724136486","960","484.5","","","","","","","","","","","","","141","-1","0","true","","","",""
"psychophysics","280","543131","0.0-18.0-2.11","5a3a570307245d0001fc0692","609a8bf73b2ac84e2732f618","609d747d6d72f3e500d55bc4","700.4350000061095","","","","90","","","","key","16.66485714285712","960","484.5","","","","","","","","","","","","","","","","","","","",""
"psychophysics","281","544150","0.0-18.0-0.12","5a3a570307245d0001fc0692","609a8bf73b2ac84e2732f618","609d747d6d72f3e500d55bc4","null","","","","null","","","","key","16.667816666666962","960","484.5","","","","","","","","","","","","","","","","","","","",""
"psychophysics","282","544661","0.0-18.0-1.12","5a3a570307245d0001fc0692","609a8bf73b2ac84e2732f618","609d747d6d72f3e500d55bc4","null","","","","null","","","","key","16.664666666664804","960","484.5","","","","","","","","","","","","","141","-1","3","true","","","",""
"psychophysics","283","545227","0.0-18.0-2.12","5a3a570307245d0001fc0692","609a8bf73b2ac84e2732f618","609d747d6d72f3e500d55bc4","563.7600000045495","","","","90","","","","key","16.667787878788218","960","484.5","","","","","","","","","","","","","","","","","","","",""
"psychophysics","284","546527","0.0-18.0-0.13","5a3a570307245d0001fc0692","609a8bf73b2ac84e2732f618","609d747d6d72f3e500d55bc4","null","","","","null","","","","key","16.66653246753214","960","484.5","","","","","","","","","","","","","","","","","","","",""
"psychophysics","285","547030","0.0-18.0-1.13","5a3a570307245d0001fc0692","609a8bf73b2ac84e2732f618","609d747d6d72f3e500d55bc4","null","","","","null","","","","key","16.668689655172155","960","484.5","","","","","","","","","","","","","141","-1","5","true","","","",""
"psychophysics","286","547579","0.0-18.0-2.13","5a3a570307245d0001fc0692","609a8bf73b2ac84e2732f618","609d747d6d72f3e500d55bc4","547.8200000070501","","","","77","","","","key","16.66771874999904","960","484.5","","","","","","","","","","","","","","","","","","","",""
"psychophysics","287","548458","0.0-18.0-0.14","5a3a570307245d0001fc0692","609a8bf73b2ac84e2732f618","609d747d6d72f3e500d55bc4","null","","","","null","","","","key","16.66588461538329","960","484.5","","","","","","","","","","","","","","","","","","","",""
"psychophysics","288","548962","0.0-18.0-1.14","5a3a570307245d0001fc0692","609a8bf73b2ac84e2732f618","609d747d6d72f3e500d55bc4","null","","","","null","","","","key","16.664586206898093","960","484.5","","","","","","","","","","","","","141","1","4","true","","","",""
"psychophysics","289","549577","0.0-18.0-2.14","5a3a570307245d0001fc0692","609a8bf73b2ac84e2732f618","609d747d6d72f3e500d55bc4","610.4599999962375","","","","77","","","","key","16.667638888889794","960","484.5","","","","","","","","","","","","","","","","","","","",""
"psychophysics","290","550910","0.0-18.0-0.15","5a3a570307245d0001fc0692","609a8bf73b2ac84e2732f618","609d747d6d72f3e500d55bc4","null","","","","null","","","","key","16.665974683543855","960","484.5","","","","","","","","","","","","","","","","","","","",""
"psychophysics","291","551418","0.0-18.0-1.15","5a3a570307245d0001fc0692","609a8bf73b2ac84e2732f618","609d747d6d72f3e500d55bc4","null","","","","null","","","","key","16.669931034481248","960","484.5","","","","","","","","","","","","","141","-1","0","true","","","",""
"psychophysics","292","553012","0.0-18.0-2.15","5a3a570307245d0001fc0692","609a8bf73b2ac84e2732f618","609d747d6d72f3e500d55bc4","1581.8299999955343","","","","77","","","","key","16.665010526315555","960","484.5","","","","","","","","","","","","","","","","","","","",""
"psychophysics","293","554026","0.0-18.0-0.16","5a3a570307245d0001fc0692","609a8bf73b2ac84e2732f618","609d747d6d72f3e500d55bc4","null","","","","null","","","","key","16.666300000000046","960","484.5","","","","","","","","","","","","","","","","","","","",""
"psychophysics","294","554528","0.0-18.0-1.16","5a3a570307245d0001fc0692","609a8bf73b2ac84e2732f618","609d747d6d72f3e500d55bc4","null","","","","null","","","","key","16.668241379308867","960","484.5","","","","","","","","","","","","","141","1","2","true","","","",""
"psychophysics","295","555460","0.0-18.0-2.16","5a3a570307245d0001fc0692","609a8bf73b2ac84e2732f618","609d747d6d72f3e500d55bc4","929.5049999927869","","","","90","","","","key","16.668727272727782","960","484.5","","","","","","","","","","","","","","","","","","","",""
"psychophysics","296","556446","0.0-18.0-0.17","5a3a570307245d0001fc0692","609a8bf73b2ac84e2732f618","609d747d6d72f3e500d55bc4","null","","","","null","","","","key","16.664448275861073","960","484.5","","","","","","","","","","","","","","","","","","","",""
"psychophysics","297","556950","0.0-18.0-1.17","5a3a570307245d0001fc0692","609a8bf73b2ac84e2732f618","609d747d6d72f3e500d55bc4","null","","","","null","","","","key","16.661724137929106","960","484.5","","","","","","","","","","","","","141","1","6","true","","","",""
"psychophysics","298","557548","0.0-18.0-2.17","5a3a570307245d0001fc0692","609a8bf73b2ac84e2732f618","609d747d6d72f3e500d55bc4","582.8500000061467","","","","77","","","","key","16.665914285715136","960","484.5","","","","","","","","","","","","","","","","","","","",""
"psychophysics","299","559011","0.0-18.0-0.18","5a3a570307245d0001fc0692","609a8bf73b2ac84e2732f618","609d747d6d72f3e500d55bc4","null","","","","null","","","","key","16.665701149426262","960","484.5","","","","","","","","","","","","","","","","","","","",""
"psychophysics","300","559516","0.0-18.0-1.18","5a3a570307245d0001fc0692","609a8bf73b2ac84e2732f618","609d747d6d72f3e500d55bc4","null","","","","null","","","","key","16.667551724139827","960","484.5","","","","","","","","","","","","","141","1","3","true","","","",""
"psychophysics","301","560347","0.0-18.0-2.18","5a3a570307245d0001fc0692","609a8bf73b2ac84e2732f618","609d747d6d72f3e500d55bc4","818.6550000100397","","","","77","","","","key","16.665510204081347","960","484.5","","","","","","","","","","","","","","","","","","","",""
"psychophysics","302","561510","0.0-18.0-0.19","5a3a570307245d0001fc0692","609a8bf73b2ac84e2732f618","609d747d6d72f3e500d55bc4","null","","","","null","","","","key","16.665855072464023","960","484.5","","","","","","","","","","","","","","","","","","","",""
"psychophysics","303","562017","0.0-18.0-1.19","5a3a570307245d0001fc0692","609a8bf73b2ac84e2732f618","609d747d6d72f3e500d55bc4","null","","","","null","","","","key","16.666241379310215","960","484.5","","","","","","","","","","","","","141","-1","2","true","","","",""
"psychophysics","304","562684","0.0-18.0-2.19","5a3a570307245d0001fc0692","609a8bf73b2ac84e2732f618","609d747d6d72f3e500d55bc4","654.5500000065658","","","","90","","","","key","16.665589743589337","960","484.5","","","","","","","","","","","","","","","","","","","",""
"psychophysics","305","563845","0.0-18.0-0.20","5a3a570307245d0001fc0692","609a8bf73b2ac84e2732f618","609d747d6d72f3e500d55bc4","null","","","","null","","","","key","16.6662753623205","960","484.5","","","","","","","","","","","","","","","","","","","",""
"psychophysics","306","564349","0.0-18.0-1.20","5a3a570307245d0001fc0692","609a8bf73b2ac84e2732f618","609d747d6d72f3e500d55bc4","null","","","","null","","","","key","16.668344827585628","960","484.5","","","","","","","","","","","","","141","1","0","true","","","",""
"psychophysics","307","565844","0.0-18.0-2.20","5a3a570307245d0001fc0692","609a8bf73b2ac84e2732f618","609d747d6d72f3e500d55bc4","1482.8850000048988","","","","90","","","","key","16.665876404494778","960","484.5","","","","","","","","","","","","","","","","","","","",""
"psychophysics","308","566625","0.0-18.0-0.21","5a3a570307245d0001fc0692","609a8bf73b2ac84e2732f618","609d747d6d72f3e500d55bc4","null","","","","null","","","","key","16.669043478259876","960","484.5","","","","","","","","","","","","","","","","","","","",""
"psychophysics","309","567134","0.0-18.0-1.21","5a3a570307245d0001fc0692","609a8bf73b2ac84e2732f618","609d747d6d72f3e500d55bc4","null","","","","null","","","","key","16.663620689655012","960","484.5","","","","","","","","","","","","","141","1","5","true","","","",""
"psychophysics","310","567711","0.0-18.0-2.21","5a3a570307245d0001fc0692","609a8bf73b2ac84e2732f618","609d747d6d72f3e500d55bc4","565.4599999979837","","","","77","","","","key","16.662470588238005","960","484.5","","","","","","","","","","","","","","","","","","","",""
"psychophysics","311","568367","0.0-18.0-0.22","5a3a570307245d0001fc0692","609a8bf73b2ac84e2732f618","609d747d6d72f3e500d55bc4","null","","","","null","","","","key","16.66597368421131","960","484.5","","","","","","","","","","","","","","","","","","","",""
"psychophysics","312","568876","0.0-18.0-1.22","5a3a570307245d0001fc0692","609a8bf73b2ac84e2732f618","609d747d6d72f3e500d55bc4","null","","","","null","","","","key","16.665399999998044","960","484.5","","","","","","","","","","","","","141","-1","4","true","","","",""
"psychophysics","313","569625","0.0-18.0-2.22","5a3a570307245d0001fc0692","609a8bf73b2ac84e2732f618","609d747d6d72f3e500d55bc4","745.519999996759","","","","77","","","","key","16.668159090908542","960","484.5","","","","","","","","","","","","","","","","","","","",""
"psychophysics","314","570859","0.0-18.0-0.23","5a3a570307245d0001fc0692","609a8bf73b2ac84e2732f618","609d747d6d72f3e500d55bc4","null","","","","null","","","","key","16.666356164383167","960","484.5","","","","","","","","","","","","","","","","","","","",""
"psychophysics","315","571366","0.0-18.0-1.23","5a3a570307245d0001fc0692","609a8bf73b2ac84e2732f618","609d747d6d72f3e500d55bc4","null","","","","null","","","","key","16.666275862070474","960","484.5","","","","","","","","","","","","","141","-1","6","true","","","",""
"psychophysics","316","571994","0.0-18.0-2.23","5a3a570307245d0001fc0692","609a8bf73b2ac84e2732f618","609d747d6d72f3e500d55bc4","614.4750000094064","","","","77","","","","key","16.665702702700965","960","484.5","","","","","","","","","","","","","","","","","","","",""
"psychophysics","317","573359","0.0-18.0-0.24","5a3a570307245d0001fc0692","609a8bf73b2ac84e2732f618","609d747d6d72f3e500d55bc4","null","","","","null","","","","key","16.666370370370668","960","484.5","","","","","","","","","","","","","","","","","","","",""
"psychophysics","318","573862","0.0-18.0-1.24","5a3a570307245d0001fc0692","609a8bf73b2ac84e2732f618","609d747d6d72f3e500d55bc4","null","","","","null","","","","key","16.66410344827856","960","484.5","","","","","","","","","","","","","141","-1","4","true","","","",""
"psychophysics","319","574477","0.0-18.0-2.24","5a3a570307245d0001fc0692","609a8bf73b2ac84e2732f618","609d747d6d72f3e500d55bc4","612.1349999884842","","","","77","","","","key","16.66949999999876","960","484.5","","","","","","","","","","","","","","","","","","","",""
"psychophysics","320","575475","0.0-18.0-0.25","5a3a570307245d0001fc0692","609a8bf73b2ac84e2732f618","609d747d6d72f3e500d55bc4","null","","","","null","","","","key","16.66650847457665","960","484.5","","","","","","","","","","","","","","","","","","","",""
"psychophysics","321","575977","0.0-18.0-1.25","5a3a570307245d0001fc0692","609a8bf73b2ac84e2732f618","609d747d6d72f3e500d55bc4","null","","","","null","","","","key","16.663172413791724","960","484.5","","","","","","","","","","","","","141","1","3","true","","","",""
"psychophysics","322","576677","0.0-18.0-2.25","5a3a570307245d0001fc0692","609a8bf73b2ac84e2732f618","609d747d6d72f3e500d55bc4","696.9050000043353","","","","77","","","","key","16.6674878048773","960","484.5","","","","","","","","","","","","","","","","","","","",""
"psychophysics","323","577909","0.0-18.0-0.26","5a3a570307245d0001fc0692","609a8bf73b2ac84e2732f618","609d747d6d72f3e500d55bc4","null","","","","null","","","","key","16.66571232876804","960","484.5","","","","","","","","","","","","","","","","","","","",""
"psychophysics","324","578417","0.0-18.0-1.26","5a3a570307245d0001fc0692","609a8bf73b2ac84e2732f618","609d747d6d72f3e500d55bc4","null","","","","null","","","","key","16.668586206895394","960","484.5","","","","","","","","","","","","","141","-1","0","true","","","",""
"psychophysics","325","578995","0.0-18.0-2.26","5a3a570307245d0001fc0692","609a8bf73b2ac84e2732f618","609d747d6d72f3e500d55bc4","565.599999987171","","","","77","","","","key","16.662823529410698","960","484.5","","","","","","","","","","","","","","","","","","","",""
"psychophysics","326","579816","0.0-18.0-0.27","5a3a570307245d0001fc0692","609a8bf73b2ac84e2732f618","609d747d6d72f3e500d55bc4","null","","","","null","","","","key","16.665104166667636","960","484.5","","","","","","","","","","","","","","","","","","","",""
"psychophysics","327","580325","0.0-18.0-1.27","5a3a570307245d0001fc0692","609a8bf73b2ac84e2732f618","609d747d6d72f3e500d55bc4","null","","","","null","","","","key","16.670200000000964","960","484.5","","","","","","","","","","","","","141","-1","6","true","","","",""
"psychophysics","328","580993","0.0-18.0-2.27","5a3a570307245d0001fc0692","609a8bf73b2ac84e2732f618","609d747d6d72f3e500d55bc4","665.2049999975134","","","","77","","","","key","16.666897435896455","960","484.5","","","","","","","","","","","","","","","","","","","",""
