"trial_type","trial_index","time_elapsed","internal_node_id","PROLIFIC_PID","STUDY_ID","SESSION_ID","rt","stimulus","button_pressed","success","key_press","responses","isData","view_history","response_type","avg_frame_time","center_x","center_y","isSC","stim_side","trial_luminance","step_size","nReversal","correct","prev_ans","isThreshold","SC_threshold","final_threshold","isLuminance","FF_luminance","luminance","stimSide","ISInt","isFF","question_order","isSPQ","isCAPS","isAQ"
"pavlovia","0","8","0.0-0.0","5fa6ada9bf4e8c30188809e6","609a8bf73b2ac84e2732f618","609d76787394a70299ff7509","","","","","","","","","","","","","","","","","","","","","","","","","","","","","","","",""
"html-button-response","1","4812","0.0-1.0","5fa6ada9bf4e8c30188809e6","609a8bf73b2ac84e2732f618","609d76787394a70299ff7509","4801.2350000008155","<div style='background-color: white; width:60%; margin: auto; padding: 50px; text-align: justify; text-justify: inter-word; margin-bottom: 20px;'><h1 style='text-align: center;'>Consent Form</h1><p>Please read this consent form carefully before deciding whether you would like to participate in this study. You have to be 18 years old or older to participate to this study.</p><p style='text-decoration: underline;'>Participation is voluntary:</p><p>It is your choice whether or not to participate in this research. If you choose to participate, you may change your mind and leave the study at any time. Refusal to participate or stopping your participation will involve no penalty or loss of benefits to which you are otherwise entitled.</p><p style='text-decoration: underline;'>Purpose of the Study:</p><p>To understand the mechanisms underlying human perception.</p><p style='text-decoration: underline;'>What you will do in this study:</p><p>You will be presented with a series of visual images and then you will press buttons on the keyboard of your computer to respond to simple questions about the images (e.g. Were one or two images presented?). In addition, you will be asked to complete a questionnaire concerning your beliefs and everyday mental and perceptual experiences.'</p><p style='text-decoration: underline;'> Time Required:</p><p>The study will take 40 minutes to complete. </p><p style='text-decoration: underline;'>Risks:</p><p>There are no anticipated risks associated with participating in this study that are beyond those experienced in everyday life. </p><p style='text-decoration: underline;'>Benefits:</p><p>There are no benefits to you in participating in the study. However, this study may lead to a better understanding of how different kinds of visual information are used.</p><p style='text-decoration: underline;'>Compensation:</p><p>You will be paid US$6.6/hour. </p><p style='text-decoration: underline;'>Privacy and Confidentiality:</p><p>Your participation in this study will be anonymous. No personal information about your name or identity will be asked or recorded. This anonymous data will be stored for several years and may be used for a variety of research purposes. The overall results of the study may be published, or the data files may be shared with other researchers, but your identity will not be revealed in any way. The online services we are using for this study may temporarily store your data, but this data will be downloaded and then promptly deleted from those services.Your data will not be permanently associated with your name, IP address, or any other identifiable information (e.g., your information will only be connected to your payment, not to any of your responses), though they may be temporarily stored together before we download and separate them. Even so, no guarantee of internet survey security can be given because, although unlikely, transmissions can be intercepted and IP addresses can be identified. The anonymous data may be shared publicly (for example, in conjunction with a resulting academic publication).</p><p style='text-decoration: underline;'>Participation and Withdrawal:</p><p>Your participation in this study is completely voluntary. You may stop responding to the stimuli or stop answering questions if you so choose and without penalty by exiting the full screen mode, closing this tab of your browser or redirecting it to a different website.</p><p style='text-decoration: underline;'>Contact Info of the Researcher: </p><p>If you have questions about this study, or if you would like to talk to the research team, please contact David Melcher (david.melcher@nyu.edu, md5050@nyu.edu) at the Perception and Active Cognition Laboratory, New York University Abu Dhabi, Computational Research Building, Saadiyat Island, Abu Dhabi, UAE.This research has been reviewed by the New York University Abu Dhabi Institutional Review Board (NYUAD IRB). To contact about your rights in this research, for questions, suggestions, or complaints that are not addressed by the researchers, please email IRBnyuad@nyu.edu, or call the NYUAD IRB at +971 2 628 4313. </p></div>","0","","","","","","","","","","","","","","","","","","","","","","","","","","","","",""
"fullscreen","2","6570","0.0-2.0","5fa6ada9bf4e8c30188809e6","609a8bf73b2ac84e2732f618","609d76787394a70299ff7509","","","","true","","","","","","","","","","","","","","","","","","","","","","","","","","","",""
"html-keyboard-response","3","17744","0.0-3.0","5fa6ada9bf4e8c30188809e6","609a8bf73b2ac84e2732f618","609d76787394a70299ff7509","11172.120000001087","<p>Welcome !</p><p>READ CAREFULLY THE FOLLOWING INDICATIONS:</p><p>From this moment you have ~40 minutes to complete the experiment.</p><p>During the experiment you will be prompted to take several breaks. Each break should not last longer than 2-3 minutes.</p><p>Make sure that your computer is plugged in and it's not running on battery power, even if the battery is already fully charged.</p><p>Turn off your phone and music, make sure that you are in a quiet room and that you will not be distracted for the next hour.</p><p>Failure to comply with the instructions and indications provided during the experiment will most likely result in the rejection of your data.<p>Press the spacebar to start.</p>","","","32","","","","","","","","","","","","","","","","","","","","","","","","","","",""
"survey-html-form","4","24143","0.0-4.0","5fa6ada9bf4e8c30188809e6","609a8bf73b2ac84e2732f618","609d76787394a70299ff7509","6394.57499999844","","","","","{""age"":""35"",""sex"":""m""}","true","","","","","","","","","","","","","","","","","","","","","","","","",""
"instructions","5","74238","0.0-5.0","5fa6ada9bf4e8c30188809e6","609a8bf73b2ac84e2732f618","609d76787394a70299ff7509","50094.93499999917","","","","","","","[{""page_index"":0,""viewing_time"":28876.304999999775},{""page_index"":1,""viewing_time"":12401.93999999974},{""page_index"":2,""viewing_time"":8816.530000000057}]","","","","","","","","","","","","","","","","","","","","","","","",""
"psychophysics","6","75470","0.0-6.0-0.0","5fa6ada9bf4e8c30188809e6","609a8bf73b2ac84e2732f618","609d76787394a70299ff7509","228.2149999991816","","","","39","","","","key","16.564716216216276","960","468.5","true","1","180","30","0","-1","","","","","","","","","","","","","",""
"psychophysics","7","76509","0.0-6.0-0.1","5fa6ada9bf4e8c30188809e6","609a8bf73b2ac84e2732f618","609d76787394a70299ff7509","37.440000000060536","","","","37","","","","key","16.676459016393608","960","468.5","true","-1","180","30","0","-1","-1","","","","","","","","","","","","",""
"psychophysics","8","79367","0.0-6.0-0.2","5fa6ada9bf4e8c30188809e6","609a8bf73b2ac84e2732f618","609d76787394a70299ff7509","1855.8700000012323","","","","37","","","","key","16.676596491228008","960","468.5","true","-1","150","30","0","-1","-1","","","","","","","","","","","","",""
"psychophysics","9","80421","0.0-6.0-0.3","5fa6ada9bf4e8c30188809e6","609a8bf73b2ac84e2732f618","609d76787394a70299ff7509","50.86499999924854","","","","39","","","","key","16.676548387096712","960","468.5","true","1","150","30","0","-1","-1","","","","","","","","","","","","",""
"psychophysics","10","83753","0.0-6.0-0.4","5fa6ada9bf4e8c30188809e6","609a8bf73b2ac84e2732f618","609d76787394a70299ff7509","2327.385000000504","","","","39","","","","key","17.74668983957216","960","468.5","true","1","129","30","0","-1","-1","","","","","","","","","","","","",""
"psychophysics","11","87158","0.0-6.0-0.5","5fa6ada9bf4e8c30188809e6","609a8bf73b2ac84e2732f618","609d76787394a70299ff7509","2402.7699999987817","","","","39","","","","key","16.67665024630542","960","468.5","true","-1","129","24","1","1","-1","","","","","","","","","","","","",""
"psychophysics","12","88206","0.0-6.0-0.6","5fa6ada9bf4e8c30188809e6","609a8bf73b2ac84e2732f618","609d76787394a70299ff7509","46.29999999997381","","","","39","","","","key","16.67649999999999","960","468.5","true","1","153","24","1","-1","1","","","","","","","","","","","","",""
"psychophysics","13","89239","0.0-6.0-0.7","5fa6ada9bf4e8c30188809e6","609a8bf73b2ac84e2732f618","609d76787394a70299ff7509","29.994999998962157","","","","39","","","","key","16.676786885245896","960","468.5","true","1","153","19.2","2","-1","-1","","","","","","","","","","","","",""
"psychophysics","14","92933","0.0-6.0-0.8","5fa6ada9bf4e8c30188809e6","609a8bf73b2ac84e2732f618","609d76787394a70299ff7509","2687.245000000985","","","","37","","","","key","17.809752427184435","960","468.5","true","-1","133.8","19.2","2","-1","-1","","","","","","","","","","","","",""
"psychophysics","15","95511","0.0-6.0-0.9","5fa6ada9bf4e8c30188809e6","609a8bf73b2ac84e2732f618","609d76787394a70299ff7509","1574.2599999994127","","","","39","","","","key","16.67645454545454","960","468.5","true","-1","133.8","15.36","3","1","-1","","","","","","","","","","","","",""
"psychophysics","16","96576","0.0-6.0-0.10","5fa6ada9bf4e8c30188809e6","609a8bf73b2ac84e2732f618","609d76787394a70299ff7509","61.98500000027707","","","","39","","","","key","16.676365079365148","960","468.5","true","1","149.16000000000003","15.36","3","-1","1","","","","","","","","","","","","",""
"psychophysics","17","97670","0.0-6.0-0.11","5fa6ada9bf4e8c30188809e6","609a8bf73b2ac84e2732f618","609d76787394a70299ff7509","91.23499999986961","","","","37","","","","key","16.676468749999913","960","468.5","true","-1","149.16000000000003","12.287999999999998","4","-1","-1","","","","","","","","","","","","",""
"psychophysics","18","99462","0.0-6.0-0.12","5fa6ada9bf4e8c30188809e6","609a8bf73b2ac84e2732f618","609d76787394a70299ff7509","789.4749999995838","","","","37","","","","key","16.676439252336458","960","468.5","true","-1","136.872","12.287999999999998","4","-1","-1","","","","","","","","","","","","",""
"psychophysics","19","100528","0.0-6.0-0.13","5fa6ada9bf4e8c30188809e6","609a8bf73b2ac84e2732f618","609d76787394a70299ff7509","63.57500000012806","","","","39","","","","key","16.676142857142768","960","468.5","true","1","136.872","12.287999999999998","4","-1","-1","","","","","","","","","","","","",""
"psychophysics","20","102357","0.0-6.0-0.14","5fa6ada9bf4e8c30188809e6","609a8bf73b2ac84e2732f618","609d76787394a70299ff7509","818.0650000012974","","","","39","","","","key","19.15964893617019","960","468.5","true","1","129","12.287999999999998","4","-1","-1","","","","","","","","","","","","",""
"psychophysics","21","103895","0.0-6.0-0.15","5fa6ada9bf4e8c30188809e6","609a8bf73b2ac84e2732f618","609d76787394a70299ff7509","535.8500000002095","","","","39","","","","key","16.861588888888782","960","468.5","true","1","129","12.287999999999998","4","-1","-1","","","","","","","","","","","","",""
"psychophysics","22","105525","0.0-6.0-0.16","5fa6ada9bf4e8c30188809e6","609a8bf73b2ac84e2732f618","609d76787394a70299ff7509","629.0599999992992","","","","39","","","","key","16.676000000000002","960","468.5","true","-1","129","9.8304","5","1","-1","","","","","","","","","","","","",""
"psychophysics","23","106877","0.0-6.0-0.17","5fa6ada9bf4e8c30188809e6","609a8bf73b2ac84e2732f618","609d76787394a70299ff7509","350.6249999991269","","","","39","","","","key","16.675974999999926","960","468.5","true","1","138.8304","9.8304","5","-1","1","","","","","","","","","","","","",""
"psychophysics","24","107918","0.0-6.0-0.18","5fa6ada9bf4e8c30188809e6","609a8bf73b2ac84e2732f618","609d76787394a70299ff7509","38.810000000012224","","","","37","","","","key","16.675983870967624","960","468.5","true","-1","138.8304","7.864319999999999","6","-1","-1","","","","","","","","","","","","",""
"psychophysics","25","109335","0.0-6.0-0.19","5fa6ada9bf4e8c30188809e6","609a8bf73b2ac84e2732f618","609d76787394a70299ff7509","415.25999999976193","","","","39","","","","key","16.67652380952374","960","468.5","true","1","130.96608","7.864319999999999","6","-1","-1","","","","","","","","","","","","",""
"psychophysics","26","111870","0.0-6.0-0.20","5fa6ada9bf4e8c30188809e6","609a8bf73b2ac84e2732f618","609d76787394a70299ff7509","1533.6849999985134","","","","39","","","","key","16.676516556291357","960","468.5","true","1","130.96608","7.864319999999999","6","-1","-1","","","","","","","","","","","","",""
"psychophysics","27","113893","0.0-6.0-0.21","5fa6ada9bf4e8c30188809e6","609a8bf73b2ac84e2732f618","609d76787394a70299ff7509","1021.7000000011467","","","","39","","","","key","16.676383333333312","960","468.5","true","1","129","7.864319999999999","6","-1","-1","","","","","","","","","","","","",""
"psychophysics","28","115741","0.0-6.0-0.22","5fa6ada9bf4e8c30188809e6","609a8bf73b2ac84e2732f618","609d76787394a70299ff7509","846.8250000005355","","","","39","","","","key","16.67677272727266","960","468.5","true","-1","129","6.291456","7","1","-1","","","","","","","","","","","","",""
"psychophysics","29","116829","0.0-6.0-0.23","5fa6ada9bf4e8c30188809e6","609a8bf73b2ac84e2732f618","609d76787394a70299ff7509","85.17499999834399","","","","37","","","","key","16.676296874999935","960","468.5","true","-1","135.291456","6.291456","7","-1","1","","","","","","","","","","","","",""
"psychophysics","30","117873","0.0-6.0-0.24","5fa6ada9bf4e8c30188809e6","609a8bf73b2ac84e2732f618","609d76787394a70299ff7509","42.704999999841675","","","","37","","","","key","16.67654838709695","960","468.5","true","-1","135.291456","5.033164800000001","8","-1","-1","","","","","","","","","","","","",""
"psychophysics","31","119910","0.0-6.0-0.25","5fa6ada9bf4e8c30188809e6","609a8bf73b2ac84e2732f618","609d76787394a70299ff7509","1035.3900000009162","","","","39","","","","key","16.676652892561982","960","468.5","true","-1","130.2582912","4.0265318400000005","9","1","-1","","","","","","","","","","","","",""
"psychophysics","32","120942","0.0-6.0-0.26","5fa6ada9bf4e8c30188809e6","609a8bf73b2ac84e2732f618","609d76787394a70299ff7509","31.064999999216525","","","","37","","","","key","16.677147540983555","960","468.5","true","-1","134.28482304","4.0265318400000005","9","-1","1","","","","","","","","","","","","",""
"psychophysics","33","121989","0.0-6.0-0.27","5fa6ada9bf4e8c30188809e6","609a8bf73b2ac84e2732f618","609d76787394a70299ff7509","29.90499999941676","","","","37","","","","key","16.67691666666663","960","468.5","true","-1","134.28482304","3.2212254720000004","10","-1","-1","","","","","","","","","","","","",""
"psychophysics","34","123694","0.0-6.0-0.28","5fa6ada9bf4e8c30188809e6","609a8bf73b2ac84e2732f618","609d76787394a70299ff7509","702.8150000005553","","","","37","","","","key","16.67695098039215","960","468.5","true","1","131.06359756799998","2.5769803776000004","11","1","-1","","","","","","","","","","","","",""
"psychophysics","35","125246","0.0-6.0-0.29","5fa6ada9bf4e8c30188809e6","609a8bf73b2ac84e2732f618","609d76787394a70299ff7509","541.7400000005728","","","","39","","","","key","16.67631521739136","960","468.5","true","1","133.64057794559997","2.5769803776000004","11","-1","1","","","","","","","","","","","","",""
"psychophysics","36","126646","0.0-6.0-0.30","5fa6ada9bf4e8c30188809e6","609a8bf73b2ac84e2732f618","609d76787394a70299ff7509","398.07500000097207","","","","37","","","","key","16.676385542168667","960","468.5","true","-1","133.64057794559997","2.0615843020800004","12","-1","-1","","","","","","","","","","","","",""
"psychophysics","37","127944","0.0-6.0-0.31","5fa6ada9bf4e8c30188809e6","609a8bf73b2ac84e2732f618","609d76787394a70299ff7509","294.91499999858206","","","","37","","","","key","16.67764935064921","960","468.5","true","1","131.57899364351996","1.6492674416640005","13","1","-1","","","","","","","","","","","","",""
"psychophysics","38","129318","0.0-6.0-0.32","5fa6ada9bf4e8c30188809e6","609a8bf73b2ac84e2732f618","609d76787394a70299ff7509","371.0399999999936","","","","39","","","","key","16.676580246913577","960","468.5","true","1","133.22826108518396","1.6492674416640005","13","-1","1","","","","","","","","","","","","",""
"psychophysics","39","132390","0.0-6.0-0.33","5fa6ada9bf4e8c30188809e6","609a8bf73b2ac84e2732f618","609d76787394a70299ff7509","2071.00999999966","","","","37","","","","key","18.05765680473368","960","468.5","true","-1","133.22826108518396","1.3194139533312006","14","-1","-1","","","","","","","","","","","","",""
"psychophysics","40","134432","0.0-6.0-0.34","5fa6ada9bf4e8c30188809e6","609a8bf73b2ac84e2732f618","609d76787394a70299ff7509","1039.534999999887","","","","37","","","","key","16.813983471074366","960","468.5","true","-1","131.90884713185275","1.3194139533312006","14","-1","-1","","","","","","","","","","","","",""
"psychophysics","41","135934","0.0-6.0-0.35","5fa6ada9bf4e8c30188809e6","609a8bf73b2ac84e2732f618","609d76787394a70299ff7509","498.5400000005029","","","","39","","","","key","16.676168539325886","960","468.5","true","1","131.90884713185275","1.3194139533312006","14","-1","-1","","","","","","","","","","","","",""
"psychophysics","42","137600","0.0-6.0-0.36","5fa6ada9bf4e8c30188809e6","609a8bf73b2ac84e2732f618","609d76787394a70299ff7509","663.8799999982293","","","","39","","","","key","16.67634343434357","960","468.5","true","1","130.58943317852155","1.3194139533312006","14","-1","-1","","","","","","","","","","","","",""
"psychophysics","43","139030","0.0-6.0-0.37","5fa6ada9bf4e8c30188809e6","609a8bf73b2ac84e2732f618","609d76787394a70299ff7509","426.78000000159955","","","","39","","","","key","16.676404761904752","960","468.5","true","-1","130.58943317852155","1.0555311626649604","15","1","-1","","","","","","","","","","","","",""
"psychophysics","44","140782","0.0-6.0-0.38","5fa6ada9bf4e8c30188809e6","609a8bf73b2ac84e2732f618","609d76787394a70299ff7509","750.6049999992829","","","","39","","","","key","16.837825242718466","960","468.5","true","1","131.6449643411865","1.0555311626649604","15","-1","1","","","","","","","","","","","","",""
"psychophysics","45","142214","0.0-6.0-0.39","5fa6ada9bf4e8c30188809e6","609a8bf73b2ac84e2732f618","609d76787394a70299ff7509","428.9000000008091","","","","39","","","","key","16.67643529411768","960","468.5","true","-1","131.6449643411865","1","16","1","-1","","","","","","","","","","","","",""
"html-keyboard-response","46","146190","0.0-7.0","5fa6ada9bf4e8c30188809e6","609a8bf73b2ac84e2732f618","609d76787394a70299ff7509","3974.9849999989383","<p>Well Done !</p><p>Prepare for a new block.</p><p>DON'T EXIT THE FULL SCREEN MODE</p><p>Press the Spacebar to start.</p>","","","32","","","","","","","","","","","","","","","true","132.23297972374732","","","","","","","","","","",""
"psychophysics","47","148086","0.0-8.0-0.0","5fa6ada9bf4e8c30188809e6","609a8bf73b2ac84e2732f618","609d76787394a70299ff7509","892.9450000014331","","","","39","","","","key","16.62524561403501","960","468.5","true","1","180","30","0","-1","","","","","","","","","","","","","",""
"psychophysics","48","149510","0.0-8.0-0.1","5fa6ada9bf4e8c30188809e6","609a8bf73b2ac84e2732f618","609d76787394a70299ff7509","423.1050000016694","","","","39","","","","key","16.676785714285437","960","468.5","true","1","180","30","0","-1","-1","","","","","","","","","","","","",""
"psychophysics","49","150805","0.0-8.0-0.2","5fa6ada9bf4e8c30188809e6","609a8bf73b2ac84e2732f618","609d76787394a70299ff7509","294.3350000004866","","","","37","","","","key","16.676220779220632","960","468.5","true","-1","150","30","0","-1","-1","","","","","","","","","","","","",""
"psychophysics","50","152126","0.0-8.0-0.3","5fa6ada9bf4e8c30188809e6","609a8bf73b2ac84e2732f618","609d76787394a70299ff7509","318.4000000000815","","","","39","","","","key","16.676499999999905","960","468.5","true","1","150","30","0","-1","-1","","","","","","","","","","","","",""
"psychophysics","51","153688","0.0-8.0-0.4","5fa6ada9bf4e8c30188809e6","609a8bf73b2ac84e2732f618","609d76787394a70299ff7509","560.0250000006927","","","","39","","","","key","16.676354838709813","960","468.5","true","-1","129","24","1","1","-1","","","","","","","","","","","","",""
"psychophysics","52","154990","0.0-8.0-0.5","5fa6ada9bf4e8c30188809e6","609a8bf73b2ac84e2732f618","609d76787394a70299ff7509","299.989999999525","","","","39","","","","key","16.67654545454523","960","468.5","true","1","153","24","1","-1","1","","","","","","","","","","","","",""
"psychophysics","53","156310","0.0-8.0-0.6","5fa6ada9bf4e8c30188809e6","609a8bf73b2ac84e2732f618","609d76787394a70299ff7509","317.42000000120606","","","","39","","","","key","16.67642307692343","960","468.5","true","1","153","19.2","2","-1","-1","","","","","","","","","","","","",""
"psychophysics","54","157734","0.0-8.0-0.7","5fa6ada9bf4e8c30188809e6","609a8bf73b2ac84e2732f618","609d76787394a70299ff7509","421.94999999995343","","","","39","","","","key","16.67655952380959","960","468.5","true","1","133.8","19.2","2","-1","-1","","","","","","","","","","","","",""
"psychophysics","55","159078","0.0-8.0-0.8","5fa6ada9bf4e8c30188809e6","609a8bf73b2ac84e2732f618","609d76787394a70299ff7509","341.47500000108266","","","","37","","","","key","16.67601250000007","960","468.5","true","-1","133.8","19.2","2","-1","-1","","","","","","","","","","","","",""
"psychophysics","56","161110","0.0-8.0-0.9","5fa6ada9bf4e8c30188809e6","609a8bf73b2ac84e2732f618","609d76787394a70299ff7509","1031.499999999156","","","","37","","","","key","16.67668595041311","960","468.5","true","1","129","15.36","3","1","-1","","","","","","","","","","","","",""
"psychophysics","57","162408","0.0-8.0-0.10","5fa6ada9bf4e8c30188809e6","609a8bf73b2ac84e2732f618","609d76787394a70299ff7509","295.0450000007695","","","","39","","","","key","16.676922077922356","960","468.5","true","1","144.36","15.36","3","-1","1","","","","","","","","","","","","",""
"psychophysics","58","163838","0.0-8.0-0.11","5fa6ada9bf4e8c30188809e6","609a8bf73b2ac84e2732f618","609d76787394a70299ff7509","427.13999999978114","","","","37","","","","key","16.6770000000002","960","468.5","true","-1","144.36","12.287999999999998","4","-1","-1","","","","","","","","","","","","",""
"psychophysics","59","165318","0.0-8.0-0.12","5fa6ada9bf4e8c30188809e6","609a8bf73b2ac84e2732f618","609d76787394a70299ff7509","478.9949999994715","","","","39","","","","key","16.676409090909146","960","468.5","true","-1","132.072","9.8304","5","1","-1","","","","","","","","","","","","",""
"psychophysics","60","166630","0.0-8.0-0.13","5fa6ada9bf4e8c30188809e6","609a8bf73b2ac84e2732f618","609d76787394a70299ff7509","311.16499999916414","","","","37","","","","key","19.414492537313116","960","468.5","true","-1","141.9024","9.8304","5","-1","1","","","","","","","","","","","","",""
"psychophysics","61","168038","0.0-8.0-0.14","5fa6ada9bf4e8c30188809e6","609a8bf73b2ac84e2732f618","609d76787394a70299ff7509","406.3749999986612","","","","37","","","","key","16.676771084337595","960","468.5","true","-1","141.9024","7.864319999999999","6","-1","-1","","","","","","","","","","","","",""
"psychophysics","62","169390","0.0-8.0-0.15","5fa6ada9bf4e8c30188809e6","609a8bf73b2ac84e2732f618","609d76787394a70299ff7509","348.9700000009034","","","","37","","","","key","16.67637500000019","960","468.5","true","-1","134.03808","7.864319999999999","6","-1","-1","","","","","","","","","","","","",""
"psychophysics","63","170726","0.0-8.0-0.16","5fa6ada9bf4e8c30188809e6","609a8bf73b2ac84e2732f618","609d76787394a70299ff7509","333.48500000103377","","","","39","","","","key","16.676329113924332","960","468.5","true","1","134.03808","7.864319999999999","6","-1","-1","","","","","","","","","","","","",""
"psychophysics","64","172702","0.0-8.0-0.17","5fa6ada9bf4e8c30188809e6","609a8bf73b2ac84e2732f618","609d76787394a70299ff7509","974.0549999987707","","","","39","","","","key","16.676279661017006","960","468.5","true","1","129","7.864319999999999","6","-1","-1","","","","","","","","","","","","",""
"psychophysics","65","174135","0.0-8.0-0.18","5fa6ada9bf4e8c30188809e6","609a8bf73b2ac84e2732f618","609d76787394a70299ff7509","430.4200000005658","","","","39","","","","key","16.874928571428644","960","468.5","true","-1","129","6.291456","7","1","-1","","","","","","","","","","","","",""
"psychophysics","66","175510","0.0-8.0-0.19","5fa6ada9bf4e8c30188809e6","609a8bf73b2ac84e2732f618","609d76787394a70299ff7509","372.1850000001723","","","","37","","","","key","16.67634567901252","960","468.5","true","-1","135.291456","6.291456","7","-1","1","","","","","","","","","","","","",""
"psychophysics","67","176984","0.0-8.0-0.20","5fa6ada9bf4e8c30188809e6","609a8bf73b2ac84e2732f618","609d76787394a70299ff7509","472.8599999998696","","","","39","","","","key","19.56728000000003","960","468.5","true","1","135.291456","5.033164800000001","8","-1","-1","","","","","","","","","","","","",""
"psychophysics","68","178984","0.0-8.0-0.21","5fa6ada9bf4e8c30188809e6","609a8bf73b2ac84e2732f618","609d76787394a70299ff7509","996.6449999992619","","","","39","","","","key","16.676423728813553","960","468.5","true","-1","130.2582912","4.0265318400000005","9","1","-1","","","","","","","","","","","","",""
"psychophysics","69","180741","0.0-8.0-0.22","5fa6ada9bf4e8c30188809e6","609a8bf73b2ac84e2732f618","609d76787394a70299ff7509","755.3449999995937","","","","39","","","","key","16.676485714285878","960","468.5","true","-1","134.28482304","4.0265318400000005","9","1","1","","","","","","","","","","","","",""
"psychophysics","70","182121","0.0-8.0-0.23","5fa6ada9bf4e8c30188809e6","609a8bf73b2ac84e2732f618","609d76787394a70299ff7509","376.4599999994971","","","","37","","","","key","16.676304878048718","960","468.5","true","-1","138.31135487999998","4.0265318400000005","9","-1","1","","","","","","","","","","","","",""
"psychophysics","71","183590","0.0-8.0-0.24","5fa6ada9bf4e8c30188809e6","609a8bf73b2ac84e2732f618","609d76787394a70299ff7509","467.24999999967986","","","","37","","","","key","16.67636781609209","960","468.5","true","-1","138.31135487999998","3.2212254720000004","10","-1","-1","","","","","","","","","","","","",""
"psychophysics","72","184950","0.0-8.0-0.25","5fa6ada9bf4e8c30188809e6","609a8bf73b2ac84e2732f618","609d76787394a70299ff7509","357.90500000072643","","","","39","","","","key","16.676425000000016","960","468.5","true","1","135.090129408","3.2212254720000004","10","-1","-1","","","","","","","","","","","","",""
"psychophysics","73","186342","0.0-8.0-0.26","5fa6ada9bf4e8c30188809e6","609a8bf73b2ac84e2732f618","609d76787394a70299ff7509","388.94500000058906","","","","39","","","","key","16.67604819277101","960","468.5","true","1","135.090129408","3.2212254720000004","10","-1","-1","","","","","","","","","","","","",""
"psychophysics","74","187798","0.0-8.0-0.27","5fa6ada9bf4e8c30188809e6","609a8bf73b2ac84e2732f618","609d76787394a70299ff7509","454.07999999952153","","","","37","","","","key","20.198971830985613","960","468.5","true","1","131.86890393599998","2.5769803776000004","11","1","-1","","","","","","","","","","","","",""
"psychophysics","75","189135","0.0-8.0-0.28","5fa6ada9bf4e8c30188809e6","609a8bf73b2ac84e2732f618","609d76787394a70299ff7509","333.48500000100466","","","","37","","","","key","16.67653164556994","960","468.5","true","-1","134.44588431359998","2.5769803776000004","11","-1","1","","","","","","","","","","","","",""
"psychophysics","76","190454","0.0-8.0-0.29","5fa6ada9bf4e8c30188809e6","609a8bf73b2ac84e2732f618","609d76787394a70299ff7509","318.26499999989755","","","","39","","","","key","16.67661538461517","960","468.5","true","1","134.44588431359998","2.0615843020800004","12","-1","-1","","","","","","","","","","","","",""
"psychophysics","77","192206","0.0-8.0-0.30","5fa6ada9bf4e8c30188809e6","609a8bf73b2ac84e2732f618","609d76787394a70299ff7509","749.9500000012922","","","","39","","","","key","16.676317307692305","960","468.5","true","-1","132.38430001151997","1.6492674416640005","13","1","-1","","","","","","","","","","","","",""
"psychophysics","78","193486","0.0-8.0-0.31","5fa6ada9bf4e8c30188809e6","609a8bf73b2ac84e2732f618","609d76787394a70299ff7509","275.94500000122935","","","","39","","","","key","16.676460526316077","960","468.5","true","1","134.03356745318396","1.6492674416640005","13","-1","1","","","","","","","","","","","","",""
"psychophysics","79","194830","0.0-8.0-0.32","5fa6ada9bf4e8c30188809e6","609a8bf73b2ac84e2732f618","609d76787394a70299ff7509","343.41000000131316","","","","37","","","","key","16.676325","960","468.5","true","-1","134.03356745318396","1.3194139533312006","14","-1","-1","","","","","","","","","","","","",""
"psychophysics","80","196174","0.0-8.0-0.33","5fa6ada9bf4e8c30188809e6","609a8bf73b2ac84e2732f618","609d76787394a70299ff7509","339.454999999376","","","","39","","","","key","16.676822784809907","960","468.5","true","1","132.71415349985276","1.3194139533312006","14","-1","-1","","","","","","","","","","","","",""
"psychophysics","81","197527","0.0-8.0-0.34","5fa6ada9bf4e8c30188809e6","609a8bf73b2ac84e2732f618","609d76787394a70299ff7509","348.10499999910826","","","","39","","","","key","20.52501538461522","960","468.5","true","1","132.71415349985276","1.3194139533312006","14","-1","-1","","","","","","","","","","","","",""
"psychophysics","82","198902","0.0-8.0-0.35","5fa6ada9bf4e8c30188809e6","609a8bf73b2ac84e2732f618","609d76787394a70299ff7509","372.19499999989057","","","","37","","","","key","16.88253086419736","960","468.5","true","-1","131.39473954652155","1.3194139533312006","14","-1","-1","","","","","","","","","","","","",""
"psychophysics","83","200438","0.0-8.0-0.36","5fa6ada9bf4e8c30188809e6","609a8bf73b2ac84e2732f618","609d76787394a70299ff7509","532.9349999992701","","","","37","","","","key","16.67648351648349","960","468.5","true","-1","131.39473954652155","1.3194139533312006","14","-1","-1","","","","","","","","","","","","",""
"psychophysics","84","201894","0.0-8.0-0.37","5fa6ada9bf4e8c30188809e6","609a8bf73b2ac84e2732f618","609d76787394a70299ff7509","453.8400000001129","","","","39","","","","key","16.676465116279147","960","468.5","true","-1","130.07532559319034","1.0555311626649604","15","1","-1","","","","","","","","","","","","",""
"psychophysics","85","203518","0.0-8.0-0.38","5fa6ada9bf4e8c30188809e6","609a8bf73b2ac84e2732f618","609d76787394a70299ff7509","622.1499999992375","","","","39","","","","key","16.676515463917557","960","468.5","true","1","131.1308567558553","1.0555311626649604","15","-1","1","","","","","","","","","","","","",""
"psychophysics","86","205103","0.0-8.0-0.39","5fa6ada9bf4e8c30188809e6","609a8bf73b2ac84e2732f618","609d76787394a70299ff7509","581.1300000004994","","","","39","","","","key","16.676414893616855","960","468.5","true","1","131.1308567558553","1","16","-1","-1","","","","","","","","","","","","",""
"html-keyboard-response","87","206526","0.0-9.0","5fa6ada9bf4e8c30188809e6","609a8bf73b2ac84e2732f618","609d76787394a70299ff7509","1422.3750000000873","<p>Well Done !</p><p>Prepare for a new block.</p><p>DON'T EXIT THE FULL SCREEN MODE</p><p>Press the Spacebar to start.</p>","","","32","","","","","","","","","","","","","","","true","132.7964794329825","","","","","","","","","","",""
"psychophysics","88","208255","0.0-10.0-0.0","5fa6ada9bf4e8c30188809e6","609a8bf73b2ac84e2732f618","609d76787394a70299ff7509","719.3699999988894","","","","37","","","","key","18.653462365591366","960","468.5","true","-1","180","30","0","-1","","","","","","","","","","","","","",""
"psychophysics","89","209590","0.0-10.0-0.1","5fa6ada9bf4e8c30188809e6","609a8bf73b2ac84e2732f618","609d76787394a70299ff7509","332.6350000006787","","","","37","","","","key","16.676493670886067","960","468.5","true","-1","180","30","0","-1","-1","","","","","","","","","","","","",""
"psychophysics","90","210942","0.0-10.0-0.2","5fa6ada9bf4e8c30188809e6","609a8bf73b2ac84e2732f618","609d76787394a70299ff7509","349.1299999987241","","","","37","","","","key","16.676650000000155","960","468.5","true","-1","150","30","0","-1","-1","","","","","","","","","","","","",""
"psychophysics","91","211950","0.0-10.0-0.3","5fa6ada9bf4e8c30188809e6","609a8bf73b2ac84e2732f618","609d76787394a70299ff7509","5.595000000525033","","","","39","","","","key","16.675830508474757","960","468.5","true","1","150","30","0","-1","-1","","","","","","","","","","","","",""
"psychophysics","92","213934","0.0-10.0-0.4","5fa6ada9bf4e8c30188809e6","609a8bf73b2ac84e2732f618","609d76787394a70299ff7509","981.3500000000058","","","","39","","","","key","16.676101694915243","960","468.5","true","-1","129","24","1","1","-1","","","","","","","","","","","","",""
"psychophysics","93","215359","0.0-10.0-0.5","5fa6ada9bf4e8c30188809e6","609a8bf73b2ac84e2732f618","609d76787394a70299ff7509","423.7150000008405","","","","39","","","","key","16.676423529411927","960","468.5","true","1","153","24","1","-1","1","","","","","","","","","","","","",""
"psychophysics","94","216759","0.0-10.0-0.6","5fa6ada9bf4e8c30188809e6","609a8bf73b2ac84e2732f618","609d76787394a70299ff7509","398.7149999993562","","","","39","","","","key","16.676132530120555","960","468.5","true","1","153","19.2","2","-1","-1","","","","","","","","","","","","",""
"psychophysics","95","218679","0.0-10.0-0.7","5fa6ada9bf4e8c30188809e6","609a8bf73b2ac84e2732f618","609d76787394a70299ff7509","906.4550000002782","","","","37","","","","key","19.011239999999816","960","468.5","true","-1","133.8","19.2","2","-1","-1","","","","","","","","","","","","",""
"psychophysics","96","220254","0.0-10.0-0.8","5fa6ada9bf4e8c30188809e6","609a8bf73b2ac84e2732f618","609d76787394a70299ff7509","573.035000001255","","","","39","","","","key","16.676505376344174","960","468.5","true","1","133.8","19.2","2","-1","-1","","","","","","","","","","","","",""
"psychophysics","97","221966","0.0-10.0-0.9","5fa6ada9bf4e8c30188809e6","609a8bf73b2ac84e2732f618","609d76787394a70299ff7509","709.8150000001478","","","","39","","","","key","16.676401960784194","960","468.5","true","1","129","19.2","2","-1","-1","","","","","","","","","","","","",""
"psychophysics","98","223958","0.0-10.0-0.10","5fa6ada9bf4e8c30188809e6","609a8bf73b2ac84e2732f618","609d76787394a70299ff7509","990.4749999986961","","","","39","","","","key","16.818940170940348","960","468.5","true","1","129","19.2","2","-1","-1","","","","","","","","","","","","",""
"psychophysics","99","225366","0.0-10.0-0.11","5fa6ada9bf4e8c30188809e6","609a8bf73b2ac84e2732f618","609d76787394a70299ff7509","406.4199999993434","","","","39","","","","key","16.67620238095246","960","468.5","true","-1","129","15.36","3","1","-1","","","","","","","","","","","","",""
"psychophysics","100","226710","0.0-10.0-0.12","5fa6ada9bf4e8c30188809e6","609a8bf73b2ac84e2732f618","609d76787394a70299ff7509","342.36500000042724","","","","37","","","","key","16.676303797468538","960","468.5","true","-1","144.36","15.36","3","-1","1","","","","","","","","","","","","",""
"psychophysics","101","228048","0.0-10.0-0.13","5fa6ada9bf4e8c30188809e6","609a8bf73b2ac84e2732f618","609d76787394a70299ff7509","334.69999999942956","","","","37","","","","key","16.887481012658284","960","468.5","true","-1","144.36","12.287999999999998","4","-1","-1","","","","","","","","","","","","",""
"psychophysics","102","229526","0.0-10.0-0.14","5fa6ada9bf4e8c30188809e6","609a8bf73b2ac84e2732f618","609d76787394a70299ff7509","475.7050000007439","","","","37","","","","key","16.6769195402298","960","468.5","true","-1","132.072","12.287999999999998","4","-1","-1","","","","","","","","","","","","",""
"psychophysics","103","230894","0.0-10.0-0.15","5fa6ada9bf4e8c30188809e6","609a8bf73b2ac84e2732f618","609d76787394a70299ff7509","365.81500000099186","","","","37","","","","key","16.6763950617284","960","468.5","true","-1","132.072","12.287999999999998","4","-1","-1","","","","","","","","","","","","",""
"psychophysics","104","232390","0.0-10.0-0.16","5fa6ada9bf4e8c30188809e6","609a8bf73b2ac84e2732f618","609d76787394a70299ff7509","494.4400000004098","","","","37","","","","key","16.67678651685422","960","468.5","true","-1","129","12.287999999999998","4","-1","-1","","","","","","","","","","","","",""
"psychophysics","105","233894","0.0-10.0-0.17","5fa6ada9bf4e8c30188809e6","609a8bf73b2ac84e2732f618","609d76787394a70299ff7509","502.2599999992817","","","","37","","","","key","16.676460674157486","960","468.5","true","-1","129","12.287999999999998","4","-1","-1","","","","","","","","","","","","",""
"psychophysics","106","235287","0.0-10.0-0.18","5fa6ada9bf4e8c30188809e6","609a8bf73b2ac84e2732f618","609d76787394a70299ff7509","390.3499999996857","","","","37","","","","key","16.676385542168493","960","468.5","true","1","129","9.8304","5","1","-1","","","","","","","","","","","","",""
"psychophysics","107","236367","0.0-10.0-0.19","5fa6ada9bf4e8c30188809e6","609a8bf73b2ac84e2732f618","609d76787394a70299ff7509","76.92500000121072","","","","37","","","","key","16.676444444444126","960","468.5","true","-1","138.8304","9.8304","5","-1","1","","","","","","","","","","","","",""
"psychophysics","108","237687","0.0-10.0-0.20","5fa6ada9bf4e8c30188809e6","609a8bf73b2ac84e2732f618","609d76787394a70299ff7509","317.39999999990687","","","","39","","","","key","16.676810126582197","960","468.5","true","1","138.8304","7.864319999999999","6","-1","-1","","","","","","","","","","","","",""
"psychophysics","109","239214","0.0-10.0-0.21","5fa6ada9bf4e8c30188809e6","609a8bf73b2ac84e2732f618","609d76787394a70299ff7509","524.4899999998161","","","","39","","","","key","16.675788888888846","960","468.5","true","-1","130.96608","6.291456","7","1","-1","","","","","","","","","","","","",""
"psychophysics","110","240542","0.0-10.0-0.22","5fa6ada9bf4e8c30188809e6","609a8bf73b2ac84e2732f618","609d76787394a70299ff7509","326.73000000067987","","","","37","","","","key","16.676417721519055","960","468.5","true","-1","137.25753600000002","6.291456","7","-1","1","","","","","","","","","","","","",""
"psychophysics","111","241824","0.0-10.0-0.23","5fa6ada9bf4e8c30188809e6","609a8bf73b2ac84e2732f618","609d76787394a70299ff7509","280.3000000003667","","","","39","","","","key","16.676118421052372","960","468.5","true","1","137.25753600000002","5.033164800000001","8","-1","-1","","","","","","","","","","","","",""
"psychophysics","112","243446","0.0-10.0-0.24","5fa6ada9bf4e8c30188809e6","609a8bf73b2ac84e2732f618","609d76787394a70299ff7509","619.4550000000163","","","","39","","","","key","16.67649999999988","960","468.5","true","-1","132.2243712","4.0265318400000005","9","1","-1","","","","","","","","","","","","",""
"psychophysics","113","244781","0.0-10.0-0.25","5fa6ada9bf4e8c30188809e6","609a8bf73b2ac84e2732f618","609d76787394a70299ff7509","332.9200000007404","","","","39","","","","key","16.67677215189869","960","468.5","true","1","136.25090304","4.0265318400000005","9","-1","1","","","","","","","","","","","","",""
"psychophysics","114","246143","0.0-10.0-0.26","5fa6ada9bf4e8c30188809e6","609a8bf73b2ac84e2732f618","609d76787394a70299ff7509","360.01000000035856","","","","39","","","","key","16.6763950617284","960","468.5","true","1","136.25090304","3.2212254720000004","10","-1","-1","","","","","","","","","","","","",""
"psychophysics","115","247469","0.0-10.0-0.27","5fa6ada9bf4e8c30188809e6","609a8bf73b2ac84e2732f618","609d76787394a70299ff7509","324.99500000083935","","","","37","","","","key","16.676217948717888","960","468.5","true","-1","133.029677568","3.2212254720000004","10","-1","-1","","","","","","","","","","","","",""
"psychophysics","116","248749","0.0-10.0-0.28","5fa6ada9bf4e8c30188809e6","609a8bf73b2ac84e2732f618","609d76787394a70299ff7509","278.57499999844003","","","","39","","","","key","16.676565789473994","960","468.5","true","1","133.029677568","3.2212254720000004","10","-1","-1","","","","","","","","","","","","",""
"psychophysics","117","250349","0.0-10.0-0.29","5fa6ada9bf4e8c30188809e6","609a8bf73b2ac84e2732f618","609d76787394a70299ff7509","597.1649999992223","","","","39","","","","key","16.67624210526303","960","468.5","true","1","129.808452096","3.2212254720000004","10","-1","-1","","","","","","","","","","","","",""
"psychophysics","118","252112","0.0-10.0-0.30","5fa6ada9bf4e8c30188809e6","609a8bf73b2ac84e2732f618","609d76787394a70299ff7509","759.5299999993586","","","","39","","","","key","16.67644761904736","960","468.5","true","1","129.808452096","3.2212254720000004","10","-1","-1","","","","","","","","","","","","",""
"psychophysics","119","253831","0.0-10.0-0.31","5fa6ada9bf4e8c30188809e6","609a8bf73b2ac84e2732f618","609d76787394a70299ff7509","715.2000000005646","","","","39","","","","key","16.676421568627404","960","468.5","true","1","129","3.2212254720000004","10","-1","-1","","","","","","","","","","","","",""
"psychophysics","120","255437","0.0-10.0-0.32","5fa6ada9bf4e8c30188809e6","609a8bf73b2ac84e2732f618","609d76787394a70299ff7509","603.8349999999045","","","","39","","","","key","16.6765578947367","960","468.5","true","1","129","3.2212254720000004","10","-1","-1","","","","","","","","","","","","",""
"psychophysics","121","256863","0.0-10.0-0.33","5fa6ada9bf4e8c30188809e6","609a8bf73b2ac84e2732f618","609d76787394a70299ff7509","423.820000000007","","","","37","","","","key","16.676117647058838","960","468.5","true","1","129","2.5769803776000004","11","1","-1","","","","","","","","","","","","",""
"psychophysics","122","258229","0.0-10.0-0.34","5fa6ada9bf4e8c30188809e6","609a8bf73b2ac84e2732f618","609d76787394a70299ff7509","363.71499999950174","","","","37","","","","key","16.676702702702716","960","468.5","true","-1","131.5769803776","2.5769803776000004","11","-1","1","","","","","","","","","","","","",""
"psychophysics","123","259709","0.0-10.0-0.35","5fa6ada9bf4e8c30188809e6","609a8bf73b2ac84e2732f618","609d76787394a70299ff7509","478.06499999930384","","","","37","","","","key","16.67706249999974","960","468.5","true","-1","131.5769803776","2.0615843020800004","12","-1","-1","","","","","","","","","","","","",""
"psychophysics","124","261118","0.0-10.0-0.36","5fa6ada9bf4e8c30188809e6","609a8bf73b2ac84e2732f618","609d76787394a70299ff7509","406.71500000095693","","","","37","","","","key","16.67641666666653","960","468.5","true","1","129.51539607552","1.6492674416640005","13","1","-1","","","","","","","","","","","","",""
"psychophysics","125","263445","0.0-10.0-0.37","5fa6ada9bf4e8c30188809e6","609a8bf73b2ac84e2732f618","609d76787394a70299ff7509","1325.7499999999418","","","","37","","","","key","16.676688405796902","960","468.5","true","1","131.16466351718398","1.6492674416640005","13","1","1","","","","","","","","","","","","",""
"psychophysics","126","264821","0.0-10.0-0.38","5fa6ada9bf4e8c30188809e6","609a8bf73b2ac84e2732f618","609d76787394a70299ff7509","374.03000000084285","","","","37","","","","key","16.676231707317086","960","468.5","true","1","132.81393095884798","1.6492674416640005","13","1","1","","","","","","","","","","","","",""
"psychophysics","127","266222","0.0-10.0-0.39","5fa6ada9bf4e8c30188809e6","609a8bf73b2ac84e2732f618","609d76787394a70299ff7509","398.96500000031665","","","","37","","","","key","16.676867469879433","960","468.5","true","-1","134.46319840051197","1.6492674416640005","13","-1","1","","","","","","","","","","","","",""
"html-keyboard-response","128","267525","0.0-11.0","5fa6ada9bf4e8c30188809e6","609a8bf73b2ac84e2732f618","609d76787394a70299ff7509","1302.5150000011781","<p>Well Done !</p><p>Prepare for a new block.</p><p>DON'T EXIT THE FULL SCREEN MODE</p><p>Press the Spacebar to start.</p>","","","32","","","","","","","","","","","","","","","true","131.7526143410176","","","","","","","","","","",""
"psychophysics","129","269165","0.0-12.0-0.0","5fa6ada9bf4e8c30188809e6","609a8bf73b2ac84e2732f618","609d76787394a70299ff7509","638.8399999996182","","","","37","","","","key","16.651540816326182","960","468.5","true","-1","180","30","0","-1","","","","","","","","","","","","","",""
"psychophysics","130","270504","0.0-12.0-0.1","5fa6ada9bf4e8c30188809e6","609a8bf73b2ac84e2732f618","609d76787394a70299ff7509","336.0050000010524","","","","39","","","","key","16.676687500000117","960","468.5","true","1","180","30","0","-1","-1","","","","","","","","","","","","",""
"psychophysics","131","271798","0.0-12.0-0.2","5fa6ada9bf4e8c30188809e6","609a8bf73b2ac84e2732f618","609d76787394a70299ff7509","292.3300000001909","","","","37","","","","key","16.67648684210527","960","468.5","true","-1","150","30","0","-1","-1","","","","","","","","","","","","",""
"psychophysics","132","273077","0.0-12.0-0.3","5fa6ada9bf4e8c30188809e6","609a8bf73b2ac84e2732f618","609d76787394a70299ff7509","270.0599999988917","","","","39","","","","key","16.676276315789437","960","468.5","true","1","150","30","0","-1","-1","","","","","","","","","","","","",""
"psychophysics","133","274581","0.0-12.0-0.4","5fa6ada9bf4e8c30188809e6","609a8bf73b2ac84e2732f618","609d76787394a70299ff7509","502.8500000007916","","","","39","","","","key","16.67658426966309","960","468.5","true","-1","129","24","1","1","-1","","","","","","","","","","","","",""
"psychophysics","134","275856","0.0-12.0-0.5","5fa6ada9bf4e8c30188809e6","609a8bf73b2ac84e2732f618","609d76787394a70299ff7509","272.74000000033993","","","","37","","","","key","16.67689473684157","960","468.5","true","-1","153","24","1","-1","1","","","","","","","","","","","","",""
"psychophysics","135","277150","0.0-12.0-0.6","5fa6ada9bf4e8c30188809e6","609a8bf73b2ac84e2732f618","609d76787394a70299ff7509","291.7149999993853","","","","39","","","","key","16.676631578947354","960","468.5","true","1","153","19.2","2","-1","-1","","","","","","","","","","","","",""
"psychophysics","136","278343","0.0-12.0-0.7","5fa6ada9bf4e8c30188809e6","609a8bf73b2ac84e2732f618","609d76787394a70299ff7509","190.88000000012107","","","","39","","","","key","16.67645070422605","960","468.5","true","1","133.8","19.2","2","-1","-1","","","","","","","","","","","","",""
"psychophysics","137","280965","0.0-12.0-0.8","5fa6ada9bf4e8c30188809e6","609a8bf73b2ac84e2732f618","609d76787394a70299ff7509","1620.3199999999488","","","","39","","","","key","17.94155172413809","960","468.5","true","-1","133.8","15.36","3","1","-1","","","","","","","","","","","","",""
"psychophysics","138","282317","0.0-12.0-0.9","5fa6ada9bf4e8c30188809e6","609a8bf73b2ac84e2732f618","609d76787394a70299ff7509","350.22500000015134","","","","37","","","","key","16.67647499999948","960","468.5","true","-1","149.16000000000003","15.36","3","-1","1","","","","","","","","","","","","",""
"psychophysics","139","283653","0.0-12.0-0.10","5fa6ada9bf4e8c30188809e6","609a8bf73b2ac84e2732f618","609d76787394a70299ff7509","334.5450000014971","","","","37","","","","key","16.676620253165034","960","468.5","true","-1","149.16000000000003","12.287999999999998","4","-1","-1","","","","","","","","","","","","",""
"psychophysics","140","284974","0.0-12.0-0.11","5fa6ada9bf4e8c30188809e6","609a8bf73b2ac84e2732f618","609d76787394a70299ff7509","319.7300000010873","","","","37","","","","key","16.676448717948425","960","468.5","true","-1","136.872","12.287999999999998","4","-1","-1","","","","","","","","","","","","",""
"psychophysics","141","286365","0.0-12.0-0.12","5fa6ada9bf4e8c30188809e6","609a8bf73b2ac84e2732f618","609d76787394a70299ff7509","390.0450000001001","","","","37","","","","key","16.6763734939762","960","468.5","true","-1","136.872","12.287999999999998","4","-1","-1","","","","","","","","","","","","",""
"psychophysics","142","287909","0.0-12.0-0.13","5fa6ada9bf4e8c30188809e6","609a8bf73b2ac84e2732f618","609d76787394a70299ff7509","540.64500000095","","","","37","","","","key","16.862177777777994","960","468.5","true","1","129","9.8304","5","1","-1","","","","","","","","","","","","",""
"psychophysics","143","289248","0.0-12.0-0.14","5fa6ada9bf4e8c30188809e6","609a8bf73b2ac84e2732f618","609d76787394a70299ff7509","334.5649999991874","","","","37","","","","key","16.67632500000036","960","468.5","true","-1","138.8304","9.8304","5","-1","1","","","","","","","","","","","","",""
"psychophysics","144","290533","0.0-12.0-0.15","5fa6ada9bf4e8c30188809e6","609a8bf73b2ac84e2732f618","609d76787394a70299ff7509","282.64499999932013","","","","39","","","","key","16.676776315789443","960","468.5","true","1","138.8304","7.864319999999999","6","-1","-1","","","","","","","","","","","","",""
"psychophysics","145","291918","0.0-12.0-0.16","5fa6ada9bf4e8c30188809e6","609a8bf73b2ac84e2732f618","609d76787394a70299ff7509","383.1500000014785","","","","39","","","","key","16.676402439024702","960","468.5","true","1","130.96608","7.864319999999999","6","-1","-1","","","","","","","","","","","","",""
"psychophysics","146","293357","0.0-12.0-0.17","5fa6ada9bf4e8c30188809e6","609a8bf73b2ac84e2732f618","609d76787394a70299ff7509","438.3300000008894","","","","37","","","","key","16.676552941176958","960","468.5","true","-1","130.96608","7.864319999999999","6","-1","-1","","","","","","","","","","","","",""
"psychophysics","147","294799","0.0-12.0-0.18","5fa6ada9bf4e8c30188809e6","609a8bf73b2ac84e2732f618","609d76787394a70299ff7509","438.05499999871245","","","","37","","","","key","16.67643529411734","960","468.5","true","1","129","6.291456","7","1","-1","","","","","","","","","","","","",""
"psychophysics","148","296125","0.0-12.0-0.19","5fa6ada9bf4e8c30188809e6","609a8bf73b2ac84e2732f618","609d76787394a70299ff7509","323.9999999986612","","","","37","","","","key","16.676594936708874","960","468.5","true","-1","135.291456","6.291456","7","-1","1","","","","","","","","","","","","",""
"psychophysics","149","297446","0.0-12.0-0.20","5fa6ada9bf4e8c30188809e6","609a8bf73b2ac84e2732f618","609d76787394a70299ff7509","319.4949999997625","","","","39","","","","key","16.676525641025272","960","468.5","true","1","135.291456","5.033164800000001","8","-1","-1","","","","","","","","","","","","",""
"psychophysics","150","298806","0.0-12.0-0.21","5fa6ada9bf4e8c30188809e6","609a8bf73b2ac84e2732f618","609d76787394a70299ff7509","358.73999999969965","","","","39","","","","key","16.676876543209755","960","468.5","true","-1","130.2582912","4.0265318400000005","9","1","-1","","","","","","","","","","","","",""
"psychophysics","151","300149","0.0-12.0-0.22","5fa6ada9bf4e8c30188809e6","609a8bf73b2ac84e2732f618","609d76787394a70299ff7509","342.1249999992433","","","","39","","","","key","16.676594936708874","960","468.5","true","1","134.28482304","4.0265318400000005","9","-1","1","","","","","","","","","","","","",""
"psychophysics","152","301471","0.0-12.0-0.23","5fa6ada9bf4e8c30188809e6","609a8bf73b2ac84e2732f618","609d76787394a70299ff7509","319.6499999994412","","","","37","","","","key","16.676746835442895","960","468.5","true","-1","134.28482304","3.2212254720000004","10","-1","-1","","","","","","","","","","","","",""
"psychophysics","153","303157","0.0-12.0-0.24","5fa6ada9bf4e8c30188809e6","609a8bf73b2ac84e2732f618","609d76787394a70299ff7509","683.1849999998813","","","","37","","","","key","16.676380000000353","960","468.5","true","-1","131.06359756799998","3.2212254720000004","10","-1","-1","","","","","","","","","","","","",""
"psychophysics","154","304542","0.0-12.0-0.25","5fa6ada9bf4e8c30188809e6","609a8bf73b2ac84e2732f618","609d76787394a70299ff7509","381.695000000007","","","","37","","","","key","16.676304878048718","960","468.5","true","1","131.06359756799998","2.5769803776000004","11","1","-1","","","","","","","","","","","","",""
"psychophysics","155","305862","0.0-12.0-0.26","5fa6ada9bf4e8c30188809e6","609a8bf73b2ac84e2732f618","609d76787394a70299ff7509","317.15000000078","","","","39","","","","key","16.67639743589769","960","468.5","true","1","133.64057794559997","2.5769803776000004","11","-1","1","","","","","","","","","","","","",""
"psychophysics","156","308222","0.0-12.0-0.27","5fa6ada9bf4e8c30188809e6","609a8bf73b2ac84e2732f618","609d76787394a70299ff7509","1358.2150000002002","","","","39","","","","key","16.676642857142724","960","468.5","true","1","133.64057794559997","2.0615843020800004","12","-1","-1","","","","","","","","","","","","",""
"psychophysics","157","310062","0.0-12.0-0.28","5fa6ada9bf4e8c30188809e6","609a8bf73b2ac84e2732f618","609d76787394a70299ff7509","836.6349999996601","","","","39","","","","key","16.676599999999798","960","468.5","true","1","131.57899364351996","2.0615843020800004","12","-1","-1","","","","","","","","","","","","",""
"psychophysics","158","311406","0.0-12.0-0.29","5fa6ada9bf4e8c30188809e6","609a8bf73b2ac84e2732f618","609d76787394a70299ff7509","341.9300000005169","","","","39","","","","key","16.6764303797464","960","468.5","true","1","131.57899364351996","2.0615843020800004","12","-1","-1","","","","","","","","","","","","",""
"psychophysics","159","312790","0.0-12.0-0.30","5fa6ada9bf4e8c30188809e6","609a8bf73b2ac84e2732f618","609d76787394a70299ff7509","381.7700000000186","","","","39","","","","key","16.676243902439616","960","468.5","true","-1","129.51740934143996","1.6492674416640005","13","1","-1","","","","","","","","","","","","",""
"psychophysics","160","314182","0.0-12.0-0.31","5fa6ada9bf4e8c30188809e6","609a8bf73b2ac84e2732f618","609d76787394a70299ff7509","389.484999999695","","","","39","","","","key","16.676493975903323","960","468.5","true","-1","131.16667678310395","1.6492674416640005","13","1","1","","","","","","","","","","","","",""
"psychophysics","161","315606","0.0-12.0-0.32","5fa6ada9bf4e8c30188809e6","609a8bf73b2ac84e2732f618","609d76787394a70299ff7509","422.02499999984866","","","","39","","","","key","16.676607142857392","960","468.5","true","1","132.81594422476795","1.6492674416640005","13","-1","1","","","","","","","","","","","","",""
"psychophysics","162","316966","0.0-12.0-0.33","5fa6ada9bf4e8c30188809e6","609a8bf73b2ac84e2732f618","609d76787394a70299ff7509","359.1850000011618","","","","39","","","","key","16.676802469135758","960","468.5","true","1","132.81594422476795","1.3194139533312006","14","-1","-1","","","","","","","","","","","","",""
"psychophysics","163","318310","0.0-12.0-0.34","5fa6ada9bf4e8c30188809e6","609a8bf73b2ac84e2732f618","609d76787394a70299ff7509","342.4649999997346","","","","39","","","","key","16.676139240506064","960","468.5","true","-1","131.49653027143674","1.0555311626649604","15","1","-1","","","","","","","","","","","","",""
"psychophysics","164","319670","0.0-12.0-0.35","5fa6ada9bf4e8c30188809e6","609a8bf73b2ac84e2732f618","609d76787394a70299ff7509","357.2999999996391","","","","39","","","","key","16.676049382716165","960","468.5","true","1","132.5520614341017","1.0555311626649604","15","-1","1","","","","","","","","","","","","",""
"psychophysics","165","321030","0.0-12.0-0.36","5fa6ada9bf4e8c30188809e6","609a8bf73b2ac84e2732f618","609d76787394a70299ff7509","356.8799999994226","","","","39","","","","key","16.676625000000058","960","468.5","true","1","132.5520614341017","1","16","-1","-1","","","","","","","","","","","","",""
"psychophysics","166","322461","0.0-12.0-0.37","5fa6ada9bf4e8c30188809e6","609a8bf73b2ac84e2732f618","609d76787394a70299ff7509","428.3149999991874","","","","39","","","","key","16.676470588235293","960","468.5","true","-1","131.5520614341017","1","17","1","-1","","","","","","","","","","","","",""
"psychophysics","167","323926","0.0-12.0-0.38","5fa6ada9bf4e8c30188809e6","609a8bf73b2ac84e2732f618","609d76787394a70299ff7509","461.2350000006845","","","","39","","","","key","16.67641379310343","960","468.5","true","-1","132.5520614341017","1","17","1","1","","","","","","","","","","","","",""
"psychophysics","168","325368","0.0-12.0-0.39","5fa6ada9bf4e8c30188809e6","609a8bf73b2ac84e2732f618","609d76787394a70299ff7509","440.5050000004703","","","","39","","","","key","16.67660465116239","960","468.5","true","1","133.5520614341017","1","17","-1","1","","","","","","","","","","","","",""
"html-keyboard-response","169","327414","0.0-13.0","5fa6ada9bf4e8c30188809e6","609a8bf73b2ac84e2732f618","609d76787394a70299ff7509","2043.02000000095","<p>Well Done !</p><p>Prepare for a new block.</p><p>DON'T EXIT THE FULL SCREEN MODE</p><p>Press the Spacebar to start.</p>","","","32","","","","","","","","","","","","","","","true","132.138370184151","","","","","","","","","","",""
"html-keyboard-response","170","327516","0.0-14.0","5fa6ada9bf4e8c30188809e6","609a8bf73b2ac84e2732f618","609d76787394a70299ff7509","null","","","","null","","","","","","","","","","","","","","","","","132.2301109204746","true","136.4602218409492","","","","","","","",""
"instructions","171","368277","0.0-15.0","5fa6ada9bf4e8c30188809e6","609a8bf73b2ac84e2732f618","609d76787394a70299ff7509","40761.730000000156","","","","","","","[{""page_index"":0,""viewing_time"":34306.145000000484},{""page_index"":1,""viewing_time"":2031.33999999956},{""page_index"":2,""viewing_time"":4424.059999999357}]","","","","","","","","","","","","","","","","","","","","","","","",""
"psychophysics","172","371010","0.0-16.0-0.0","5fa6ada9bf4e8c30188809e6","609a8bf73b2ac84e2732f618","609d76787394a70299ff7509","null","","","","null","","","","key","20.50808333333407","960","468.5","","","","","","","","","","","","","","","","","","","",""
"psychophysics","173","371513","0.0-16.0-1.0","5fa6ada9bf4e8c30188809e6","609a8bf73b2ac84e2732f618","609d76787394a70299ff7509","null","","","","null","","","","key","16.676586206896022","960","468.5","","","","","","","","","","","","","136","-1","0","false","","","",""
"psychophysics","174","373949","0.0-16.0-2.0","5fa6ada9bf4e8c30188809e6","609a8bf73b2ac84e2732f618","609d76787394a70299ff7509","2433.039999999921","","","","77","","","","key","16.676482758620466","960","468.5","","","","","","","","","","","","","","","","","","","",""
"psychophysics","175","374784","0.0-16.0-0.1","5fa6ada9bf4e8c30188809e6","609a8bf73b2ac84e2732f618","609d76787394a70299ff7509","null","","","","null","","","","key","16.67610204081664","960","468.5","","","","","","","","","","","","","","","","","","","",""
"psychophysics","176","375287","0.0-16.0-1.1","5fa6ada9bf4e8c30188809e6","609a8bf73b2ac84e2732f618","609d76787394a70299ff7509","null","","","","null","","","","key","16.67741379310409","960","468.5","","","","","","","","","","","","","136","1","0","false","","","",""
"psychophysics","177","375765","0.0-16.0-2.1","5fa6ada9bf4e8c30188809e6","609a8bf73b2ac84e2732f618","609d76787394a70299ff7509","475.92999999871245","","","","77","","","","key","16.676607142855314","960","468.5","","","","","","","","","","","","","","","","","","","",""
"psychophysics","178","376322","0.0-16.0-0.2","5fa6ada9bf4e8c30188809e6","609a8bf73b2ac84e2732f618","609d76787394a70299ff7509","null","","","","null","","","","key","17.214483870968838","960","468.5","","","","","","","","","","","","","","","","","","","",""
"psychophysics","179","376824","0.0-16.0-1.2","5fa6ada9bf4e8c30188809e6","609a8bf73b2ac84e2732f618","609d76787394a70299ff7509","null","","","","null","","","","key","16.677413793102083","960","468.5","","","","","","","","","","","","","136","1","5","false","","","",""
"psychophysics","180","377221","0.0-16.0-2.2","5fa6ada9bf4e8c30188809e6","609a8bf73b2ac84e2732f618","609d76787394a70299ff7509","392.3950000007753","","","","77","","","","key","16.67604347826083","960","468.5","","","","","","","","","","","","","","","","","","","",""
"psychophysics","181","377901","0.0-16.0-0.3","5fa6ada9bf4e8c30188809e6","609a8bf73b2ac84e2732f618","609d76787394a70299ff7509","null","","","","null","","","","key","17.103102564102766","960","468.5","","","","","","","","","","","","","","","","","","","",""
"psychophysics","182","378403","0.0-16.0-1.3","5fa6ada9bf4e8c30188809e6","609a8bf73b2ac84e2732f618","609d76787394a70299ff7509","null","","","","null","","","","key","16.676620689654275","960","468.5","","","","","","","","","","","","","136","-1","6","false","","","",""
"psychophysics","183","378773","0.0-16.0-2.3","5fa6ada9bf4e8c30188809e6","609a8bf73b2ac84e2732f618","609d76787394a70299ff7509","368.13499999878695","","","","77","","","","key","16.676428571429348","960","468.5","","","","","","","","","","","","","","","","","","","",""
"psychophysics","184","379863","0.0-16.0-0.4","5fa6ada9bf4e8c30188809e6","609a8bf73b2ac84e2732f618","609d76787394a70299ff7509","null","","","","null","","","","key","16.676676923076872","960","468.5","","","","","","","","","","","","","","","","","","","",""
"psychophysics","185","380365","0.0-16.0-1.4","5fa6ada9bf4e8c30188809e6","609a8bf73b2ac84e2732f618","609d76787394a70299ff7509","null","","","","null","","","","key","16.676620689656282","960","468.5","","","","","","","","","","","","","136","1","6","false","","","",""
"psychophysics","186","380773","0.0-16.0-2.4","5fa6ada9bf4e8c30188809e6","609a8bf73b2ac84e2732f618","609d76787394a70299ff7509","404.610000001383","","","","77","","","","key","16.674714285718178","960","468.5","","","","","","","","","","","","","","","","","","","",""
"psychophysics","187","381367","0.0-16.0-0.5","5fa6ada9bf4e8c30188809e6","609a8bf73b2ac84e2732f618","609d76787394a70299ff7509","null","","","","null","","","","key","16.677218749999156","960","468.5","","","","","","","","","","","","","","","","","","","",""
"psychophysics","188","381869","0.0-16.0-1.5","5fa6ada9bf4e8c30188809e6","609a8bf73b2ac84e2732f618","609d76787394a70299ff7509","null","","","","null","","","","key","16.676068965518237","960","468.5","","","","","","","","","","","","","136","1","3","false","","","",""
"psychophysics","189","382309","0.0-16.0-2.5","5fa6ada9bf4e8c30188809e6","609a8bf73b2ac84e2732f618","609d76787394a70299ff7509","438.13500000035856","","","","77","","","","key","17.371874999999516","960","468.5","","","","","","","","","","","","","","","","","","","",""
"psychophysics","190","383785","0.0-16.0-0.6","5fa6ada9bf4e8c30188809e6","609a8bf73b2ac84e2732f618","609d76787394a70299ff7509","null","","","","null","","","","key","16.676295454545073","960","468.5","","","","","","","","","","","","","","","","","","","",""
"psychophysics","191","384287","0.0-16.0-1.6","5fa6ada9bf4e8c30188809e6","609a8bf73b2ac84e2732f618","609d76787394a70299ff7509","null","","","","null","","","","key","16.676586206896022","960","468.5","","","","","","","","","","","","","136","-1","2","false","","","",""
"psychophysics","192","384741","0.0-16.0-2.6","5fa6ada9bf4e8c30188809e6","609a8bf73b2ac84e2732f618","609d76787394a70299ff7509","451.6149999999325","","","","90","","","","key","16.67769230769213","960","468.5","","","","","","","","","","","","","","","","","","","",""
"psychophysics","193","386219","0.0-16.0-0.7","5fa6ada9bf4e8c30188809e6","609a8bf73b2ac84e2732f618","609d76787394a70299ff7509","null","","","","null","","","","key","16.868241379310472","960","468.5","","","","","","","","","","","","","","","","","","","",""
"psychophysics","194","386722","0.0-16.0-1.7","5fa6ada9bf4e8c30188809e6","609a8bf73b2ac84e2732f618","609d76787394a70299ff7509","null","","","","null","","","","key","16.676310344828003","960","468.5","","","","","","","","","","","","","136","1","2","false","","","",""
"psychophysics","195","387253","0.0-16.0-2.7","5fa6ada9bf4e8c30188809e6","609a8bf73b2ac84e2732f618","609d76787394a70299ff7509","529.4400000002352","","","","90","","","","key","16.676516129030666","960","468.5","","","","","","","","","","","","","","","","","","","",""
"psychophysics","196","388251","0.0-16.0-0.8","5fa6ada9bf4e8c30188809e6","609a8bf73b2ac84e2732f618","609d76787394a70299ff7509","null","","","","null","","","","key","16.67672881355876","960","468.5","","","","","","","","","","","","","","","","","","","",""
"psychophysics","197","388754","0.0-16.0-1.8","5fa6ada9bf4e8c30188809e6","609a8bf73b2ac84e2732f618","609d76787394a70299ff7509","null","","","","null","","","","key","16.67627586206975","960","468.5","","","","","","","","","","","","","136","1","4","false","","","",""
"psychophysics","198","389181","0.0-16.0-2.8","5fa6ada9bf4e8c30188809e6","609a8bf73b2ac84e2732f618","609d76787394a70299ff7509","424.2400000002817","","","","77","","","","key","16.67674999999872","960","468.5","","","","","","","","","","","","","","","","","","","",""
"psychophysics","199","390454","0.0-16.0-0.9","5fa6ada9bf4e8c30188809e6","609a8bf73b2ac84e2732f618","609d76787394a70299ff7509","null","","","","null","","","","key","16.67634210526318","960","468.5","","","","","","","","","","","","","","","","","","","",""
"psychophysics","200","390956","0.0-16.0-1.9","5fa6ada9bf4e8c30188809e6","609a8bf73b2ac84e2732f618","609d76787394a70299ff7509","null","","","","null","","","","key","16.675464285714302","960","468.5","","","","","","","","","","","","","136","-1","5","false","","","",""
"psychophysics","201","391581","0.0-16.0-2.9","5fa6ada9bf4e8c30188809e6","609a8bf73b2ac84e2732f618","609d76787394a70299ff7509","623.0950000008452","","","","77","","","","key","18.19449999999911","960","468.5","","","","","","","","","","","","","","","","","","","",""
"psychophysics","202","392246","0.0-16.0-0.10","5fa6ada9bf4e8c30188809e6","609a8bf73b2ac84e2732f618","609d76787394a70299ff7509","null","","","","null","","","","key","16.6765384615387","960","468.5","","","","","","","","","","","","","","","","","","","",""
"psychophysics","203","392748","0.0-16.0-1.10","5fa6ada9bf4e8c30188809e6","609a8bf73b2ac84e2732f618","609d76787394a70299ff7509","null","","","","null","","","","key","16.67568965517145","960","468.5","","","","","","","","","","","","","136","-1","3","false","","","",""
"psychophysics","204","393293","0.0-16.0-2.10","5fa6ada9bf4e8c30188809e6","609a8bf73b2ac84e2732f618","609d76787394a70299ff7509","542.7899999995134","","","","77","","","","key","16.67609375000029","960","468.5","","","","","","","","","","","","","","","","","","","",""
"psychophysics","205","394216","0.0-16.0-0.11","5fa6ada9bf4e8c30188809e6","609a8bf73b2ac84e2732f618","609d76787394a70299ff7509","null","","","","null","","","","key","16.67638888888932","960","468.5","","","","","","","","","","","","","","","","","","","",""
"psychophysics","206","394718","0.0-16.0-1.11","5fa6ada9bf4e8c30188809e6","609a8bf73b2ac84e2732f618","609d76787394a70299ff7509","null","","","","null","","","","key","16.676310344828003","960","468.5","","","","","","","","","","","","","136","-1","4","false","","","",""
"psychophysics","207","395149","0.0-16.0-2.11","5fa6ada9bf4e8c30188809e6","609a8bf73b2ac84e2732f618","609d76787394a70299ff7509","426.3649999993504","","","","77","","","","key","16.676360000001733","960","468.5","","","","","","","","","","","","","","","","","","","",""
"psychophysics","208","396605","0.0-16.0-0.12","5fa6ada9bf4e8c30188809e6","609a8bf73b2ac84e2732f618","609d76787394a70299ff7509","null","","","","null","","","","key","16.67611494252857","960","468.5","","","","","","","","","","","","","","","","","","","",""
"psychophysics","209","397108","0.0-16.0-1.12","5fa6ada9bf4e8c30188809e6","609a8bf73b2ac84e2732f618","609d76787394a70299ff7509","null","","","","null","","","","key","16.67703448275931","960","468.5","","","","","","","","","","","","","136","1","3","false","","","",""
"psychophysics","210","397509","0.0-16.0-2.12","5fa6ada9bf4e8c30188809e6","609a8bf73b2ac84e2732f618","609d76787394a70299ff7509","397.91500000137603","","","","77","","","","key","16.677956521738846","960","468.5","","","","","","","","","","","","","","","","","","","",""
"psychophysics","211","398764","0.0-16.0-0.13","5fa6ada9bf4e8c30188809e6","609a8bf73b2ac84e2732f618","609d76787394a70299ff7509","null","","","","null","","","","key","16.676756756756976","960","468.5","","","","","","","","","","","","","","","","","","","",""
"psychophysics","212","399266","0.0-16.0-1.13","5fa6ada9bf4e8c30188809e6","609a8bf73b2ac84e2732f618","609d76787394a70299ff7509","null","","","","null","","","","key","16.675551724136437","960","468.5","","","","","","","","","","","","","136","-1","5","false","","","",""
"psychophysics","213","399653","0.0-16.0-2.13","5fa6ada9bf4e8c30188809e6","609a8bf73b2ac84e2732f618","609d76787394a70299ff7509","384.1549999997369","","","","77","","","","key","16.676090909091396","960","468.5","","","","","","","","","","","","","","","","","","","",""
"psychophysics","214","400654","0.0-16.0-0.14","5fa6ada9bf4e8c30188809e6","609a8bf73b2ac84e2732f618","609d76787394a70299ff7509","null","","","","null","","","","key","16.67662711864361","960","468.5","","","","","","","","","","","","","","","","","","","",""
"psychophysics","215","401155","0.0-16.0-1.14","5fa6ada9bf4e8c30188809e6","609a8bf73b2ac84e2732f618","609d76787394a70299ff7509","null","","","","null","","","","key","16.676310344828003","960","468.5","","","","","","","","","","","","","136","-1","6","false","","","",""
"psychophysics","216","401581","0.0-16.0-2.14","5fa6ada9bf4e8c30188809e6","609a8bf73b2ac84e2732f618","609d76787394a70299ff7509","420.4150000005029","","","","77","","","","key","32.06992307692193","960","468.5","","","","","","","","","","","","","","","","","","","",""
"psychophysics","217","402344","0.0-16.0-0.15","5fa6ada9bf4e8c30188809e6","609a8bf73b2ac84e2732f618","609d76787394a70299ff7509","null","","","","null","","","","key","17.452139534883276","960","468.5","","","","","","","","","","","","","","","","","","","",""
"psychophysics","218","402846","0.0-16.0-1.15","5fa6ada9bf4e8c30188809e6","609a8bf73b2ac84e2732f618","609d76787394a70299ff7509","null","","","","null","","","","key","16.676620689654275","960","468.5","","","","","","","","","","","","","136","1","2","false","","","",""
"psychophysics","219","403327","0.0-16.0-2.15","5fa6ada9bf4e8c30188809e6","609a8bf73b2ac84e2732f618","609d76787394a70299ff7509","479.2550000002375","","","","77","","","","key","16.676214285714586","960","468.5","","","","","","","","","","","","","","","","","","","",""
"psychophysics","220","404107","0.0-16.0-0.16","5fa6ada9bf4e8c30188809e6","609a8bf73b2ac84e2732f618","609d76787394a70299ff7509","null","","","","null","","","","key","16.67646666666648","960","468.5","","","","","","","","","","","","","","","","","","","",""
"psychophysics","221","404610","0.0-16.0-1.16","5fa6ada9bf4e8c30188809e6","609a8bf73b2ac84e2732f618","609d76787394a70299ff7509","null","","","","null","","","","key","16.67699999999992","960","468.5","","","","","","","","","","","","","136","-1","4","false","","","",""
"psychophysics","222","405061","0.0-16.0-2.16","5fa6ada9bf4e8c30188809e6","609a8bf73b2ac84e2732f618","609d76787394a70299ff7509","447.3949999992619","","","","77","","","","key","16.67623076923057","960","468.5","","","","","","","","","","","","","","","","","","","",""
"psychophysics","223","405894","0.0-16.0-0.17","5fa6ada9bf4e8c30188809e6","609a8bf73b2ac84e2732f618","609d76787394a70299ff7509","null","","","","null","","","","key","16.67587755102075","960","468.5","","","","","","","","","","","","","","","","","","","",""
"psychophysics","224","406397","0.0-16.0-1.17","5fa6ada9bf4e8c30188809e6","609a8bf73b2ac84e2732f618","609d76787394a70299ff7509","null","","","","null","","","","key","16.677241379310825","960","468.5","","","","","","","","","","","","","136","-1","0","false","","","",""
"psychophysics","225","406847","0.0-16.0-2.17","5fa6ada9bf4e8c30188809e6","609a8bf73b2ac84e2732f618","609d76787394a70299ff7509","447.33500000077765","","","","77","","","","key","16.675500000000913","960","468.5","","","","","","","","","","","","","","","","","","","",""
"psychophysics","226","408108","0.0-16.0-0.18","5fa6ada9bf4e8c30188809e6","609a8bf73b2ac84e2732f618","609d76787394a70299ff7509","null","","","","null","","","","key","16.676635135135086","960","468.5","","","","","","","","","","","","","","","","","","","",""
"psychophysics","227","408609","0.0-16.0-1.18","5fa6ada9bf4e8c30188809e6","609a8bf73b2ac84e2732f618","609d76787394a70299ff7509","null","","","","null","","","","key","16.676034482757977","960","468.5","","","","","","","","","","","","","136","1","5","false","","","",""
"psychophysics","228","408901","0.0-16.0-2.18","5fa6ada9bf4e8c30188809e6","609a8bf73b2ac84e2732f618","609d76787394a70299ff7509","285.62999999849126","","","","77","","","","key","16.67488235294107","960","468.5","","","","","","","","","","","","","","","","","","","",""
"psychophysics","229","410098","0.0-16.0-0.19","5fa6ada9bf4e8c30188809e6","609a8bf73b2ac84e2732f618","609d76787394a70299ff7509","null","","","","null","","","","key","16.67578873239477","960","468.5","","","","","","","","","","","","","","","","","","","",""
"psychophysics","230","410600","0.0-16.0-1.19","5fa6ada9bf4e8c30188809e6","609a8bf73b2ac84e2732f618","609d76787394a70299ff7509","null","","","","null","","","","key","16.67720689655057","960","468.5","","","","","","","","","","","","","136","1","4","false","","","",""
"psychophysics","231","410999","0.0-16.0-2.19","5fa6ada9bf4e8c30188809e6","609a8bf73b2ac84e2732f618","609d76787394a70299ff7509","396.82999999966705","","","","77","","","","key","16.67769565217389","960","468.5","","","","","","","","","","","","","","","","","","","",""
"psychophysics","232","411583","0.0-16.0-0.20","5fa6ada9bf4e8c30188809e6","609a8bf73b2ac84e2732f618","609d76787394a70299ff7509","null","","","","null","","","","key","16.67635294117602","960","468.5","","","","","","","","","","","","","","","","","","","",""
"psychophysics","233","412085","0.0-16.0-1.20","5fa6ada9bf4e8c30188809e6","609a8bf73b2ac84e2732f618","609d76787394a70299ff7509","null","","","","null","","","","key","16.676620689654275","960","468.5","","","","","","","","","","","","","136","1","6","false","","","",""
"psychophysics","234","412453","0.0-16.0-2.20","5fa6ada9bf4e8c30188809e6","609a8bf73b2ac84e2732f618","609d76787394a70299ff7509","366.0500000005122","","","","77","","","","key","16.677904761903587","960","468.5","","","","","","","","","","","","","","","","","","","",""
"psychophysics","235","413902","0.0-16.0-0.21","5fa6ada9bf4e8c30188809e6","609a8bf73b2ac84e2732f618","609d76787394a70299ff7509","null","","","","null","","","","key","16.67646511627881","960","468.5","","","","","","","","","","","","","","","","","","","",""
"psychophysics","236","414404","0.0-16.0-1.21","5fa6ada9bf4e8c30188809e6","609a8bf73b2ac84e2732f618","609d76787394a70299ff7509","null","","","","null","","","","key","16.67696551724281","960","468.5","","","","","","","","","","","","","136","-1","2","false","","","",""
"psychophysics","237","415493","0.0-16.0-2.21","5fa6ada9bf4e8c30188809e6","609a8bf73b2ac84e2732f618","609d76787394a70299ff7509","1087.2650000001304","","","","90","","","","key","16.677093750000495","960","468.5","","","","","","","","","","","","","","","","","","","",""
"psychophysics","238","416515","0.0-16.0-0.22","5fa6ada9bf4e8c30188809e6","609a8bf73b2ac84e2732f618","609d76787394a70299ff7509","null","","","","null","","","","key","16.676399999999557","960","468.5","","","","","","","","","","","","","","","","","","","",""
"psychophysics","239","417021","0.0-16.0-1.22","5fa6ada9bf4e8c30188809e6","609a8bf73b2ac84e2732f618","609d76787394a70299ff7509","null","","","","null","","","","key","16.676533333332433","960","468.5","","","","","","","","","","","","","136","1","0","false","","","",""
"psychophysics","240","417389","0.0-16.0-2.22","5fa6ada9bf4e8c30188809e6","609a8bf73b2ac84e2732f618","609d76787394a70299ff7509","366.46500000095693","","","","77","","","","key","16.675952380952715","960","468.5","","","","","","","","","","","","","","","","","","","",""
"psychophysics","241","418635","0.0-16.0-0.23","5fa6ada9bf4e8c30188809e6","609a8bf73b2ac84e2732f618","609d76787394a70299ff7509","null","","","","null","","","","key","16.67624324324346","960","468.5","","","","","","","","","","","","","","","","","","","",""
"psychophysics","242","419139","0.0-16.0-1.23","5fa6ada9bf4e8c30188809e6","609a8bf73b2ac84e2732f618","609d76787394a70299ff7509","null","","","","null","","","","key","16.676344827586256","960","468.5","","","","","","","","","","","","","136","-1","3","false","","","",""
"psychophysics","243","419661","0.0-16.0-2.23","5fa6ada9bf4e8c30188809e6","609a8bf73b2ac84e2732f618","609d76787394a70299ff7509","519.7150000003749","","","","90","","","","key","16.67629999999966","960","468.5","","","","","","","","","","","","","","","","","","","",""
"html-keyboard-response","244","423789","0.0-17.0","5fa6ada9bf4e8c30188809e6","609a8bf73b2ac84e2732f618","609d76787394a70299ff7509","4127.399999999383","<p>Well Done !</p><p>Training Complete. Press the spacebar to start.</p><p>DON'T EXIT THE FULL SCREEN MODE</p>","","","32","","","","","","","","","","","","","","","","","","","","","","","","","","",""
"psychophysics","245","426695","0.0-18.0-0.0","5fa6ada9bf4e8c30188809e6","609a8bf73b2ac84e2732f618","609d76787394a70299ff7509","null","","","","null","","","","key","16.500351851851317","960","468.5","","","","","","","","","","","","","","","","","","","",""
"psychophysics","246","427198","0.0-18.0-1.0","5fa6ada9bf4e8c30188809e6","609a8bf73b2ac84e2732f618","609d76787394a70299ff7509","null","","","","null","","","","key","16.676241379311502","960","468.5","","","","","","","","","","","","","136","-1","5","true","","","",""
"psychophysics","247","429862","0.0-18.0-2.0","5fa6ada9bf4e8c30188809e6","609a8bf73b2ac84e2732f618","609d76787394a70299ff7509","2662.6949999990757","","","","77","","","","key","16.676427672956134","960","468.5","","","","","","","","","","","","","","","","","","","",""
"psychophysics","248","431355","0.0-18.0-0.1","5fa6ada9bf4e8c30188809e6","609a8bf73b2ac84e2732f618","609d76787394a70299ff7509","null","","","","null","","","","key","16.676500000000075","960","468.5","","","","","","","","","","","","","","","","","","","",""
"psychophysics","249","431857","0.0-18.0-1.1","5fa6ada9bf4e8c30188809e6","609a8bf73b2ac84e2732f618","609d76787394a70299ff7509","null","","","","null","","","","key","16.676586206896022","960","468.5","","","","","","","","","","","","","136","-1","0","true","","","",""
"psychophysics","250","432205","0.0-18.0-2.1","5fa6ada9bf4e8c30188809e6","609a8bf73b2ac84e2732f618","609d76787394a70299ff7509","342.35000000084983","","","","77","","","","key","16.676900000000025","960","468.5","","","","","","","","","","","","","","","","","","","",""
"psychophysics","251","432801","0.0-18.0-0.2","5fa6ada9bf4e8c30188809e6","609a8bf73b2ac84e2732f618","609d76787394a70299ff7509","null","","","","null","","","","key","16.67502857142993","960","468.5","","","","","","","","","","","","","","","","","","","",""
"psychophysics","252","433303","0.0-18.0-1.2","5fa6ada9bf4e8c30188809e6","609a8bf73b2ac84e2732f618","609d76787394a70299ff7509","null","","","","null","","","","key","16.676827586207796","960","468.5","","","","","","","","","","","","","136","1","0","true","","","",""
"psychophysics","253","433637","0.0-18.0-2.2","5fa6ada9bf4e8c30188809e6","609a8bf73b2ac84e2732f618","609d76787394a70299ff7509","331.99000000057276","","","","77","","","","key","16.67789473684235","960","468.5","","","","","","","","","","","","","","","","","","","",""
"psychophysics","254","435008","0.0-18.0-0.3","5fa6ada9bf4e8c30188809e6","609a8bf73b2ac84e2732f618","609d76787394a70299ff7509","null","","","","null","","","","key","16.67645679012352","960","468.5","","","","","","","","","","","","","","","","","","","",""
"psychophysics","255","435509","0.0-18.0-1.3","5fa6ada9bf4e8c30188809e6","609a8bf73b2ac84e2732f618","609d76787394a70299ff7509","null","","","","null","","","","key","16.67606896551623","960","468.5","","","","","","","","","","","","","136","-1","2","true","","","",""
"psychophysics","256","435799","0.0-18.0-2.3","5fa6ada9bf4e8c30188809e6","609a8bf73b2ac84e2732f618","609d76787394a70299ff7509","285.64999999979045","","","","77","","","","key","16.67711764705874","960","468.5","","","","","","","","","","","","","","","","","","","",""
"psychophysics","257","436774","0.0-18.0-0.4","5fa6ada9bf4e8c30188809e6","609a8bf73b2ac84e2732f618","609d76787394a70299ff7509","null","","","","null","","","","key","16.676105263157904","960","468.5","","","","","","","","","","","","","","","","","","","",""
"psychophysics","258","437276","0.0-18.0-1.4","5fa6ada9bf4e8c30188809e6","609a8bf73b2ac84e2732f618","609d76787394a70299ff7509","null","","","","null","","","","key","16.67648275862127","960","468.5","","","","","","","","","","","","","136","1","5","true","","","",""
"psychophysics","259","437431","0.0-18.0-2.4","5fa6ada9bf4e8c30188809e6","609a8bf73b2ac84e2732f618","609d76787394a70299ff7509","153.22500000003492","","","","77","","","","key","16.675333333331057","960","468.5","","","","","","","","","","","","","","","","","","","",""
"psychophysics","260","438422","0.0-18.0-0.5","5fa6ada9bf4e8c30188809e6","609a8bf73b2ac84e2732f618","609d76787394a70299ff7509","null","","","","null","","","","key","16.676500000000395","960","468.5","","","","","","","","","","","","","","","","","","","",""
"psychophysics","261","438924","0.0-18.0-1.5","5fa6ada9bf4e8c30188809e6","609a8bf73b2ac84e2732f618","609d76787394a70299ff7509","null","","","","null","","","","key","16.676275862067744","960","468.5","","","","","","","","","","","","","136","1","2","true","","","",""
"psychophysics","262","439182","0.0-18.0-2.5","5fa6ada9bf4e8c30188809e6","609a8bf73b2ac84e2732f618","609d76787394a70299ff7509","255.81000000057975","","","","90","","","","key","16.676866666666076","960","468.5","","","","","","","","","","","","","","","","","","","",""
"psychophysics","263","439979","0.0-18.0-0.6","5fa6ada9bf4e8c30188809e6","609a8bf73b2ac84e2732f618","609d76787394a70299ff7509","null","","","","null","","","","key","16.676391304347856","960","468.5","","","","","","","","","","","","","","","","","","","",""
"psychophysics","264","440482","0.0-18.0-1.6","5fa6ada9bf4e8c30188809e6","609a8bf73b2ac84e2732f618","609d76787394a70299ff7509","null","","","","null","","","","key","16.676400000000527","960","468.5","","","","","","","","","","","","","136","-1","6","true","","","",""
"psychophysics","265","440806","0.0-18.0-2.6","5fa6ada9bf4e8c30188809e6","609a8bf73b2ac84e2732f618","609d76787394a70299ff7509","321.8199999991921","","","","77","","","","key","16.67711111111243","960","468.5","","","","","","","","","","","","","","","","","","","",""
"psychophysics","266","441919","0.0-18.0-0.7","5fa6ada9bf4e8c30188809e6","609a8bf73b2ac84e2732f618","609d76787394a70299ff7509","null","","","","null","","","","key","16.675999999999696","960","468.5","","","","","","","","","","","","","","","","","","","",""
"psychophysics","267","442421","0.0-18.0-1.7","5fa6ada9bf4e8c30188809e6","609a8bf73b2ac84e2732f618","609d76787394a70299ff7509","null","","","","null","","","","key","16.67779310344887","960","468.5","","","","","","","","","","","","","136","1","4","true","","","",""
"psychophysics","268","442719","0.0-18.0-2.7","5fa6ada9bf4e8c30188809e6","609a8bf73b2ac84e2732f618","609d76787394a70299ff7509","295.1199999988312","","","","77","","","","key","16.678176470587086","960","468.5","","","","","","","","","","","","","","","","","","","",""
"psychophysics","269","443448","0.0-18.0-0.8","5fa6ada9bf4e8c30188809e6","609a8bf73b2ac84e2732f618","609d76787394a70299ff7509","null","","","","null","","","","key","16.676761904761882","960","468.5","","","","","","","","","","","","","","","","","","","",""
"psychophysics","270","443950","0.0-18.0-1.8","5fa6ada9bf4e8c30188809e6","609a8bf73b2ac84e2732f618","609d76787394a70299ff7509","null","","","","null","","","","key","16.676400000000527","960","468.5","","","","","","","","","","","","","136","1","6","true","","","",""
"psychophysics","271","444126","0.0-18.0-2.8","5fa6ada9bf4e8c30188809e6","609a8bf73b2ac84e2732f618","609d76787394a70299ff7509","172.41500000091037","","","","77","","","","key","16.677333333329038","960","468.5","","","","","","","","","","","","","","","","","","","",""
"psychophysics","272","445226","0.0-18.0-0.9","5fa6ada9bf4e8c30188809e6","609a8bf73b2ac84e2732f618","609d76787394a70299ff7509","null","","","","null","","","","key","16.677092307692288","960","468.5","","","","","","","","","","","","","","","","","","","",""
"psychophysics","273","445729","0.0-18.0-1.9","5fa6ada9bf4e8c30188809e6","609a8bf73b2ac84e2732f618","609d76787394a70299ff7509","null","","","","null","","","","key","16.67655172413777","960","468.5","","","","","","","","","","","","","136","-1","3","true","","","",""
"psychophysics","274","446045","0.0-18.0-2.9","5fa6ada9bf4e8c30188809e6","609a8bf73b2ac84e2732f618","609d76787394a70299ff7509","313.1750000011525","","","","77","","","","key","16.67816666666638","960","468.5","","","","","","","","","","","","","","","","","","","",""
"psychophysics","275","446770","0.0-18.0-0.10","5fa6ada9bf4e8c30188809e6","609a8bf73b2ac84e2732f618","609d76787394a70299ff7509","null","","","","null","","","","key","16.677279069766588","960","468.5","","","","","","","","","","","","","","","","","","","",""
"psychophysics","276","447273","0.0-18.0-1.10","5fa6ada9bf4e8c30188809e6","609a8bf73b2ac84e2732f618","609d76787394a70299ff7509","null","","","","null","","","","key","16.676586206896022","960","468.5","","","","","","","","","","","","","136","1","3","true","","","",""
"psychophysics","277","447645","0.0-18.0-2.10","5fa6ada9bf4e8c30188809e6","609a8bf73b2ac84e2732f618","609d76787394a70299ff7509","370.3349999996135","","","","77","","","","key","16.675809523808613","960","468.5","","","","","","","","","","","","","","","","","","","",""
"psychophysics","278","448677","0.0-18.0-0.11","5fa6ada9bf4e8c30188809e6","609a8bf73b2ac84e2732f618","609d76787394a70299ff7509","null","","","","null","","","","key","16.676295081967464","960","468.5","","","","","","","","","","","","","","","","","","","",""
"psychophysics","279","449180","0.0-18.0-1.11","5fa6ada9bf4e8c30188809e6","609a8bf73b2ac84e2732f618","609d76787394a70299ff7509","null","","","","null","","","","key","16.676827586207796","960","468.5","","","","","","","","","","","","","136","-1","4","true","","","",""
"psychophysics","280","449517","0.0-18.0-2.11","5fa6ada9bf4e8c30188809e6","609a8bf73b2ac84e2732f618","609d76787394a70299ff7509","335.43499999906635","","","","77","","","","key","16.676368421053905","960","468.5","","","","","","","","","","","","","","","","","","","",""
"psychophysics","281","450464","0.0-18.0-0.12","5fa6ada9bf4e8c30188809e6","609a8bf73b2ac84e2732f618","609d76787394a70299ff7509","null","","","","null","","","","key","16.676464285715024","960","468.5","","","","","","","","","","","","","","","","","","","",""
"psychophysics","282","450967","0.0-18.0-1.12","5fa6ada9bf4e8c30188809e6","609a8bf73b2ac84e2732f618","609d76787394a70299ff7509","null","","","","null","","","","key","16.67655172413777","960","468.5","","","","","","","","","","","","","136","1","3","true","","","",""
"psychophysics","283","451213","0.0-18.0-2.12","5fa6ada9bf4e8c30188809e6","609a8bf73b2ac84e2732f618","609d76787394a70299ff7509","244.77499999920838","","","","77","","","","key","16.67592857142777","960","468.5","","","","","","","","","","","","","","","","","","","",""
"psychophysics","284","451745","0.0-18.0-0.13","5fa6ada9bf4e8c30188809e6","609a8bf73b2ac84e2732f618","609d76787394a70299ff7509","null","","","","null","","","","key","16.676580645160886","960","468.5","","","","","","","","","","","","","","","","","","","",""
"psychophysics","285","452246","0.0-18.0-1.13","5fa6ada9bf4e8c30188809e6","609a8bf73b2ac84e2732f618","609d76787394a70299ff7509","null","","","","null","","","","key","16.676379310344508","960","468.5","","","","","","","","","","","","","136","-1","2","true","","","",""
"psychophysics","286","452926","0.0-18.0-2.13","5fa6ada9bf4e8c30188809e6","609a8bf73b2ac84e2732f618","609d76787394a70299ff7509","677.2099999997881","","","","77","","","","key","16.67647500000021","960","468.5","","","","","","","","","","","","","","","","","","","",""
"psychophysics","287","454310","0.0-18.0-0.14","5fa6ada9bf4e8c30188809e6","609a8bf73b2ac84e2732f618","609d76787394a70299ff7509","null","","","","null","","","","key","16.675837499999762","960","468.5","","","","","","","","","","","","","","","","","","","",""
"psychophysics","288","454812","0.0-18.0-1.14","5fa6ada9bf4e8c30188809e6","609a8bf73b2ac84e2732f618","609d76787394a70299ff7509","null","","","","null","","","","key","16.680499999999302","960","468.5","","","","","","","","","","","","","136","-1","5","true","","","",""
"psychophysics","289","455261","0.0-18.0-2.14","5fa6ada9bf4e8c30188809e6","609a8bf73b2ac84e2732f618","609d76787394a70299ff7509","446.2299999995157","","","","77","","","","key","16.675307692308426","960","468.5","","","","","","","","","","","","","","","","","","","",""
"psychophysics","290","456132","0.0-18.0-0.15","5fa6ada9bf4e8c30188809e6","609a8bf73b2ac84e2732f618","609d76787394a70299ff7509","null","","","","null","","","","key","16.676941176470113","960","468.5","","","","","","","","","","","","","","","","","","","",""
"psychophysics","291","456635","0.0-18.0-1.15","5fa6ada9bf4e8c30188809e6","609a8bf73b2ac84e2732f618","609d76787394a70299ff7509","null","","","","null","","","","key","16.67644827586101","960","468.5","","","","","","","","","","","","","136","-1","3","true","","","",""
"psychophysics","292","457053","0.0-18.0-2.15","5fa6ada9bf4e8c30188809e6","609a8bf73b2ac84e2732f618","609d76787394a70299ff7509","416.2100000012433","","","","77","","","","key","16.676583333333838","960","468.5","","","","","","","","","","","","","","","","","","","",""
"psychophysics","293","458186","0.0-18.0-0.16","5fa6ada9bf4e8c30188809e6","609a8bf73b2ac84e2732f618","609d76787394a70299ff7509","null","","","","null","","","","key","16.676373134328074","960","468.5","","","","","","","","","","","","","","","","","","","",""
"psychophysics","294","458688","0.0-18.0-1.16","5fa6ada9bf4e8c30188809e6","609a8bf73b2ac84e2732f618","609d76787394a70299ff7509","null","","","","null","","","","key","17.271714285714552","960","468.5","","","","","","","","","","","","","136","-1","6","true","","","",""
"psychophysics","295","459365","0.0-18.0-2.16","5fa6ada9bf4e8c30188809e6","609a8bf73b2ac84e2732f618","609d76787394a70299ff7509","675.3000000008033","","","","77","","","","key","16.67637500000128","960","468.5","","","","","","","","","","","","","","","","","","","",""
"psychophysics","296","460511","0.0-18.0-0.17","5fa6ada9bf4e8c30188809e6","609a8bf73b2ac84e2732f618","609d76787394a70299ff7509","null","","","","null","","","","key","16.676470588235293","960","468.5","","","","","","","","","","","","","","","","","","","",""
"psychophysics","297","461013","0.0-18.0-1.17","5fa6ada9bf4e8c30188809e6","609a8bf73b2ac84e2732f618","609d76787394a70299ff7509","null","","","","null","","","","key","16.676413793102757","960","468.5","","","","","","","","","","","","","136","-1","4","true","","","",""
"psychophysics","298","461296","0.0-18.0-2.17","5fa6ada9bf4e8c30188809e6","609a8bf73b2ac84e2732f618","609d76787394a70299ff7509","280.41000000125496","","","","77","","","","key","16.67687499999738","960","468.5","","","","","","","","","","","","","","","","","","","",""
"psychophysics","299","462039","0.0-18.0-0.18","5fa6ada9bf4e8c30188809e6","609a8bf73b2ac84e2732f618","609d76787394a70299ff7509","null","","","","null","","","","key","16.676046511626716","960","468.5","","","","","","","","","","","","","","","","","","","",""
"psychophysics","300","462540","0.0-18.0-1.18","5fa6ada9bf4e8c30188809e6","609a8bf73b2ac84e2732f618","609d76787394a70299ff7509","null","","","","null","","","","key","16.676241379309495","960","468.5","","","","","","","","","","","","","136","1","5","true","","","",""
"psychophysics","301","462880","0.0-18.0-2.18","5fa6ada9bf4e8c30188809e6","609a8bf73b2ac84e2732f618","609d76787394a70299ff7509","337.4249999996973","","","","77","","","","key","16.67635000000009","960","468.5","","","","","","","","","","","","","","","","","","","",""
"psychophysics","302","463743","0.0-18.0-0.19","5fa6ada9bf4e8c30188809e6","609a8bf73b2ac84e2732f618","609d76787394a70299ff7509","null","","","","null","","","","key","16.677179999999936","960","468.5","","","","","","","","","","","","","","","","","","","",""
"psychophysics","303","464248","0.0-18.0-1.19","5fa6ada9bf4e8c30188809e6","609a8bf73b2ac84e2732f618","609d76787394a70299ff7509","null","","","","null","","","","key","16.67629999999966","960","468.5","","","","","","","","","","","","","136","-1","0","true","","","",""
"psychophysics","304","464645","0.0-18.0-2.19","5fa6ada9bf4e8c30188809e6","609a8bf73b2ac84e2732f618","609d76787394a70299ff7509","394.3850000014063","","","","77","","","","key","16.675833333335405","960","468.5","","","","","","","","","","","","","","","","","","","",""
"psychophysics","305","465570","0.0-18.0-0.20","5fa6ada9bf4e8c30188809e6","609a8bf73b2ac84e2732f618","609d76787394a70299ff7509","null","","","","null","","","","key","16.67763043478202","960","468.5","","","","","","","","","","","","","","","","","","","",""
"psychophysics","306","466072","0.0-18.0-1.20","5fa6ada9bf4e8c30188809e6","609a8bf73b2ac84e2732f618","609d76787394a70299ff7509","null","","","","null","","","","key","17.271321428569667","960","468.5","","","","","","","","","","","","","136","1","0","true","","","",""
"psychophysics","307","466693","0.0-18.0-2.20","5fa6ada9bf4e8c30188809e6","609a8bf73b2ac84e2732f618","609d76787394a70299ff7509","619.520000000135","","","","77","","","","key","16.67636111111076","960","468.5","","","","","","","","","","","","","","","","","","","",""
"psychophysics","308","467778","0.0-18.0-0.21","5fa6ada9bf4e8c30188809e6","609a8bf73b2ac84e2732f618","609d76787394a70299ff7509","null","","","","null","","","","key","16.676546874999985","960","468.5","","","","","","","","","","","","","","","","","","","",""
"psychophysics","309","468282","0.0-18.0-1.21","5fa6ada9bf4e8c30188809e6","609a8bf73b2ac84e2732f618","609d76787394a70299ff7509","null","","","","null","","","","key","16.67599999999899","960","468.5","","","","","","","","","","","","","136","1","2","true","","","",""
"psychophysics","310","468709","0.0-18.0-2.21","5fa6ada9bf4e8c30188809e6","609a8bf73b2ac84e2732f618","609d76787394a70299ff7509","424.19499999959953","","","","90","","","","key","16.67666666666628","960","468.5","","","","","","","","","","","","","","","","","","","",""
"psychophysics","311","469656","0.0-18.0-0.22","5fa6ada9bf4e8c30188809e6","609a8bf73b2ac84e2732f618","609d76787394a70299ff7509","null","","","","null","","","","key","16.67598214285681","960","468.5","","","","","","","","","","","","","","","","","","","",""
"psychophysics","312","470159","0.0-18.0-1.22","5fa6ada9bf4e8c30188809e6","609a8bf73b2ac84e2732f618","609d76787394a70299ff7509","null","","","","null","","","","key","16.677034482757303","960","468.5","","","","","","","","","","","","","136","1","6","true","","","",""
"psychophysics","313","470573","0.0-18.0-2.22","5fa6ada9bf4e8c30188809e6","609a8bf73b2ac84e2732f618","609d76787394a70299ff7509","412.13499999867054","","","","77","","","","key","16.675708333333507","960","468.5","","","","","","","","","","","","","","","","","","","",""
"psychophysics","314","471357","0.0-18.0-0.23","5fa6ada9bf4e8c30188809e6","609a8bf73b2ac84e2732f618","609d76787394a70299ff7509","null","","","","null","","","","key","16.67502173912995","960","468.5","","","","","","","","","","","","","","","","","","","",""
"psychophysics","315","471858","0.0-18.0-1.23","5fa6ada9bf4e8c30188809e6","609a8bf73b2ac84e2732f618","609d76787394a70299ff7509","null","","","","null","","","","key","16.677344827585582","960","468.5","","","","","","","","","","","","","136","1","4","true","","","",""
"psychophysics","316","472270","0.0-18.0-2.23","5fa6ada9bf4e8c30188809e6","609a8bf73b2ac84e2732f618","609d76787394a70299ff7509","409.670000000915","","","","77","","","","key","16.677958333331237","960","468.5","","","","","","","","","","","","","","","","","","","",""
"psychophysics","317","473020","0.0-18.0-0.24","5fa6ada9bf4e8c30188809e6","609a8bf73b2ac84e2732f618","609d76787394a70299ff7509","null","","","","null","","","","key","16.67700000000001","960","468.5","","","","","","","","","","","","","","","","","","","",""
"psychophysics","318","473522","0.0-18.0-1.24","5fa6ada9bf4e8c30188809e6","609a8bf73b2ac84e2732f618","609d76787394a70299ff7509","null","","","","null","","","","key","16.675448275861683","960","468.5","","","","","","","","","","","","","136","-1","2","true","","","",""
"psychophysics","319","473845","0.0-18.0-2.24","5fa6ada9bf4e8c30188809e6","609a8bf73b2ac84e2732f618","609d76787394a70299ff7509","321.3349999986822","","","","77","","","","key","16.678888888887336","960","468.5","","","","","","","","","","","","","","","","","","","",""
"psychophysics","320","475196","0.0-18.0-0.25","5fa6ada9bf4e8c30188809e6","609a8bf73b2ac84e2732f618","609d76787394a70299ff7509","null","","","","null","","","","key","16.676574999999865","960","468.5","","","","","","","","","","","","","","","","","","","",""
"psychophysics","321","475699","0.0-18.0-1.25","5fa6ada9bf4e8c30188809e6","609a8bf73b2ac84e2732f618","609d76787394a70299ff7509","null","","","","null","","","","key","16.67665517241453","960","468.5","","","","","","","","","","","","","136","-1","4","true","","","",""
"psychophysics","322","476022","0.0-18.0-2.25","5fa6ada9bf4e8c30188809e6","609a8bf73b2ac84e2732f618","609d76787394a70299ff7509","317.31500000023516","","","","77","","","","key","16.676315789475524","960","468.5","","","","","","","","","","","","","","","","","","","",""
"psychophysics","323","476701","0.0-18.0-0.26","5fa6ada9bf4e8c30188809e6","609a8bf73b2ac84e2732f618","609d76787394a70299ff7509","null","","","","null","","","","key","16.675794871795613","960","468.5","","","","","","","","","","","","","","","","","","","",""
"psychophysics","324","477205","0.0-18.0-1.26","5fa6ada9bf4e8c30188809e6","609a8bf73b2ac84e2732f618","609d76787394a70299ff7509","null","","","","null","","","","key","16.67629999999966","960","468.5","","","","","","","","","","","","","136","1","6","true","","","",""
"psychophysics","325","477629","0.0-18.0-2.26","5fa6ada9bf4e8c30188809e6","609a8bf73b2ac84e2732f618","609d76787394a70299ff7509","421.1350000005332","","","","77","","","","key","16.675541666666202","960","468.5","","","","","","","","","","","","","","","","","","","",""
"psychophysics","326","478845","0.0-18.0-0.27","5fa6ada9bf4e8c30188809e6","609a8bf73b2ac84e2732f618","609d76787394a70299ff7509","null","","","","null","","","","key","16.67636111111157","960","468.5","","","","","","","","","","","","","","","","","","","",""
"psychophysics","327","479346","0.0-18.0-1.27","5fa6ada9bf4e8c30188809e6","609a8bf73b2ac84e2732f618","609d76787394a70299ff7509","null","","","","null","","","","key","16.67665517241453","960","468.5","","","","","","","","","","","","","136","-1","5","true","","","",""
"psychophysics","328","479574","0.0-18.0-2.27","5fa6ada9bf4e8c30188809e6","609a8bf73b2ac84e2732f618","609d76787394a70299ff7509","225.75999999936903","","","","77","","","","key","16.676692307693884","960","468.5","","","","","","","","","","","","","","","","","","","",""
