"trial_type","trial_index","time_elapsed","internal_node_id","PROLIFIC_PID","STUDY_ID","SESSION_ID","rt","stimulus","button_pressed","success","key_press","responses","isData","view_history","response_type","avg_frame_time","center_x","center_y","isSC","stim_side","trial_luminance","step_size","nReversal","correct","prev_ans","isThreshold","SC_threshold","final_threshold","isLuminance","FF_luminance","luminance","stimSide","ISInt","isFF","question_order","isSPQ","isCAPS","isAQ"
"pavlovia","0","13","0.0-0.0","5b49d3a519f8e70001b7df02","609a8bf73b2ac84e2732f618","609d773949840f009aa3caf0","","","","","","","","","","","","","","","","","","","","","","","","","","","","","","","",""
"html-button-response","1","79225","0.0-1.0","5b49d3a519f8e70001b7df02","609a8bf73b2ac84e2732f618","609d773949840f009aa3caf0","79208.5650000081","<div style='background-color: white; width:60%; margin: auto; padding: 50px; text-align: justify; text-justify: inter-word; margin-bottom: 20px;'><h1 style='text-align: center;'>Consent Form</h1><p>Please read this consent form carefully before deciding whether you would like to participate in this study. You have to be 18 years old or older to participate to this study.</p><p style='text-decoration: underline;'>Participation is voluntary:</p><p>It is your choice whether or not to participate in this research. If you choose to participate, you may change your mind and leave the study at any time. Refusal to participate or stopping your participation will involve no penalty or loss of benefits to which you are otherwise entitled.</p><p style='text-decoration: underline;'>Purpose of the Study:</p><p>To understand the mechanisms underlying human perception.</p><p style='text-decoration: underline;'>What you will do in this study:</p><p>You will be presented with a series of visual images and then you will press buttons on the keyboard of your computer to respond to simple questions about the images (e.g. Were one or two images presented?). In addition, you will be asked to complete a questionnaire concerning your beliefs and everyday mental and perceptual experiences.'</p><p style='text-decoration: underline;'> Time Required:</p><p>The study will take 40 minutes to complete. </p><p style='text-decoration: underline;'>Risks:</p><p>There are no anticipated risks associated with participating in this study that are beyond those experienced in everyday life. </p><p style='text-decoration: underline;'>Benefits:</p><p>There are no benefits to you in participating in the study. However, this study may lead to a better understanding of how different kinds of visual information are used.</p><p style='text-decoration: underline;'>Compensation:</p><p>You will be paid US$6.6/hour. </p><p style='text-decoration: underline;'>Privacy and Confidentiality:</p><p>Your participation in this study will be anonymous. No personal information about your name or identity will be asked or recorded. This anonymous data will be stored for several years and may be used for a variety of research purposes. The overall results of the study may be published, or the data files may be shared with other researchers, but your identity will not be revealed in any way. The online services we are using for this study may temporarily store your data, but this data will be downloaded and then promptly deleted from those services.Your data will not be permanently associated with your name, IP address, or any other identifiable information (e.g., your information will only be connected to your payment, not to any of your responses), though they may be temporarily stored together before we download and separate them. Even so, no guarantee of internet survey security can be given because, although unlikely, transmissions can be intercepted and IP addresses can be identified. The anonymous data may be shared publicly (for example, in conjunction with a resulting academic publication).</p><p style='text-decoration: underline;'>Participation and Withdrawal:</p><p>Your participation in this study is completely voluntary. You may stop responding to the stimuli or stop answering questions if you so choose and without penalty by exiting the full screen mode, closing this tab of your browser or redirecting it to a different website.</p><p style='text-decoration: underline;'>Contact Info of the Researcher: </p><p>If you have questions about this study, or if you would like to talk to the research team, please contact David Melcher (david.melcher@nyu.edu, md5050@nyu.edu) at the Perception and Active Cognition Laboratory, New York University Abu Dhabi, Computational Research Building, Saadiyat Island, Abu Dhabi, UAE.This research has been reviewed by the New York University Abu Dhabi Institutional Review Board (NYUAD IRB). To contact about your rights in this research, for questions, suggestions, or complaints that are not addressed by the researchers, please email IRBnyuad@nyu.edu, or call the NYUAD IRB at +971 2 628 4313. </p></div>","0","","","","","","","","","","","","","","","","","","","","","","","","","","","","",""
"fullscreen","2","81037","0.0-2.0","5b49d3a519f8e70001b7df02","609a8bf73b2ac84e2732f618","609d773949840f009aa3caf0","","","","true","","","","","","","","","","","","","","","","","","","","","","","","","","","",""
"html-keyboard-response","3","85351","0.0-3.0","5b49d3a519f8e70001b7df02","609a8bf73b2ac84e2732f618","609d773949840f009aa3caf0","4311.520000002929","<p>Welcome !</p><p>READ CAREFULLY THE FOLLOWING INDICATIONS:</p><p>From this moment you have ~40 minutes to complete the experiment.</p><p>During the experiment you will be prompted to take several breaks. Each break should not last longer than 2-3 minutes.</p><p>Make sure that your computer is plugged in and it's not running on battery power, even if the battery is already fully charged.</p><p>Turn off your phone and music, make sure that you are in a quiet room and that you will not be distracted for the next hour.</p><p>Failure to comply with the instructions and indications provided during the experiment will most likely result in the rejection of your data.<p>Press the spacebar to start.</p>","","","32","","","","","","","","","","","","","","","","","","","","","","","","","","",""
"survey-html-form","4","94223","0.0-4.0","5b49d3a519f8e70001b7df02","609a8bf73b2ac84e2732f618","609d773949840f009aa3caf0","8801.680000004126","","","","","{""age"":""35"",""sex"":""male""}","true","","","","","","","","","","","","","","","","","","","","","","","","",""
"instructions","5","130975","0.0-5.0","5b49d3a519f8e70001b7df02","609a8bf73b2ac84e2732f618","609d773949840f009aa3caf0","36753.249999994296","","","","","","","[{""page_index"":0,""viewing_time"":24198.60499999777},{""page_index"":1,""viewing_time"":5183.569999993779},{""page_index"":2,""viewing_time"":7370.6550000060815}]","","","","","","","","","","","","","","","","","","","","","","","",""
"psychophysics","6","133807","0.0-6.0-0.0","5b49d3a519f8e70001b7df02","609a8bf73b2ac84e2732f618","609d773949840f009aa3caf0","1827.754999991157","","","","37","","","","key","17.039391566265","952","481","true","-1","180","30","0","-1","","","","","","","","","","","","","",""
"psychophysics","7","135473","0.0-6.0-0.1","5b49d3a519f8e70001b7df02","609a8bf73b2ac84e2732f618","609d773949840f009aa3caf0","662.8600000112783","","","","37","","","","key","16.638323232323412","952","481","true","-1","180","30","0","-1","-1","","","","","","","","","","","","",""
"psychophysics","8","136597","0.0-6.0-0.2","5b49d3a519f8e70001b7df02","609a8bf73b2ac84e2732f618","609d773949840f009aa3caf0","115.23499999020714","","","","39","","","","key","16.637164179104513","952","481","true","1","150","30","0","-1","-1","","","","","","","","","","","","",""
"psychophysics","9","138061","0.0-6.0-0.3","5b49d3a519f8e70001b7df02","609a8bf73b2ac84e2732f618","609d773949840f009aa3caf0","460.13500000117347","","","","39","","","","key","16.63754022988523","952","481","true","1","150","30","0","-1","-1","","","","","","","","","","","","",""
"psychophysics","10","142468","0.0-6.0-0.4","5b49d3a519f8e70001b7df02","609a8bf73b2ac84e2732f618","609d773949840f009aa3caf0","3402.830000006361","","","","39","","","","key","16.637734848484826","952","481","true","-1","129","24","1","1","-1","","","","","","","","","","","","",""
"psychophysics","11","144022","0.0-6.0-0.5","5b49d3a519f8e70001b7df02","609a8bf73b2ac84e2732f618","609d773949840f009aa3caf0","552.5449999986449","","","","37","","","","key","16.637586956521695","952","481","true","-1","153","24","1","-1","1","","","","","","","","","","","","",""
"psychophysics","12","145513","0.0-6.0-0.6","5b49d3a519f8e70001b7df02","609a8bf73b2ac84e2732f618","609d773949840f009aa3caf0","487.82999999821186","","","","37","","","","key","18.511475000000065","952","481","true","-1","153","19.2","2","-1","-1","","","","","","","","","","","","",""
"psychophysics","13","148427","0.0-6.0-0.7","5b49d3a519f8e70001b7df02","609a8bf73b2ac84e2732f618","609d773949840f009aa3caf0","1906.380000000354","","","","37","","","","key","16.637982758620637","952","481","true","1","133.8","15.36","3","1","-1","","","","","","","","","","","","",""
"psychophysics","14","149857","0.0-6.0-0.8","5b49d3a519f8e70001b7df02","609a8bf73b2ac84e2732f618","609d773949840f009aa3caf0","419.3799999920884","","","","39","","","","key","16.63795294117641","952","481","true","1","149.16000000000003","15.36","3","-1","1","","","","","","","","","","","","",""
"psychophysics","15","151139","0.0-6.0-0.9","5b49d3a519f8e70001b7df02","609a8bf73b2ac84e2732f618","609d773949840f009aa3caf0","273.6350000050152","","","","39","","","","key","16.6377105263156","952","481","true","1","149.16000000000003","12.287999999999998","4","-1","-1","","","","","","","","","","","","",""
"psychophysics","16","152558","0.0-6.0-0.10","5b49d3a519f8e70001b7df02","609a8bf73b2ac84e2732f618","609d773949840f009aa3caf0","413.05000000284053","","","","37","","","","key","16.636654761905014","952","481","true","-1","136.872","12.287999999999998","4","-1","-1","","","","","","","","","","","","",""
"psychophysics","17","153915","0.0-6.0-0.11","5b49d3a519f8e70001b7df02","609a8bf73b2ac84e2732f618","609d773949840f009aa3caf0","353.96000000764616","","","","37","","","","key","16.643617283950636","952","481","true","-1","136.872","12.287999999999998","4","-1","-1","","","","","","","","","","","","",""
"psychophysics","18","156269","0.0-6.0-0.12","5b49d3a519f8e70001b7df02","609a8bf73b2ac84e2732f618","609d773949840f009aa3caf0","1345.9949999960372","","","","37","","","","key","16.637092857142854","952","481","true","1","129","9.8304","5","1","-1","","","","","","","","","","","","",""
"psychophysics","19","157660","0.0-6.0-0.13","5b49d3a519f8e70001b7df02","609a8bf73b2ac84e2732f618","609d773949840f009aa3caf0","381.5749999921536","","","","37","","","","key","16.63966265060211","952","481","true","-1","138.8304","9.8304","5","-1","1","","","","","","","","","","","","",""
"psychophysics","20","159144","0.0-6.0-0.14","5b49d3a519f8e70001b7df02","609a8bf73b2ac84e2732f618","609d773949840f009aa3caf0","479.64000000501983","","","","37","","","","key","16.63885227272741","952","481","true","-1","138.8304","7.864319999999999","6","-1","-1","","","","","","","","","","","","",""
"psychophysics","21","160696","0.0-6.0-0.15","5b49d3a519f8e70001b7df02","609a8bf73b2ac84e2732f618","609d773949840f009aa3caf0","547.1200000029057","","","","39","","","","key","16.82026373626374","952","481","true","1","130.96608","7.864319999999999","6","-1","-1","","","","","","","","","","","","",""
"psychophysics","22","162950","0.0-6.0-0.16","5b49d3a519f8e70001b7df02","609a8bf73b2ac84e2732f618","609d773949840f009aa3caf0","1204.089999999269","","","","39","","","","key","16.88848872180447","952","481","true","1","130.96608","7.864319999999999","6","-1","-1","","","","","","","","","","","","",""
"psychophysics","23","164844","0.0-6.0-0.17","5b49d3a519f8e70001b7df02","609a8bf73b2ac84e2732f618","609d773949840f009aa3caf0","884.5099999889499","","","","39","","","","key","16.637876106194575","952","481","true","-1","129","6.291456","7","1","-1","","","","","","","","","","","","",""
"psychophysics","24","167132","0.0-6.0-0.18","5b49d3a519f8e70001b7df02","609a8bf73b2ac84e2732f618","609d773949840f009aa3caf0","1278.2200000074226","","","","39","","","","key","16.63926470588237","952","481","true","1","135.291456","6.291456","7","-1","1","","","","","","","","","","","","",""
"psychophysics","25","168393","0.0-6.0-0.19","5b49d3a519f8e70001b7df02","609a8bf73b2ac84e2732f618","609d773949840f009aa3caf0","243.35000000428408","","","","37","","","","key","16.640853333333506","952","481","true","-1","135.291456","5.033164800000001","8","-1","-1","","","","","","","","","","","","",""
"psychophysics","26","170069","0.0-6.0-0.20","5b49d3a519f8e70001b7df02","609a8bf73b2ac84e2732f618","609d773949840f009aa3caf0","672.3100000090199","","","","37","","","","key","16.800868686868615","952","481","true","1","130.2582912","4.0265318400000005","9","1","-1","","","","","","","","","","","","",""
"psychophysics","27","171941","0.0-6.0-0.21","5b49d3a519f8e70001b7df02","609a8bf73b2ac84e2732f618","609d773949840f009aa3caf0","866.3149999920279","","","","37","","","","key","16.639459459459292","952","481","true","-1","134.28482304","4.0265318400000005","9","-1","1","","","","","","","","","","","","",""
"psychophysics","28","174007","0.0-6.0-0.22","5b49d3a519f8e70001b7df02","609a8bf73b2ac84e2732f618","609d773949840f009aa3caf0","1063.5049999982584","","","","37","","","","key","16.641975609756244","952","481","true","1","134.28482304","3.2212254720000004","10","1","-1","","","","","","","","","","","","",""
"psychophysics","29","175381","0.0-6.0-0.23","5b49d3a519f8e70001b7df02","609a8bf73b2ac84e2732f618","609d773949840f009aa3caf0","368.5750000004191","","","","39","","","","key","16.64074390243899","952","481","true","1","137.506048512","3.2212254720000004","10","-1","1","","","","","","","","","","","","",""
"psychophysics","30","176738","0.0-6.0-0.24","5b49d3a519f8e70001b7df02","609a8bf73b2ac84e2732f618","609d773949840f009aa3caf0","354.5100000046659","","","","37","","","","key","16.63865000000005","952","481","true","-1","137.506048512","2.5769803776000004","11","-1","-1","","","","","","","","","","","","",""
"psychophysics","31","178079","0.0-6.0-0.25","5b49d3a519f8e70001b7df02","609a8bf73b2ac84e2732f618","609d773949840f009aa3caf0","334.79999999690335","","","","39","","","","key","16.63902500000004","952","481","true","1","134.9290681344","2.5769803776000004","11","-1","-1","","","","","","","","","","","","",""
"psychophysics","32","179364","0.0-6.0-0.26","5b49d3a519f8e70001b7df02","609a8bf73b2ac84e2732f618","609d773949840f009aa3caf0","275.79999998852145","","","","37","","","","key","16.638710526315997","952","481","true","-1","134.9290681344","2.5769803776000004","11","-1","-1","","","","","","","","","","","","",""
"psychophysics","33","180779","0.0-6.0-0.27","5b49d3a519f8e70001b7df02","609a8bf73b2ac84e2732f618","609d773949840f009aa3caf0","398.3449999941513","","","","37","","","","key","16.839204819277224","952","481","true","1","132.35208775680002","2.0615843020800004","12","1","-1","","","","","","","","","","","","",""
"psychophysics","34","181986","0.0-6.0-0.28","5b49d3a519f8e70001b7df02","609a8bf73b2ac84e2732f618","609d773949840f009aa3caf0","193.16999999864493","","","","37","","","","key","16.636972222222134","952","481","true","-1","134.41367205888002","2.0615843020800004","12","-1","1","","","","","","","","","","","","",""
"psychophysics","35","183257","0.0-6.0-0.29","5b49d3a519f8e70001b7df02","609a8bf73b2ac84e2732f618","609d773949840f009aa3caf0","265.8249999949476","","","","39","","","","key","16.63990666666689","952","481","true","1","134.41367205888002","1.6492674416640005","13","-1","-1","","","","","","","","","","","","",""
"psychophysics","36","185076","0.0-6.0-0.30","5b49d3a519f8e70001b7df02","609a8bf73b2ac84e2732f618","609d773949840f009aa3caf0","816.6249999922002","","","","37","","","","key","16.637880733945043","952","481","true","-1","132.76440461721603","1.6492674416640005","13","-1","-1","","","","","","","","","","","","",""
"psychophysics","37","187149","0.0-6.0-0.31","5b49d3a519f8e70001b7df02","609a8bf73b2ac84e2732f618","609d773949840f009aa3caf0","1062.7799999929266","","","","37","","","","key","16.638138211382188","952","481","true","1","132.76440461721603","1.3194139533312006","14","1","-1","","","","","","","","","","","","",""
"psychophysics","38","188823","0.0-6.0-0.32","5b49d3a519f8e70001b7df02","609a8bf73b2ac84e2732f618","609d773949840f009aa3caf0","668.6399999889545","","","","37","","","","key","16.637459999999848","952","481","true","1","134.08381857054724","1.3194139533312006","14","1","1","","","","","","","","","","","","",""
"psychophysics","39","190009","0.0-6.0-0.33","5b49d3a519f8e70001b7df02","609a8bf73b2ac84e2732f618","609d773949840f009aa3caf0","181.2250000075437","","","","39","","","","key","16.637842857142513","952","481","true","1","135.40323252387844","1.3194139533312006","14","-1","1","","","","","","","","","","","","",""
"psychophysics","40","191273","0.0-6.0-0.34","5b49d3a519f8e70001b7df02","609a8bf73b2ac84e2732f618","609d773949840f009aa3caf0","257.06000000354834","","","","37","","","","key","16.63790666666658","952","481","true","-1","135.40323252387844","1.0555311626649604","15","-1","-1","","","","","","","","","","","","",""
"psychophysics","41","192585","0.0-6.0-0.35","5b49d3a519f8e70001b7df02","609a8bf73b2ac84e2732f618","609d773949840f009aa3caf0","305.4050000064308","","","","37","","","","key","16.637538461538497","952","481","true","-1","134.3477013612135","1.0555311626649604","15","-1","-1","","","","","","","","","","","","",""
"psychophysics","42","193828","0.0-6.0-0.36","5b49d3a519f8e70001b7df02","609a8bf73b2ac84e2732f618","609d773949840f009aa3caf0","232.6549999997951","","","","37","","","","key","16.63736986301358","952","481","true","-1","134.3477013612135","1.0555311626649604","15","-1","-1","","","","","","","","","","","","",""
"psychophysics","43","195381","0.0-6.0-0.37","5b49d3a519f8e70001b7df02","609a8bf73b2ac84e2732f618","609d773949840f009aa3caf0","539.9100000067847","","","","39","","","","key","16.636752688172287","952","481","true","-1","133.29217019854855","1","16","1","-1","","","","","","","","","","","","",""
"psychophysics","44","196561","0.0-6.0-0.38","5b49d3a519f8e70001b7df02","609a8bf73b2ac84e2732f618","609d773949840f009aa3caf0","172.25000000325963","","","","37","","","","key","16.638685714285902","952","481","true","1","134.29217019854855","1","16","1","1","","","","","","","","","","","","",""
"psychophysics","45","197753","0.0-6.0-0.39","5b49d3a519f8e70001b7df02","609a8bf73b2ac84e2732f618","609d773949840f009aa3caf0","186.0400000005029","","","","39","","","","key","16.637242857142702","952","481","true","1","135.29217019854855","1","16","-1","1","","","","","","","","","","","","",""
"html-keyboard-response","46","202366","0.0-7.0","5b49d3a519f8e70001b7df02","609a8bf73b2ac84e2732f618","609d773949840f009aa3caf0","4606.735000008484","<p>Well Done !</p><p>Prepare for a new block.</p><p>DON'T EXIT THE FULL SCREEN MODE</p><p>Press the Spacebar to start.</p>","","","32","","","","","","","","","","","","","","","true","134.20190495427792","","","","","","","","","","",""
"psychophysics","47","204215","0.0-8.0-0.0","5b49d3a519f8e70001b7df02","609a8bf73b2ac84e2732f618","609d773949840f009aa3caf0","843.3899999945424","","","","37","","","","key","16.63399099099092","952","481","true","-1","180","30","0","-1","","","","","","","","","","","","","",""
"psychophysics","48","205366","0.0-8.0-0.1","5b49d3a519f8e70001b7df02","609a8bf73b2ac84e2732f618","609d773949840f009aa3caf0","146.70500000647735","","","","39","","","","key","16.63863235294112","952","481","true","1","180","30","0","-1","-1","","","","","","","","","","","","",""
"psychophysics","49","206509","0.0-8.0-0.2","5b49d3a519f8e70001b7df02","609a8bf73b2ac84e2732f618","609d773949840f009aa3caf0","138.6050000000978","","","","37","","","","key","16.640897058823185","952","481","true","-1","150","30","0","-1","-1","","","","","","","","","","","","",""
"psychophysics","50","207665","0.0-8.0-0.3","5b49d3a519f8e70001b7df02","609a8bf73b2ac84e2732f618","609d773949840f009aa3caf0","152.37500000512227","","","","37","","","","key","16.637382352941238","952","481","true","-1","150","30","0","-1","-1","","","","","","","","","","","","",""
"psychophysics","51","208860","0.0-8.0-0.4","5b49d3a519f8e70001b7df02","609a8bf73b2ac84e2732f618","609d773949840f009aa3caf0","188.98999999510124","","","","37","","","","key","16.63854929577464","952","481","true","1","129","24","1","1","-1","","","","","","","","","","","","",""
"psychophysics","52","209904","0.0-8.0-0.5","5b49d3a519f8e70001b7df02","609a8bf73b2ac84e2732f618","609d773949840f009aa3caf0","40.450000000419095","","","","37","","","","key","16.636177419354826","952","481","true","-1","153","24","1","-1","1","","","","","","","","","","","","",""
"psychophysics","53","211451","0.0-8.0-0.6","5b49d3a519f8e70001b7df02","609a8bf73b2ac84e2732f618","609d773949840f009aa3caf0","540.194999994128","","","","39","","","","key","16.640402173913216","952","481","true","1","153","19.2","2","-1","-1","","","","","","","","","","","","",""
"psychophysics","54","213137","0.0-8.0-0.7","5b49d3a519f8e70001b7df02","609a8bf73b2ac84e2732f618","609d773949840f009aa3caf0","680.980000004638","","","","39","","","","key","16.63793000000005","952","481","true","-1","133.8","15.36","3","1","-1","","","","","","","","","","","","",""
"psychophysics","55","214255","0.0-8.0-0.8","5b49d3a519f8e70001b7df02","609a8bf73b2ac84e2732f618","609d773949840f009aa3caf0","112.2050000121817","","","","37","","","","key","16.643151515151576","952","481","true","-1","149.16000000000003","15.36","3","-1","1","","","","","","","","","","","","",""
"psychophysics","56","215479","0.0-8.0-0.9","5b49d3a519f8e70001b7df02","609a8bf73b2ac84e2732f618","609d773949840f009aa3caf0","218.35499998996966","","","","37","","","","key","16.644657534246544","952","481","true","-1","149.16000000000003","12.287999999999998","4","-1","-1","","","","","","","","","","","","",""
"psychophysics","57","216849","0.0-8.0-0.10","5b49d3a519f8e70001b7df02","609a8bf73b2ac84e2732f618","609d773949840f009aa3caf0","367.24999999569263","","","","39","","","","key","16.638222222222534","952","481","true","1","136.872","12.287999999999998","4","-1","-1","","","","","","","","","","","","",""
"psychophysics","58","218221","0.0-8.0-0.11","5b49d3a519f8e70001b7df02","609a8bf73b2ac84e2732f618","609d773949840f009aa3caf0","368.4499999944819","","","","39","","","","key","16.637098765432228","952","481","true","1","136.872","12.287999999999998","4","-1","-1","","","","","","","","","","","","",""
"psychophysics","59","219595","0.0-8.0-0.12","5b49d3a519f8e70001b7df02","609a8bf73b2ac84e2732f618","609d773949840f009aa3caf0","369.3899999925634","","","","39","","","","key","16.635658536585495","952","481","true","-1","129","9.8304","5","1","-1","","","","","","","","","","","","",""
"psychophysics","60","220872","0.0-8.0-0.13","5b49d3a519f8e70001b7df02","609a8bf73b2ac84e2732f618","609d773949840f009aa3caf0","271.9249999936437","","","","39","","","","key","16.634723684210545","952","481","true","1","138.8304","9.8304","5","-1","1","","","","","","","","","","","","",""
"psychophysics","61","222079","0.0-8.0-0.14","5b49d3a519f8e70001b7df02","609a8bf73b2ac84e2732f618","609d773949840f009aa3caf0","196.46999999531545","","","","37","","","","key","16.63954929577459","952","481","true","-1","138.8304","7.864319999999999","6","-1","-1","","","","","","","","","","","","",""
"psychophysics","62","223481","0.0-8.0-0.15","5b49d3a519f8e70001b7df02","609a8bf73b2ac84e2732f618","609d773949840f009aa3caf0","396.8800000002375","","","","39","","","","key","16.63520238095225","952","481","true","1","130.96608","7.864319999999999","6","-1","-1","","","","","","","","","","","","",""
"psychophysics","63","224905","0.0-8.0-0.16","5b49d3a519f8e70001b7df02","609a8bf73b2ac84e2732f618","609d773949840f009aa3caf0","418.88499999186024","","","","39","","","","key","16.638869047618797","952","481","true","-1","130.96608","6.291456","7","1","-1","","","","","","","","","","","","",""
"psychophysics","64","226085","0.0-8.0-0.17","5b49d3a519f8e70001b7df02","609a8bf73b2ac84e2732f618","609d773949840f009aa3caf0","174.21499999181833","","","","39","","","","key","16.638042857142864","952","481","true","1","137.25753600000002","6.291456","7","-1","1","","","","","","","","","","","","",""
"psychophysics","65","227272","0.0-8.0-0.18","5b49d3a519f8e70001b7df02","609a8bf73b2ac84e2732f618","609d773949840f009aa3caf0","183.89999998908024","","","","39","","","","key","16.63854929577464","952","481","true","1","137.25753600000002","5.033164800000001","8","-1","-1","","","","","","","","","","","","",""
"psychophysics","66","228614","0.0-8.0-0.19","5b49d3a519f8e70001b7df02","609a8bf73b2ac84e2732f618","609d773949840f009aa3caf0","338.87500000128057","","","","39","","","","key","16.637620253164595","952","481","true","1","132.2243712","5.033164800000001","8","-1","-1","","","","","","","","","","","","",""
"psychophysics","67","229886","0.0-8.0-0.20","5b49d3a519f8e70001b7df02","609a8bf73b2ac84e2732f618","609d773949840f009aa3caf0","265.4250000050524","","","","37","","","","key","16.645776315789448","952","481","true","1","132.2243712","4.0265318400000005","9","1","-1","","","","","","","","","","","","",""
"psychophysics","68","231142","0.0-8.0-0.21","5b49d3a519f8e70001b7df02","609a8bf73b2ac84e2732f618","609d773949840f009aa3caf0","249.775000003865","","","","37","","","","key","16.637702702702732","952","481","true","-1","136.25090304","4.0265318400000005","9","-1","1","","","","","","","","","","","","",""
"psychophysics","69","232444","0.0-8.0-0.22","5b49d3a519f8e70001b7df02","609a8bf73b2ac84e2732f618","609d773949840f009aa3caf0","299.32999999437016","","","","37","","","","key","16.63487179487166","952","481","true","-1","136.25090304","3.2212254720000004","10","-1","-1","","","","","","","","","","","","",""
"psychophysics","70","233976","0.0-8.0-0.23","5b49d3a519f8e70001b7df02","609a8bf73b2ac84e2732f618","609d773949840f009aa3caf0","524.3150000023888","","","","37","","","","key","16.638577777777552","952","481","true","-1","133.029677568","3.2212254720000004","10","-1","-1","","","","","","","","","","","","",""
"psychophysics","71","235299","0.0-8.0-0.24","5b49d3a519f8e70001b7df02","609a8bf73b2ac84e2732f618","609d773949840f009aa3caf0","312.8150000120513","","","","37","","","","key","16.638316455696152","952","481","true","-1","133.029677568","3.2212254720000004","10","-1","-1","","","","","","","","","","","","",""
"psychophysics","72","236747","0.0-8.0-0.25","5b49d3a519f8e70001b7df02","609a8bf73b2ac84e2732f618","609d773949840f009aa3caf0","443.3100000023842","","","","37","","","","key","16.63853488372115","952","481","true","-1","129.808452096","3.2212254720000004","10","-1","-1","","","","","","","","","","","","",""
"psychophysics","73","240405","0.0-8.0-0.26","5b49d3a519f8e70001b7df02","609a8bf73b2ac84e2732f618","609d773949840f009aa3caf0","2635.9950000041863","","","","37","","","","key","16.638214611872147","952","481","true","1","129.808452096","2.5769803776000004","11","1","-1","","","","","","","","","","","","",""
"psychophysics","74","241615","0.0-8.0-0.27","5b49d3a519f8e70001b7df02","609a8bf73b2ac84e2732f618","609d773949840f009aa3caf0","203.07499999762513","","","","37","","","","key","16.635416666666668","952","481","true","1","132.3854324736","2.5769803776000004","11","1","1","","","","","","","","","","","","",""
"psychophysics","75","242847","0.0-8.0-0.28","5b49d3a519f8e70001b7df02","609a8bf73b2ac84e2732f618","609d773949840f009aa3caf0","222.72499999962747","","","","37","","","","key","16.641821917808258","952","481","true","-1","134.96241285119999","2.5769803776000004","11","-1","1","","","","","","","","","","","","",""
"psychophysics","76","244203","0.0-8.0-0.29","5b49d3a519f8e70001b7df02","609a8bf73b2ac84e2732f618","609d773949840f009aa3caf0","343.509999991511","","","","37","","","","key","16.63764556962039","952","481","true","1","134.96241285119999","2.0615843020800004","12","1","-1","","","","","","","","","","","","",""
"psychophysics","77","245480","0.0-8.0-0.30","5b49d3a519f8e70001b7df02","609a8bf73b2ac84e2732f618","609d773949840f009aa3caf0","270.0299999996787","","","","37","","","","key","16.64383116883132","952","481","true","-1","137.02399715328","2.0615843020800004","12","-1","1","","","","","","","","","","","","",""
"psychophysics","78","246591","0.0-8.0-0.31","5b49d3a519f8e70001b7df02","609a8bf73b2ac84e2732f618","609d773949840f009aa3caf0","102.29999999864958","","","","39","","","","key","16.637166666666445","952","481","true","1","137.02399715328","1.6492674416640005","13","-1","-1","","","","","","","","","","","","",""
"psychophysics","79","247804","0.0-8.0-0.32","5b49d3a519f8e70001b7df02","609a8bf73b2ac84e2732f618","609d773949840f009aa3caf0","203.5150000010617","","","","37","","","","key","16.642888888888894","952","481","true","-1","135.374729711616","1.6492674416640005","13","-1","-1","","","","","","","","","","","","",""
"psychophysics","80","248952","0.0-8.0-0.33","5b49d3a519f8e70001b7df02","609a8bf73b2ac84e2732f618","609d773949840f009aa3caf0","136.2000000081025","","","","39","","","","key","16.64057352941189","952","481","true","1","135.374729711616","1.6492674416640005","13","-1","-1","","","","","","","","","","","","",""
"psychophysics","81","250038","0.0-8.0-0.34","5b49d3a519f8e70001b7df02","609a8bf73b2ac84e2732f618","609d773949840f009aa3caf0","74.24999999057036","","","","37","","","","key","16.633359375000055","952","481","true","-1","133.725462269952","1.6492674416640005","13","-1","-1","","","","","","","","","","","","",""
"psychophysics","82","251714","0.0-8.0-0.35","5b49d3a519f8e70001b7df02","609a8bf73b2ac84e2732f618","609d773949840f009aa3caf0","666.5300000022398","","","","39","","","","key","16.637269999999845","952","481","true","-1","133.725462269952","1.3194139533312006","14","1","-1","","","","","","","","","","","","",""
"psychophysics","83","252900","0.0-8.0-0.36","5b49d3a519f8e70001b7df02","609a8bf73b2ac84e2732f618","609d773949840f009aa3caf0","181.97000000509433","","","","39","","","","key","16.637814285714246","952","481","true","1","135.0448762232832","1.3194139533312006","14","-1","1","","","","","","","","","","","","",""
"psychophysics","84","254104","0.0-8.0-0.37","5b49d3a519f8e70001b7df02","609a8bf73b2ac84e2732f618","609d773949840f009aa3caf0","197.37500000337604","","","","39","","","","key","16.63730985915467","952","481","true","1","135.0448762232832","1.0555311626649604","15","-1","-1","","","","","","","","","","","","",""
"psychophysics","85","255373","0.0-8.0-0.38","5b49d3a519f8e70001b7df02","609a8bf73b2ac84e2732f618","609d773949840f009aa3caf0","261.95000000006985","","","","39","","","","key","16.63987999999973","952","481","true","1","133.98934506061826","1.0555311626649604","15","-1","-1","","","","","","","","","","","","",""
"psychophysics","86","256614","0.0-8.0-0.39","5b49d3a519f8e70001b7df02","609a8bf73b2ac84e2732f618","609d773949840f009aa3caf0","227.50999999698251","","","","39","","","","key","16.63794594594573","952","481","true","1","133.98934506061826","1.0555311626649604","15","-1","-1","","","","","","","","","","","","",""
"html-keyboard-response","87","260023","0.0-9.0","5b49d3a519f8e70001b7df02","609a8bf73b2ac84e2732f618","609d773949840f009aa3caf0","3407.2250000026543","<p>Well Done !</p><p>Prepare for a new block.</p><p>DON'T EXIT THE FULL SCREEN MODE</p><p>Press the Spacebar to start.</p>","","","32","","","","","","","","","","","","","","","true","134.1495988803666","","","","","","","","","","",""
"psychophysics","88","261075","0.0-10.0-0.0","5b49d3a519f8e70001b7df02","609a8bf73b2ac84e2732f618","609d773949840f009aa3caf0","47.394999986863695","","","","37","","","","key","16.63155555555556","952","481","true","-1","180","30","0","-1","","","","","","","","","","","","","",""
"psychophysics","89","263030","0.0-10.0-0.1","5b49d3a519f8e70001b7df02","609a8bf73b2ac84e2732f618","609d773949840f009aa3caf0","951.9950000103563","","","","37","","","","key","16.638931623931665","952","481","true","-1","180","30","0","-1","-1","","","","","","","","","","","","",""
"psychophysics","90","264147","0.0-10.0-0.2","5b49d3a519f8e70001b7df02","609a8bf73b2ac84e2732f618","609d773949840f009aa3caf0","107.6150000008056","","","","37","","","","key","16.636833333333595","952","481","true","-1","150","30","0","-1","-1","","","","","","","","","","","","",""
"psychophysics","91","265426","0.0-10.0-0.3","5b49d3a519f8e70001b7df02","609a8bf73b2ac84e2732f618","609d773949840f009aa3caf0","272.1000000019558","","","","39","","","","key","16.627789473684203","952","481","true","1","150","30","0","-1","-1","","","","","","","","","","","","",""
"psychophysics","92","266792","0.0-10.0-0.4","5b49d3a519f8e70001b7df02","609a8bf73b2ac84e2732f618","609d773949840f009aa3caf0","356.38500000641216","","","","39","","","","key","16.634851851851973","952","481","true","1","129","30","0","-1","-1","","","","","","","","","","","","",""
"psychophysics","93","268142","0.0-10.0-0.5","5b49d3a519f8e70001b7df02","609a8bf73b2ac84e2732f618","609d773949840f009aa3caf0","342.61500000138767","","","","39","","","","key","16.63796250000014","952","481","true","-1","129","24","1","1","-1","","","","","","","","","","","","",""
"psychophysics","94","269266","0.0-10.0-0.6","5b49d3a519f8e70001b7df02","609a8bf73b2ac84e2732f618","609d773949840f009aa3caf0","116.3900000101421","","","","37","","","","key","16.63550000000043","952","481","true","-1","153","24","1","-1","1","","","","","","","","","","","","",""
"psychophysics","95","270386","0.0-10.0-0.7","5b49d3a519f8e70001b7df02","609a8bf73b2ac84e2732f618","609d773949840f009aa3caf0","107.5249999994412","","","","39","","","","key","16.637044776119847","952","481","true","1","153","19.2","2","-1","-1","","","","","","","","","","","","",""
"psychophysics","96","271411","0.0-10.0-0.8","5b49d3a519f8e70001b7df02","609a8bf73b2ac84e2732f618","609d773949840f009aa3caf0","15.075000002980232","","","","37","","","","key","16.630933333332845","952","481","true","-1","133.8","19.2","2","-1","-1","","","","","","","","","","","","",""
"psychophysics","97","272997","0.0-10.0-0.9","5b49d3a519f8e70001b7df02","609a8bf73b2ac84e2732f618","609d773949840f009aa3caf0","578.8100000063423","","","","37","","","","key","16.637684210526487","952","481","true","1","133.8","15.36","3","1","-1","","","","","","","","","","","","",""
"psychophysics","98","274116","0.0-10.0-0.10","5b49d3a519f8e70001b7df02","609a8bf73b2ac84e2732f618","609d773949840f009aa3caf0","105.49000000173692","","","","37","","","","key","16.637530303030154","952","481","true","-1","149.16000000000003","15.36","3","-1","1","","","","","","","","","","","","",""
"psychophysics","99","275343","0.0-10.0-0.11","5b49d3a519f8e70001b7df02","609a8bf73b2ac84e2732f618","609d773949840f009aa3caf0","222.87499999220017","","","","39","","","","key","16.63772602739731","952","481","true","1","149.16000000000003","12.287999999999998","4","-1","-1","","","","","","","","","","","","",""
"psychophysics","100","276564","0.0-10.0-0.12","5b49d3a519f8e70001b7df02","609a8bf73b2ac84e2732f618","609d773949840f009aa3caf0","210.87000000989065","","","","37","","","","key","16.637402777778334","952","481","true","-1","136.872","12.287999999999998","4","-1","-1","","","","","","","","","","","","",""
"psychophysics","101","277802","0.0-10.0-0.13","5b49d3a519f8e70001b7df02","609a8bf73b2ac84e2732f618","609d773949840f009aa3caf0","233.5600000078557","","","","37","","","","key","16.63836986301403","952","481","true","-1","136.872","12.287999999999998","4","-1","-1","","","","","","","","","","","","",""
"psychophysics","102","279145","0.0-10.0-0.14","5b49d3a519f8e70001b7df02","609a8bf73b2ac84e2732f618","609d773949840f009aa3caf0","330.5649999965681","","","","37","","","","key","16.63837500000009","952","481","true","1","129","9.8304","5","1","-1","","","","","","","","","","","","",""
"psychophysics","103","280373","0.0-10.0-0.15","5b49d3a519f8e70001b7df02","609a8bf73b2ac84e2732f618","609d773949840f009aa3caf0","210.8600000065053","","","","37","","","","key","16.637493150685085","952","481","true","-1","138.8304","9.8304","5","-1","1","","","","","","","","","","","","",""
"psychophysics","104","281595","0.0-10.0-0.16","5b49d3a519f8e70001b7df02","609a8bf73b2ac84e2732f618","609d773949840f009aa3caf0","217.45999999984633","","","","39","","","","key","16.638555555555083","952","481","true","1","138.8304","7.864319999999999","6","-1","-1","","","","","","","","","","","","",""
"psychophysics","105","282915","0.0-10.0-0.17","5b49d3a519f8e70001b7df02","609a8bf73b2ac84e2732f618","609d773949840f009aa3caf0","308.47000000358094","","","","37","","","","key","16.63806329113932","952","481","true","-1","130.96608","7.864319999999999","6","-1","-1","","","","","","","","","","","","",""
"psychophysics","106","284187","0.0-10.0-0.18","5b49d3a519f8e70001b7df02","609a8bf73b2ac84e2732f618","609d773949840f009aa3caf0","264.3300000054296","","","","37","","","","key","16.638800000000433","952","481","true","-1","130.96608","7.864319999999999","6","-1","-1","","","","","","","","","","","","",""
"psychophysics","107","285952","0.0-10.0-0.19","5b49d3a519f8e70001b7df02","609a8bf73b2ac84e2732f618","609d773949840f009aa3caf0","751.0450000117999","","","","37","","","","key","16.63917142857099","952","481","true","-1","129","7.864319999999999","6","-1","-1","","","","","","","","","","","","",""
"psychophysics","108","287320","0.0-10.0-0.20","5b49d3a519f8e70001b7df02","609a8bf73b2ac84e2732f618","609d773949840f009aa3caf0","352.614999996149","","","","37","","","","key","16.637975609756257","952","481","true","1","129","6.291456","7","1","-1","","","","","","","","","","","","",""
"psychophysics","109","288346","0.0-10.0-0.21","5b49d3a519f8e70001b7df02","609a8bf73b2ac84e2732f618","609d773949840f009aa3caf0","13.095000002067536","","","","39","","","","key","16.645099999999122","952","481","true","1","135.291456","6.291456","7","-1","1","","","","","","","","","","","","",""
"psychophysics","110","289776","0.0-10.0-0.22","5b49d3a519f8e70001b7df02","609a8bf73b2ac84e2732f618","609d773949840f009aa3caf0","416.3750000006985","","","","37","","","","key","16.643752941176267","952","481","true","-1","135.291456","5.033164800000001","8","-1","-1","","","","","","","","","","","","",""
"psychophysics","111","291649","0.0-10.0-0.23","5b49d3a519f8e70001b7df02","609a8bf73b2ac84e2732f618","609d773949840f009aa3caf0","867.6599999889731","","","","37","","","","key","16.639053571428253","952","481","true","1","130.2582912","4.0265318400000005","9","1","-1","","","","","","","","","","","","",""
"psychophysics","112","293232","0.0-10.0-0.24","5b49d3a519f8e70001b7df02","609a8bf73b2ac84e2732f618","609d773949840f009aa3caf0","574.3849999998929","","","","39","","","","key","16.638106382978297","952","481","true","1","134.28482304","4.0265318400000005","9","-1","1","","","","","","","","","","","","",""
"psychophysics","113","294675","0.0-10.0-0.25","5b49d3a519f8e70001b7df02","609a8bf73b2ac84e2732f618","609d773949840f009aa3caf0","438.1699999939883","","","","39","","","","key","16.638313953488588","952","481","true","1","134.28482304","3.2212254720000004","10","-1","-1","","","","","","","","","","","","",""
"psychophysics","114","296206","0.0-10.0-0.26","5b49d3a519f8e70001b7df02","609a8bf73b2ac84e2732f618","609d773949840f009aa3caf0","520.7550000050105","","","","39","","","","key","16.638505494505406","952","481","true","1","131.06359756799998","3.2212254720000004","10","-1","-1","","","","","","","","","","","","",""
"psychophysics","115","297830","0.0-10.0-0.27","5b49d3a519f8e70001b7df02","609a8bf73b2ac84e2732f618","609d773949840f009aa3caf0","620.0899999967078","","","","39","","","","key","16.638447916666944","952","481","true","1","131.06359756799998","3.2212254720000004","10","-1","-1","","","","","","","","","","","","",""
"psychophysics","116","299131","0.0-10.0-0.28","5b49d3a519f8e70001b7df02","609a8bf73b2ac84e2732f618","609d773949840f009aa3caf0","290.16499999852385","","","","39","","","","key","16.638077922077706","952","481","true","1","129","3.2212254720000004","10","-1","-1","","","","","","","","","","","","",""
"psychophysics","117","300552","0.0-10.0-0.29","5b49d3a519f8e70001b7df02","609a8bf73b2ac84e2732f618","609d773949840f009aa3caf0","405.58999999484513","","","","39","","","","key","16.637694117646692","952","481","true","1","129","3.2212254720000004","10","-1","-1","","","","","","","","","","","","",""
"psychophysics","118","302088","0.0-10.0-0.30","5b49d3a519f8e70001b7df02","609a8bf73b2ac84e2732f618","609d773949840f009aa3caf0","530.2000000083353","","","","39","","","","key","16.63792307692283","952","481","true","-1","129","2.5769803776000004","11","1","-1","","","","","","","","","","","","",""
"psychophysics","119","304544","0.0-10.0-0.31","5b49d3a519f8e70001b7df02","609a8bf73b2ac84e2732f618","609d773949840f009aa3caf0","1441.4700000052107","","","","39","","","","key","16.638306122449016","952","481","true","1","131.5769803776","2.5769803776000004","11","-1","1","","","","","","","","","","","","",""
"psychophysics","120","306063","0.0-10.0-0.32","5b49d3a519f8e70001b7df02","609a8bf73b2ac84e2732f618","609d773949840f009aa3caf0","515.1749999931781","","","","39","","","","key","16.63262222222208","952","481","true","-1","131.5769803776","2.0615843020800004","12","1","-1","","","","","","","","","","","","",""
"psychophysics","121","307389","0.0-10.0-0.33","5b49d3a519f8e70001b7df02","609a8bf73b2ac84e2732f618","609d773949840f009aa3caf0","319.08499999553896","","","","37","","","","key","16.637443037974776","952","481","true","-1","133.63856467968","2.0615843020800004","12","-1","1","","","","","","","","","","","","",""
"psychophysics","122","308678","0.0-10.0-0.34","5b49d3a519f8e70001b7df02","609a8bf73b2ac84e2732f618","609d773949840f009aa3caf0","285.68000000086613","","","","37","","","","key","16.637934210526414","952","481","true","-1","133.63856467968","1.6492674416640005","13","-1","-1","","","","","","","","","","","","",""
"psychophysics","123","310330","0.0-10.0-0.35","5b49d3a519f8e70001b7df02","609a8bf73b2ac84e2732f618","609d773949840f009aa3caf0","634.4499999977415","","","","37","","","","key","16.637918367346973","952","481","true","-1","131.989297238016","1.6492674416640005","13","-1","-1","","","","","","","","","","","","",""
"psychophysics","124","311613","0.0-10.0-0.36","5b49d3a519f8e70001b7df02","609a8bf73b2ac84e2732f618","609d773949840f009aa3caf0","270.1749999978347","","","","37","","","","key","16.638246753246996","952","481","true","1","131.989297238016","1.3194139533312006","14","1","-1","","","","","","","","","","","","",""
"psychophysics","125","313002","0.0-10.0-0.37","5b49d3a519f8e70001b7df02","609a8bf73b2ac84e2732f618","609d773949840f009aa3caf0","382.1049999969546","","","","37","","","","key","16.64099999999971","952","481","true","-1","133.30871119134721","1.3194139533312006","14","-1","1","","","","","","","","","","","","",""
"psychophysics","126","314657","0.0-10.0-0.38","5b49d3a519f8e70001b7df02","609a8bf73b2ac84e2732f618","609d773949840f009aa3caf0","648.6799999984214","","","","37","","","","key","16.637868686868444","952","481","true","1","133.30871119134721","1.0555311626649604","15","1","-1","","","","","","","","","","","","",""
"psychophysics","127","316271","0.0-10.0-0.39","5b49d3a519f8e70001b7df02","609a8bf73b2ac84e2732f618","609d773949840f009aa3caf0","604.4300000066869","","","","37","","","","key","16.638718750000407","952","481","true","1","134.36424235401216","1.0555311626649604","15","1","1","","","","","","","","","","","","",""
"html-keyboard-response","128","318422","0.0-11.0","5b49d3a519f8e70001b7df02","609a8bf73b2ac84e2732f618","609d773949840f009aa3caf0","2148.8099999987753","<p>Well Done !</p><p>Prepare for a new block.</p><p>DON'T EXIT THE FULL SCREEN MODE</p><p>Press the Spacebar to start.</p>","","","32","","","","","","","","","","","","","","","true","131.9202245002199","","","","","","","","","","",""
"psychophysics","129","319637","0.0-12.0-0.0","5b49d3a519f8e70001b7df02","609a8bf73b2ac84e2732f618","609d773949840f009aa3caf0","208.84999999543652","","","","37","","","","key","16.634821917808278","952","481","true","-1","180","30","0","-1","","","","","","","","","","","","","",""
"psychophysics","130","321235","0.0-12.0-0.1","5b49d3a519f8e70001b7df02","609a8bf73b2ac84e2732f618","609d773949840f009aa3caf0","590.7699999952456","","","","37","","","","key","16.638221052631515","952","481","true","-1","180","30","0","-1","-1","","","","","","","","","","","","",""
"psychophysics","131","322297","0.0-12.0-0.2","5b49d3a519f8e70001b7df02","609a8bf73b2ac84e2732f618","609d773949840f009aa3caf0","56.12500000279397","","","","37","","","","key","16.641968253968535","952","481","true","-1","150","30","0","-1","-1","","","","","","","","","","","","",""
"psychophysics","132","323611","0.0-12.0-0.3","5b49d3a519f8e70001b7df02","609a8bf73b2ac84e2732f618","609d773949840f009aa3caf0","306.29499998758547","","","","39","","","","key","16.636076923076942","952","481","true","1","150","30","0","-1","-1","","","","","","","","","","","","",""
"psychophysics","133","324816","0.0-12.0-0.4","5b49d3a519f8e70001b7df02","609a8bf73b2ac84e2732f618","609d773949840f009aa3caf0","196.97000000451226","","","","39","","","","key","16.637957746479465","952","481","true","1","129","30","0","-1","-1","","","","","","","","","","","","",""
"psychophysics","134","326208","0.0-12.0-0.5","5b49d3a519f8e70001b7df02","609a8bf73b2ac84e2732f618","609d773949840f009aa3caf0","374.8499999928754","","","","37","","","","key","16.637843373493876","952","481","true","-1","129","30","0","-1","-1","","","","","","","","","","","","",""
"psychophysics","135","327535","0.0-12.0-0.6","5b49d3a519f8e70001b7df02","609a8bf73b2ac84e2732f618","609d773949840f009aa3caf0","320.93000000168104","","","","37","","","","key","16.640696202531526","952","481","true","-1","129","30","0","-1","-1","","","","","","","","","","","","",""
"psychophysics","136","329155","0.0-12.0-0.7","5b49d3a519f8e70001b7df02","609a8bf73b2ac84e2732f618","609d773949840f009aa3caf0","610.9399999986636","","","","37","","","","key","16.638385416667006","952","481","true","-1","129","30","0","-1","-1","","","","","","","","","","","","",""
"psychophysics","137","330630","0.0-12.0-0.8","5b49d3a519f8e70001b7df02","609a8bf73b2ac84e2732f618","609d773949840f009aa3caf0","468.605000001844","","","","37","","","","key","16.64030681818192","952","481","true","-1","129","30","0","-1","-1","","","","","","","","","","","","",""
"psychophysics","138","331895","0.0-12.0-0.9","5b49d3a519f8e70001b7df02","609a8bf73b2ac84e2732f618","609d773949840f009aa3caf0","258.04500000958797","","","","37","","","","key","16.636346666666988","952","481","true","-1","129","30","0","-1","-1","","","","","","","","","","","","",""
"psychophysics","139","333375","0.0-12.0-0.10","5b49d3a519f8e70001b7df02","609a8bf73b2ac84e2732f618","609d773949840f009aa3caf0","470.2350000006845","","","","37","","","","key","16.641056818181823","952","481","true","1","129","24","1","1","-1","","","","","","","","","","","","",""
"psychophysics","140","334556","0.0-12.0-0.11","5b49d3a519f8e70001b7df02","609a8bf73b2ac84e2732f618","609d773949840f009aa3caf0","177.52500000642613","","","","39","","","","key","16.63931428571481","952","481","true","1","153","24","1","-1","1","","","","","","","","","","","","",""
"psychophysics","141","335669","0.0-12.0-0.12","5b49d3a519f8e70001b7df02","609a8bf73b2ac84e2732f618","609d773949840f009aa3caf0","100.38499999791384","","","","37","","","","key","16.63544615384621","952","481","true","-1","153","19.2","2","-1","-1","","","","","","","","","","","","",""
"psychophysics","142","336993","0.0-12.0-0.13","5b49d3a519f8e70001b7df02","609a8bf73b2ac84e2732f618","609d773949840f009aa3caf0","311.809999999241","","","","37","","","","key","16.630759493671093","952","481","true","-1","133.8","19.2","2","-1","-1","","","","","","","","","","","","",""
"psychophysics","143","338916","0.0-12.0-0.14","5b49d3a519f8e70001b7df02","609a8bf73b2ac84e2732f618","609d773949840f009aa3caf0","916.9950000068638","","","","39","","","","key","16.6375478260867","952","481","true","1","133.8","19.2","2","-1","-1","","","","","","","","","","","","",""
"psychophysics","144","340552","0.0-12.0-0.15","5b49d3a519f8e70001b7df02","609a8bf73b2ac84e2732f618","609d773949840f009aa3caf0","625.2800000074785","","","","39","","","","key","16.638092783505346","952","481","true","1","129","19.2","2","-1","-1","","","","","","","","","","","","",""
"psychophysics","145","341900","0.0-12.0-0.16","5b49d3a519f8e70001b7df02","609a8bf73b2ac84e2732f618","609d773949840f009aa3caf0","342.1050000033574","","","","39","","","","key","16.639474999999948","952","481","true","1","129","19.2","2","-1","-1","","","","","","","","","","","","",""
"psychophysics","146","343211","0.0-12.0-0.17","5b49d3a519f8e70001b7df02","609a8bf73b2ac84e2732f618","609d773949840f009aa3caf0","303.7299999996321","","","","39","","","","key","16.63520512820478","952","481","true","1","129","19.2","2","-1","-1","","","","","","","","","","","","",""
"psychophysics","147","345605","0.0-12.0-0.18","5b49d3a519f8e70001b7df02","609a8bf73b2ac84e2732f618","609d773949840f009aa3caf0","1384.2549999972107","","","","39","","","","key","16.63790909090882","952","481","true","1","129","19.2","2","-1","-1","","","","","","","","","","","","",""
"psychophysics","148","346928","0.0-12.0-0.19","5b49d3a519f8e70001b7df02","609a8bf73b2ac84e2732f618","609d773949840f009aa3caf0","313.97000000288244","","","","39","","","","key","16.63862820512851","952","481","true","1","129","19.2","2","-1","-1","","","","","","","","","","","","",""
"psychophysics","149","348400","0.0-12.0-0.20","5b49d3a519f8e70001b7df02","609a8bf73b2ac84e2732f618","609d773949840f009aa3caf0","462.7650000038557","","","","39","","","","key","16.638465909090883","952","481","true","1","129","19.2","2","-1","-1","","","","","","","","","","","","",""
"psychophysics","150","349794","0.0-12.0-0.21","5b49d3a519f8e70001b7df02","609a8bf73b2ac84e2732f618","609d773949840f009aa3caf0","383.82499999715947","","","","39","","","","key","16.636951219511968","952","481","true","1","129","19.2","2","-1","-1","","","","","","","","","","","","",""
"psychophysics","151","351104","0.0-12.0-0.22","5b49d3a519f8e70001b7df02","609a8bf73b2ac84e2732f618","609d773949840f009aa3caf0","300.54500000551343","","","","39","","","","key","16.637205128205004","952","481","true","-1","129","15.36","3","1","-1","","","","","","","","","","","","",""
"psychophysics","152","352253","0.0-12.0-0.23","5b49d3a519f8e70001b7df02","609a8bf73b2ac84e2732f618","609d773949840f009aa3caf0","143.30500000505708","","","","39","","","","key","16.636897058823653","952","481","true","1","144.36","15.36","3","-1","1","","","","","","","","","","","","",""
"psychophysics","153","353304","0.0-12.0-0.24","5b49d3a519f8e70001b7df02","609a8bf73b2ac84e2732f618","609d773949840f009aa3caf0","37.16999999596737","","","","37","","","","key","16.638274193547982","952","481","true","-1","144.36","12.287999999999998","4","-1","-1","","","","","","","","","","","","",""
"psychophysics","154","355196","0.0-12.0-0.25","5b49d3a519f8e70001b7df02","609a8bf73b2ac84e2732f618","609d773949840f009aa3caf0","878.8100000092527","","","","37","","","","key","16.642814159291834","952","481","true","1","132.072","9.8304","5","1","-1","","","","","","","","","","","","",""
"psychophysics","155","356411","0.0-12.0-0.26","5b49d3a519f8e70001b7df02","609a8bf73b2ac84e2732f618","609d773949840f009aa3caf0","210.78500000294298","","","","39","","","","key","16.635819444444174","952","481","true","1","141.9024","9.8304","5","-1","1","","","","","","","","","","","","",""
"psychophysics","156","357610","0.0-12.0-0.27","5b49d3a519f8e70001b7df02","609a8bf73b2ac84e2732f618","609d773949840f009aa3caf0","192.2199999971781","","","","39","","","","key","16.638084507042304","952","481","true","1","141.9024","7.864319999999999","6","-1","-1","","","","","","","","","","","","",""
"psychophysics","157","358749","0.0-12.0-0.28","5b49d3a519f8e70001b7df02","609a8bf73b2ac84e2732f618","609d773949840f009aa3caf0","135.2900000056252","","","","39","","","","key","16.64332352941154","952","481","true","1","134.03808","7.864319999999999","6","-1","-1","","","","","","","","","","","","",""
"psychophysics","158","360412","0.0-12.0-0.29","5b49d3a519f8e70001b7df02","609a8bf73b2ac84e2732f618","609d773949840f009aa3caf0","655.5099999968661","","","","37","","","","key","16.635080808081025","952","481","true","-1","134.03808","7.864319999999999","6","-1","-1","","","","","","","","","","","","",""
"psychophysics","159","361881","0.0-12.0-0.30","5b49d3a519f8e70001b7df02","609a8bf73b2ac84e2732f618","609d773949840f009aa3caf0","458.55500000470784","","","","37","","","","key","16.639712643677814","952","481","true","-1","129","7.864319999999999","6","-1","-1","","","","","","","","","","","","",""
"psychophysics","160","363507","0.0-12.0-0.31","5b49d3a519f8e70001b7df02","609a8bf73b2ac84e2732f618","609d773949840f009aa3caf0","620.3949999908218","","","","37","","","","key","16.637340206186018","952","481","true","-1","129","7.864319999999999","6","-1","-1","","","","","","","","","","","","",""
"psychophysics","161","364955","0.0-12.0-0.32","5b49d3a519f8e70001b7df02","609a8bf73b2ac84e2732f618","609d773949840f009aa3caf0","437.4600000010105","","","","37","","","","key","16.63889534883729","952","481","true","-1","129","7.864319999999999","6","-1","-1","","","","","","","","","","","","",""
"psychophysics","162","367451","0.0-12.0-0.33","5b49d3a519f8e70001b7df02","609a8bf73b2ac84e2732f618","609d773949840f009aa3caf0","1485.8300000050804","","","","37","","","","key","16.63745637583912","952","481","true","-1","129","7.864319999999999","6","-1","-1","","","","","","","","","","","","",""
"psychophysics","163","368784","0.0-12.0-0.34","5b49d3a519f8e70001b7df02","609a8bf73b2ac84e2732f618","609d773949840f009aa3caf0","323.7599999993108","","","","37","","","","key","16.637367088607768","952","481","true","-1","129","7.864319999999999","6","-1","-1","","","","","","","","","","","","",""
"psychophysics","164","370086","0.0-12.0-0.35","5b49d3a519f8e70001b7df02","609a8bf73b2ac84e2732f618","609d773949840f009aa3caf0","295.03500000282656","","","","37","","","","key","16.638289473684335","952","481","true","-1","129","7.864319999999999","6","-1","-1","","","","","","","","","","","","",""
"psychophysics","165","371440","0.0-12.0-0.36","5b49d3a519f8e70001b7df02","609a8bf73b2ac84e2732f618","609d773949840f009aa3caf0","349.9299999966752","","","","37","","","","key","16.638209876543296","952","481","true","1","129","6.291456","7","1","-1","","","","","","","","","","","","",""
"psychophysics","166","372661","0.0-12.0-0.37","5b49d3a519f8e70001b7df02","609a8bf73b2ac84e2732f618","609d773949840f009aa3caf0","214.85499999835156","","","","39","","","","key","16.637054794520612","952","481","true","1","135.291456","6.291456","7","-1","1","","","","","","","","","","","","",""
"psychophysics","167","374081","0.0-12.0-0.38","5b49d3a519f8e70001b7df02","609a8bf73b2ac84e2732f618","609d773949840f009aa3caf0","410.825000013574","","","","37","","","","key","16.637857142857335","952","481","true","-1","135.291456","5.033164800000001","8","-1","-1","","","","","","","","","","","","",""
"psychophysics","168","375476","0.0-12.0-0.39","5b49d3a519f8e70001b7df02","609a8bf73b2ac84e2732f618","609d773949840f009aa3caf0","377.7050000062445","","","","37","","","","key","16.637843373493876","952","481","true","1","130.2582912","4.0265318400000005","9","1","-1","","","","","","","","","","","","",""
"html-keyboard-response","169","377786","0.0-13.0","5b49d3a519f8e70001b7df02","609a8bf73b2ac84e2732f618","609d773949840f009aa3caf0","2307.170000000042","<p>Well Done !</p><p>Prepare for a new block.</p><p>DON'T EXIT THE FULL SCREEN MODE</p><p>Press the Spacebar to start.</p>","","","32","","","","","","","","","","","","","","","true","132.51961088","","","","","","","","","","",""
"html-keyboard-response","170","377906","0.0-14.0","5b49d3a519f8e70001b7df02","609a8bf73b2ac84e2732f618","609d773949840f009aa3caf0","null","","","","null","","","","","","","","","","","","","","","","","133.1978348037161","true","138.39566960743218","","","","","","","",""
"instructions","171","405155","0.0-15.0","5b49d3a519f8e70001b7df02","609a8bf73b2ac84e2732f618","609d773949840f009aa3caf0","27248.514999999315","","","","","","","[{""page_index"":0,""viewing_time"":22857.434999998077},{""page_index"":1,""viewing_time"":1964.6950000023935},{""page_index"":2,""viewing_time"":2426.0149999900023}]","","","","","","","","","","","","","","","","","","","","","","","",""
"psychophysics","172","408339","0.0-16.0-0.0","5b49d3a519f8e70001b7df02","609a8bf73b2ac84e2732f618","609d773949840f009aa3caf0","null","","","","null","","","","key","16.63917142857182","952","481","","","","","","","","","","","","","","","","","","","",""
"psychophysics","173","408846","0.0-16.0-1.0","5b49d3a519f8e70001b7df02","609a8bf73b2ac84e2732f618","609d773949840f009aa3caf0","null","","","","null","","","","key","16.638666666667753","952","481","","","","","","","","","","","","","138","1","5","false","","","",""
"psychophysics","174","410476","0.0-16.0-2.0","5b49d3a519f8e70001b7df02","609a8bf73b2ac84e2732f618","609d773949840f009aa3caf0","1625.0699999945937","","","","77","","","","key","16.638783505154635","952","481","","","","","","","","","","","","","","","","","","","",""
"psychophysics","175","411023","0.0-16.0-0.1","5b49d3a519f8e70001b7df02","609a8bf73b2ac84e2732f618","609d773949840f009aa3caf0","null","","","","null","","","","key","16.639124999999694","952","481","","","","","","","","","","","","","","","","","","","",""
"psychophysics","176","411530","0.0-16.0-1.1","5b49d3a519f8e70001b7df02","609a8bf73b2ac84e2732f618","609d773949840f009aa3caf0","null","","","","null","","","","key","16.63344827586191","952","481","","","","","","","","","","","","","138","1","4","false","","","",""
"psychophysics","177","411923","0.0-16.0-2.1","5b49d3a519f8e70001b7df02","609a8bf73b2ac84e2732f618","609d773949840f009aa3caf0","390.05500001076143","","","","77","","","","key","16.636304347826492","952","481","","","","","","","","","","","","","","","","","","","",""
"psychophysics","178","412600","0.0-16.0-0.2","5b49d3a519f8e70001b7df02","609a8bf73b2ac84e2732f618","609d773949840f009aa3caf0","null","","","","null","","","","key","16.638051282051794","952","481","","","","","","","","","","","","","","","","","","","",""
"psychophysics","179","413107","0.0-16.0-1.2","5b49d3a519f8e70001b7df02","609a8bf73b2ac84e2732f618","609d773949840f009aa3caf0","null","","","","null","","","","key","16.63879999999966","952","481","","","","","","","","","","","","","138","-1","2","false","","","",""
"psychophysics","180","413371","0.0-16.0-2.2","5b49d3a519f8e70001b7df02","609a8bf73b2ac84e2732f618","609d773949840f009aa3caf0","259.1649999958463","","","","90","","","","key","16.635799999996866","952","481","","","","","","","","","","","","","","","","","","","",""
"psychophysics","181","414162","0.0-16.0-0.3","5b49d3a519f8e70001b7df02","609a8bf73b2ac84e2732f618","609d773949840f009aa3caf0","null","","","","null","","","","key","16.63799999999996","952","481","","","","","","","","","","","","","","","","","","","",""
"psychophysics","182","414666","0.0-16.0-1.3","5b49d3a519f8e70001b7df02","609a8bf73b2ac84e2732f618","609d773949840f009aa3caf0","null","","","","null","","","","key","16.633966666667643","952","481","","","","","","","","","","","","","138","1","6","false","","","",""
"psychophysics","183","414954","0.0-16.0-2.3","5b49d3a519f8e70001b7df02","609a8bf73b2ac84e2732f618","609d773949840f009aa3caf0","284.14000000339","","","","77","","","","key","16.636312499998894","952","481","","","","","","","","","","","","","","","","","","","",""
"psychophysics","184","416134","0.0-16.0-0.4","5b49d3a519f8e70001b7df02","609a8bf73b2ac84e2732f618","609d773949840f009aa3caf0","null","","","","null","","","","key","16.637371428571974","952","481","","","","","","","","","","","","","","","","","","","",""
"psychophysics","185","416636","0.0-16.0-1.4","5b49d3a519f8e70001b7df02","609a8bf73b2ac84e2732f618","609d773949840f009aa3caf0","null","","","","null","","","","key","16.641310344827524","952","481","","","","","","","","","","","","","138","-1","0","false","","","",""
"psychophysics","186","416827","0.0-16.0-2.4","5b49d3a519f8e70001b7df02","609a8bf73b2ac84e2732f618","609d773949840f009aa3caf0","185.93500000133645","","","","90","","","","key","16.631400000001303","952","481","","","","","","","","","","","","","","","","","","","",""
"psychophysics","187","418264","0.0-16.0-0.5","5b49d3a519f8e70001b7df02","609a8bf73b2ac84e2732f618","609d773949840f009aa3caf0","null","","","","null","","","","key","16.635139534883418","952","481","","","","","","","","","","","","","","","","","","","",""
"psychophysics","188","418767","0.0-16.0-1.5","5b49d3a519f8e70001b7df02","609a8bf73b2ac84e2732f618","609d773949840f009aa3caf0","null","","","","null","","","","key","16.63872413793057","952","481","","","","","","","","","","","","","138","-1","4","false","","","",""
"psychophysics","189","420099","0.0-16.0-2.5","5b49d3a519f8e70001b7df02","609a8bf73b2ac84e2732f618","609d773949840f009aa3caf0","1329.3200000043726","","","","77","","","","key","16.631544303797373","952","481","","","","","","","","","","","","","","","","","","","",""
"psychophysics","190","421572","0.0-16.0-0.6","5b49d3a519f8e70001b7df02","609a8bf73b2ac84e2732f618","609d773949840f009aa3caf0","null","","","","null","","","","key","16.63606818181804","952","481","","","","","","","","","","","","","","","","","","","",""
"psychophysics","191","422077","0.0-16.0-1.6","5b49d3a519f8e70001b7df02","609a8bf73b2ac84e2732f618","609d773949840f009aa3caf0","null","","","","null","","","","key","16.633655172413423","952","481","","","","","","","","","","","","","138","-1","6","false","","","",""
"psychophysics","192","422518","0.0-16.0-2.6","5b49d3a519f8e70001b7df02","609a8bf73b2ac84e2732f618","609d773949840f009aa3caf0","437.9800000024261","","","","77","","","","key","16.635159999998287","952","481","","","","","","","","","","","","","","","","","","","",""
"psychophysics","193","423959","0.0-16.0-0.7","5b49d3a519f8e70001b7df02","609a8bf73b2ac84e2732f618","609d773949840f009aa3caf0","null","","","","null","","","","key","16.637779069767973","952","481","","","","","","","","","","","","","","","","","","","",""
"psychophysics","194","424463","0.0-16.0-1.7","5b49d3a519f8e70001b7df02","609a8bf73b2ac84e2732f618","609d773949840f009aa3caf0","null","","","","null","","","","key","16.639482758620126","952","481","","","","","","","","","","","","","138","1","2","false","","","",""
"psychophysics","195","424973","0.0-16.0-2.7","5b49d3a519f8e70001b7df02","609a8bf73b2ac84e2732f618","609d773949840f009aa3caf0","504.01000000420026","","","","90","","","","key","16.642600000001647","952","481","","","","","","","","","","","","","","","","","","","",""
"psychophysics","196","426290","0.0-16.0-0.8","5b49d3a519f8e70001b7df02","609a8bf73b2ac84e2732f618","609d773949840f009aa3caf0","null","","","","null","","","","key","16.637730769230984","952","481","","","","","","","","","","","","","","","","","","","",""
"psychophysics","197","426793","0.0-16.0-1.8","5b49d3a519f8e70001b7df02","609a8bf73b2ac84e2732f618","609d773949840f009aa3caf0","null","","","","null","","","","key","16.637344827586464","952","481","","","","","","","","","","","","","138","1","0","false","","","",""
"psychophysics","198","427848","0.0-16.0-2.8","5b49d3a519f8e70001b7df02","609a8bf73b2ac84e2732f618","609d773949840f009aa3caf0","1036.2749999912921","","","","90","","","","key","16.639079365079173","952","481","","","","","","","","","","","","","","","","","","","",""
"psychophysics","199","429184","0.0-16.0-0.9","5b49d3a519f8e70001b7df02","609a8bf73b2ac84e2732f618","609d773949840f009aa3caf0","null","","","","null","","","","key","16.637759493671275","952","481","","","","","","","","","","","","","","","","","","","",""
"psychophysics","200","429688","0.0-16.0-1.9","5b49d3a519f8e70001b7df02","609a8bf73b2ac84e2732f618","609d773949840f009aa3caf0","null","","","","null","","","","key","16.634900000000684","952","481","","","","","","","","","","","","","138","-1","3","false","","","",""
"psychophysics","201","430048","0.0-16.0-2.9","5b49d3a519f8e70001b7df02","609a8bf73b2ac84e2732f618","609d773949840f009aa3caf0","357.1899999951711","","","","90","","","","key","16.64375","952","481","","","","","","","","","","","","","","","","","","","",""
"psychophysics","202","430647","0.0-16.0-0.10","5b49d3a519f8e70001b7df02","609a8bf73b2ac84e2732f618","609d773949840f009aa3caf0","null","","","","null","","","","key","16.635657142856093","952","481","","","","","","","","","","","","","","","","","","","",""
"psychophysics","203","431150","0.0-16.0-1.10","5b49d3a519f8e70001b7df02","609a8bf73b2ac84e2732f618","609d773949840f009aa3caf0","null","","","","null","","","","key","16.634999999999277","952","481","","","","","","","","","","","","","138","1","3","false","","","",""
"psychophysics","204","431333","0.0-16.0-2.10","5b49d3a519f8e70001b7df02","609a8bf73b2ac84e2732f618","609d773949840f009aa3caf0","174.8399999924004","","","","77","","","","key","16.635300000000278","952","481","","","","","","","","","","","","","","","","","","","",""
"psychophysics","205","432542","0.0-16.0-0.11","5b49d3a519f8e70001b7df02","609a8bf73b2ac84e2732f618","609d773949840f009aa3caf0","null","","","","null","","","","key","16.637444444444554","952","481","","","","","","","","","","","","","","","","","","","",""
"psychophysics","206","433045","0.0-16.0-1.11","5b49d3a519f8e70001b7df02","609a8bf73b2ac84e2732f618","609d773949840f009aa3caf0","null","","","","null","","","","key","16.63958620689689","952","481","","","","","","","","","","","","","138","-1","5","false","","","",""
"psychophysics","207","433309","0.0-16.0-2.11","5b49d3a519f8e70001b7df02","609a8bf73b2ac84e2732f618","609d773949840f009aa3caf0","255.6449999974575","","","","77","","","","key","16.638466666666016","952","481","","","","","","","","","","","","","","","","","","","",""
"psychophysics","208","434166","0.0-16.0-0.12","5b49d3a519f8e70001b7df02","609a8bf73b2ac84e2732f618","609d773949840f009aa3caf0","null","","","","null","","","","key","16.63925490196105","952","481","","","","","","","","","","","","","","","","","","","",""
"psychophysics","209","434670","0.0-16.0-1.12","5b49d3a519f8e70001b7df02","609a8bf73b2ac84e2732f618","609d773949840f009aa3caf0","null","","","","null","","","","key","16.63768965517299","952","481","","","","","","","","","","","","","138","-1","0","false","","","",""
"psychophysics","210","434970","0.0-16.0-2.12","5b49d3a519f8e70001b7df02","609a8bf73b2ac84e2732f618","609d773949840f009aa3caf0","296.0049999965122","","","","77","","","","key","16.631529411763253","952","481","","","","","","","","","","","","","","","","","","","",""
"psychophysics","211","435866","0.0-16.0-0.13","5b49d3a519f8e70001b7df02","609a8bf73b2ac84e2732f618","609d773949840f009aa3caf0","null","","","","null","","","","key","16.63979245282991","952","481","","","","","","","","","","","","","","","","","","","",""
"psychophysics","212","436368","0.0-16.0-1.13","5b49d3a519f8e70001b7df02","609a8bf73b2ac84e2732f618","609d773949840f009aa3caf0","null","","","","null","","","","key","16.637896551724506","952","481","","","","","","","","","","","","","138","-1","6","false","","","",""
"psychophysics","213","436523","0.0-16.0-2.13","5b49d3a519f8e70001b7df02","609a8bf73b2ac84e2732f618","609d773949840f009aa3caf0","151.45000000484288","","","","77","","","","key","16.608749999999418","952","481","","","","","","","","","","","","","","","","","","","",""
"psychophysics","214","437478","0.0-16.0-0.14","5b49d3a519f8e70001b7df02","609a8bf73b2ac84e2732f618","609d773949840f009aa3caf0","null","","","","null","","","","key","16.644807017544128","952","481","","","","","","","","","","","","","","","","","","","",""
"psychophysics","215","437983","0.0-16.0-1.14","5b49d3a519f8e70001b7df02","609a8bf73b2ac84e2732f618","609d773949840f009aa3caf0","null","","","","null","","","","key","16.64624137931166","952","481","","","","","","","","","","","","","138","1","4","false","","","",""
"psychophysics","216","438270","0.0-16.0-2.14","5b49d3a519f8e70001b7df02","609a8bf73b2ac84e2732f618","609d773949840f009aa3caf0","284.46500000427477","","","","77","","","","key","16.618749999997817","952","481","","","","","","","","","","","","","","","","","","","",""
"psychophysics","217","439721","0.0-16.0-0.15","5b49d3a519f8e70001b7df02","609a8bf73b2ac84e2732f618","609d773949840f009aa3caf0","null","","","","null","","","","key","16.63724418604668","952","481","","","","","","","","","","","","","","","","","","","",""
"psychophysics","218","440222","0.0-16.0-1.15","5b49d3a519f8e70001b7df02","609a8bf73b2ac84e2732f618","609d773949840f009aa3caf0","null","","","","null","","","","key","16.647833333335196","952","481","","","","","","","","","","","","","138","1","6","false","","","",""
"psychophysics","219","440523","0.0-16.0-2.15","5b49d3a519f8e70001b7df02","609a8bf73b2ac84e2732f618","609d773949840f009aa3caf0","297.5399999995716","","","","77","","","","key","16.62352941176676","952","481","","","","","","","","","","","","","","","","","","","",""
"psychophysics","220","441264","0.0-16.0-0.16","5b49d3a519f8e70001b7df02","609a8bf73b2ac84e2732f618","609d773949840f009aa3caf0","null","","","","null","","","","key","16.650116279070147","952","481","","","","","","","","","","","","","","","","","","","",""
"psychophysics","221","441767","0.0-16.0-1.16","5b49d3a519f8e70001b7df02","609a8bf73b2ac84e2732f618","609d773949840f009aa3caf0","null","","","","null","","","","key","16.653655172413984","952","481","","","","","","","","","","","","","138","-1","2","false","","","",""
"psychophysics","222","442005","0.0-16.0-2.16","5b49d3a519f8e70001b7df02","609a8bf73b2ac84e2732f618","609d773949840f009aa3caf0","225.31499998876825","","","","90","","","","key","16.630785714286112","952","481","","","","","","","","","","","","","","","","","","","",""
"psychophysics","223","443359","0.0-16.0-0.17","5b49d3a519f8e70001b7df02","609a8bf73b2ac84e2732f618","609d773949840f009aa3caf0","null","","","","null","","","","key","16.640124999999536","952","481","","","","","","","","","","","","","","","","","","","",""
"psychophysics","224","443862","0.0-16.0-1.17","5b49d3a519f8e70001b7df02","609a8bf73b2ac84e2732f618","609d773949840f009aa3caf0","null","","","","null","","","","key","16.633275862068643","952","481","","","","","","","","","","","","","138","1","5","false","","","",""
"psychophysics","225","444028","0.0-16.0-2.17","5b49d3a519f8e70001b7df02","609a8bf73b2ac84e2732f618","609d773949840f009aa3caf0","161.7499999993015","","","","77","","","","key","16.646888888887286","952","481","","","","","","","","","","","","","","","","","","","",""
"psychophysics","226","444903","0.0-16.0-0.18","5b49d3a519f8e70001b7df02","609a8bf73b2ac84e2732f618","609d773949840f009aa3caf0","null","","","","null","","","","key","16.64778846153842","952","481","","","","","","","","","","","","","","","","","","","",""
"psychophysics","227","445406","0.0-16.0-1.18","5b49d3a519f8e70001b7df02","609a8bf73b2ac84e2732f618","609d773949840f009aa3caf0","null","","","","null","","","","key","16.640482758619452","952","481","","","","","","","","","","","","","138","1","2","false","","","",""
"psychophysics","228","445505","0.0-16.0-2.18","5b49d3a519f8e70001b7df02","609a8bf73b2ac84e2732f618","609d773949840f009aa3caf0","96.13499999977648","","","","77","","","","key","16.61139999999432","952","481","","","","","","","","","","","","","","","","","","","",""
"psychophysics","229","446796","0.0-16.0-0.19","5b49d3a519f8e70001b7df02","609a8bf73b2ac84e2732f618","609d773949840f009aa3caf0","null","","","","null","","","","key","16.64348051947989","952","481","","","","","","","","","","","","","","","","","","","",""
"psychophysics","230","447301","0.0-16.0-1.19","5b49d3a519f8e70001b7df02","609a8bf73b2ac84e2732f618","609d773949840f009aa3caf0","null","","","","null","","","","key","16.63710344827469","952","481","","","","","","","","","","","","","138","-1","3","false","","","",""
"psychophysics","231","447803","0.0-16.0-2.19","5b49d3a519f8e70001b7df02","609a8bf73b2ac84e2732f618","609d773949840f009aa3caf0","498.10500000603497","","","","77","","","","key","16.65620689655068","952","481","","","","","","","","","","","","","","","","","","","",""
"psychophysics","232","448779","0.0-16.0-0.20","5b49d3a519f8e70001b7df02","609a8bf73b2ac84e2732f618","609d773949840f009aa3caf0","null","","","","null","","","","key","16.636344827586136","952","481","","","","","","","","","","","","","","","","","","","",""
"psychophysics","233","449282","0.0-16.0-1.20","5b49d3a519f8e70001b7df02","609a8bf73b2ac84e2732f618","609d773949840f009aa3caf0","null","","","","null","","","","key","16.637931034482758","952","481","","","","","","","","","","","","","138","-1","5","false","","","",""
"psychophysics","234","449541","0.0-16.0-2.20","5b49d3a519f8e70001b7df02","609a8bf73b2ac84e2732f618","609d773949840f009aa3caf0","256.4099999872269","","","","77","","","","key","16.634533333332122","952","481","","","","","","","","","","","","","","","","","","","",""
"psychophysics","235","450820","0.0-16.0-0.21","5b49d3a519f8e70001b7df02","609a8bf73b2ac84e2732f618","609d773949840f009aa3caf0","null","","","","null","","","","key","16.639381578947283","952","481","","","","","","","","","","","","","","","","","","","",""
"psychophysics","236","451324","0.0-16.0-1.21","5b49d3a519f8e70001b7df02","609a8bf73b2ac84e2732f618","609d773949840f009aa3caf0","null","","","","null","","","","key","16.637379310344716","952","481","","","","","","","","","","","","","138","1","3","false","","","",""
"psychophysics","237","451494","0.0-16.0-2.21","5b49d3a519f8e70001b7df02","609a8bf73b2ac84e2732f618","609d773949840f009aa3caf0","167.05000000365544","","","","77","","","","key","16.625999999995756","952","481","","","","","","","","","","","","","","","","","","","",""
"psychophysics","238","452351","0.0-16.0-0.22","5b49d3a519f8e70001b7df02","609a8bf73b2ac84e2732f618","609d773949840f009aa3caf0","null","","","","null","","","","key","16.634098039215257","952","481","","","","","","","","","","","","","","","","","","","",""
"psychophysics","239","452854","0.0-16.0-1.22","5b49d3a519f8e70001b7df02","609a8bf73b2ac84e2732f618","609d773949840f009aa3caf0","null","","","","null","","","","key","16.638620689655816","952","481","","","","","","","","","","","","","138","-1","4","false","","","",""
"psychophysics","240","453187","0.0-16.0-2.22","5b49d3a519f8e70001b7df02","609a8bf73b2ac84e2732f618","609d773949840f009aa3caf0","328.69000000937376","","","","77","","","","key","16.611631578949623","952","481","","","","","","","","","","","","","","","","","","","",""
"psychophysics","241","453707","0.0-16.0-0.23","5b49d3a519f8e70001b7df02","609a8bf73b2ac84e2732f618","609d773949840f009aa3caf0","null","","","","null","","","","key","16.6391333333333","952","481","","","","","","","","","","","","","","","","","","","",""
"psychophysics","242","454209","0.0-16.0-1.23","5b49d3a519f8e70001b7df02","609a8bf73b2ac84e2732f618","609d773949840f009aa3caf0","null","","","","null","","","","key","16.640275862069945","952","481","","","","","","","","","","","","","138","1","0","false","","","",""
"psychophysics","243","454707","0.0-16.0-2.23","5b49d3a519f8e70001b7df02","609a8bf73b2ac84e2732f618","609d773949840f009aa3caf0","494.76500001037493","","","","90","","","","key","16.63606896551711","952","481","","","","","","","","","","","","","","","","","","","",""
"html-keyboard-response","244","457030","0.0-17.0","5b49d3a519f8e70001b7df02","609a8bf73b2ac84e2732f618","609d773949840f009aa3caf0","2321.9649999955436","<p>Well Done !</p><p>Training Complete. Press the spacebar to start.</p><p>DON'T EXIT THE FULL SCREEN MODE</p>","","","32","","","","","","","","","","","","","","","","","","","","","","","","","","",""
"psychophysics","245","459559","0.0-18.0-0.0","5b49d3a519f8e70001b7df02","609a8bf73b2ac84e2732f618","609d773949840f009aa3caf0","null","","","","null","","","","key","16.623099999999006","952","481","","","","","","","","","","","","","","","","","","","",""
"psychophysics","246","460065","0.0-18.0-1.0","5b49d3a519f8e70001b7df02","609a8bf73b2ac84e2732f618","609d773949840f009aa3caf0","null","","","","null","","","","key","16.64127586206927","952","481","","","","","","","","","","","","","138","-1","5","true","","","",""
"psychophysics","247","460425","0.0-18.0-2.0","5b49d3a519f8e70001b7df02","609a8bf73b2ac84e2732f618","609d773949840f009aa3caf0","356.4500000065891","","","","77","","","","key","16.632142857143965","952","481","","","","","","","","","","","","","","","","","","","",""
"psychophysics","248","461597","0.0-18.0-0.1","5b49d3a519f8e70001b7df02","609a8bf73b2ac84e2732f618","609d773949840f009aa3caf0","null","","","","null","","","","key","16.64395652173941","952","481","","","","","","","","","","","","","","","","","","","",""
"psychophysics","249","462099","0.0-18.0-1.1","5b49d3a519f8e70001b7df02","609a8bf73b2ac84e2732f618","609d773949840f009aa3caf0","null","","","","null","","","","key","16.63859999999986","952","481","","","","","","","","","","","","","138","-1","4","true","","","",""
"psychophysics","250","462433","0.0-18.0-2.1","5b49d3a519f8e70001b7df02","609a8bf73b2ac84e2732f618","609d773949840f009aa3caf0","328.55999999446794","","","","77","","","","key","16.6356842105283","952","481","","","","","","","","","","","","","","","","","","","",""
"psychophysics","251","463242","0.0-18.0-0.2","5b49d3a519f8e70001b7df02","609a8bf73b2ac84e2732f618","609d773949840f009aa3caf0","null","","","","null","","","","key","16.64880851063843","952","481","","","","","","","","","","","","","","","","","","","",""
"psychophysics","252","463746","0.0-18.0-1.2","5b49d3a519f8e70001b7df02","609a8bf73b2ac84e2732f618","609d773949840f009aa3caf0","null","","","","null","","","","key","16.638137931034272","952","481","","","","","","","","","","","","","138","-1","6","true","","","",""
"psychophysics","253","463915","0.0-18.0-2.2","5b49d3a519f8e70001b7df02","609a8bf73b2ac84e2732f618","609d773949840f009aa3caf0","165.4650000127731","","","","77","","","","key","16.627700000000186","952","481","","","","","","","","","","","","","","","","","","","",""
"psychophysics","254","464838","0.0-18.0-0.3","5b49d3a519f8e70001b7df02","609a8bf73b2ac84e2732f618","609d773949840f009aa3caf0","null","","","","null","","","","key","16.63316666666651","952","481","","","","","","","","","","","","","","","","","","","",""
"psychophysics","255","465341","0.0-18.0-1.3","5b49d3a519f8e70001b7df02","609a8bf73b2ac84e2732f618","609d773949840f009aa3caf0","null","","","","null","","","","key","16.63151724137976","952","481","","","","","","","","","","","","","138","1","0","true","","","",""
"psychophysics","256","465601","0.0-18.0-2.3","5b49d3a519f8e70001b7df02","609a8bf73b2ac84e2732f618","609d773949840f009aa3caf0","256.04000000748783","","","","77","","","","key","16.659533333336004","952","481","","","","","","","","","","","","","","","","","","","",""
"psychophysics","257","466794","0.0-18.0-0.4","5b49d3a519f8e70001b7df02","609a8bf73b2ac84e2732f618","609d773949840f009aa3caf0","null","","","","null","","","","key","16.633647887323963","952","481","","","","","","","","","","","","","","","","","","","",""
"psychophysics","258","467299","0.0-18.0-1.4","5b49d3a519f8e70001b7df02","609a8bf73b2ac84e2732f618","609d773949840f009aa3caf0","null","","","","null","","","","key","16.634172413793216","952","481","","","","","","","","","","","","","138","1","3","true","","","",""
"psychophysics","259","467631","0.0-18.0-2.4","5b49d3a519f8e70001b7df02","609a8bf73b2ac84e2732f618","609d773949840f009aa3caf0","329.59500000288244","","","","90","","","","key","16.640315789472016","952","481","","","","","","","","","","","","","","","","","","","",""
"psychophysics","260","468835","0.0-18.0-0.5","5b49d3a519f8e70001b7df02","609a8bf73b2ac84e2732f618","609d773949840f009aa3caf0","null","","","","null","","","","key","16.639126760562927","952","481","","","","","","","","","","","","","","","","","","","",""
"psychophysics","261","469338","0.0-18.0-1.5","5b49d3a519f8e70001b7df02","609a8bf73b2ac84e2732f618","609d773949840f009aa3caf0","null","","","","null","","","","key","16.647200000000886","952","481","","","","","","","","","","","","","138","1","4","true","","","",""
"psychophysics","262","469556","0.0-18.0-2.5","5b49d3a519f8e70001b7df02","609a8bf73b2ac84e2732f618","609d773949840f009aa3caf0","213.68499999516644","","","","77","","","","key","16.6484166666681","952","481","","","","","","","","","","","","","","","","","","","",""
"psychophysics","263","470430","0.0-18.0-0.6","5b49d3a519f8e70001b7df02","609a8bf73b2ac84e2732f618","609d773949840f009aa3caf0","null","","","","null","","","","key","16.63750980392112","952","481","","","","","","","","","","","","","","","","","","","",""
"psychophysics","264","470932","0.0-18.0-1.6","5b49d3a519f8e70001b7df02","609a8bf73b2ac84e2732f618","609d773949840f009aa3caf0","null","","","","null","","","","key","16.634724137931258","952","481","","","","","","","","","","","","","138","-1","3","true","","","",""
"psychophysics","265","471207","0.0-18.0-2.6","5b49d3a519f8e70001b7df02","609a8bf73b2ac84e2732f618","609d773949840f009aa3caf0","270.3800000017509","","","","77","","","","key","16.637562500000058","952","481","","","","","","","","","","","","","","","","","","","",""
"psychophysics","266","472215","0.0-18.0-0.7","5b49d3a519f8e70001b7df02","609a8bf73b2ac84e2732f618","609d773949840f009aa3caf0","null","","","","null","","","","key","16.63361016949106","952","481","","","","","","","","","","","","","","","","","","","",""
"psychophysics","267","472718","0.0-18.0-1.7","5b49d3a519f8e70001b7df02","609a8bf73b2ac84e2732f618","609d773949840f009aa3caf0","null","","","","null","","","","key","16.640700000000653","952","481","","","","","","","","","","","","","138","1","2","true","","","",""
"psychophysics","268","473068","0.0-18.0-2.7","5b49d3a519f8e70001b7df02","609a8bf73b2ac84e2732f618","609d773949840f009aa3caf0","346.5500000020256","","","","90","","","","key","16.630299999998535","952","481","","","","","","","","","","","","","","","","","","","",""
"psychophysics","269","474130","0.0-18.0-0.8","5b49d3a519f8e70001b7df02","609a8bf73b2ac84e2732f618","609d773949840f009aa3caf0","null","","","","null","","","","key","16.633730158729975","952","481","","","","","","","","","","","","","","","","","","","",""
"psychophysics","270","474632","0.0-18.0-1.8","5b49d3a519f8e70001b7df02","609a8bf73b2ac84e2732f618","609d773949840f009aa3caf0","null","","","","null","","","","key","16.63596551724035","952","481","","","","","","","","","","","","","138","-1","2","true","","","",""
"psychophysics","271","474869","0.0-18.0-2.8","5b49d3a519f8e70001b7df02","609a8bf73b2ac84e2732f618","609d773949840f009aa3caf0","234.77000001003034","","","","77","","","","key","16.642615384614775","952","481","","","","","","","","","","","","","","","","","","","",""
"psychophysics","272","475744","0.0-18.0-0.9","5b49d3a519f8e70001b7df02","609a8bf73b2ac84e2732f618","609d773949840f009aa3caf0","null","","","","null","","","","key","16.637865384615278","952","481","","","","","","","","","","","","","","","","","","","",""
"psychophysics","273","476249","0.0-18.0-1.9","5b49d3a519f8e70001b7df02","609a8bf73b2ac84e2732f618","609d773949840f009aa3caf0","null","","","","null","","","","key","16.64448275862077","952","481","","","","","","","","","","","","","138","1","5","true","","","",""
"psychophysics","274","476362","0.0-18.0-2.9","5b49d3a519f8e70001b7df02","609a8bf73b2ac84e2732f618","609d773949840f009aa3caf0","110.02500000176951","","","","77","","","","key","16.641499999997905","952","481","","","","","","","","","","","","","","","","","","","",""
"psychophysics","275","477448","0.0-18.0-0.10","5b49d3a519f8e70001b7df02","609a8bf73b2ac84e2732f618","609d773949840f009aa3caf0","null","","","","null","","","","key","16.642609374999665","952","481","","","","","","","","","","","","","","","","","","","",""
"psychophysics","276","477950","0.0-18.0-1.10","5b49d3a519f8e70001b7df02","609a8bf73b2ac84e2732f618","609d773949840f009aa3caf0","null","","","","null","","","","key","16.639172413793858","952","481","","","","","","","","","","","","","138","-1","0","true","","","",""
"psychophysics","277","478100","0.0-18.0-2.10","5b49d3a519f8e70001b7df02","609a8bf73b2ac84e2732f618","609d773949840f009aa3caf0","146.50499999697786","","","","77","","","","key","16.636875000003783","952","481","","","","","","","","","","","","","","","","","","","",""
"psychophysics","278","479249","0.0-18.0-0.11","5b49d3a519f8e70001b7df02","609a8bf73b2ac84e2732f618","609d773949840f009aa3caf0","null","","","","null","","","","key","16.639985294117224","952","481","","","","","","","","","","","","","","","","","","","",""
"psychophysics","279","479752","0.0-18.0-1.11","5b49d3a519f8e70001b7df02","609a8bf73b2ac84e2732f618","609d773949840f009aa3caf0","null","","","","null","","","","key","16.640172413793184","952","481","","","","","","","","","","","","","138","1","6","true","","","",""
"psychophysics","280","482398","0.0-18.0-2.11","5b49d3a519f8e70001b7df02","609a8bf73b2ac84e2732f618","609d773949840f009aa3caf0","2635.5299999995623","","","","77","","","","key","16.637531645569503","952","481","","","","","","","","","","","","","","","","","","","",""
"psychophysics","281","483174","0.0-18.0-0.12","5b49d3a519f8e70001b7df02","609a8bf73b2ac84e2732f618","609d773949840f009aa3caf0","null","","","","null","","","","key","16.631891304347413","952","481","","","","","","","","","","","","","","","","","","","",""
"psychophysics","282","483678","0.0-18.0-1.12","5b49d3a519f8e70001b7df02","609a8bf73b2ac84e2732f618","609d773949840f009aa3caf0","null","","","","null","","","","key","16.637758620689496","952","481","","","","","","","","","","","","","138","-1","2","true","","","",""
"psychophysics","283","483939","0.0-18.0-2.12","5b49d3a519f8e70001b7df02","609a8bf73b2ac84e2732f618","609d773949840f009aa3caf0","246.02500000037253","","","","90","","","","key","16.63906666666735","952","481","","","","","","","","","","","","","","","","","","","",""
"psychophysics","284","485289","0.0-18.0-0.13","5b49d3a519f8e70001b7df02","609a8bf73b2ac84e2732f618","609d773949840f009aa3caf0","null","","","","null","","","","key","16.639099999999598","952","481","","","","","","","","","","","","","","","","","","","",""
"psychophysics","285","485793","0.0-18.0-1.13","5b49d3a519f8e70001b7df02","609a8bf73b2ac84e2732f618","609d773949840f009aa3caf0","null","","","","null","","","","key","16.63676666666676","952","481","","","","","","","","","","","","","138","1","4","true","","","",""
"psychophysics","286","486002","0.0-18.0-2.13","5b49d3a519f8e70001b7df02","609a8bf73b2ac84e2732f618","609d773949840f009aa3caf0","203.72999999381136","","","","77","","","","key","16.645363636367787","952","481","","","","","","","","","","","","","","","","","","","",""
"psychophysics","287","487214","0.0-18.0-0.14","5b49d3a519f8e70001b7df02","609a8bf73b2ac84e2732f618","609d773949840f009aa3caf0","null","","","","null","","","","key","16.638944444444657","952","481","","","","","","","","","","","","","","","","","","","",""
"psychophysics","288","487719","0.0-18.0-1.14","5b49d3a519f8e70001b7df02","609a8bf73b2ac84e2732f618","609d773949840f009aa3caf0","null","","","","null","","","","key","16.63762068965649","952","481","","","","","","","","","","","","","138","-1","4","true","","","",""
"psychophysics","289","487795","0.0-18.0-2.14","5b49d3a519f8e70001b7df02","609a8bf73b2ac84e2732f618","609d773949840f009aa3caf0","63.74500000674743","","","","77","","","","key","16.647750000003725","952","481","","","","","","","","","","","","","","","","","","","",""
"psychophysics","290","488712","0.0-18.0-0.15","5b49d3a519f8e70001b7df02","609a8bf73b2ac84e2732f618","609d773949840f009aa3caf0","null","","","","null","","","","key","16.638296296296176","952","481","","","","","","","","","","","","","","","","","","","",""
"psychophysics","291","489216","0.0-18.0-1.15","5b49d3a519f8e70001b7df02","609a8bf73b2ac84e2732f618","609d773949840f009aa3caf0","null","","","","null","","","","key","16.638758620690826","952","481","","","","","","","","","","","","","138","-1","6","true","","","",""
"psychophysics","292","489313","0.0-18.0-2.15","5b49d3a519f8e70001b7df02","609a8bf73b2ac84e2732f618","609d773949840f009aa3caf0","88.96999999706168","","","","77","","","","key","16.64679999999935","952","481","","","","","","","","","","","","","","","","","","","",""
"psychophysics","293","490569","0.0-18.0-0.16","5b49d3a519f8e70001b7df02","609a8bf73b2ac84e2732f618","609d773949840f009aa3caf0","null","","","","null","","","","key","16.638146666667115","952","481","","","","","","","","","","","","","","","","","","","",""
"psychophysics","294","491073","0.0-18.0-1.16","5b49d3a519f8e70001b7df02","609a8bf73b2ac84e2732f618","609d773949840f009aa3caf0","null","","","","null","","","","key","16.637413793102965","952","481","","","","","","","","","","","","","138","1","2","true","","","",""
"psychophysics","295","491310","0.0-18.0-2.16","5b49d3a519f8e70001b7df02","609a8bf73b2ac84e2732f618","609d773949840f009aa3caf0","233.47999999532476","","","","90","","","","key","16.638538461536744","952","481","","","","","","","","","","","","","","","","","","","",""
"psychophysics","296","492567","0.0-18.0-0.17","5b49d3a519f8e70001b7df02","609a8bf73b2ac84e2732f618","609d773949840f009aa3caf0","null","","","","null","","","","key","16.637426666666286","952","481","","","","","","","","","","","","","","","","","","","",""
"psychophysics","297","493071","0.0-18.0-1.17","5b49d3a519f8e70001b7df02","609a8bf73b2ac84e2732f618","609d773949840f009aa3caf0","null","","","","null","","","","key","16.63610344827737","952","481","","","","","","","","","","","","","138","-1","0","true","","","",""
"psychophysics","298","493384","0.0-18.0-2.17","5b49d3a519f8e70001b7df02","609a8bf73b2ac84e2732f618","609d773949840f009aa3caf0","309.914999990724","","","","90","","","","key","16.638388888887775","952","481","","","","","","","","","","","","","","","","","","","",""
"psychophysics","299","494372","0.0-18.0-0.18","5b49d3a519f8e70001b7df02","609a8bf73b2ac84e2732f618","609d773949840f009aa3caf0","null","","","","null","","","","key","16.63806896551777","952","481","","","","","","","","","","","","","","","","","","","",""
"psychophysics","300","494876","0.0-18.0-1.18","5b49d3a519f8e70001b7df02","609a8bf73b2ac84e2732f618","609d773949840f009aa3caf0","null","","","","null","","","","key","16.64082758620598","952","481","","","","","","","","","","","","","138","-1","3","true","","","",""
"psychophysics","301","495164","0.0-18.0-2.18","5b49d3a519f8e70001b7df02","609a8bf73b2ac84e2732f618","609d773949840f009aa3caf0","281.7349999968428","","","","90","","","","key","16.63682352941182","952","481","","","","","","","","","","","","","","","","","","","",""
"psychophysics","302","496446","0.0-18.0-0.19","5b49d3a519f8e70001b7df02","609a8bf73b2ac84e2732f618","609d773949840f009aa3caf0","null","","","","null","","","","key","16.637486842105556","952","481","","","","","","","","","","","","","","","","","","","",""
"psychophysics","303","496958","0.0-18.0-1.19","5b49d3a519f8e70001b7df02","609a8bf73b2ac84e2732f618","609d773949840f009aa3caf0","null","","","","null","","","","key","16.63765517241273","952","481","","","","","","","","","","","","","138","-1","5","true","","","",""
"psychophysics","304","497250","0.0-18.0-2.19","5b49d3a519f8e70001b7df02","609a8bf73b2ac84e2732f618","609d773949840f009aa3caf0","285.2450000063982","","","","77","","","","key","16.637647058821614","952","481","","","","","","","","","","","","","","","","","","","",""
"psychophysics","305","497822","0.0-18.0-0.20","5b49d3a519f8e70001b7df02","609a8bf73b2ac84e2732f618","609d773949840f009aa3caf0","null","","","","null","","","","key","16.639393939393234","952","481","","","","","","","","","","","","","","","","","","","",""
"psychophysics","306","498337","0.0-18.0-1.20","5b49d3a519f8e70001b7df02","609a8bf73b2ac84e2732f618","609d773949840f009aa3caf0","null","","","","null","","","","key","16.637733333332775","952","481","","","","","","","","","","","","","138","1","3","true","","","",""
"psychophysics","307","498484","0.0-18.0-2.20","5b49d3a519f8e70001b7df02","609a8bf73b2ac84e2732f618","609d773949840f009aa3caf0","134.78000000759494","","","","77","","","","key","16.634124999996857","952","481","","","","","","","","","","","","","","","","","","","",""
"psychophysics","308","499187","0.0-18.0-0.21","5b49d3a519f8e70001b7df02","609a8bf73b2ac84e2732f618","609d773949840f009aa3caf0","null","","","","null","","","","key","16.639804878047805","952","481","","","","","","","","","","","","","","","","","","","",""
"psychophysics","309","499692","0.0-18.0-1.21","5b49d3a519f8e70001b7df02","609a8bf73b2ac84e2732f618","609d773949840f009aa3caf0","null","","","","null","","","","key","16.63713333333338","952","481","","","","","","","","","","","","","138","1","5","true","","","",""
"psychophysics","310","499907","0.0-18.0-2.21","5b49d3a519f8e70001b7df02","609a8bf73b2ac84e2732f618","609d773949840f009aa3caf0","210.91499998874497","","","","77","","","","key","16.632666666667017","952","481","","","","","","","","","","","","","","","","","","","",""
"psychophysics","311","500669","0.0-18.0-0.22","5b49d3a519f8e70001b7df02","609a8bf73b2ac84e2732f618","609d773949840f009aa3caf0","null","","","","null","","","","key","16.639511111110913","952","481","","","","","","","","","","","","","","","","","","","",""
"psychophysics","312","501179","0.0-18.0-1.22","5b49d3a519f8e70001b7df02","609a8bf73b2ac84e2732f618","609d773949840f009aa3caf0","null","","","","null","","","","key","16.640689655172977","952","481","","","","","","","","","","","","","138","1","6","true","","","",""
"psychophysics","313","501303","0.0-18.0-2.22","5b49d3a519f8e70001b7df02","609a8bf73b2ac84e2732f618","609d773949840f009aa3caf0","114.86499999591615","","","","77","","","","key","16.64714285714685","952","481","","","","","","","","","","","","","","","","","","","",""
"psychophysics","314","501857","0.0-18.0-0.23","5b49d3a519f8e70001b7df02","609a8bf73b2ac84e2732f618","609d773949840f009aa3caf0","null","","","","null","","","","key","16.638093750001644","952","481","","","","","","","","","","","","","","","","","","","",""
"psychophysics","315","502363","0.0-18.0-1.23","5b49d3a519f8e70001b7df02","609a8bf73b2ac84e2732f618","609d773949840f009aa3caf0","null","","","","null","","","","key","16.623827586207412","952","481","","","","","","","","","","","","","138","1","0","true","","","",""
"psychophysics","316","502832","0.0-18.0-2.23","5b49d3a519f8e70001b7df02","609a8bf73b2ac84e2732f618","609d773949840f009aa3caf0","462.14999999210704","","","","77","","","","key","16.65429629629728","952","481","","","","","","","","","","","","","","","","","","","",""
"psychophysics","317","503614","0.0-18.0-0.24","5b49d3a519f8e70001b7df02","609a8bf73b2ac84e2732f618","609d773949840f009aa3caf0","null","","","","null","","","","key","16.636468085106166","952","481","","","","","","","","","","","","","","","","","","","",""
"psychophysics","318","504131","0.0-18.0-1.24","5b49d3a519f8e70001b7df02","609a8bf73b2ac84e2732f618","609d773949840f009aa3caf0","null","","","","null","","","","key","16.638099999999394","952","481","","","","","","","","","","","","","138","1","6","true","","","",""
"psychophysics","319","504257","0.0-18.0-2.24","5b49d3a519f8e70001b7df02","609a8bf73b2ac84e2732f618","609d773949840f009aa3caf0","123.03000000247266","","","","77","","","","key","16.62766666666721","952","481","","","","","","","","","","","","","","","","","","","",""
"psychophysics","320","505510","0.0-18.0-0.25","5b49d3a519f8e70001b7df02","609a8bf73b2ac84e2732f618","609d773949840f009aa3caf0","null","","","","null","","","","key","16.637986486486625","952","481","","","","","","","","","","","","","","","","","","","",""
"psychophysics","321","506019","0.0-18.0-1.25","5b49d3a519f8e70001b7df02","609a8bf73b2ac84e2732f618","609d773949840f009aa3caf0","null","","","","null","","","","key","16.63703333333251","952","481","","","","","","","","","","","","","138","1","0","true","","","",""
"psychophysics","322","506063","0.0-18.0-2.25","5b49d3a519f8e70001b7df02","609a8bf73b2ac84e2732f618","609d773949840f009aa3caf0","39.114999992307276","","","","77","","","","key","16.636499999993248","952","481","","","","","","","","","","","","","","","","","","","",""
"psychophysics","323","507540","0.0-18.0-0.26","5b49d3a519f8e70001b7df02","609a8bf73b2ac84e2732f618","609d773949840f009aa3caf0","null","","","","null","","","","key","16.639103448276018","952","481","","","","","","","","","","","","","","","","","","","",""
"psychophysics","324","508054","0.0-18.0-1.26","5b49d3a519f8e70001b7df02","609a8bf73b2ac84e2732f618","609d773949840f009aa3caf0","null","","","","null","","","","key","16.638666666665813","952","481","","","","","","","","","","","","","138","-1","5","true","","","",""
"psychophysics","325","508226","0.0-18.0-2.26","5b49d3a519f8e70001b7df02","609a8bf73b2ac84e2732f618","609d773949840f009aa3caf0","164.14999999688007","","","","77","","","","key","16.630999999999766","952","481","","","","","","","","","","","","","","","","","","","",""
"psychophysics","326","509319","0.0-18.0-0.27","5b49d3a519f8e70001b7df02","609a8bf73b2ac84e2732f618","609d773949840f009aa3caf0","null","","","","null","","","","key","16.63684374999957","952","481","","","","","","","","","","","","","","","","","","","",""
"psychophysics","327","509839","0.0-18.0-1.27","5b49d3a519f8e70001b7df02","609a8bf73b2ac84e2732f618","609d773949840f009aa3caf0","null","","","","null","","","","key","16.6408064516126","952","481","","","","","","","","","","","","","138","-1","3","true","","","",""
"psychophysics","328","510209","0.0-18.0-2.27","5b49d3a519f8e70001b7df02","609a8bf73b2ac84e2732f618","609d773949840f009aa3caf0","365.19500000576954","","","","90","","","","key","16.639714285714685","952","481","","","","","","","","","","","","","","","","","","","",""
"psychophysics","329","511481","0.0-18.0-0.28","5b49d3a519f8e70001b7df02","609a8bf73b2ac84e2732f618","609d773949840f009aa3caf0","null","","","","null","","","","key","16.638253333333413","952","481","","","","","","","","","","","","","","","","","","","",""
"psychophysics","330","511997","0.0-18.0-1.28","5b49d3a519f8e70001b7df02","609a8bf73b2ac84e2732f618","609d773949840f009aa3caf0","null","","","","null","","","","key","16.637533333332975","952","481","","","","","","","","","","","","","138","-1","0","true","","","",""
"psychophysics","331","512369","0.0-18.0-2.28","5b49d3a519f8e70001b7df02","609a8bf73b2ac84e2732f618","609d773949840f009aa3caf0","346.33499999472406","","","","90","","","","key","16.63840909090835","952","481","","","","","","","","","","","","","","","","","","","",""
