"trial_type","trial_index","time_elapsed","internal_node_id","PROLIFIC_PID","STUDY_ID","SESSION_ID","rt","stimulus","button_pressed","success","key_press","responses","isData","view_history","response_type","avg_frame_time","center_x","center_y","isSC","stim_side","trial_luminance","step_size","nReversal","correct","prev_ans","isThreshold","SC_threshold","final_threshold","isLuminance","FF_luminance","luminance","stimSide","ISInt","isFF","question_order","isSPQ","isCAPS","isAQ"
"pavlovia","0","5","0.0-0.0","5e5eb757a234251ddb9ab872","609a8bf73b2ac84e2732f618","609d7a5711af14a026782cf8","","","","","","","","","","","","","","","","","","","","","","","","","","","","","","","",""
"html-button-response","1","20452","0.0-1.0","5e5eb757a234251ddb9ab872","609a8bf73b2ac84e2732f618","609d7a5711af14a026782cf8","20443.49499999953","<div style='background-color: white; width:60%; margin: auto; padding: 50px; text-align: justify; text-justify: inter-word; margin-bottom: 20px;'><h1 style='text-align: center;'>Consent Form</h1><p>Please read this consent form carefully before deciding whether you would like to participate in this study. You have to be 18 years old or older to participate to this study.</p><p style='text-decoration: underline;'>Participation is voluntary:</p><p>It is your choice whether or not to participate in this research. If you choose to participate, you may change your mind and leave the study at any time. Refusal to participate or stopping your participation will involve no penalty or loss of benefits to which you are otherwise entitled.</p><p style='text-decoration: underline;'>Purpose of the Study:</p><p>To understand the mechanisms underlying human perception.</p><p style='text-decoration: underline;'>What you will do in this study:</p><p>You will be presented with a series of visual images and then you will press buttons on the keyboard of your computer to respond to simple questions about the images (e.g. Were one or two images presented?). In addition, you will be asked to complete a questionnaire concerning your beliefs and everyday mental and perceptual experiences.'</p><p style='text-decoration: underline;'> Time Required:</p><p>The study will take 40 minutes to complete. </p><p style='text-decoration: underline;'>Risks:</p><p>There are no anticipated risks associated with participating in this study that are beyond those experienced in everyday life. </p><p style='text-decoration: underline;'>Benefits:</p><p>There are no benefits to you in participating in the study. However, this study may lead to a better understanding of how different kinds of visual information are used.</p><p style='text-decoration: underline;'>Compensation:</p><p>You will be paid US$6.6/hour. </p><p style='text-decoration: underline;'>Privacy and Confidentiality:</p><p>Your participation in this study will be anonymous. No personal information about your name or identity will be asked or recorded. This anonymous data will be stored for several years and may be used for a variety of research purposes. The overall results of the study may be published, or the data files may be shared with other researchers, but your identity will not be revealed in any way. The online services we are using for this study may temporarily store your data, but this data will be downloaded and then promptly deleted from those services.Your data will not be permanently associated with your name, IP address, or any other identifiable information (e.g., your information will only be connected to your payment, not to any of your responses), though they may be temporarily stored together before we download and separate them. Even so, no guarantee of internet survey security can be given because, although unlikely, transmissions can be intercepted and IP addresses can be identified. The anonymous data may be shared publicly (for example, in conjunction with a resulting academic publication).</p><p style='text-decoration: underline;'>Participation and Withdrawal:</p><p>Your participation in this study is completely voluntary. You may stop responding to the stimuli or stop answering questions if you so choose and without penalty by exiting the full screen mode, closing this tab of your browser or redirecting it to a different website.</p><p style='text-decoration: underline;'>Contact Info of the Researcher: </p><p>If you have questions about this study, or if you would like to talk to the research team, please contact David Melcher (david.melcher@nyu.edu, md5050@nyu.edu) at the Perception and Active Cognition Laboratory, New York University Abu Dhabi, Computational Research Building, Saadiyat Island, Abu Dhabi, UAE.This research has been reviewed by the New York University Abu Dhabi Institutional Review Board (NYUAD IRB). To contact about your rights in this research, for questions, suggestions, or complaints that are not addressed by the researchers, please email IRBnyuad@nyu.edu, or call the NYUAD IRB at +971 2 628 4313. </p></div>","0","","","","","","","","","","","","","","","","","","","","","","","","","","","","",""
"fullscreen","2","23271","0.0-2.0","5e5eb757a234251ddb9ab872","609a8bf73b2ac84e2732f618","609d7a5711af14a026782cf8","","","","true","","","","","","","","","","","","","","","","","","","","","","","","","","","",""
"html-keyboard-response","3","36030","0.0-3.0","5e5eb757a234251ddb9ab872","609a8bf73b2ac84e2732f618","609d7a5711af14a026782cf8","12757.42999999784","<p>Welcome !</p><p>READ CAREFULLY THE FOLLOWING INDICATIONS:</p><p>From this moment you have ~40 minutes to complete the experiment.</p><p>During the experiment you will be prompted to take several breaks. Each break should not last longer than 2-3 minutes.</p><p>Make sure that your computer is plugged in and it's not running on battery power, even if the battery is already fully charged.</p><p>Turn off your phone and music, make sure that you are in a quiet room and that you will not be distracted for the next hour.</p><p>Failure to comply with the instructions and indications provided during the experiment will most likely result in the rejection of your data.<p>Press the spacebar to start.</p>","","","32","","","","","","","","","","","","","","","","","","","","","","","","","","",""
"survey-html-form","4","43132","0.0-4.0","5e5eb757a234251ddb9ab872","609a8bf73b2ac84e2732f618","609d7a5711af14a026782cf8","7101.060000000871","","","","","{""age"":""21"",""sex"":""Female""}","true","","","","","","","","","","","","","","","","","","","","","","","","",""
"instructions","5","79981","0.0-5.0","5e5eb757a234251ddb9ab872","609a8bf73b2ac84e2732f618","609d7a5711af14a026782cf8","36847.84999999829","","","","","","","[{""page_index"":0,""viewing_time"":27132.320000000618},{""page_index"":1,""viewing_time"":6007.6199999966775},{""page_index"":2,""viewing_time"":3707.4650000031397}]","","","","","","","","","","","","","","","","","","","","","","","",""
"psychophysics","6","81584","0.0-6.0-0.0","5e5eb757a234251ddb9ab872","609a8bf73b2ac84e2732f618","609d7a5711af14a026782cf8","572.7399999996123","","","","39","","","","key","16.841894736842214","683","328.5","true","1","180","30","0","-1","","","","","","","","","","","","","",""
"psychophysics","7","83270","0.0-6.0-0.1","5e5eb757a234251ddb9ab872","609a8bf73b2ac84e2732f618","609d7a5711af14a026782cf8","676.8800000027113","","","","39","","","","key","16.667269999999988","683","328.5","true","1","180","30","0","-1","-1","","","","","","","","","","","","",""
"psychophysics","8","88178","0.0-6.0-0.2","5e5eb757a234251ddb9ab872","609a8bf73b2ac84e2732f618","609d7a5711af14a026782cf8","3899.44000000105","","","","39","","","","key","16.66522789115648","683","328.5","true","1","150","30","0","-1","-1","","","","","","","","","","","","",""
"psychophysics","9","89242","0.0-6.0-0.3","5e5eb757a234251ddb9ab872","609a8bf73b2ac84e2732f618","609d7a5711af14a026782cf8","51.22000000119442","","","","39","","","","key","16.665174603174645","683","328.5","true","1","150","30","0","-1","-1","","","","","","","","","","","","",""
"psychophysics","10","91961","0.0-6.0-0.4","5e5eb757a234251ddb9ab872","609a8bf73b2ac84e2732f618","609d7a5711af14a026782cf8","1711.3349999999627","","","","39","","","","key","16.66540740740733","683","328.5","true","1","129","30","0","-1","-1","","","","","","","","","","","","",""
"psychophysics","11","95526","0.0-6.0-0.5","5e5eb757a234251ddb9ab872","609a8bf73b2ac84e2732f618","609d7a5711af14a026782cf8","2555.2050000005693","","","","37","","","","key","16.665821596244164","683","328.5","true","-1","129","30","0","-1","-1","","","","","","","","","","","","",""
"psychophysics","12","97469","0.0-6.0-0.6","5e5eb757a234251ddb9ab872","609a8bf73b2ac84e2732f618","609d7a5711af14a026782cf8","931.1550000020361","","","","37","","","","key","16.665756521739176","683","328.5","true","1","129","24","1","1","-1","","","","","","","","","","","","",""
"psychophysics","13","98571","0.0-6.0-0.7","5e5eb757a234251ddb9ab872","609a8bf73b2ac84e2732f618","609d7a5711af14a026782cf8","86.3500000014028","","","","37","","","","key","16.668446153846048","683","328.5","true","-1","153","24","1","-1","1","","","","","","","","","","","","",""
"psychophysics","14","99941","0.0-6.0-0.8","5e5eb757a234251ddb9ab872","609a8bf73b2ac84e2732f618","609d7a5711af14a026782cf8","359.5649999988382","","","","39","","","","key","16.664402439024386","683","328.5","true","1","153","19.2","2","-1","-1","","","","","","","","","","","","",""
"psychophysics","15","101380","0.0-6.0-0.9","5e5eb757a234251ddb9ab872","609a8bf73b2ac84e2732f618","609d7a5711af14a026782cf8","412.2949999982666","","","","39","","","","key","16.665423529411783","683","328.5","true","1","133.8","19.2","2","-1","-1","","","","","","","","","","","","",""
"psychophysics","16","103199","0.0-6.0-0.10","5e5eb757a234251ddb9ab872","609a8bf73b2ac84e2732f618","609d7a5711af14a026782cf8","811.7949999978009","","","","37","","","","key","16.665601851851804","683","328.5","true","-1","133.8","19.2","2","-1","-1","","","","","","","","","","","","",""
"psychophysics","17","104697","0.0-6.0-0.11","5e5eb757a234251ddb9ab872","609a8bf73b2ac84e2732f618","609d7a5711af14a026782cf8","491.31499999930384","","","","37","","","","key","16.662853932584337","683","328.5","true","1","129","15.36","3","1","-1","","","","","","","","","","","","",""
"psychophysics","18","105710","0.0-6.0-0.12","5e5eb757a234251ddb9ab872","609a8bf73b2ac84e2732f618","609d7a5711af14a026782cf8","9.379999999509891","","","","39","","","","key","16.664766666666644","683","328.5","true","1","144.36","15.36","3","-1","1","","","","","","","","","","","","",""
"psychophysics","19","107074","0.0-6.0-0.13","5e5eb757a234251ddb9ab872","609a8bf73b2ac84e2732f618","609d7a5711af14a026782cf8","353.75000000203727","","","","37","","","","key","16.66633333333331","683","328.5","true","-1","144.36","12.287999999999998","4","-1","-1","","","","","","","","","","","","",""
"psychophysics","20","110258","0.0-6.0-0.14","5e5eb757a234251ddb9ab872","609a8bf73b2ac84e2732f618","609d7a5711af14a026782cf8","2169.115000000602","","","","37","","","","key","16.665373684210536","683","328.5","true","-1","132.072","12.287999999999998","4","-1","-1","","","","","","","","","","","","",""
"psychophysics","21","112374","0.0-6.0-0.15","5e5eb757a234251ddb9ab872","609a8bf73b2ac84e2732f618","609d7a5711af14a026782cf8","1105.5949999972654","","","","37","","","","key","16.665388888888945","683","328.5","true","1","132.072","9.8304","5","1","-1","","","","","","","","","","","","",""
"psychophysics","22","114365","0.0-6.0-0.16","5e5eb757a234251ddb9ab872","609a8bf73b2ac84e2732f618","609d7a5711af14a026782cf8","984.7000000008848","","","","39","","","","key","16.665313559322016","683","328.5","true","1","141.9024","9.8304","5","-1","1","","","","","","","","","","","","",""
"psychophysics","23","115933","0.0-6.0-0.17","5e5eb757a234251ddb9ab872","609a8bf73b2ac84e2732f618","609d7a5711af14a026782cf8","562.1400000018184","","","","37","","","","key","16.66532258064516","683","328.5","true","-1","141.9024","7.864319999999999","6","-1","-1","","","","","","","","","","","","",""
"psychophysics","24","117639","0.0-6.0-0.18","5e5eb757a234251ddb9ab872","609a8bf73b2ac84e2732f618","609d7a5711af14a026782cf8","699.5349999997416","","","","37","","","","key","16.665107843137257","683","328.5","true","-1","134.03808","7.864319999999999","6","-1","-1","","","","","","","","","","","","",""
"psychophysics","25","120228","0.0-6.0-0.19","5e5eb757a234251ddb9ab872","609a8bf73b2ac84e2732f618","609d7a5711af14a026782cf8","1576.854999999341","","","","39","","","","key","16.665461038961038","683","328.5","true","-1","134.03808","6.291456","7","1","-1","","","","","","","","","","","","",""
"psychophysics","26","121711","0.0-6.0-0.20","5e5eb757a234251ddb9ab872","609a8bf73b2ac84e2732f618","609d7a5711af14a026782cf8","475.8250000013504","","","","37","","","","key","16.665318181818126","683","328.5","true","-1","140.32953600000002","6.291456","7","-1","1","","","","","","","","","","","","",""
"psychophysics","27","126456","0.0-6.0-0.21","5e5eb757a234251ddb9ab872","609a8bf73b2ac84e2732f618","609d7a5711af14a026782cf8","3737.25000000195","","","","37","","","","key","16.665285211267626","683","328.5","true","-1","140.32953600000002","5.033164800000001","8","-1","-1","","","","","","","","","","","","",""
"psychophysics","28","130213","0.0-6.0-0.22","5e5eb757a234251ddb9ab872","609a8bf73b2ac84e2732f618","609d7a5711af14a026782cf8","2750.9100000024773","","","","39","","","","key","16.66535267857145","683","328.5","true","-1","135.2963712","4.0265318400000005","9","1","-1","","","","","","","","","","","","",""
"psychophysics","29","132889","0.0-6.0-0.23","5e5eb757a234251ddb9ab872","609a8bf73b2ac84e2732f618","609d7a5711af14a026782cf8","1665.5900000005204","","","","37","","","","key","16.665625","683","328.5","true","-1","139.32290304","4.0265318400000005","9","-1","1","","","","","","","","","","","","",""
"psychophysics","30","134422","0.0-6.0-0.24","5e5eb757a234251ddb9ab872","609a8bf73b2ac84e2732f618","609d7a5711af14a026782cf8","529.1000000033819","","","","39","","","","key","16.66551648351654","683","328.5","true","1","139.32290304","3.2212254720000004","10","-1","-1","","","","","","","","","","","","",""
"psychophysics","31","135596","0.0-6.0-0.25","5e5eb757a234251ddb9ab872","609a8bf73b2ac84e2732f618","609d7a5711af14a026782cf8","168.20499999812455","","","","37","","","","key","16.665014492753603","683","328.5","true","-1","136.101677568","3.2212254720000004","10","-1","-1","","","","","","","","","","","","",""
"psychophysics","32","136724","0.0-6.0-0.26","5e5eb757a234251ddb9ab872","609a8bf73b2ac84e2732f618","609d7a5711af14a026782cf8","123.66000000110944","","","","37","","","","key","16.665313432835834","683","328.5","true","-1","136.101677568","3.2212254720000004","10","-1","-1","","","","","","","","","","","","",""
"psychophysics","33","138739","0.0-6.0-0.27","5e5eb757a234251ddb9ab872","609a8bf73b2ac84e2732f618","609d7a5711af14a026782cf8","1003.0599999990955","","","","39","","","","key","16.665383333333253","683","328.5","true","1","132.880452096","3.2212254720000004","10","-1","-1","","","","","","","","","","","","",""
"psychophysics","34","141130","0.0-6.0-0.28","5e5eb757a234251ddb9ab872","609a8bf73b2ac84e2732f618","609d7a5711af14a026782cf8","1379.5850000024075","","","","37","","","","key","16.665225352112675","683","328.5","true","1","132.880452096","2.5769803776000004","11","1","-1","","","","","","","","","","","","",""
"psychophysics","35","142261","0.0-6.0-0.29","5e5eb757a234251ddb9ab872","609a8bf73b2ac84e2732f618","609d7a5711af14a026782cf8","128.15000000045984","","","","39","","","","key","16.66489552238777","683","328.5","true","1","135.4574324736","2.5769803776000004","11","-1","1","","","","","","","","","","","","",""
"psychophysics","36","143325","0.0-6.0-0.30","5e5eb757a234251ddb9ab872","609a8bf73b2ac84e2732f618","609d7a5711af14a026782cf8","59.06499999764492","","","","37","","","","key","16.665333333333294","683","328.5","true","-1","135.4574324736","2.0615843020800004","12","-1","-1","","","","","","","","","","","","",""
"psychophysics","37","144364","0.0-6.0-0.31","5e5eb757a234251ddb9ab872","609a8bf73b2ac84e2732f618","609d7a5711af14a026782cf8","31.530000000202563","","","","39","","","","key","16.665278688524506","683","328.5","true","1","133.39584817152","2.0615843020800004","12","-1","-1","","","","","","","","","","","","",""
"psychophysics","38","146748","0.0-6.0-0.32","5e5eb757a234251ddb9ab872","609a8bf73b2ac84e2732f618","609d7a5711af14a026782cf8","1363.760000000184","","","","37","","","","key","16.665183098591587","683","328.5","true","-1","133.39584817152","2.0615843020800004","12","-1","-1","","","","","","","","","","","","",""
"psychophysics","39","149059","0.0-6.0-0.33","5e5eb757a234251ddb9ab872","609a8bf73b2ac84e2732f618","609d7a5711af14a026782cf8","1304.4349999981932","","","","37","","","","key","16.66544927536228","683","328.5","true","1","131.33426386943998","1.6492674416640005","13","1","-1","","","","","","","","","","","","",""
"psychophysics","40","150576","0.0-6.0-0.34","5e5eb757a234251ddb9ab872","609a8bf73b2ac84e2732f618","609d7a5711af14a026782cf8","507.33000000036554","","","","39","","","","key","16.665266666666785","683","328.5","true","1","132.98353131110397","1.6492674416640005","13","-1","1","","","","","","","","","","","","",""
"psychophysics","41","151942","0.0-6.0-0.35","5e5eb757a234251ddb9ab872","609a8bf73b2ac84e2732f618","609d7a5711af14a026782cf8","357.6299999986077","","","","37","","","","key","16.665160493827123","683","328.5","true","-1","132.98353131110397","1.3194139533312006","14","-1","-1","","","","","","","","","","","","",""
"psychophysics","42","153322","0.0-6.0-0.36","5e5eb757a234251ddb9ab872","609a8bf73b2ac84e2732f618","609d7a5711af14a026782cf8","373.30999999903725","","","","37","","","","key","16.66496341463417","683","328.5","true","-1","131.66411735777277","1.3194139533312006","14","-1","-1","","","","","","","","","","","","",""
"psychophysics","43","155802","0.0-6.0-0.37","5e5eb757a234251ddb9ab872","609a8bf73b2ac84e2732f618","609d7a5711af14a026782cf8","1472.8350000004866","","","","37","","","","key","16.66537162162166","683","328.5","true","1","131.66411735777277","1.0555311626649604","15","1","-1","","","","","","","","","","","","",""
"psychophysics","44","157778","0.0-6.0-0.38","5e5eb757a234251ddb9ab872","609a8bf73b2ac84e2732f618","609d7a5711af14a026782cf8","964.2650000023423","","","","37","","","","key","16.66532478632473","683","328.5","true","-1","132.71964852043772","1.0555311626649604","15","-1","1","","","","","","","","","","","","",""
"psychophysics","45","159939","0.0-6.0-0.39","5e5eb757a234251ddb9ab872","609a8bf73b2ac84e2732f618","609d7a5711af14a026782cf8","1157.3549999993702","","","","37","","","","key","16.665395348837063","683","328.5","true","-1","132.71964852043772","1","16","-1","-1","","","","","","","","","","","","",""
"html-keyboard-response","46","162978","0.0-7.0","5e5eb757a234251ddb9ab872","609a8bf73b2ac84e2732f618","609d7a5711af14a026782cf8","3036.7700000024342","<p>Well Done !</p><p>Prepare for a new block.</p><p>DON'T EXIT THE FULL SCREEN MODE</p><p>Press the Spacebar to start.</p>","","","32","","","","","","","","","","","","","","","true","133.44931192442058","","","","","","","","","","",""
"psychophysics","47","165054","0.0-8.0-0.0","5e5eb757a234251ddb9ab872","609a8bf73b2ac84e2732f618","609d7a5711af14a026782cf8","1070.3599999978906","","","","39","","","","key","16.667168000000064","683","328.5","true","1","180","30","0","-1","","","","","","","","","","","","","",""
"psychophysics","48","167391","0.0-8.0-0.1","5e5eb757a234251ddb9ab872","609a8bf73b2ac84e2732f618","609d7a5711af14a026782cf8","1325.3049999984796","","","","37","","","","key","16.665776978417092","683","328.5","true","-1","180","30","0","-1","-1","","","","","","","","","","","","",""
"psychophysics","49","168489","0.0-8.0-0.2","5e5eb757a234251ddb9ab872","609a8bf73b2ac84e2732f618","609d7a5711af14a026782cf8","91.38999999777297","","","","39","","","","key","16.667076923076706","683","328.5","true","1","150","30","0","-1","-1","","","","","","","","","","","","",""
"psychophysics","50","170396","0.0-8.0-0.3","5e5eb757a234251ddb9ab872","609a8bf73b2ac84e2732f618","609d7a5711af14a026782cf8","902.219999999943","","","","37","","","","key","16.665884955752173","683","328.5","true","-1","150","30","0","-1","-1","","","","","","","","","","","","",""
"psychophysics","51","171967","0.0-8.0-0.4","5e5eb757a234251ddb9ab872","609a8bf73b2ac84e2732f618","609d7a5711af14a026782cf8","550.1750000003085","","","","37","","","","key","16.666989247311815","683","328.5","true","1","129","24","1","1","-1","","","","","","","","","","","","",""
"psychophysics","52","173076","0.0-8.0-0.5","5e5eb757a234251ddb9ab872","609a8bf73b2ac84e2732f618","609d7a5711af14a026782cf8","94.504999997298","","","","39","","","","key","16.662969696969604","683","328.5","true","1","153","24","1","-1","1","","","","","","","","","","","","",""
"psychophysics","53","174156","0.0-8.0-0.6","5e5eb757a234251ddb9ab872","609a8bf73b2ac84e2732f618","609d7a5711af14a026782cf8","73.73000000006869","","","","39","","","","key","16.666843750000226","683","328.5","true","1","153","19.2","2","-1","-1","","","","","","","","","","","","",""
"psychophysics","54","175260","0.0-8.0-0.7","5e5eb757a234251ddb9ab872","609a8bf73b2ac84e2732f618","609d7a5711af14a026782cf8","94.46000000025379","","","","39","","","","key","16.66832307692295","683","328.5","true","1","133.8","19.2","2","-1","-1","","","","","","","","","","","","",""
"psychophysics","55","178186","0.0-8.0-0.8","5e5eb757a234251ddb9ab872","609a8bf73b2ac84e2732f618","609d7a5711af14a026782cf8","1920.7149999965623","","","","39","","","","key","16.665799999999912","683","328.5","true","-1","133.8","15.36","3","1","-1","","","","","","","","","","","","",""
"psychophysics","56","179492","0.0-8.0-0.9","5e5eb757a234251ddb9ab872","609a8bf73b2ac84e2732f618","609d7a5711af14a026782cf8","294.9700000026496","","","","37","","","","key","16.665038961039134","683","328.5","true","-1","149.16000000000003","15.36","3","-1","1","","","","","","","","","","","","",""
"psychophysics","57","180909","0.0-8.0-0.10","5e5eb757a234251ddb9ab872","609a8bf73b2ac84e2732f618","609d7a5711af14a026782cf8","410.4750000005879","","","","39","","","","key","16.665750000000116","683","328.5","true","1","149.16000000000003","12.287999999999998","4","-1","-1","","","","","","","","","","","","",""
"psychophysics","58","182260","0.0-8.0-0.11","5e5eb757a234251ddb9ab872","609a8bf73b2ac84e2732f618","609d7a5711af14a026782cf8","345.92499999780557","","","","39","","","","key","16.66677500000005","683","328.5","true","1","136.872","12.287999999999998","4","-1","-1","","","","","","","","","","","","",""
"psychophysics","59","183791","0.0-8.0-0.12","5e5eb757a234251ddb9ab872","609a8bf73b2ac84e2732f618","609d7a5711af14a026782cf8","523.0400000000373","","","","39","","","","key","16.664923076923095","683","328.5","true","1","136.872","12.287999999999998","4","-1","-1","","","","","","","","","","","","",""
"psychophysics","60","185419","0.0-8.0-0.13","5e5eb757a234251ddb9ab872","609a8bf73b2ac84e2732f618","609d7a5711af14a026782cf8","620.6850000016857","","","","37","","","","key","16.665577319587495","683","328.5","true","1","129","9.8304","5","1","-1","","","","","","","","","","","","",""
"psychophysics","61","186905","0.0-8.0-0.14","5e5eb757a234251ddb9ab872","609a8bf73b2ac84e2732f618","609d7a5711af14a026782cf8","474.3750000016007","","","","39","","","","key","16.66603409090914","683","328.5","true","1","138.8304","9.8304","5","-1","1","","","","","","","","","","","","",""
"psychophysics","62","188322","0.0-8.0-0.15","5e5eb757a234251ddb9ab872","609a8bf73b2ac84e2732f618","609d7a5711af14a026782cf8","408.4100000000035","","","","37","","","","key","16.664654761904828","683","328.5","true","-1","138.8304","7.864319999999999","6","-1","-1","","","","","","","","","","","","",""
"psychophysics","63","190083","0.0-8.0-0.16","5e5eb757a234251ddb9ab872","609a8bf73b2ac84e2732f618","609d7a5711af14a026782cf8","749.2400000010093","","","","39","","","","key","16.666230769230772","683","328.5","true","1","130.96608","7.864319999999999","6","-1","-1","","","","","","","","","","","","",""
"psychophysics","64","191804","0.0-8.0-0.17","5e5eb757a234251ddb9ab872","609a8bf73b2ac84e2732f618","609d7a5711af14a026782cf8","706.7850000021281","","","","39","","","","key","16.666009708738024","683","328.5","true","-1","130.96608","6.291456","7","1","-1","","","","","","","","","","","","",""
"psychophysics","65","193553","0.0-8.0-0.18","5e5eb757a234251ddb9ab872","609a8bf73b2ac84e2732f618","609d7a5711af14a026782cf8","739.3600000032166","","","","39","","","","key","16.66625961538487","683","328.5","true","1","137.25753600000002","6.291456","7","-1","1","","","","","","","","","","","","",""
"psychophysics","66","194984","0.0-8.0-0.19","5e5eb757a234251ddb9ab872","609a8bf73b2ac84e2732f618","609d7a5711af14a026782cf8","419.96500000095693","","","","37","","","","key","16.664117647058962","683","328.5","true","-1","137.25753600000002","5.033164800000001","8","-1","-1","","","","","","","","","","","","",""
"psychophysics","67","196971","0.0-8.0-0.20","5e5eb757a234251ddb9ab872","609a8bf73b2ac84e2732f618","609d7a5711af14a026782cf8","974.5499999989988","","","","37","","","","key","16.666737288135494","683","328.5","true","-1","132.2243712","5.033164800000001","8","-1","-1","","","","","","","","","","","","",""
"psychophysics","68","198505","0.0-8.0-0.21","5e5eb757a234251ddb9ab872","609a8bf73b2ac84e2732f618","609d7a5711af14a026782cf8","525.2400000026682","","","","37","","","","key","16.664934065934286","683","328.5","true","-1","132.2243712","5.033164800000001","8","-1","-1","","","","","","","","","","","","",""
"psychophysics","69","201013","0.0-8.0-0.22","5e5eb757a234251ddb9ab872","609a8bf73b2ac84e2732f618","609d7a5711af14a026782cf8","1499.3699999977252","","","","39","","","","key","16.664295302013493","683","328.5","true","1","129","5.033164800000001","8","-1","-1","","","","","","","","","","","","",""
"psychophysics","70","203152","0.0-8.0-0.23","5e5eb757a234251ddb9ab872","609a8bf73b2ac84e2732f618","609d7a5711af14a026782cf8","1128.6699999982375","","","","39","","","","key","16.66668750000008","683","328.5","true","-1","129","4.0265318400000005","9","1","-1","","","","","","","","","","","","",""
"psychophysics","71","205055","0.0-8.0-0.24","5e5eb757a234251ddb9ab872","609a8bf73b2ac84e2732f618","609d7a5711af14a026782cf8","895.8349999993516","","","","39","","","","key","16.66504424778756","683","328.5","true","-1","133.02653184","4.0265318400000005","9","1","1","","","","","","","","","","","","",""
"psychophysics","72","206369","0.0-8.0-0.25","5e5eb757a234251ddb9ab872","609a8bf73b2ac84e2732f618","609d7a5711af14a026782cf8","305.95499999981257","","","","37","","","","key","16.662153846154045","683","328.5","true","-1","137.05306367999998","4.0265318400000005","9","-1","1","","","","","","","","","","","","",""
"psychophysics","73","207718","0.0-8.0-0.26","5e5eb757a234251ddb9ab872","609a8bf73b2ac84e2732f618","609d7a5711af14a026782cf8","341.71000000060303","","","","39","","","","key","16.66860000000015","683","328.5","true","1","137.05306367999998","3.2212254720000004","10","-1","-1","","","","","","","","","","","","",""
"psychophysics","74","209932","0.0-8.0-0.27","5e5eb757a234251ddb9ab872","609a8bf73b2ac84e2732f618","609d7a5711af14a026782cf8","1202.3499999995693","","","","39","","","","key","16.666290076335763","683","328.5","true","-1","133.83183820799997","2.5769803776000004","11","1","-1","","","","","","","","","","","","",""
"psychophysics","75","212783","0.0-8.0-0.28","5e5eb757a234251ddb9ab872","609a8bf73b2ac84e2732f618","609d7a5711af14a026782cf8","1836.4250000013271","","","","39","","","","key","16.66574853801166","683","328.5","true","-1","136.40881858559996","2.5769803776000004","11","1","1","","","","","","","","","","","","",""
"psychophysics","76","214056","0.0-8.0-0.29","5e5eb757a234251ddb9ab872","609a8bf73b2ac84e2732f618","609d7a5711af14a026782cf8","265.7949999993434","","","","39","","","","key","16.665","683","328.5","true","1","138.98579896319995","2.5769803776000004","11","-1","1","","","","","","","","","","","","",""
"psychophysics","77","215255","0.0-8.0-0.30","5e5eb757a234251ddb9ab872","609a8bf73b2ac84e2732f618","609d7a5711af14a026782cf8","192.76000000172644","","","","39","","","","key","16.66560563380284","683","328.5","true","1","138.98579896319995","2.0615843020800004","12","-1","-1","","","","","","","","","","","","",""
"psychophysics","78","216696","0.0-8.0-0.31","5e5eb757a234251ddb9ab872","609a8bf73b2ac84e2732f618","609d7a5711af14a026782cf8","432.9150000012305","","","","39","","","","key","16.663082352941103","683","328.5","true","1","136.92421466111995","2.0615843020800004","12","-1","-1","","","","","","","","","","","","",""
"psychophysics","79","218552","0.0-8.0-0.32","5e5eb757a234251ddb9ab872","609a8bf73b2ac84e2732f618","609d7a5711af14a026782cf8","840.2449999994133","","","","39","","","","key","16.666711711711752","683","328.5","true","-1","136.92421466111995","1.6492674416640005","13","1","-1","","","","","","","","","","","","",""
"psychophysics","80","220153","0.0-8.0-0.33","5e5eb757a234251ddb9ab872","609a8bf73b2ac84e2732f618","609d7a5711af14a026782cf8","576.0099999970407","","","","37","","","","key","16.66597894736823","683","328.5","true","-1","138.57348210278394","1.6492674416640005","13","-1","1","","","","","","","","","","","","",""
"psychophysics","81","221542","0.0-8.0-0.34","5e5eb757a234251ddb9ab872","609a8bf73b2ac84e2732f618","609d7a5711af14a026782cf8","380.3600000028382","","","","37","","","","key","16.664658536585105","683","328.5","true","-1","138.57348210278394","1.3194139533312006","14","-1","-1","","","","","","","","","","","","",""
"psychophysics","82","222970","0.0-8.0-0.35","5e5eb757a234251ddb9ab872","609a8bf73b2ac84e2732f618","609d7a5711af14a026782cf8","408.4100000000035","","","","37","","","","key","16.666882352941148","683","328.5","true","-1","137.25406814945273","1.3194139533312006","14","-1","-1","","","","","","","","","","","","",""
"psychophysics","83","224333","0.0-8.0-0.36","5e5eb757a234251ddb9ab872","609a8bf73b2ac84e2732f618","609d7a5711af14a026782cf8","356.35499999989406","","","","39","","","","key","16.663864197530696","683","328.5","true","1","137.25406814945273","1.3194139533312006","14","-1","-1","","","","","","","","","","","","",""
"psychophysics","84","225502","0.0-8.0-0.37","5e5eb757a234251ddb9ab872","609a8bf73b2ac84e2732f618","609d7a5711af14a026782cf8","160.3800000011688","","","","37","","","","key","16.666594202898484","683","328.5","true","-1","135.93465419612153","1.3194139533312006","14","-1","-1","","","","","","","","","","","","",""
"psychophysics","85","226820","0.0-8.0-0.38","5e5eb757a234251ddb9ab872","609a8bf73b2ac84e2732f618","609d7a5711af14a026782cf8","308.6699999985285","","","","39","","","","key","16.66534615384612","683","328.5","true","1","135.93465419612153","1.3194139533312006","14","-1","-1","","","","","","","","","","","","",""
"psychophysics","86","228142","0.0-8.0-0.39","5e5eb757a234251ddb9ab872","609a8bf73b2ac84e2732f618","609d7a5711af14a026782cf8","317.5200000005134","","","","37","","","","key","16.663269230769426","683","328.5","true","-1","134.61524024279032","1.3194139533312006","14","-1","-1","","","","","","","","","","","","",""
"html-keyboard-response","87","230083","0.0-9.0","5e5eb757a234251ddb9ab872","609a8bf73b2ac84e2732f618","609d7a5711af14a026782cf8","1937.2949999997218","<p>Well Done !</p><p>Prepare for a new block.</p><p>DON'T EXIT THE FULL SCREEN MODE</p><p>Press the Spacebar to start.</p>","","","32","","","","","","","","","","","","","","","true","136.9537640361164","","","","","","","","","","",""
"psychophysics","88","233345","0.0-10.0-0.0","5e5eb757a234251ddb9ab872","609a8bf73b2ac84e2732f618","609d7a5711af14a026782cf8","2259.9350000018603","","","","39","","","","key","16.665520408163317","683","328.5","true","-1","180","30","0","1","","","","","","","","","","","","","",""
"psychophysics","89","236977","0.0-10.0-0.1","5e5eb757a234251ddb9ab872","609a8bf73b2ac84e2732f618","609d7a5711af14a026782cf8","2623.149999999441","","","","37","","","","key","16.665162037036982","683","328.5","true","-1","210","30","0","-1","1","","","","","","","","","","","","",""
"psychophysics","90","238216","0.0-10.0-0.2","5e5eb757a234251ddb9ab872","609a8bf73b2ac84e2732f618","609d7a5711af14a026782cf8","229.0099999991071","","","","37","","","","key","16.665959459459298","683","328.5","true","-1","210","24","1","-1","-1","","","","","","","","","","","","",""
"psychophysics","91","239301","0.0-10.0-0.3","5e5eb757a234251ddb9ab872","609a8bf73b2ac84e2732f618","609d7a5711af14a026782cf8","82.07000000038533","","","","39","","","","key","16.666406250000364","683","328.5","true","1","186","24","1","-1","-1","","","","","","","","","","","","",""
"psychophysics","92","240648","0.0-10.0-0.4","5e5eb757a234251ddb9ab872","609a8bf73b2ac84e2732f618","609d7a5711af14a026782cf8","341.9399999984307","","","","39","","","","key","16.665337499999804","683","328.5","true","1","186","24","1","-1","-1","","","","","","","","","","","","",""
"psychophysics","93","241808","0.0-10.0-0.5","5e5eb757a234251ddb9ab872","609a8bf73b2ac84e2732f618","609d7a5711af14a026782cf8","154.9799999993411","","","","37","","","","key","16.663088235294495","683","328.5","true","-1","162","24","1","-1","-1","","","","","","","","","","","","",""
"psychophysics","94","243060","0.0-10.0-0.6","5e5eb757a234251ddb9ab872","609a8bf73b2ac84e2732f618","609d7a5711af14a026782cf8","244.3649999986519","","","","39","","","","key","16.66701351351347","683","328.5","true","1","162","24","1","-1","-1","","","","","","","","","","","","",""
"psychophysics","95","244551","0.0-10.0-0.7","5e5eb757a234251ddb9ab872","609a8bf73b2ac84e2732f618","609d7a5711af14a026782cf8","485.675000003539","","","","39","","","","key","16.66793258426962","683","328.5","true","1","138","24","1","-1","-1","","","","","","","","","","","","",""
"psychophysics","96","245846","0.0-10.0-0.8","5e5eb757a234251ddb9ab872","609a8bf73b2ac84e2732f618","609d7a5711af14a026782cf8","291.1400000011781","","","","37","","","","key","16.661558441558473","683","328.5","true","-1","138","24","1","-1","-1","","","","","","","","","","","","",""
"psychophysics","97","247339","0.0-10.0-0.9","5e5eb757a234251ddb9ab872","609a8bf73b2ac84e2732f618","609d7a5711af14a026782cf8","488.9849999999569","","","","37","","","","key","16.668999999999702","683","328.5","true","-1","129","24","1","-1","-1","","","","","","","","","","","","",""
"psychophysics","98","248808","0.0-10.0-0.10","5e5eb757a234251ddb9ab872","609a8bf73b2ac84e2732f618","609d7a5711af14a026782cf8","460.2450000020326","","","","39","","","","key","16.66522988505747","683","328.5","true","1","129","24","1","-1","-1","","","","","","","","","","","","",""
"psychophysics","99","250330","0.0-10.0-0.11","5e5eb757a234251ddb9ab872","609a8bf73b2ac84e2732f618","609d7a5711af14a026782cf8","515.559999999823","","","","39","","","","key","16.666791208791366","683","328.5","true","1","129","24","1","-1","-1","","","","","","","","","","","","",""
"psychophysics","100","252715","0.0-10.0-0.12","5e5eb757a234251ddb9ab872","609a8bf73b2ac84e2732f618","609d7a5711af14a026782cf8","1380.3550000011455","","","","39","","","","key","16.66432394366199","683","328.5","true","1","129","24","1","-1","-1","","","","","","","","","","","","",""
"psychophysics","101","255491","0.0-10.0-0.13","5e5eb757a234251ddb9ab872","609a8bf73b2ac84e2732f618","609d7a5711af14a026782cf8","1771.2250000004133","","","","39","","","","key","16.66640606060603","683","328.5","true","-1","129","19.2","2","1","-1","","","","","","","","","","","","",""
"psychophysics","102","256750","0.0-10.0-0.14","5e5eb757a234251ddb9ab872","609a8bf73b2ac84e2732f618","609d7a5711af14a026782cf8","243.58000000211177","","","","37","","","","key","16.66781333333347","683","328.5","true","-1","148.2","19.2","2","-1","1","","","","","","","","","","","","",""
"psychophysics","103","257942","0.0-10.0-0.15","5e5eb757a234251ddb9ab872","609a8bf73b2ac84e2732f618","609d7a5711af14a026782cf8","183.2250000006752","","","","39","","","","key","16.66482857142858","683","328.5","true","1","148.2","15.36","3","-1","-1","","","","","","","","","","","","",""
"psychophysics","104","259301","0.0-10.0-0.16","5e5eb757a234251ddb9ab872","609a8bf73b2ac84e2732f618","609d7a5711af14a026782cf8","348.31000000122003","","","","39","","","","key","16.667111111111023","683","328.5","true","1","132.83999999999997","15.36","3","-1","-1","","","","","","","","","","","","",""
"psychophysics","105","260582","0.0-10.0-0.17","5e5eb757a234251ddb9ab872","609a8bf73b2ac84e2732f618","609d7a5711af14a026782cf8","273.4900000032212","","","","37","","","","key","16.664868421052617","683","328.5","true","-1","132.83999999999997","15.36","3","-1","-1","","","","","","","","","","","","",""
"psychophysics","106","262063","0.0-10.0-0.18","5e5eb757a234251ddb9ab872","609a8bf73b2ac84e2732f618","609d7a5711af14a026782cf8","470.5549999998766","","","","39","","","","key","16.665465909091093","683","328.5","true","-1","129","12.287999999999998","4","1","-1","","","","","","","","","","","","",""
"psychophysics","107","263495","0.0-10.0-0.19","5e5eb757a234251ddb9ab872","609a8bf73b2ac84e2732f618","609d7a5711af14a026782cf8","419.7249999997439","","","","37","","","","key","16.663588235293762","683","328.5","true","-1","141.288","12.287999999999998","4","-1","1","","","","","","","","","","","","",""
"psychophysics","108","264912","0.0-10.0-0.20","5e5eb757a234251ddb9ab872","609a8bf73b2ac84e2732f618","609d7a5711af14a026782cf8","403.80999999982305","","","","37","","","","key","16.666511904761485","683","328.5","true","-1","141.288","9.8304","5","-1","-1","","","","","","","","","","","","",""
"psychophysics","109","266718","0.0-10.0-0.21","5e5eb757a234251ddb9ab872","609a8bf73b2ac84e2732f618","609d7a5711af14a026782cf8","793.7050000000163","","","","37","","","","key","16.666018691589016","683","328.5","true","-1","131.4576","9.8304","5","-1","-1","","","","","","","","","","","","",""
"psychophysics","110","268584","0.0-10.0-0.22","5e5eb757a234251ddb9ab872","609a8bf73b2ac84e2732f618","609d7a5711af14a026782cf8","860.1999999991967","","","","37","","","","key","16.66518918918876","683","328.5","true","-1","131.4576","9.8304","5","-1","-1","","","","","","","","","","","","",""
"psychophysics","111","270598","0.0-10.0-0.23","5e5eb757a234251ddb9ab872","609a8bf73b2ac84e2732f618","609d7a5711af14a026782cf8","1007.4050000002608","","","","39","","","","key","16.66528333333311","683","328.5","true","1","129","9.8304","5","-1","-1","","","","","","","","","","","","",""
"psychophysics","112","272794","0.0-10.0-0.24","5e5eb757a234251ddb9ab872","609a8bf73b2ac84e2732f618","609d7a5711af14a026782cf8","1188.3449999986915","","","","39","","","","key","16.664045801526647","683","328.5","true","-1","129","7.864319999999999","6","1","-1","","","","","","","","","","","","",""
"psychophysics","113","274031","0.0-10.0-0.25","5e5eb757a234251ddb9ab872","609a8bf73b2ac84e2732f618","609d7a5711af14a026782cf8","225.89999999763677","","","","39","","","","key","16.665068493150525","683","328.5","true","1","136.86432","7.864319999999999","6","-1","1","","","","","","","","","","","","",""
"psychophysics","114","275200","0.0-10.0-0.26","5e5eb757a234251ddb9ab872","609a8bf73b2ac84e2732f618","609d7a5711af14a026782cf8","162.3600000020815","","","","39","","","","key","16.668855072463106","683","328.5","true","1","136.86432","6.291456","7","-1","-1","","","","","","","","","","","","",""
"psychophysics","115","276548","0.0-10.0-0.27","5e5eb757a234251ddb9ab872","609a8bf73b2ac84e2732f618","609d7a5711af14a026782cf8","341.4100000008475","","","","37","","","","key","16.666162500000063","683","328.5","true","-1","130.57286399999998","6.291456","7","-1","-1","","","","","","","","","","","","",""
"psychophysics","116","278420","0.0-10.0-0.28","5e5eb757a234251ddb9ab872","609a8bf73b2ac84e2732f618","609d7a5711af14a026782cf8","863.1249999998254","","","","37","","","","key","16.66516216216202","683","328.5","true","-1","130.57286399999998","6.291456","7","-1","-1","","","","","","","","","","","","",""
"psychophysics","117","280435","0.0-10.0-0.29","5e5eb757a234251ddb9ab872","609a8bf73b2ac84e2732f618","609d7a5711af14a026782cf8","1006.5949999989243","","","","39","","","","key","16.666841666666734","683","328.5","true","1","129","6.291456","7","-1","-1","","","","","","","","","","","","",""
"psychophysics","118","281900","0.0-10.0-0.30","5e5eb757a234251ddb9ab872","609a8bf73b2ac84e2732f618","609d7a5711af14a026782cf8","457.9650000014808","","","","37","","","","key","16.667425287356224","683","328.5","true","-1","129","6.291456","7","-1","-1","","","","","","","","","","","","",""
"psychophysics","119","283712","0.0-10.0-0.31","5e5eb757a234251ddb9ab872","609a8bf73b2ac84e2732f618","609d7a5711af14a026782cf8","803.9449999996577","","","","37","","","","key","16.664259259259172","683","328.5","true","1","129","5.033164800000001","8","1","-1","","","","","","","","","","","","",""
"psychophysics","120","284881","0.0-10.0-0.32","5e5eb757a234251ddb9ab872","609a8bf73b2ac84e2732f618","609d7a5711af14a026782cf8","164.4799999994575","","","","39","","","","key","16.667826086956758","683","328.5","true","1","134.0331648","5.033164800000001","8","-1","1","","","","","","","","","","","","",""
"psychophysics","121","286046","0.0-10.0-0.33","5e5eb757a234251ddb9ab872","609a8bf73b2ac84e2732f618","609d7a5711af14a026782cf8","156.43999999883818","","","","39","","","","key","16.660231884058557","683","328.5","true","1","134.0331648","4.0265318400000005","9","-1","-1","","","","","","","","","","","","",""
"psychophysics","122","287481","0.0-10.0-0.34","5e5eb757a234251ddb9ab872","609a8bf73b2ac84e2732f618","609d7a5711af14a026782cf8","431.74999999970896","","","","39","","","","key","16.666894117646905","683","328.5","true","1","130.00663296000002","4.0265318400000005","9","-1","-1","","","","","","","","","","","","",""
"psychophysics","123","289243","0.0-10.0-0.35","5e5eb757a234251ddb9ab872","609a8bf73b2ac84e2732f618","609d7a5711af14a026782cf8","753.5250000000815","","","","39","","","","key","16.665171428571366","683","328.5","true","-1","130.00663296000002","3.2212254720000004","10","1","-1","","","","","","","","","","","","",""
"psychophysics","124","290828","0.0-10.0-0.36","5e5eb757a234251ddb9ab872","609a8bf73b2ac84e2732f618","609d7a5711af14a026782cf8","571.4800000023679","","","","37","","","","key","16.66347872340393","683","328.5","true","-1","133.227858432","3.2212254720000004","10","-1","1","","","","","","","","","","","","",""
"psychophysics","125","292531","0.0-10.0-0.37","5e5eb757a234251ddb9ab872","609a8bf73b2ac84e2732f618","609d7a5711af14a026782cf8","691.0500000012107","","","","39","","","","key","16.6644752475244","683","328.5","true","1","133.227858432","2.5769803776000004","11","-1","-1","","","","","","","","","","","","",""
"psychophysics","126","293948","0.0-10.0-0.38","5e5eb757a234251ddb9ab872","609a8bf73b2ac84e2732f618","609d7a5711af14a026782cf8","408.8049999991199","","","","39","","","","key","16.66561904761849","683","328.5","true","1","130.6508780544","2.5769803776000004","11","-1","-1","","","","","","","","","","","","",""
"psychophysics","127","295645","0.0-10.0-0.39","5e5eb757a234251ddb9ab872","609a8bf73b2ac84e2732f618","609d7a5711af14a026782cf8","689.1500000020023","","","","39","","","","key","16.665049504950332","683","328.5","true","1","130.6508780544","2.5769803776000004","11","-1","-1","","","","","","","","","","","","",""
"html-keyboard-response","128","299135","0.0-11.0","5e5eb757a234251ddb9ab872","609a8bf73b2ac84e2732f618","609d7a5711af14a026782cf8","3487.484999997774","<p>Well Done !</p><p>Prepare for a new block.</p><p>DON'T EXIT THE FULL SCREEN MODE</p><p>Press the Spacebar to start.</p>","","","32","","","","","","","","","","","","","","","true","131.84742909951999","","","","","","","","","","",""
"psychophysics","129","301959","0.0-12.0-0.0","5e5eb757a234251ddb9ab872","609a8bf73b2ac84e2732f618","609d7a5711af14a026782cf8","1818.8900000023423","","","","37","","","","key","16.666041176470667","683","328.5","true","-1","180","30","0","-1","","","","","","","","","","","","","",""
"psychophysics","130","303167","0.0-12.0-0.1","5e5eb757a234251ddb9ab872","609a8bf73b2ac84e2732f618","609d7a5711af14a026782cf8","200.65500000061002","","","","37","","","","key","16.664507042253422","683","328.5","true","-1","180","30","0","-1","-1","","","","","","","","","","","","",""
"psychophysics","131","304181","0.0-12.0-0.2","5e5eb757a234251ddb9ab872","609a8bf73b2ac84e2732f618","609d7a5711af14a026782cf8","9.454999999434222","","","","39","","","","key","16.667216666666597","683","328.5","true","1","150","30","0","-1","-1","","","","","","","","","","","","",""
"psychophysics","132","305202","0.0-12.0-0.3","5e5eb757a234251ddb9ab872","609a8bf73b2ac84e2732f618","609d7a5711af14a026782cf8","14.305000000575092","","","","39","","","","key","16.66561666666627","683","328.5","true","1","150","30","0","-1","-1","","","","","","","","","","","","",""
"psychophysics","133","306703","0.0-12.0-0.4","5e5eb757a234251ddb9ab872","609a8bf73b2ac84e2732f618","609d7a5711af14a026782cf8","490.6799999990035","","","","39","","","","key","16.66606741573065","683","328.5","true","1","129","30","0","-1","-1","","","","","","","","","","","","",""
"psychophysics","134","308883","0.0-12.0-0.5","5e5eb757a234251ddb9ab872","609a8bf73b2ac84e2732f618","609d7a5711af14a026782cf8","1169.2199999997392","","","","37","","","","key","16.66563076923082","683","328.5","true","-1","129","30","0","-1","-1","","","","","","","","","","","","",""
"psychophysics","135","310515","0.0-12.0-0.6","5e5eb757a234251ddb9ab872","609a8bf73b2ac84e2732f618","609d7a5711af14a026782cf8","629.4049999996787","","","","39","","","","key","16.66600000000014","683","328.5","true","1","129","30","0","-1","-1","","","","","","","","","","","","",""
"psychophysics","136","312495","0.0-12.0-0.7","5e5eb757a234251ddb9ab872","609a8bf73b2ac84e2732f618","609d7a5711af14a026782cf8","973.7799999965937","","","","37","","","","key","16.66535593220378","683","328.5","true","-1","129","30","0","-1","-1","","","","","","","","","","","","",""
"psychophysics","137","314073","0.0-12.0-0.8","5e5eb757a234251ddb9ab872","609a8bf73b2ac84e2732f618","609d7a5711af14a026782cf8","568.8399999999092","","","","39","","","","key","16.662936170212678","683","328.5","true","-1","129","24","1","1","-1","","","","","","","","","","","","",""
"psychophysics","138","315249","0.0-12.0-0.9","5e5eb757a234251ddb9ab872","609a8bf73b2ac84e2732f618","609d7a5711af14a026782cf8","161.0949999994482","","","","37","","","","key","16.668014492753528","683","328.5","true","-1","153","24","1","-1","1","","","","","","","","","","","","",""
"psychophysics","139","316432","0.0-12.0-0.10","5e5eb757a234251ddb9ab872","609a8bf73b2ac84e2732f618","609d7a5711af14a026782cf8","178.18999999866355","","","","37","","","","key","16.665285714284984","683","328.5","true","-1","153","19.2","2","-1","-1","","","","","","","","","","","","",""
"psychophysics","140","317612","0.0-12.0-0.11","5e5eb757a234251ddb9ab872","609a8bf73b2ac84e2732f618","609d7a5711af14a026782cf8","175.54000000015367","","","","39","","","","key","16.66631428571418","683","328.5","true","1","133.8","19.2","2","-1","-1","","","","","","","","","","","","",""
"psychophysics","141","319647","0.0-12.0-0.12","5e5eb757a234251ddb9ab872","609a8bf73b2ac84e2732f618","609d7a5711af14a026782cf8","1029.754999999539","","","","39","","","","key","16.664983471074287","683","328.5","true","1","133.8","19.2","2","-1","-1","","","","","","","","","","","","",""
"psychophysics","142","321663","0.0-12.0-0.13","5e5eb757a234251ddb9ab872","609a8bf73b2ac84e2732f618","609d7a5711af14a026782cf8","1009.2550000008778","","","","39","","","","key","16.665616666666757","683","328.5","true","1","129","19.2","2","-1","-1","","","","","","","","","","","","",""
"psychophysics","143","324132","0.0-12.0-0.14","5e5eb757a234251ddb9ab872","609a8bf73b2ac84e2732f618","609d7a5711af14a026782cf8","1462.2650000019348","","","","39","","","","key","16.665278911564837","683","328.5","true","1","129","19.2","2","-1","-1","","","","","","","","","","","","",""
"psychophysics","144","326127","0.0-12.0-0.15","5e5eb757a234251ddb9ab872","609a8bf73b2ac84e2732f618","609d7a5711af14a026782cf8","990.3049999993527","","","","37","","","","key","16.66492436974781","683","328.5","true","1","129","15.36","3","1","-1","","","","","","","","","","","","",""
"psychophysics","145","327642","0.0-12.0-0.16","5e5eb757a234251ddb9ab872","609a8bf73b2ac84e2732f618","609d7a5711af14a026782cf8","512.0849999984493","","","","37","","","","key","16.664311111111115","683","328.5","true","-1","144.36","15.36","3","-1","1","","","","","","","","","","","","",""
"psychophysics","146","329125","0.0-12.0-0.17","5e5eb757a234251ddb9ab872","609a8bf73b2ac84e2732f618","609d7a5711af14a026782cf8","477.1199999995879","","","","37","","","","key","16.664818181818358","683","328.5","true","-1","144.36","12.287999999999998","4","-1","-1","","","","","","","","","","","","",""
"psychophysics","147","330651","0.0-12.0-0.18","5e5eb757a234251ddb9ab872","609a8bf73b2ac84e2732f618","609d7a5711af14a026782cf8","519.1500000001397","","","","37","","","","key","16.664988888889397","683","328.5","true","1","132.072","9.8304","5","1","-1","","","","","","","","","","","","",""
"psychophysics","148","332539","0.0-12.0-0.19","5e5eb757a234251ddb9ab872","609a8bf73b2ac84e2732f618","609d7a5711af14a026782cf8","868.5949999999139","","","","39","","","","key","16.66614159292014","683","328.5","true","-1","141.9024","9.8304","5","1","1","","","","","","","","","","","","",""
"psychophysics","149","333747","0.0-12.0-0.20","5e5eb757a234251ddb9ab872","609a8bf73b2ac84e2732f618","609d7a5711af14a026782cf8","198.6849999994156","","","","37","","","","key","16.66599999999949","683","328.5","true","-1","151.7328","9.8304","5","-1","1","","","","","","","","","","","","",""
"psychophysics","150","334973","0.0-12.0-0.21","5e5eb757a234251ddb9ab872","609a8bf73b2ac84e2732f618","609d7a5711af14a026782cf8","219.94999999878928","","","","37","","","","key","16.66467123287682","683","328.5","true","-1","151.7328","7.864319999999999","6","-1","-1","","","","","","","","","","","","",""
"psychophysics","151","336349","0.0-12.0-0.22","5e5eb757a234251ddb9ab872","609a8bf73b2ac84e2732f618","609d7a5711af14a026782cf8","363.01499999902444","","","","39","","","","key","16.664728395062365","683","328.5","true","1","143.86848","7.864319999999999","6","-1","-1","","","","","","","","","","","","",""
"psychophysics","152","337623","0.0-12.0-0.23","5e5eb757a234251ddb9ab872","609a8bf73b2ac84e2732f618","609d7a5711af14a026782cf8","266.73999999905936","","","","37","","","","key","16.666315789473867","683","328.5","true","1","143.86848","6.291456","7","1","-1","","","","","","","","","","","","",""
"psychophysics","153","339064","0.0-12.0-0.24","5e5eb757a234251ddb9ab872","609a8bf73b2ac84e2732f618","609d7a5711af14a026782cf8","427.9649999989779","","","","39","","","","key","16.665458823529566","683","328.5","true","1","150.15993600000002","6.291456","7","-1","1","","","","","","","","","","","","",""
"psychophysics","154","340382","0.0-12.0-0.25","5e5eb757a234251ddb9ab872","609a8bf73b2ac84e2732f618","609d7a5711af14a026782cf8","312.69500000053085","","","","37","","","","key","16.666820512820358","683","328.5","true","-1","150.15993600000002","5.033164800000001","8","-1","-1","","","","","","","","","","","","",""
"psychophysics","155","341733","0.0-12.0-0.26","5e5eb757a234251ddb9ab872","609a8bf73b2ac84e2732f618","609d7a5711af14a026782cf8","347.43000000162283","","","","39","","","","key","16.666999999999824","683","328.5","true","1","145.1267712","5.033164800000001","8","-1","-1","","","","","","","","","","","","",""
"psychophysics","156","343186","0.0-12.0-0.27","5e5eb757a234251ddb9ab872","609a8bf73b2ac84e2732f618","609d7a5711af14a026782cf8","446.4399999997113","","","","39","","","","key","16.66638372093033","683","328.5","true","1","145.1267712","5.033164800000001","8","-1","-1","","","","","","","","","","","","",""
"psychophysics","157","344494","0.0-12.0-0.28","5e5eb757a234251ddb9ab872","609a8bf73b2ac84e2732f618","609d7a5711af14a026782cf8","292.3750000008731","","","","37","","","","key","16.665948717948943","683","328.5","true","-1","140.0936064","5.033164800000001","8","-1","-1","","","","","","","","","","","","",""
"psychophysics","158","345984","0.0-12.0-0.29","5e5eb757a234251ddb9ab872","609a8bf73b2ac84e2732f618","609d7a5711af14a026782cf8","481.6050000008545","","","","37","","","","key","16.666943181818088","683","328.5","true","-1","140.0936064","5.033164800000001","8","-1","-1","","","","","","","","","","","","",""
"psychophysics","159","347658","0.0-12.0-0.30","5e5eb757a234251ddb9ab872","609a8bf73b2ac84e2732f618","609d7a5711af14a026782cf8","656.1249999977299","","","","39","","","","key","16.665590000000083","683","328.5","true","1","135.0604416","5.033164800000001","8","-1","-1","","","","","","","","","","","","",""
"psychophysics","160","349122","0.0-12.0-0.31","5e5eb757a234251ddb9ab872","609a8bf73b2ac84e2732f618","609d7a5711af14a026782cf8","453.53500000055647","","","","37","","","","key","16.667241379310212","683","328.5","true","1","135.0604416","4.0265318400000005","9","1","-1","","","","","","","","","","","","",""
"psychophysics","161","350526","0.0-12.0-0.32","5e5eb757a234251ddb9ab872","609a8bf73b2ac84e2732f618","609d7a5711af14a026782cf8","391.8200000007637","","","","39","","","","key","16.66361445783152","683","328.5","true","1","139.08697343999998","4.0265318400000005","9","-1","1","","","","","","","","","","","","",""
"psychophysics","162","351993","0.0-12.0-0.33","5e5eb757a234251ddb9ab872","609a8bf73b2ac84e2732f618","609d7a5711af14a026782cf8","458.5350000016042","","","","39","","","","key","16.665459770115156","683","328.5","true","-1","139.08697343999998","3.2212254720000004","10","1","-1","","","","","","","","","","","","",""
"psychophysics","163","353639","0.0-12.0-0.34","5e5eb757a234251ddb9ab872","609a8bf73b2ac84e2732f618","609d7a5711af14a026782cf8","639.0049999972107","","","","37","","","","key","16.664928571428575","683","328.5","true","-1","142.30819891199997","3.2212254720000004","10","-1","1","","","","","","","","","","","","",""
"psychophysics","164","356132","0.0-12.0-0.35","5e5eb757a234251ddb9ab872","609a8bf73b2ac84e2732f618","609d7a5711af14a026782cf8","1483.9749999991618","","","","39","","","","key","16.665844594594486","683","328.5","true","1","142.30819891199997","2.5769803776000004","11","-1","-1","","","","","","","","","","","","",""
"psychophysics","165","357693","0.0-12.0-0.36","5e5eb757a234251ddb9ab872","609a8bf73b2ac84e2732f618","609d7a5711af14a026782cf8","552.5049999996554","","","","39","","","","key","16.667206521739466","683","328.5","true","1","139.73121853439997","2.5769803776000004","11","-1","-1","","","","","","","","","","","","",""
"psychophysics","166","358982","0.0-12.0-0.37","5e5eb757a234251ddb9ab872","609a8bf73b2ac84e2732f618","609d7a5711af14a026782cf8","281.3250000035623","","","","37","","","","key","16.666961038960658","683","328.5","true","-1","139.73121853439997","2.5769803776000004","11","-1","-1","","","","","","","","","","","","",""
"psychophysics","167","360292","0.0-12.0-0.38","5e5eb757a234251ddb9ab872","609a8bf73b2ac84e2732f618","609d7a5711af14a026782cf8","291.66500000067754","","","","37","","","","key","16.666769230769624","683","328.5","true","-1","137.15423815679998","2.5769803776000004","11","-1","-1","","","","","","","","","","","","",""
"psychophysics","168","361891","0.0-12.0-0.39","5e5eb757a234251ddb9ab872","609a8bf73b2ac84e2732f618","609d7a5711af14a026782cf8","590.744999997667","","","","37","","","","key","16.66492631578953","683","328.5","true","-1","137.15423815679998","2.5769803776000004","11","-1","-1","","","","","","","","","","","","",""
"html-keyboard-response","169","363085","0.0-13.0","5e5eb757a234251ddb9ab872","609a8bf73b2ac84e2732f618","609d7a5711af14a026782cf8","1191.0250000000815","<p>Well Done !</p><p>Prepare for a new block.</p><p>DON'T EXIT THE FULL SCREEN MODE</p><p>Press the Spacebar to start.</p>","","","32","","","","","","","","","","","","","","","true","140.48552216576","","","","","","","","","","",""
"html-keyboard-response","170","363191","0.0-14.0","5e5eb757a234251ddb9ab872","609a8bf73b2ac84e2732f618","609d7a5711af14a026782cf8","null","","","","null","","","","","","","","","","","","","","","","","135.68400680645425","true","143.3680136129085","","","","","","","",""
"instructions","171","380894","0.0-15.0","5e5eb757a234251ddb9ab872","609a8bf73b2ac84e2732f618","609d7a5711af14a026782cf8","17701.114999999816","","","","","","","[{""page_index"":0,""viewing_time"":13608.305000001565},{""page_index"":1,""viewing_time"":1946.7750000003143},{""page_index"":2,""viewing_time"":2145.5799999966985}]","","","","","","","","","","","","","","","","","","","","","","","",""
"psychophysics","172","383790","0.0-16.0-0.0","5e5eb757a234251ddb9ab872","609a8bf73b2ac84e2732f618","609d7a5711af14a026782cf8","null","","","","null","","","","key","16.669283018868093","683","328.5","","","","","","","","","","","","","","","","","","","",""
"psychophysics","173","384294","0.0-16.0-1.0","5e5eb757a234251ddb9ab872","609a8bf73b2ac84e2732f618","609d7a5711af14a026782cf8","null","","","","null","","","","key","16.66265517241394","683","328.5","","","","","","","","","","","","","143","-1","2","false","","","",""
"psychophysics","174","385468","0.0-16.0-2.0","5e5eb757a234251ddb9ab872","609a8bf73b2ac84e2732f618","609d7a5711af14a026782cf8","1170.6749999976018","","","","90","","","","key","16.666185714286154","683","328.5","","","","","","","","","","","","","","","","","","","",""
"psychophysics","175","386534","0.0-16.0-0.1","5e5eb757a234251ddb9ab872","609a8bf73b2ac84e2732f618","609d7a5711af14a026782cf8","null","","","","null","","","","key","16.66595238095264","683","328.5","","","","","","","","","","","","","","","","","","","",""
"psychophysics","176","387039","0.0-16.0-1.1","5e5eb757a234251ddb9ab872","609a8bf73b2ac84e2732f618","609d7a5711af14a026782cf8","null","","","","null","","","","key","16.66510344827588","683","328.5","","","","","","","","","","","","","143","1","5","false","","","",""
"psychophysics","177","388055","0.0-16.0-2.1","5e5eb757a234251ddb9ab872","609a8bf73b2ac84e2732f618","609d7a5711af14a026782cf8","1013.1900000015157","","","","77","","","","key","16.664183333333735","683","328.5","","","","","","","","","","","","","","","","","","","",""
"psychophysics","178","389265","0.0-16.0-0.2","5e5eb757a234251ddb9ab872","609a8bf73b2ac84e2732f618","609d7a5711af14a026782cf8","null","","","","null","","","","key","16.663450704225088","683","328.5","","","","","","","","","","","","","","","","","","","",""
"psychophysics","179","389770","0.0-16.0-1.2","5e5eb757a234251ddb9ab872","609a8bf73b2ac84e2732f618","609d7a5711af14a026782cf8","null","","","","null","","","","key","16.668700000001504","683","328.5","","","","","","","","","","","","","143","-1","0","false","","","",""
"psychophysics","180","390559","0.0-16.0-2.2","5e5eb757a234251ddb9ab872","609a8bf73b2ac84e2732f618","609d7a5711af14a026782cf8","785.0949999992736","","","","77","","","","key","16.666456521738006","683","328.5","","","","","","","","","","","","","","","","","","","",""
"psychophysics","181","391710","0.0-16.0-0.3","5e5eb757a234251ddb9ab872","609a8bf73b2ac84e2732f618","609d7a5711af14a026782cf8","null","","","","null","","","","key","16.66566176470523","683","328.5","","","","","","","","","","","","","","","","","","","",""
"psychophysics","182","392215","0.0-16.0-1.3","5e5eb757a234251ddb9ab872","609a8bf73b2ac84e2732f618","609d7a5711af14a026782cf8","null","","","","null","","","","key","16.671068965517595","683","328.5","","","","","","","","","","","","","143","1","0","false","","","",""
"psychophysics","183","392706","0.0-16.0-2.3","5e5eb757a234251ddb9ab872","609a8bf73b2ac84e2732f618","609d7a5711af14a026782cf8","484.16500000166707","","","","77","","","","key","16.66803448275936","683","328.5","","","","","","","","","","","","","","","","","","","",""
"psychophysics","184","393629","0.0-16.0-0.4","5e5eb757a234251ddb9ab872","609a8bf73b2ac84e2732f618","609d7a5711af14a026782cf8","null","","","","null","","","","key","16.66559259259224","683","328.5","","","","","","","","","","","","","","","","","","","",""
"psychophysics","185","394134","0.0-16.0-1.4","5e5eb757a234251ddb9ab872","609a8bf73b2ac84e2732f618","609d7a5711af14a026782cf8","null","","","","null","","","","key","16.669099999999162","683","328.5","","","","","","","","","","","","","143","-1","5","false","","","",""
"psychophysics","186","394570","0.0-16.0-2.4","5e5eb757a234251ddb9ab872","609a8bf73b2ac84e2732f618","609d7a5711af14a026782cf8","430.6749999995809","","","","77","","","","key","16.672640000001994","683","328.5","","","","","","","","","","","","","","","","","","","",""
"psychophysics","187","395148","0.0-16.0-0.5","5e5eb757a234251ddb9ab872","609a8bf73b2ac84e2732f618","609d7a5711af14a026782cf8","null","","","","null","","","","key","16.660424242424074","683","328.5","","","","","","","","","","","","","","","","","","","",""
"psychophysics","188","395665","0.0-16.0-1.5","5e5eb757a234251ddb9ab872","609a8bf73b2ac84e2732f618","609d7a5711af14a026782cf8","null","","","","null","","","","key","16.670533333332667","683","328.5","","","","","","","","","","","","","143","1","3","false","","","",""
"psychophysics","189","396043","0.0-16.0-2.5","5e5eb757a234251ddb9ab872","609a8bf73b2ac84e2732f618","609d7a5711af14a026782cf8","350.0800000001909","","","","77","","","","key","16.661454545455687","683","328.5","","","","","","","","","","","","","","","","","","","",""
"psychophysics","190","397082","0.0-16.0-0.6","5e5eb757a234251ddb9ab872","609a8bf73b2ac84e2732f618","609d7a5711af14a026782cf8","null","","","","null","","","","key","16.664311475409615","683","328.5","","","","","","","","","","","","","","","","","","","",""
"psychophysics","191","397596","0.0-16.0-1.6","5e5eb757a234251ddb9ab872","609a8bf73b2ac84e2732f618","609d7a5711af14a026782cf8","null","","","","null","","","","key","16.6695000000007","683","328.5","","","","","","","","","","","","","143","-1","4","false","","","",""
"psychophysics","192","397907","0.0-16.0-2.6","5e5eb757a234251ddb9ab872","609a8bf73b2ac84e2732f618","609d7a5711af14a026782cf8","301.244999998773","","","","77","","","","key","16.666222222220515","683","328.5","","","","","","","","","","","","","","","","","","","",""
"psychophysics","193","398465","0.0-16.0-0.7","5e5eb757a234251ddb9ab872","609a8bf73b2ac84e2732f618","609d7a5711af14a026782cf8","null","","","","null","","","","key","16.66046875000029","683","328.5","","","","","","","","","","","","","","","","","","","",""
"psychophysics","194","398979","0.0-16.0-1.7","5e5eb757a234251ddb9ab872","609a8bf73b2ac84e2732f618","609d7a5711af14a026782cf8","null","","","","null","","","","key","16.65993333333172","683","328.5","","","","","","","","","","","","","143","1","2","false","","","",""
"psychophysics","195","399337","0.0-16.0-2.7","5e5eb757a234251ddb9ab872","609a8bf73b2ac84e2732f618","609d7a5711af14a026782cf8","348.3550000019022","","","","90","","","","key","16.669809523809125","683","328.5","","","","","","","","","","","","","","","","","","","",""
"psychophysics","196","399981","0.0-16.0-0.8","5e5eb757a234251ddb9ab872","609a8bf73b2ac84e2732f618","609d7a5711af14a026782cf8","null","","","","null","","","","key","16.659540540540302","683","328.5","","","","","","","","","","","","","","","","","","","",""
"psychophysics","197","400497","0.0-16.0-1.8","5e5eb757a234251ddb9ab872","609a8bf73b2ac84e2732f618","609d7a5711af14a026782cf8","null","","","","null","","","","key","16.66546666666594","683","328.5","","","","","","","","","","","","","143","1","6","false","","","",""
"psychophysics","198","400811","0.0-16.0-2.8","5e5eb757a234251ddb9ab872","609a8bf73b2ac84e2732f618","609d7a5711af14a026782cf8","306.5150000002468","","","","77","","","","key","16.6676111111107","683","328.5","","","","","","","","","","","","","","","","","","","",""
"psychophysics","199","401431","0.0-16.0-0.9","5e5eb757a234251ddb9ab872","609a8bf73b2ac84e2732f618","609d7a5711af14a026782cf8","null","","","","null","","","","key","16.663567567566673","683","328.5","","","","","","","","","","","","","","","","","","","",""
"psychophysics","200","401944","0.0-16.0-1.9","5e5eb757a234251ddb9ab872","609a8bf73b2ac84e2732f618","609d7a5711af14a026782cf8","null","","","","null","","","","key","16.663620689655012","683","328.5","","","","","","","","","","","","","143","1","4","false","","","",""
"psychophysics","201","402159","0.0-16.0-2.9","5e5eb757a234251ddb9ab872","609a8bf73b2ac84e2732f618","609d7a5711af14a026782cf8","212.25499999860767","","","","77","","","","key","16.687916666667054","683","328.5","","","","","","","","","","","","","","","","","","","",""
"psychophysics","202","403448","0.0-16.0-0.10","5e5eb757a234251ddb9ab872","609a8bf73b2ac84e2732f618","609d7a5711af14a026782cf8","null","","","","null","","","","key","16.665828947368457","683","328.5","","","","","","","","","","","","","","","","","","","",""
"psychophysics","203","403959","0.0-16.0-1.10","5e5eb757a234251ddb9ab872","609a8bf73b2ac84e2732f618","609d7a5711af14a026782cf8","null","","","","null","","","","key","16.65983333333279","683","328.5","","","","","","","","","","","","","143","-1","6","false","","","",""
"psychophysics","204","404450","0.0-16.0-2.10","5e5eb757a234251ddb9ab872","609a8bf73b2ac84e2732f618","609d7a5711af14a026782cf8","486.1249999994179","","","","77","","","","key","16.672571428571246","683","328.5","","","","","","","","","","","","","","","","","","","",""
"psychophysics","205","405198","0.0-16.0-0.11","5e5eb757a234251ddb9ab872","609a8bf73b2ac84e2732f618","609d7a5711af14a026782cf8","null","","","","null","","","","key","16.66913636363593","683","328.5","","","","","","","","","","","","","","","","","","","",""
"psychophysics","206","405705","0.0-16.0-1.11","5e5eb757a234251ddb9ab872","609a8bf73b2ac84e2732f618","609d7a5711af14a026782cf8","null","","","","null","","","","key","16.664600000000792","683","328.5","","","","","","","","","","","","","143","-1","3","false","","","",""
"psychophysics","207","405904","0.0-16.0-2.11","5e5eb757a234251ddb9ab872","609a8bf73b2ac84e2732f618","609d7a5711af14a026782cf8","196.18500000069616","","","","77","","","","key","16.656636363636196","683","328.5","","","","","","","","","","","","","","","","","","","",""
"psychophysics","208","407375","0.0-16.0-0.12","5e5eb757a234251ddb9ab872","609a8bf73b2ac84e2732f618","609d7a5711af14a026782cf8","null","","","","null","","","","key","16.66520689655197","683","328.5","","","","","","","","","","","","","","","","","","","",""
"psychophysics","209","407881","0.0-16.0-1.12","5e5eb757a234251ddb9ab872","609a8bf73b2ac84e2732f618","609d7a5711af14a026782cf8","null","","","","null","","","","key","16.667241379311548","683","328.5","","","","","","","","","","","","","143","-1","0","false","","","",""
"psychophysics","210","408475","0.0-16.0-2.12","5e5eb757a234251ddb9ab872","609a8bf73b2ac84e2732f618","609d7a5711af14a026782cf8","585.5499999998137","","","","77","","","","key","16.661942857143003","683","328.5","","","","","","","","","","","","","","","","","","","",""
"psychophysics","211","409331","0.0-16.0-0.13","5e5eb757a234251ddb9ab872","609a8bf73b2ac84e2732f618","609d7a5711af14a026782cf8","null","","","","null","","","","key","16.67011999999988","683","328.5","","","","","","","","","","","","","","","","","","","",""
"psychophysics","212","409839","0.0-16.0-1.13","5e5eb757a234251ddb9ab872","609a8bf73b2ac84e2732f618","609d7a5711af14a026782cf8","null","","","","null","","","","key","16.661099999999472","683","328.5","","","","","","","","","","","","","143","1","6","false","","","",""
"psychophysics","213","410935","0.0-16.0-2.13","5e5eb757a234251ddb9ab872","609a8bf73b2ac84e2732f618","609d7a5711af14a026782cf8","1091.9450000001816","","","","77","","","","key","16.664138461538375","683","328.5","","","","","","","","","","","","","","","","","","","",""
"psychophysics","214","412278","0.0-16.0-0.14","5e5eb757a234251ddb9ab872","609a8bf73b2ac84e2732f618","609d7a5711af14a026782cf8","null","","","","null","","","","key","16.66477215189864","683","328.5","","","","","","","","","","","","","","","","","","","",""
"psychophysics","215","412784","0.0-16.0-1.14","5e5eb757a234251ddb9ab872","609a8bf73b2ac84e2732f618","609d7a5711af14a026782cf8","null","","","","null","","","","key","16.67093333333226","683","328.5","","","","","","","","","","","","","143","-1","3","false","","","",""
"psychophysics","216","413278","0.0-16.0-2.14","5e5eb757a234251ddb9ab872","609a8bf73b2ac84e2732f618","609d7a5711af14a026782cf8","490.4549999991432","","","","77","","","","key","16.663285714287277","683","328.5","","","","","","","","","","","","","","","","","","","",""
"psychophysics","217","414219","0.0-16.0-0.15","5e5eb757a234251ddb9ab872","609a8bf73b2ac84e2732f618","609d7a5711af14a026782cf8","null","","","","null","","","","key","16.665553571428713","683","328.5","","","","","","","","","","","","","","","","","","","",""
"psychophysics","218","414721","0.0-16.0-1.15","5e5eb757a234251ddb9ab872","609a8bf73b2ac84e2732f618","609d7a5711af14a026782cf8","null","","","","null","","","","key","16.664689655172847","683","328.5","","","","","","","","","","","","","143","-1","5","false","","","",""
"psychophysics","219","415216","0.0-16.0-2.15","5e5eb757a234251ddb9ab872","609a8bf73b2ac84e2732f618","609d7a5711af14a026782cf8","490.55000000225846","","","","77","","","","key","16.664999999999832","683","328.5","","","","","","","","","","","","","","","","","","","",""
"psychophysics","220","416517","0.0-16.0-0.16","5e5eb757a234251ddb9ab872","609a8bf73b2ac84e2732f618","609d7a5711af14a026782cf8","null","","","","null","","","","key","16.664769230769405","683","328.5","","","","","","","","","","","","","","","","","","","",""
"psychophysics","221","417019","0.0-16.0-1.16","5e5eb757a234251ddb9ab872","609a8bf73b2ac84e2732f618","609d7a5711af14a026782cf8","null","","","","null","","","","key","16.666000000000448","683","328.5","","","","","","","","","","","","","143","-1","4","false","","","",""
"psychophysics","222","417502","0.0-16.0-2.16","5e5eb757a234251ddb9ab872","609a8bf73b2ac84e2732f618","609d7a5711af14a026782cf8","480.6449999996694","","","","77","","","","key","16.665928571428854","683","328.5","","","","","","","","","","","","","","","","","","","",""
"psychophysics","223","418180","0.0-16.0-0.17","5e5eb757a234251ddb9ab872","609a8bf73b2ac84e2732f618","609d7a5711af14a026782cf8","null","","","","null","","","","key","16.664307692307585","683","328.5","","","","","","","","","","","","","","","","","","","",""
"psychophysics","224","418684","0.0-16.0-1.17","5e5eb757a234251ddb9ab872","609a8bf73b2ac84e2732f618","609d7a5711af14a026782cf8","null","","","","null","","","","key","16.665133333332292","683","328.5","","","","","","","","","","","","","143","1","3","false","","","",""
"psychophysics","225","419120","0.0-16.0-2.17","5e5eb757a234251ddb9ab872","609a8bf73b2ac84e2732f618","609d7a5711af14a026782cf8","433.0149999987334","","","","90","","","","key","16.664760000000243","683","328.5","","","","","","","","","","","","","","","","","","","",""
"psychophysics","226","420521","0.0-16.0-0.18","5e5eb757a234251ddb9ab872","609a8bf73b2ac84e2732f618","609d7a5711af14a026782cf8","null","","","","null","","","","key","16.665108433735266","683","328.5","","","","","","","","","","","","","","","","","","","",""
"psychophysics","227","421024","0.0-16.0-1.18","5e5eb757a234251ddb9ab872","609a8bf73b2ac84e2732f618","609d7a5711af14a026782cf8","null","","","","null","","","","key","16.666241379310215","683","328.5","","","","","","","","","","","","","143","1","4","false","","","",""
"psychophysics","228","421384","0.0-16.0-2.18","5e5eb757a234251ddb9ab872","609a8bf73b2ac84e2732f618","609d7a5711af14a026782cf8","357.449999999546","","","","77","","","","key","16.663809523809636","683","328.5","","","","","","","","","","","","","","","","","","","",""
"psychophysics","229","422471","0.0-16.0-0.19","5e5eb757a234251ddb9ab872","609a8bf73b2ac84e2732f618","609d7a5711af14a026782cf8","null","","","","null","","","","key","16.66521875000035","683","328.5","","","","","","","","","","","","","","","","","","","",""
"psychophysics","230","422973","0.0-16.0-1.19","5e5eb757a234251ddb9ab872","609a8bf73b2ac84e2732f618","609d7a5711af14a026782cf8","null","","","","null","","","","key","16.66437931034457","683","328.5","","","","","","","","","","","","","143","-1","2","false","","","",""
"psychophysics","231","423417","0.0-16.0-2.19","5e5eb757a234251ddb9ab872","609a8bf73b2ac84e2732f618","609d7a5711af14a026782cf8","441.4799999977113","","","","90","","","","key","16.665","683","328.5","","","","","","","","","","","","","","","","","","","",""
"psychophysics","232","424299","0.0-16.0-0.20","5e5eb757a234251ddb9ab872","609a8bf73b2ac84e2732f618","609d7a5711af14a026782cf8","null","","","","null","","","","key","16.665037735848564","683","328.5","","","","","","","","","","","","","","","","","","","",""
"psychophysics","233","424802","0.0-16.0-1.20","5e5eb757a234251ddb9ab872","609a8bf73b2ac84e2732f618","609d7a5711af14a026782cf8","null","","","","null","","","","key","16.665000000001125","683","328.5","","","","","","","","","","","","","143","1","2","false","","","",""
"psychophysics","234","425318","0.0-16.0-2.20","5e5eb757a234251ddb9ab872","609a8bf73b2ac84e2732f618","609d7a5711af14a026782cf8","513.315000000177","","","","90","","","","key","16.664466666666947","683","328.5","","","","","","","","","","","","","","","","","","","",""
"psychophysics","235","426436","0.0-16.0-0.21","5e5eb757a234251ddb9ab872","609a8bf73b2ac84e2732f618","609d7a5711af14a026782cf8","null","","","","null","","","","key","16.66546969696929","683","328.5","","","","","","","","","","","","","","","","","","","",""
"psychophysics","236","426938","0.0-16.0-1.21","5e5eb757a234251ddb9ab872","609a8bf73b2ac84e2732f618","609d7a5711af14a026782cf8","null","","","","null","","","","key","16.668379310345887","683","328.5","","","","","","","","","","","","","143","1","5","false","","","",""
"psychophysics","237","427258","0.0-16.0-2.21","5e5eb757a234251ddb9ab872","609a8bf73b2ac84e2732f618","609d7a5711af14a026782cf8","317.0900000004913","","","","77","","","","key","16.66450000000057","683","328.5","","","","","","","","","","","","","","","","","","","",""
"psychophysics","238","428415","0.0-16.0-0.22","5e5eb757a234251ddb9ab872","609a8bf73b2ac84e2732f618","609d7a5711af14a026782cf8","null","","","","null","","","","key","16.66555072463782","683","328.5","","","","","","","","","","","","","","","","","","","",""
"psychophysics","239","428919","0.0-16.0-1.22","5e5eb757a234251ddb9ab872","609a8bf73b2ac84e2732f618","609d7a5711af14a026782cf8","null","","","","null","","","","key","16.665068965517627","683","328.5","","","","","","","","","","","","","143","-1","6","false","","","",""
"psychophysics","240","429188","0.0-16.0-2.22","5e5eb757a234251ddb9ab872","609a8bf73b2ac84e2732f618","609d7a5711af14a026782cf8","266.40000000043074","","","","77","","","","key","16.664999999998447","683","328.5","","","","","","","","","","","","","","","","","","","",""
"psychophysics","241","430283","0.0-16.0-0.23","5e5eb757a234251ddb9ab872","609a8bf73b2ac84e2732f618","609d7a5711af14a026782cf8","null","","","","null","","","","key","16.664861538461768","683","328.5","","","","","","","","","","","","","","","","","","","",""
"psychophysics","242","430786","0.0-16.0-1.23","5e5eb757a234251ddb9ab872","609a8bf73b2ac84e2732f618","609d7a5711af14a026782cf8","null","","","","null","","","","key","16.668172413794373","683","328.5","","","","","","","","","","","","","143","1","0","false","","","",""
"psychophysics","243","431128","0.0-16.0-2.23","5e5eb757a234251ddb9ab872","609a8bf73b2ac84e2732f618","609d7a5711af14a026782cf8","322.215000000142","","","","77","","","","key","16.667631578947248","683","328.5","","","","","","","","","","","","","","","","","","","",""
"html-keyboard-response","244","434871","0.0-17.0","5e5eb757a234251ddb9ab872","609a8bf73b2ac84e2732f618","609d7a5711af14a026782cf8","3737.890000000305","<p>Well Done !</p><p>Training Complete. Press the spacebar to start.</p><p>DON'T EXIT THE FULL SCREEN MODE</p>","","","32","","","","","","","","","","","","","","","","","","","","","","","","","","",""
"psychophysics","245","437877","0.0-18.0-0.0","5e5eb757a234251ddb9ab872","609a8bf73b2ac84e2732f618","609d7a5711af14a026782cf8","null","","","","null","","","","key","16.666169491525487","683","328.5","","","","","","","","","","","","","","","","","","","",""
"psychophysics","246","438379","0.0-18.0-1.0","5e5eb757a234251ddb9ab872","609a8bf73b2ac84e2732f618","609d7a5711af14a026782cf8","null","","","","null","","","","key","16.674666666666358","683","328.5","","","","","","","","","","","","","143","-1","6","true","","","",""
"psychophysics","247","438964","0.0-18.0-2.0","5e5eb757a234251ddb9ab872","609a8bf73b2ac84e2732f618","609d7a5711af14a026782cf8","578.7549999986077","","","","77","","","","key","16.660176470588127","683","328.5","","","","","","","","","","","","","","","","","","","",""
"psychophysics","248","439839","0.0-18.0-0.1","5e5eb757a234251ddb9ab872","609a8bf73b2ac84e2732f618","609d7a5711af14a026782cf8","null","","","","null","","","","key","16.666313725490554","683","328.5","","","","","","","","","","","","","","","","","","","",""
"psychophysics","249","440342","0.0-18.0-1.1","5e5eb757a234251ddb9ab872","609a8bf73b2ac84e2732f618","609d7a5711af14a026782cf8","null","","","","null","","","","key","16.666655172413247","683","328.5","","","","","","","","","","","","","143","1","5","true","","","",""
"psychophysics","250","440535","0.0-18.0-2.1","5e5eb757a234251ddb9ab872","609a8bf73b2ac84e2732f618","609d7a5711af14a026782cf8","185.81499999709195","","","","77","","","","key","16.680909090908244","683","328.5","","","","","","","","","","","","","","","","","","","",""
"psychophysics","251","441912","0.0-18.0-0.2","5e5eb757a234251ddb9ab872","609a8bf73b2ac84e2732f618","609d7a5711af14a026782cf8","null","","","","null","","","","key","16.66613580246907","683","328.5","","","","","","","","","","","","","","","","","","","",""
"psychophysics","252","442417","0.0-18.0-1.2","5e5eb757a234251ddb9ab872","609a8bf73b2ac84e2732f618","609d7a5711af14a026782cf8","null","","","","null","","","","key","16.667599999999705","683","328.5","","","","","","","","","","","","","143","1","3","true","","","",""
"psychophysics","253","442719","0.0-18.0-2.2","5e5eb757a234251ddb9ab872","609a8bf73b2ac84e2732f618","609d7a5711af14a026782cf8","298.4550000000745","","","","77","","","","key","16.6662352941177","683","328.5","","","","","","","","","","","","","","","","","","","",""
"psychophysics","254","443290","0.0-18.0-0.3","5e5eb757a234251ddb9ab872","609a8bf73b2ac84e2732f618","609d7a5711af14a026782cf8","null","","","","null","","","","key","16.665545454545114","683","328.5","","","","","","","","","","","","","","","","","","","",""
"psychophysics","255","443795","0.0-18.0-1.3","5e5eb757a234251ddb9ab872","609a8bf73b2ac84e2732f618","609d7a5711af14a026782cf8","null","","","","null","","","","key","16.66117241379307","683","328.5","","","","","","","","","","","","","143","1","6","true","","","",""
"psychophysics","256","444250","0.0-18.0-2.3","5e5eb757a234251ddb9ab872","609a8bf73b2ac84e2732f618","609d7a5711af14a026782cf8","447.8000000017346","","","","77","","","","key","16.665703703703237","683","328.5","","","","","","","","","","","","","","","","","","","",""
"psychophysics","257","445545","0.0-18.0-0.4","5e5eb757a234251ddb9ab872","609a8bf73b2ac84e2732f618","609d7a5711af14a026782cf8","null","","","","null","","","","key","16.66615789473642","683","328.5","","","","","","","","","","","","","","","","","","","",""
"psychophysics","258","446061","0.0-18.0-1.4","5e5eb757a234251ddb9ab872","609a8bf73b2ac84e2732f618","609d7a5711af14a026782cf8","null","","","","null","","","","key","16.66536666666701","683","328.5","","","","","","","","","","","","","143","-1","5","true","","","",""
"psychophysics","259","446848","0.0-18.0-2.4","5e5eb757a234251ddb9ab872","609a8bf73b2ac84e2732f618","609d7a5711af14a026782cf8","777.9349999981932","","","","77","","","","key","16.661042553190626","683","328.5","","","","","","","","","","","","","","","","","","","",""
"psychophysics","260","448294","0.0-18.0-0.5","5e5eb757a234251ddb9ab872","609a8bf73b2ac84e2732f618","609d7a5711af14a026782cf8","null","","","","null","","","","key","16.66787058823564","683","328.5","","","","","","","","","","","","","","","","","","","",""
"psychophysics","261","448808","0.0-18.0-1.5","5e5eb757a234251ddb9ab872","609a8bf73b2ac84e2732f618","609d7a5711af14a026782cf8","null","","","","null","","","","key","16.663566666666885","683","328.5","","","","","","","","","","","","","143","-1","3","true","","","",""
"psychophysics","262","449200","0.0-18.0-2.5","5e5eb757a234251ddb9ab872","609a8bf73b2ac84e2732f618","609d7a5711af14a026782cf8","382.2099999997299","","","","90","","","","key","16.659260869565237","683","328.5","","","","","","","","","","","","","","","","","","","",""
"psychophysics","263","450478","0.0-18.0-0.6","5e5eb757a234251ddb9ab872","609a8bf73b2ac84e2732f618","609d7a5711af14a026782cf8","null","","","","null","","","","key","16.668986666666655","683","328.5","","","","","","","","","","","","","","","","","","","",""
"psychophysics","264","450988","0.0-18.0-1.6","5e5eb757a234251ddb9ab872","609a8bf73b2ac84e2732f618","609d7a5711af14a026782cf8","null","","","","null","","","","key","16.666133333333224","683","328.5","","","","","","","","","","","","","143","1","4","true","","","",""
"psychophysics","265","451185","0.0-18.0-2.6","5e5eb757a234251ddb9ab872","609a8bf73b2ac84e2732f618","609d7a5711af14a026782cf8","192.97499999811407","","","","77","","","","key","16.673454545459457","683","328.5","","","","","","","","","","","","","","","","","","","",""
"psychophysics","266","452330","0.0-18.0-0.7","5e5eb757a234251ddb9ab872","609a8bf73b2ac84e2732f618","609d7a5711af14a026782cf8","null","","","","null","","","","key","16.66216176470591","683","328.5","","","","","","","","","","","","","","","","","","","",""
"psychophysics","267","452844","0.0-18.0-1.7","5e5eb757a234251ddb9ab872","609a8bf73b2ac84e2732f618","609d7a5711af14a026782cf8","null","","","","null","","","","key","16.669931034483255","683","328.5","","","","","","","","","","","","","143","-1","4","true","","","",""
"psychophysics","268","453187","0.0-18.0-2.7","5e5eb757a234251ddb9ab872","609a8bf73b2ac84e2732f618","609d7a5711af14a026782cf8","332.395000001241","","","","77","","","","key","16.664999999999417","683","328.5","","","","","","","","","","","","","","","","","","","",""
"psychophysics","269","454611","0.0-18.0-0.8","5e5eb757a234251ddb9ab872","609a8bf73b2ac84e2732f618","609d7a5711af14a026782cf8","null","","","","null","","","","key","16.664619047618803","683","328.5","","","","","","","","","","","","","","","","","","","",""
"psychophysics","270","455127","0.0-18.0-1.8","5e5eb757a234251ddb9ab872","609a8bf73b2ac84e2732f618","609d7a5711af14a026782cf8","null","","","","null","","","","key","16.671000000000156","683","328.5","","","","","","","","","","","","","143","1","0","true","","","",""
"psychophysics","271","455331","0.0-18.0-2.8","5e5eb757a234251ddb9ab872","609a8bf73b2ac84e2732f618","609d7a5711af14a026782cf8","194.85500000149477","","","","90","","","","key","16.650666666668258","683","328.5","","","","","","","","","","","","","","","","","","","",""
"psychophysics","272","456324","0.0-18.0-0.9","5e5eb757a234251ddb9ab872","609a8bf73b2ac84e2732f618","609d7a5711af14a026782cf8","null","","","","null","","","","key","16.662448275862424","683","328.5","","","","","","","","","","","","","","","","","","","",""
"psychophysics","273","456828","0.0-18.0-1.9","5e5eb757a234251ddb9ab872","609a8bf73b2ac84e2732f618","609d7a5711af14a026782cf8","null","","","","null","","","","key","16.670344827586288","683","328.5","","","","","","","","","","","","","143","1","2","true","","","",""
"psychophysics","274","456969","0.0-18.0-2.9","5e5eb757a234251ddb9ab872","609a8bf73b2ac84e2732f618","609d7a5711af14a026782cf8","131.6899999983725","","","","90","","","","key","16.686750000000757","683","328.5","","","","","","","","","","","","","","","","","","","",""
"psychophysics","275","457946","0.0-18.0-0.10","5e5eb757a234251ddb9ab872","609a8bf73b2ac84e2732f618","609d7a5711af14a026782cf8","null","","","","null","","","","key","16.663413793103498","683","328.5","","","","","","","","","","","","","","","","","","","",""
"psychophysics","276","458459","0.0-18.0-1.10","5e5eb757a234251ddb9ab872","609a8bf73b2ac84e2732f618","609d7a5711af14a026782cf8","null","","","","null","","","","key","16.670586206896054","683","328.5","","","","","","","","","","","","","143","-1","2","true","","","",""
"psychophysics","277","458652","0.0-18.0-2.10","5e5eb757a234251ddb9ab872","609a8bf73b2ac84e2732f618","609d7a5711af14a026782cf8","184.1500000009546","","","","77","","","","key","16.675090909088876","683","328.5","","","","","","","","","","","","","","","","","","","",""
"psychophysics","278","459943","0.0-18.0-0.11","5e5eb757a234251ddb9ab872","609a8bf73b2ac84e2732f618","609d7a5711af14a026782cf8","null","","","","null","","","","key","16.665842105263053","683","328.5","","","","","","","","","","","","","","","","","","","",""
"psychophysics","279","460452","0.0-18.0-1.11","5e5eb757a234251ddb9ab872","609a8bf73b2ac84e2732f618","609d7a5711af14a026782cf8","null","","","","null","","","","key","16.667166666667132","683","328.5","","","","","","","","","","","","","143","-1","0","true","","","",""
"psychophysics","280","460788","0.0-18.0-2.11","5e5eb757a234251ddb9ab872","609a8bf73b2ac84e2732f618","609d7a5711af14a026782cf8","309.04999999981374","","","","90","","","","key","16.66715789473873","683","328.5","","","","","","","","","","","","","","","","","","","",""
"psychophysics","281","462277","0.0-18.0-0.12","5e5eb757a234251ddb9ab872","609a8bf73b2ac84e2732f618","609d7a5711af14a026782cf8","null","","","","null","","","","key","16.666477272727537","683","328.5","","","","","","","","","","","","","","","","","","","",""
"psychophysics","282","462794","0.0-18.0-1.12","5e5eb757a234251ddb9ab872","609a8bf73b2ac84e2732f618","609d7a5711af14a026782cf8","null","","","","null","","","","key","16.66610000000025","683","328.5","","","","","","","","","","","","","143","-1","2","true","","","",""
"psychophysics","283","462987","0.0-18.0-2.12","5e5eb757a234251ddb9ab872","609a8bf73b2ac84e2732f618","609d7a5711af14a026782cf8","184.10500000033062","","","","90","","","","key","16.65581818181619","683","328.5","","","","","","","","","","","","","","","","","","","",""
"psychophysics","284","464193","0.0-18.0-0.13","5e5eb757a234251ddb9ab872","609a8bf73b2ac84e2732f618","609d7a5711af14a026782cf8","null","","","","null","","","","key","16.664915492957373","683","328.5","","","","","","","","","","","","","","","","","","","",""
"psychophysics","285","464708","0.0-18.0-1.13","5e5eb757a234251ddb9ab872","609a8bf73b2ac84e2732f618","609d7a5711af14a026782cf8","null","","","","null","","","","key","16.670833333333334","683","328.5","","","","","","","","","","","","","143","-1","3","true","","","",""
"psychophysics","286","464919","0.0-18.0-2.13","5e5eb757a234251ddb9ab872","609a8bf73b2ac84e2732f618","609d7a5711af14a026782cf8","201.63999999931548","","","","77","","","","key","16.683833333333798","683","328.5","","","","","","","","","","","","","","","","","","","",""
"psychophysics","287","466198","0.0-18.0-0.14","5e5eb757a234251ddb9ab872","609a8bf73b2ac84e2732f618","609d7a5711af14a026782cf8","null","","","","null","","","","key","16.665421052631388","683","328.5","","","","","","","","","","","","","","","","","","","",""
"psychophysics","288","466704","0.0-18.0-1.14","5e5eb757a234251ddb9ab872","609a8bf73b2ac84e2732f618","609d7a5711af14a026782cf8","null","","","","null","","","","key","16.668068965517612","683","328.5","","","","","","","","","","","","","143","-1","4","true","","","",""
"psychophysics","289","466888","0.0-18.0-2.14","5e5eb757a234251ddb9ab872","609a8bf73b2ac84e2732f618","609d7a5711af14a026782cf8","168.23500000097556","","","","77","","","","key","16.67839999999851","683","328.5","","","","","","","","","","","","","","","","","","","",""
"psychophysics","290","468060","0.0-18.0-0.15","5e5eb757a234251ddb9ab872","609a8bf73b2ac84e2732f618","609d7a5711af14a026782cf8","null","","","","null","","","","key","16.665724637681127","683","328.5","","","","","","","","","","","","","","","","","","","",""
"psychophysics","291","468574","0.0-18.0-1.15","5e5eb757a234251ddb9ab872","609a8bf73b2ac84e2732f618","609d7a5711af14a026782cf8","null","","","","null","","","","key","16.656399999999362","683","328.5","","","","","","","","","","","","","143","-1","0","true","","","",""
"psychophysics","292","468669","0.0-18.0-2.15","5e5eb757a234251ddb9ab872","609a8bf73b2ac84e2732f618","609d7a5711af14a026782cf8","87.54500000213739","","","","77","","","","key","16.67039999999106","683","328.5","","","","","","","","","","","","","","","","","","","",""
"psychophysics","293","469826","0.0-18.0-0.16","5e5eb757a234251ddb9ab872","609a8bf73b2ac84e2732f618","609d7a5711af14a026782cf8","null","","","","null","","","","key","16.66488235294117","683","328.5","","","","","","","","","","","","","","","","","","","",""
"psychophysics","294","470343","0.0-18.0-1.16","5e5eb757a234251ddb9ab872","609a8bf73b2ac84e2732f618","609d7a5711af14a026782cf8","null","","","","null","","","","key","16.66506666666634","683","328.5","","","","","","","","","","","","","143","1","6","true","","","",""
"psychophysics","295","470532","0.0-18.0-2.16","5e5eb757a234251ddb9ab872","609a8bf73b2ac84e2732f618","609d7a5711af14a026782cf8","181.9500000019907","","","","77","","","","key","16.66609090909002","683","328.5","","","","","","","","","","","","","","","","","","","",""
"psychophysics","296","471172","0.0-18.0-0.17","5e5eb757a234251ddb9ab872","609a8bf73b2ac84e2732f618","609d7a5711af14a026782cf8","null","","","","null","","","","key","16.671459459458994","683","328.5","","","","","","","","","","","","","","","","","","","",""
"psychophysics","297","471676","0.0-18.0-1.17","5e5eb757a234251ddb9ab872","609a8bf73b2ac84e2732f618","609d7a5711af14a026782cf8","null","","","","null","","","","key","16.662793103446944","683","328.5","","","","","","","","","","","","","143","-1","6","true","","","",""
"psychophysics","298","472007","0.0-18.0-2.17","5e5eb757a234251ddb9ab872","609a8bf73b2ac84e2732f618","609d7a5711af14a026782cf8","323.60999999940395","","","","77","","","","key","16.668473684210575","683","328.5","","","","","","","","","","","","","","","","","","","",""
"psychophysics","299","472525","0.0-18.0-0.18","5e5eb757a234251ddb9ab872","609a8bf73b2ac84e2732f618","609d7a5711af14a026782cf8","null","","","","null","","","","key","16.664666666666744","683","328.5","","","","","","","","","","","","","","","","","","","",""
"psychophysics","300","473042","0.0-18.0-1.18","5e5eb757a234251ddb9ab872","609a8bf73b2ac84e2732f618","609d7a5711af14a026782cf8","null","","","","null","","","","key","16.664833333333565","683","328.5","","","","","","","","","","","","","143","-1","5","true","","","",""
"psychophysics","301","473289","0.0-18.0-2.18","5e5eb757a234251ddb9ab872","609a8bf73b2ac84e2732f618","609d7a5711af14a026782cf8","241.0199999976321","","","","77","","","","key","16.66649999999624","683","328.5","","","","","","","","","","","","","","","","","","","",""
"psychophysics","302","474660","0.0-18.0-0.19","5e5eb757a234251ddb9ab872","609a8bf73b2ac84e2732f618","609d7a5711af14a026782cf8","null","","","","null","","","","key","16.66559756097523","683","328.5","","","","","","","","","","","","","","","","","","","",""
"psychophysics","303","475164","0.0-18.0-1.19","5e5eb757a234251ddb9ab872","609a8bf73b2ac84e2732f618","609d7a5711af14a026782cf8","null","","","","null","","","","key","16.664931034482613","683","328.5","","","","","","","","","","","","","143","1","0","true","","","",""
"psychophysics","304","475555","0.0-18.0-2.19","5e5eb757a234251ddb9ab872","609a8bf73b2ac84e2732f618","609d7a5711af14a026782cf8","368.655000002007","","","","90","","","","key","16.66781818181996","683","328.5","","","","","","","","","","","","","","","","","","","",""
"psychophysics","305","476144","0.0-18.0-0.20","5e5eb757a234251ddb9ab872","609a8bf73b2ac84e2732f618","609d7a5711af14a026782cf8","null","","","","null","","","","key","16.66594285714174","683","328.5","","","","","","","","","","","","","","","","","","","",""
"psychophysics","306","476659","0.0-18.0-1.20","5e5eb757a234251ddb9ab872","609a8bf73b2ac84e2732f618","609d7a5711af14a026782cf8","null","","","","null","","","","key","16.674206896550583","683","328.5","","","","","","","","","","","","","143","1","3","true","","","",""
"psychophysics","307","477119","0.0-18.0-2.20","5e5eb757a234251ddb9ab872","609a8bf73b2ac84e2732f618","609d7a5711af14a026782cf8","450.5250000002561","","","","77","","","","key","16.666740740742103","683","328.5","","","","","","","","","","","","","","","","","","","",""
"psychophysics","308","478444","0.0-18.0-0.21","5e5eb757a234251ddb9ab872","609a8bf73b2ac84e2732f618","609d7a5711af14a026782cf8","null","","","","null","","","","key","16.663177215189915","683","328.5","","","","","","","","","","","","","","","","","","","",""
"psychophysics","309","478954","0.0-18.0-1.21","5e5eb757a234251ddb9ab872","609a8bf73b2ac84e2732f618","609d7a5711af14a026782cf8","null","","","","null","","","","key","16.66489655172436","683","328.5","","","","","","","","","","","","","143","1","2","true","","","",""
"psychophysics","310","479239","0.0-18.0-2.21","5e5eb757a234251ddb9ab872","609a8bf73b2ac84e2732f618","609d7a5711af14a026782cf8","282.2649999979767","","","","77","","","","key","16.665625000001455","683","328.5","","","","","","","","","","","","","","","","","","","",""
"psychophysics","311","479802","0.0-18.0-0.22","5e5eb757a234251ddb9ab872","609a8bf73b2ac84e2732f618","609d7a5711af14a026782cf8","null","","","","null","","","","key","16.664121212122016","683","328.5","","","","","","","","","","","","","","","","","","","",""
"psychophysics","312","480306","0.0-18.0-1.22","5e5eb757a234251ddb9ab872","609a8bf73b2ac84e2732f618","609d7a5711af14a026782cf8","null","","","","null","","","","key","16.664551724137834","683","328.5","","","","","","","","","","","","","143","1","4","true","","","",""
"psychophysics","313","480735","0.0-18.0-2.22","5e5eb757a234251ddb9ab872","609a8bf73b2ac84e2732f618","609d7a5711af14a026782cf8","421.8150000015157","","","","77","","","","key","16.664000000001398","683","328.5","","","","","","","","","","","","","","","","","","","",""
"psychophysics","314","481821","0.0-18.0-0.23","5e5eb757a234251ddb9ab872","609a8bf73b2ac84e2732f618","609d7a5711af14a026782cf8","null","","","","null","","","","key","16.665234375000182","683","328.5","","","","","","","","","","","","","","","","","","","",""
"psychophysics","315","482325","0.0-18.0-1.23","5e5eb757a234251ddb9ab872","609a8bf73b2ac84e2732f618","609d7a5711af14a026782cf8","null","","","","null","","","","key","16.664551724137834","683","328.5","","","","","","","","","","","","","143","1","5","true","","","",""
"psychophysics","316","482939","0.0-18.0-2.23","5e5eb757a234251ddb9ab872","609a8bf73b2ac84e2732f618","609d7a5711af14a026782cf8","607.3450000003213","","","","90","","","","key","16.66450000000057","683","328.5","","","","","","","","","","","","","","","","","","","",""
"psychophysics","317","483755","0.0-18.0-0.24","5e5eb757a234251ddb9ab872","609a8bf73b2ac84e2732f618","609d7a5711af14a026782cf8","null","","","","null","","","","key","16.66629166666583","683","328.5","","","","","","","","","","","","","","","","","","","",""
"psychophysics","318","484260","0.0-18.0-1.24","5e5eb757a234251ddb9ab872","609a8bf73b2ac84e2732f618","609d7a5711af14a026782cf8","null","","","","null","","","","key","16.664133333333304","683","328.5","","","","","","","","","","","","","143","-1","2","true","","","",""
"psychophysics","319","484613","0.0-18.0-2.24","5e5eb757a234251ddb9ab872","609a8bf73b2ac84e2732f618","609d7a5711af14a026782cf8","349.52999999950407","","","","77","","","","key","16.665149999997812","683","328.5","","","","","","","","","","","","","","","","","","","",""
"psychophysics","320","485441","0.0-18.0-0.25","5e5eb757a234251ddb9ab872","609a8bf73b2ac84e2732f618","609d7a5711af14a026782cf8","null","","","","null","","","","key","16.665395833333605","683","328.5","","","","","","","","","","","","","","","","","","","",""
"psychophysics","321","485949","0.0-18.0-1.25","5e5eb757a234251ddb9ab872","609a8bf73b2ac84e2732f618","609d7a5711af14a026782cf8","null","","","","null","","","","key","16.664933333334435","683","328.5","","","","","","","","","","","","","143","1","2","true","","","",""
"psychophysics","322","486090","0.0-18.0-2.25","5e5eb757a234251ddb9ab872","609a8bf73b2ac84e2732f618","609d7a5711af14a026782cf8","137.0649999990128","","","","90","","","","key","16.676714285717544","683","328.5","","","","","","","","","","","","","","","","","","","",""
"psychophysics","323","487496","0.0-18.0-0.26","5e5eb757a234251ddb9ab872","609a8bf73b2ac84e2732f618","609d7a5711af14a026782cf8","null","","","","null","","","","key","16.667154761905078","683","328.5","","","","","","","","","","","","","","","","","","","",""
"psychophysics","324","488008","0.0-18.0-1.26","5e5eb757a234251ddb9ab872","609a8bf73b2ac84e2732f618","609d7a5711af14a026782cf8","null","","","","null","","","","key","16.67058620689806","683","328.5","","","","","","","","","","","","","143","-1","3","true","","","",""
"psychophysics","325","488280","0.0-18.0-2.26","5e5eb757a234251ddb9ab872","609a8bf73b2ac84e2732f618","609d7a5711af14a026782cf8","263.2800000028801","","","","90","","","","key","16.65381250000064","683","328.5","","","","","","","","","","","","","","","","","","","",""
"psychophysics","326","489107","0.0-18.0-0.27","5e5eb757a234251ddb9ab872","609a8bf73b2ac84e2732f618","609d7a5711af14a026782cf8","null","","","","null","","","","key","16.660583333333005","683","328.5","","","","","","","","","","","","","","","","","","","",""
"psychophysics","327","489624","0.0-18.0-1.27","5e5eb757a234251ddb9ab872","609a8bf73b2ac84e2732f618","609d7a5711af14a026782cf8","null","","","","null","","","","key","16.665333333334033","683","328.5","","","","","","","","","","","","","143","-1","6","true","","","",""
"psychophysics","328","489928","0.0-18.0-2.27","5e5eb757a234251ddb9ab872","609a8bf73b2ac84e2732f618","609d7a5711af14a026782cf8","297.4050000011339","","","","77","","","","key","16.667055555554626","683","328.5","","","","","","","","","","","","","","","","","","","",""
"psychophysics","329","490919","0.0-18.0-0.28","5e5eb757a234251ddb9ab872","609a8bf73b2ac84e2732f618","609d7a5711af14a026782cf8","null","","","","null","","","","key","16.669534482759353","683","328.5","","","","","","","","","","","","","","","","","","","",""
