"trial_type","trial_index","time_elapsed","internal_node_id","PROLIFIC_PID","STUDY_ID","SESSION_ID","rt","stimulus","button_pressed","success","key_press","responses","isData","view_history","response_type","avg_frame_time","center_x","center_y","isSC","stim_side","trial_luminance","step_size","nReversal","correct","prev_ans","isThreshold","SC_threshold","final_threshold","isLuminance","FF_luminance","luminance","stimSide","ISInt","isFF","question_order","isSPQ","isCAPS","isAQ"
"pavlovia","0","30","0.0-0.0","5a5679b58e6259000175bec5","609a8bf73b2ac84e2732f618","609d74fcdd736343ce8cbc89","","","","","","","","","","","","","","","","","","","","","","","","","","","","","","","",""
"html-button-response","1","16346","0.0-1.0","5a5679b58e6259000175bec5","609a8bf73b2ac84e2732f618","609d74fcdd736343ce8cbc89","16307.359999991604","<div style='background-color: white; width:60%; margin: auto; padding: 50px; text-align: justify; text-justify: inter-word; margin-bottom: 20px;'><h1 style='text-align: center;'>Consent Form</h1><p>Please read this consent form carefully before deciding whether you would like to participate in this study. You have to be 18 years old or older to participate to this study.</p><p style='text-decoration: underline;'>Participation is voluntary:</p><p>It is your choice whether or not to participate in this research. If you choose to participate, you may change your mind and leave the study at any time. Refusal to participate or stopping your participation will involve no penalty or loss of benefits to which you are otherwise entitled.</p><p style='text-decoration: underline;'>Purpose of the Study:</p><p>To understand the mechanisms underlying human perception.</p><p style='text-decoration: underline;'>What you will do in this study:</p><p>You will be presented with a series of visual images and then you will press buttons on the keyboard of your computer to respond to simple questions about the images (e.g. Were one or two images presented?). In addition, you will be asked to complete a questionnaire concerning your beliefs and everyday mental and perceptual experiences.'</p><p style='text-decoration: underline;'> Time Required:</p><p>The study will take 40 minutes to complete. </p><p style='text-decoration: underline;'>Risks:</p><p>There are no anticipated risks associated with participating in this study that are beyond those experienced in everyday life. </p><p style='text-decoration: underline;'>Benefits:</p><p>There are no benefits to you in participating in the study. However, this study may lead to a better understanding of how different kinds of visual information are used.</p><p style='text-decoration: underline;'>Compensation:</p><p>You will be paid US$6.6/hour. </p><p style='text-decoration: underline;'>Privacy and Confidentiality:</p><p>Your participation in this study will be anonymous. No personal information about your name or identity will be asked or recorded. This anonymous data will be stored for several years and may be used for a variety of research purposes. The overall results of the study may be published, or the data files may be shared with other researchers, but your identity will not be revealed in any way. The online services we are using for this study may temporarily store your data, but this data will be downloaded and then promptly deleted from those services.Your data will not be permanently associated with your name, IP address, or any other identifiable information (e.g., your information will only be connected to your payment, not to any of your responses), though they may be temporarily stored together before we download and separate them. Even so, no guarantee of internet survey security can be given because, although unlikely, transmissions can be intercepted and IP addresses can be identified. The anonymous data may be shared publicly (for example, in conjunction with a resulting academic publication).</p><p style='text-decoration: underline;'>Participation and Withdrawal:</p><p>Your participation in this study is completely voluntary. You may stop responding to the stimuli or stop answering questions if you so choose and without penalty by exiting the full screen mode, closing this tab of your browser or redirecting it to a different website.</p><p style='text-decoration: underline;'>Contact Info of the Researcher: </p><p>If you have questions about this study, or if you would like to talk to the research team, please contact David Melcher (david.melcher@nyu.edu, md5050@nyu.edu) at the Perception and Active Cognition Laboratory, New York University Abu Dhabi, Computational Research Building, Saadiyat Island, Abu Dhabi, UAE.This research has been reviewed by the New York University Abu Dhabi Institutional Review Board (NYUAD IRB). To contact about your rights in this research, for questions, suggestions, or complaints that are not addressed by the researchers, please email IRBnyuad@nyu.edu, or call the NYUAD IRB at +971 2 628 4313. </p></div>","0","","","","","","","","","","","","","","","","","","","","","","","","","","","","",""
"fullscreen","2","18765","0.0-2.0","5a5679b58e6259000175bec5","609a8bf73b2ac84e2732f618","609d74fcdd736343ce8cbc89","","","","true","","","","","","","","","","","","","","","","","","","","","","","","","","","",""
"html-keyboard-response","3","114569","0.0-3.0","5a5679b58e6259000175bec5","609a8bf73b2ac84e2732f618","609d74fcdd736343ce8cbc89","95798.60000000917","<p>Welcome !</p><p>READ CAREFULLY THE FOLLOWING INDICATIONS:</p><p>From this moment you have ~40 minutes to complete the experiment.</p><p>During the experiment you will be prompted to take several breaks. Each break should not last longer than 2-3 minutes.</p><p>Make sure that your computer is plugged in and it's not running on battery power, even if the battery is already fully charged.</p><p>Turn off your phone and music, make sure that you are in a quiet room and that you will not be distracted for the next hour.</p><p>Failure to comply with the instructions and indications provided during the experiment will most likely result in the rejection of your data.<p>Press the spacebar to start.</p>","","","32","","","","","","","","","","","","","","","","","","","","","","","","","","",""
"survey-html-form","4","121227","0.0-4.0","5a5679b58e6259000175bec5","609a8bf73b2ac84e2732f618","609d74fcdd736343ce8cbc89","6653.229999996256","","","","","{""age"":""42"",""sex"":""f""}","true","","","","","","","","","","","","","","","","","","","","","","","","",""
"instructions","5","157963","0.0-5.0","5a5679b58e6259000175bec5","609a8bf73b2ac84e2732f618","609d74fcdd736343ce8cbc89","36730.435000004945","","","","","","","[{""page_index"":0,""viewing_time"":19396.46000000357},{""page_index"":1,""viewing_time"":15374.974999998813},{""page_index"":2,""viewing_time"":1957.9450000019278}]","","","","","","","","","","","","","","","","","","","","","","","",""
"psychophysics","6","161832","0.0-6.0-0.0","5a5679b58e6259000175bec5","609a8bf73b2ac84e2732f618","609d74fcdd736343ce8cbc89","2840.7049999950686","","","","39","","","","key","16.96159649122797","683","312.5","true","1","180","30","0","-1","","","","","","","","","","","","","",""
"psychophysics","7","163833","0.0-6.0-0.1","5a5679b58e6259000175bec5","609a8bf73b2ac84e2732f618","609d74fcdd736343ce8cbc89","991.1700000084238","","","","37","","","","key","16.66101680672263","683","312.5","true","-1","180","30","0","-1","-1","","","","","","","","","","","","",""
"psychophysics","8","165005","0.0-6.0-0.2","5a5679b58e6259000175bec5","609a8bf73b2ac84e2732f618","609d74fcdd736343ce8cbc89","154.54000000318047","","","","39","","","","key","16.662333333333347","683","312.5","true","1","150","30","0","-1","-1","","","","","","","","","","","","",""
"psychophysics","9","167192","0.0-6.0-0.3","5a5679b58e6259000175bec5","609a8bf73b2ac84e2732f618","609d74fcdd736343ce8cbc89","1181.6149999940535","","","","37","","","","key","16.671323076923056","683","312.5","true","-1","150","30","0","-1","-1","","","","","","","","","","","","",""
"psychophysics","10","171558","0.0-6.0-0.4","5a5679b58e6259000175bec5","609a8bf73b2ac84e2732f618","609d74fcdd736343ce8cbc89","3361.254999996163","","","","39","","","","key","16.726311538461594","683","312.5","true","-1","129","24","1","1","-1","","","","","","","","","","","","",""
"psychophysics","11","172743","0.0-6.0-0.5","5a5679b58e6259000175bec5","609a8bf73b2ac84e2732f618","609d74fcdd736343ce8cbc89","173.96499999449588","","","","39","","","","key","16.6699859154928","683","312.5","true","1","153","24","1","-1","1","","","","","","","","","","","","",""
"psychophysics","12","173791","0.0-6.0-0.6","5a5679b58e6259000175bec5","609a8bf73b2ac84e2732f618","609d74fcdd736343ce8cbc89","43.51499999756925","","","","39","","","","key","16.654306451613063","683","312.5","true","1","153","19.2","2","-1","-1","","","","","","","","","","","","",""
"psychophysics","13","176508","0.0-6.0-0.7","5a5679b58e6259000175bec5","609a8bf73b2ac84e2732f618","609d74fcdd736343ce8cbc89","1712.8650000086054","","","","39","","","","key","16.66173456790124","683","312.5","true","-1","133.8","15.36","3","1","-1","","","","","","","","","","","","",""
"psychophysics","14","178707","0.0-6.0-0.8","5a5679b58e6259000175bec5","609a8bf73b2ac84e2732f618","609d74fcdd736343ce8cbc89","1192.1849999926053","","","","37","","","","key","16.66923664122147","683","312.5","true","-1","149.16000000000003","15.36","3","-1","1","","","","","","","","","","","","",""
"psychophysics","15","180223","0.0-6.0-0.9","5a5679b58e6259000175bec5","609a8bf73b2ac84e2732f618","609d74fcdd736343ce8cbc89","506.58499999553896","","","","39","","","","key","16.659377777777586","683","312.5","true","1","149.16000000000003","12.287999999999998","4","-1","-1","","","","","","","","","","","","",""
"psychophysics","16","181656","0.0-6.0-0.10","5a5679b58e6259000175bec5","609a8bf73b2ac84e2732f618","609d74fcdd736343ce8cbc89","422.7249999967171","","","","39","","","","key","16.65415476190468","683","312.5","true","1","136.872","12.287999999999998","4","-1","-1","","","","","","","","","","","","",""
"psychophysics","17","183295","0.0-6.0-0.11","5a5679b58e6259000175bec5","609a8bf73b2ac84e2732f618","609d74fcdd736343ce8cbc89","618.9300000114599","","","","39","","","","key","16.840432989690992","683","312.5","true","-1","136.872","9.8304","5","1","-1","","","","","","","","","","","","",""
"psychophysics","18","184441","0.0-6.0-0.12","5a5679b58e6259000175bec5","609a8bf73b2ac84e2732f618","609d74fcdd736343ce8cbc89","141.17499999701977","","","","37","","","","key","16.65389705882348","683","312.5","true","-1","146.7024","9.8304","5","-1","1","","","","","","","","","","","","",""
"psychophysics","19","185541","0.0-6.0-0.13","5a5679b58e6259000175bec5","609a8bf73b2ac84e2732f618","609d74fcdd736343ce8cbc89","93.66499999305233","","","","39","","","","key","16.667846153846206","683","312.5","true","1","146.7024","7.864319999999999","6","-1","-1","","","","","","","","","","","","",""
"psychophysics","20","186954","0.0-6.0-0.14","5a5679b58e6259000175bec5","609a8bf73b2ac84e2732f618","609d74fcdd736343ce8cbc89","398.9950000104727","","","","39","","","","key","16.661108433734977","683","312.5","true","1","138.83808000000002","7.864319999999999","6","-1","-1","","","","","","","","","","","","",""
"psychophysics","21","189189","0.0-6.0-0.15","5a5679b58e6259000175bec5","609a8bf73b2ac84e2732f618","609d74fcdd736343ce8cbc89","1226.4500000019325","","","","37","","","","key","16.657462686567207","683","312.5","true","-1","138.83808000000002","7.864319999999999","6","-1","-1","","","","","","","","","","","","",""
"psychophysics","22","191661","0.0-6.0-0.16","5a5679b58e6259000175bec5","609a8bf73b2ac84e2732f618","609d74fcdd736343ce8cbc89","1463.1999999983236","","","","37","","","","key","16.667299319727846","683","312.5","true","-1","130.97376000000003","7.864319999999999","6","-1","-1","","","","","","","","","","","","",""
"psychophysics","23","193490","0.0-6.0-0.17","5a5679b58e6259000175bec5","609a8bf73b2ac84e2732f618","609d74fcdd736343ce8cbc89","822.4150000023656","","","","39","","","","key","16.666183486238545","683","312.5","true","-1","130.97376000000003","6.291456","7","1","-1","","","","","","","","","","","","",""
"psychophysics","24","195021","0.0-6.0-0.18","5a5679b58e6259000175bec5","609a8bf73b2ac84e2732f618","609d74fcdd736343ce8cbc89","517.214999999851","","","","39","","","","key","16.664799999999943","683","312.5","true","1","137.26521600000004","6.291456","7","-1","1","","","","","","","","","","","","",""
"psychophysics","25","196330","0.0-6.0-0.19","5a5679b58e6259000175bec5","609a8bf73b2ac84e2732f618","609d74fcdd736343ce8cbc89","302.60000000998843","","","","37","","","","key","16.661551282051594","683","312.5","true","-1","137.26521600000004","5.033164800000001","8","-1","-1","","","","","","","","","","","","",""
"psychophysics","26","198155","0.0-6.0-0.20","5a5679b58e6259000175bec5","609a8bf73b2ac84e2732f618","609d74fcdd736343ce8cbc89","816.8900000018766","","","","37","","","","key","16.6663888888889","683","312.5","true","1","132.23205120000003","4.0265318400000005","9","1","-1","","","","","","","","","","","","",""
"psychophysics","27","199689","0.0-6.0-0.21","5a5679b58e6259000175bec5","609a8bf73b2ac84e2732f618","609d74fcdd736343ce8cbc89","531.1099999962607","","","","39","","","","key","16.66657608695665","683","312.5","true","-1","136.25858304000002","4.0265318400000005","9","1","1","","","","","","","","","","","","",""
"psychophysics","28","201055","0.0-6.0-0.22","5a5679b58e6259000175bec5","609a8bf73b2ac84e2732f618","609d74fcdd736343ce8cbc89","350.1600000017788","","","","37","","","","key","16.667075000000114","683","312.5","true","-1","140.28511488","4.0265318400000005","9","-1","1","","","","","","","","","","","","",""
"psychophysics","29","202273","0.0-6.0-0.23","5a5679b58e6259000175bec5","609a8bf73b2ac84e2732f618","609d74fcdd736343ce8cbc89","212.8099999972619","","","","39","","","","key","16.655958904109717","683","312.5","true","1","140.28511488","3.2212254720000004","10","-1","-1","","","","","","","","","","","","",""
"psychophysics","30","204453","0.0-6.0-0.24","5a5679b58e6259000175bec5","609a8bf73b2ac84e2732f618","609d74fcdd736343ce8cbc89","1172.9699999996228","","","","39","","","","key","16.671937500000013","683","312.5","true","1","137.06388940800002","3.2212254720000004","10","-1","-1","","","","","","","","","","","","",""
"psychophysics","31","205716","0.0-6.0-0.25","5a5679b58e6259000175bec5","609a8bf73b2ac84e2732f618","609d74fcdd736343ce8cbc89","250.9449999924982","","","","39","","","","key","16.888493333333173","683","312.5","true","1","137.06388940800002","3.2212254720000004","10","-1","-1","","","","","","","","","","","","",""
"psychophysics","32","207696","0.0-6.0-0.26","5a5679b58e6259000175bec5","609a8bf73b2ac84e2732f618","609d74fcdd736343ce8cbc89","967.9650000034599","","","","37","","","","key","16.664118644067628","683","312.5","true","-1","133.842663936","3.2212254720000004","10","-1","-1","","","","","","","","","","","","",""
"psychophysics","33","209736","0.0-6.0-0.27","5a5679b58e6259000175bec5","609a8bf73b2ac84e2732f618","609d74fcdd736343ce8cbc89","1020.9300000133226","","","","39","","","","key","16.665735537190113","683","312.5","true","1","133.842663936","3.2212254720000004","10","-1","-1","","","","","","","","","","","","",""
"psychophysics","34","211456","0.0-6.0-0.28","5a5679b58e6259000175bec5","609a8bf73b2ac84e2732f618","609d74fcdd736343ce8cbc89","711.5849999972852","","","","37","","","","key","16.662262135922504","683","312.5","true","1","130.621438464","2.5769803776000004","11","1","-1","","","","","","","","","","","","",""
"psychophysics","35","213178","0.0-6.0-0.29","5a5679b58e6259000175bec5","609a8bf73b2ac84e2732f618","609d74fcdd736343ce8cbc89","715.3449999896111","","","","39","","","","key","16.664519607843307","683","312.5","true","1","133.1984188416","2.5769803776000004","11","-1","1","","","","","","","","","","","","",""
"psychophysics","36","216090","0.0-6.0-0.30","5a5679b58e6259000175bec5","609a8bf73b2ac84e2732f618","609d74fcdd736343ce8cbc89","1907.1500000136439","","","","37","","","","key","16.86031395348847","683","312.5","true","-1","133.1984188416","2.0615843020800004","12","-1","-1","","","","","","","","","","","","",""
"psychophysics","37","218171","0.0-6.0-0.31","5a5679b58e6259000175bec5","609a8bf73b2ac84e2732f618","609d74fcdd736343ce8cbc89","1067.7549999963958","","","","39","","","","key","16.664260162601607","683","312.5","true","-1","131.13683453951998","1.6492674416640005","13","1","-1","","","","","","","","","","","","",""
"psychophysics","38","225491","0.0-6.0-0.32","5a5679b58e6259000175bec5","609a8bf73b2ac84e2732f618","609d74fcdd736343ce8cbc89","6314.279999991413","","","","39","","","","key","16.665405466970416","683","312.5","true","-1","132.78610198118398","1.6492674416640005","13","1","1","","","","","","","","","","","","",""
"psychophysics","39","229407","0.0-6.0-0.33","5a5679b58e6259000175bec5","609a8bf73b2ac84e2732f618","609d74fcdd736343ce8cbc89","2904.7149999969406","","","","37","","","","key","16.666876068376066","683","312.5","true","1","134.43536942284797","1.6492674416640005","13","1","1","","","","","","","","","","","","",""
"psychophysics","40","230688","0.0-6.0-0.34","5a5679b58e6259000175bec5","609a8bf73b2ac84e2732f618","609d74fcdd736343ce8cbc89","266.88999999896623","","","","39","","","","key","16.65061333333336","683","312.5","true","1","136.08463686451196","1.6492674416640005","13","-1","1","","","","","","","","","","","","",""
"psychophysics","41","232207","0.0-6.0-0.35","5a5679b58e6259000175bec5","609a8bf73b2ac84e2732f618","609d74fcdd736343ce8cbc89","500.25499999173917","","","","39","","","","key","16.656692307692207","683","312.5","true","1","136.08463686451196","1.3194139533312006","14","-1","-1","","","","","","","","","","","","",""
"psychophysics","42","233888","0.0-6.0-0.36","5a5679b58e6259000175bec5","609a8bf73b2ac84e2732f618","609d74fcdd736343ce8cbc89","667.5050000048941","","","","37","","","","key","16.82710101010103","683","312.5","true","1","134.76522291118076","1.0555311626649604","15","1","-1","","","","","","","","","","","","",""
"psychophysics","43","235388","0.0-6.0-0.37","5a5679b58e6259000175bec5","609a8bf73b2ac84e2732f618","609d74fcdd736343ce8cbc89","490.4249999963213","","","","37","","","","key","16.662651685393204","683","312.5","true","-1","135.8207540738457","1.0555311626649604","15","-1","1","","","","","","","","","","","","",""
"psychophysics","44","237405","0.0-6.0-0.38","5a5679b58e6259000175bec5","609a8bf73b2ac84e2732f618","609d74fcdd736343ce8cbc89","1013.2349999912549","","","","39","","","","key","16.660550000000026","683","312.5","true","-1","135.8207540738457","1","16","1","-1","","","","","","","","","","","","",""
"psychophysics","45","238885","0.0-6.0-0.39","5a5679b58e6259000175bec5","609a8bf73b2ac84e2732f618","609d74fcdd736343ce8cbc89","470.9699999948498","","","","37","","","","key","16.659402298850768","683","312.5","true","-1","136.8207540738457","1","16","-1","1","","","","","","","","","","","","",""
"html-keyboard-response","46","241278","0.0-7.0","5a5679b58e6259000175bec5","609a8bf73b2ac84e2732f618","609d74fcdd736343ce8cbc89","2385.2400000032503","<p>Well Done !</p><p>Prepare for a new block.</p><p>DON'T EXIT THE FULL SCREEN MODE</p><p>Press the Spacebar to start.</p>","","","32","","","","","","","","","","","","","","","true","134.36817054883295","","","","","","","","","","",""
"psychophysics","47","243125","0.0-8.0-0.0","5a5679b58e6259000175bec5","609a8bf73b2ac84e2732f618","609d74fcdd736343ce8cbc89","837.6850000058766","","","","39","","","","key","16.819036697247654","683","312.5","true","1","180","30","0","-1","","","","","","","","","","","","","",""
"psychophysics","48","244210","0.0-8.0-0.1","5a5679b58e6259000175bec5","609a8bf73b2ac84e2732f618","609d74fcdd736343ce8cbc89","79.63999999628868","","","","37","","","","key","16.655846153846227","683","312.5","true","-1","180","30","0","-1","-1","","","","","","","","","","","","",""
"psychophysics","49","246055","0.0-8.0-0.2","5a5679b58e6259000175bec5","609a8bf73b2ac84e2732f618","609d74fcdd736343ce8cbc89","840.9150000079535","","","","37","","","","key","16.972648148148167","683","312.5","true","-1","150","30","0","-1","-1","","","","","","","","","","","","",""
"psychophysics","50","247671","0.0-8.0-0.3","5a5679b58e6259000175bec5","609a8bf73b2ac84e2732f618","609d74fcdd736343ce8cbc89","607.125000009546","","","","39","","","","key","16.65918750000007","683","312.5","true","1","150","30","0","-1","-1","","","","","","","","","","","","",""
"psychophysics","51","249285","0.0-8.0-0.4","5a5679b58e6259000175bec5","609a8bf73b2ac84e2732f618","609d74fcdd736343ce8cbc89","605.2100000088103","","","","39","","","","key","16.660684210526156","683","312.5","true","-1","129","24","1","1","-1","","","","","","","","","","","","",""
"psychophysics","52","250304","0.0-8.0-0.5","5a5679b58e6259000175bec5","609a8bf73b2ac84e2732f618","609d74fcdd736343ce8cbc89","10.659999999916181","","","","37","","","","key","16.665901639344664","683","312.5","true","-1","153","24","1","-1","1","","","","","","","","","","","","",""
"psychophysics","53","251345","0.0-8.0-0.6","5a5679b58e6259000175bec5","609a8bf73b2ac84e2732f618","609d74fcdd736343ce8cbc89","25.114999996731058","","","","39","","","","key","16.65801639344255","683","312.5","true","1","153","19.2","2","-1","-1","","","","","","","","","","","","",""
"psychophysics","54","253998","0.0-8.0-0.7","5a5679b58e6259000175bec5","609a8bf73b2ac84e2732f618","609d74fcdd736343ce8cbc89","1643.164999986766","","","","39","","","","key","16.670841772152006","683","312.5","true","-1","133.8","15.36","3","1","-1","","","","","","","","","","","","",""
"psychophysics","55","256071","0.0-8.0-0.8","5a5679b58e6259000175bec5","609a8bf73b2ac84e2732f618","609d74fcdd736343ce8cbc89","1060.6550000084098","","","","37","","","","key","16.666588709677473","683","312.5","true","-1","149.16000000000003","15.36","3","-1","1","","","","","","","","","","","","",""
"psychophysics","56","257254","0.0-8.0-0.9","5a5679b58e6259000175bec5","609a8bf73b2ac84e2732f618","609d74fcdd736343ce8cbc89","173.49000000103842","","","","39","","","","key","16.66111428571416","683","312.5","true","1","149.16000000000003","12.287999999999998","4","-1","-1","","","","","","","","","","","","",""
"psychophysics","57","258305","0.0-8.0-0.10","5a5679b58e6259000175bec5","609a8bf73b2ac84e2732f618","609d74fcdd736343ce8cbc89","45.02499999944121","","","","37","","","","key","16.651209677419356","683","312.5","true","-1","136.872","12.287999999999998","4","-1","-1","","","","","","","","","","","","",""
"psychophysics","58","259620","0.0-8.0-0.11","5a5679b58e6259000175bec5","609a8bf73b2ac84e2732f618","609d74fcdd736343ce8cbc89","304.8750000016298","","","","37","","","","key","16.65389610389618","683","312.5","true","-1","136.872","12.287999999999998","4","-1","-1","","","","","","","","","","","","",""
"psychophysics","59","261672","0.0-8.0-0.12","5a5679b58e6259000175bec5","609a8bf73b2ac84e2732f618","609d74fcdd736343ce8cbc89","1042.4849999981234","","","","39","","","","key","16.665845528455325","683","312.5","true","1","129","12.287999999999998","4","-1","-1","","","","","","","","","","","","",""
"psychophysics","60","264474","0.0-8.0-0.13","5a5679b58e6259000175bec5","609a8bf73b2ac84e2732f618","609d74fcdd736343ce8cbc89","1794.0549999912037","","","","37","","","","key","16.673902255639213","683","312.5","true","1","129","9.8304","5","1","-1","","","","","","","","","","","","",""
"psychophysics","61","266208","0.0-8.0-0.14","5a5679b58e6259000175bec5","609a8bf73b2ac84e2732f618","609d74fcdd736343ce8cbc89","728.5399999964284","","","","37","","","","key","NaN","683","312.5","true","1","138.8304","9.8304","5","1","1","","","","","","","","","","","","",""
"psychophysics","62","268739","0.0-8.0-0.15","5a5679b58e6259000175bec5","609a8bf73b2ac84e2732f618","609d74fcdd736343ce8cbc89","1519.0900000015972","","","","39","","","","key","40.591888888889294","683","312.5","true","1","148.6608","9.8304","5","-1","1","","","","","","","","","","","","",""
"psychophysics","63","270276","0.0-8.0-0.16","5a5679b58e6259000175bec5","609a8bf73b2ac84e2732f618","609d74fcdd736343ce8cbc89","532.4949999921955","","","","37","","","","key","23.99206060606009","683","312.5","true","-1","148.6608","7.864319999999999","6","-1","-1","","","","","","","","","","","","",""
"psychophysics","64","271604","0.0-8.0-0.17","5a5679b58e6259000175bec5","609a8bf73b2ac84e2732f618","609d74fcdd736343ce8cbc89","321.74500000837725","","","","39","","","","key","16.885779220779433","683","312.5","true","1","140.79648","7.864319999999999","6","-1","-1","","","","","","","","","","","","",""
"psychophysics","65","272627","0.0-8.0-0.18","5a5679b58e6259000175bec5","609a8bf73b2ac84e2732f618","609d74fcdd736343ce8cbc89","7.484999994630925","","","","37","","","","key","16.66408196721344","683","312.5","true","-1","140.79648","7.864319999999999","6","-1","-1","","","","","","","","","","","","",""
"psychophysics","66","274141","0.0-8.0-0.19","5a5679b58e6259000175bec5","609a8bf73b2ac84e2732f618","609d74fcdd736343ce8cbc89","505.41000001248904","","","","39","","","","key","16.67222222222222","683","312.5","true","-1","132.93216","6.291456","7","1","-1","","","","","","","","","","","","",""
"psychophysics","67","275305","0.0-8.0-0.20","5a5679b58e6259000175bec5","609a8bf73b2ac84e2732f618","609d74fcdd736343ce8cbc89","152.94999998877756","","","","37","","","","key","16.65874999999976","683","312.5","true","-1","139.22361600000002","6.291456","7","-1","1","","","","","","","","","","","","",""
"psychophysics","68","276420","0.0-8.0-0.21","5a5679b58e6259000175bec5","609a8bf73b2ac84e2732f618","609d74fcdd736343ce8cbc89","111.21499999717344","","","","39","","","","key","16.92235384615353","683","312.5","true","1","139.22361600000002","5.033164800000001","8","-1","-1","","","","","","","","","","","","",""
"psychophysics","69","277946","0.0-8.0-0.22","5a5679b58e6259000175bec5","609a8bf73b2ac84e2732f618","609d74fcdd736343ce8cbc89","519.9850000062725","","","","39","","","","key","16.667219780219828","683","312.5","true","1","134.1904512","5.033164800000001","8","-1","-1","","","","","","","","","","","","",""
"psychophysics","70","280049","0.0-8.0-0.23","5a5679b58e6259000175bec5","609a8bf73b2ac84e2732f618","609d74fcdd736343ce8cbc89","1091.8600000004517","","","","39","","","","key","16.795822580645403","683","312.5","true","-1","134.1904512","4.0265318400000005","9","1","-1","","","","","","","","","","","","",""
"psychophysics","71","281721","0.0-8.0-0.24","5a5679b58e6259000175bec5","609a8bf73b2ac84e2732f618","609d74fcdd736343ce8cbc89","657.3550000030082","","","","39","","","","key","16.666579999999957","683","312.5","true","1","138.21698304","4.0265318400000005","9","-1","1","","","","","","","","","","","","",""
"psychophysics","72","283501","0.0-8.0-0.25","5a5679b58e6259000175bec5","609a8bf73b2ac84e2732f618","609d74fcdd736343ce8cbc89","771.5800000005402","","","","39","","","","key","16.655238095238538","683","312.5","true","-1","138.21698304","3.2212254720000004","10","1","-1","","","","","","","","","","","","",""
"psychophysics","73","284573","0.0-8.0-0.26","5a5679b58e6259000175bec5","609a8bf73b2ac84e2732f618","609d74fcdd736343ce8cbc89","62.69000000611413","","","","37","","","","key","16.65942187499968","683","312.5","true","-1","141.43820851200002","3.2212254720000004","10","-1","1","","","","","","","","","","","","",""
"psychophysics","74","285806","0.0-8.0-0.27","5a5679b58e6259000175bec5","609a8bf73b2ac84e2732f618","609d74fcdd736343ce8cbc89","222.7500000008149","","","","39","","","","key","16.651643835616532","683","312.5","true","1","141.43820851200002","2.5769803776000004","11","-1","-1","","","","","","","","","","","","",""
"psychophysics","75","286971","0.0-8.0-0.28","5a5679b58e6259000175bec5","609a8bf73b2ac84e2732f618","609d74fcdd736343ce8cbc89","149.53500000410713","","","","37","","","","key","16.658811594202668","683","312.5","true","-1","138.86122813440002","2.5769803776000004","11","-1","-1","","","","","","","","","","","","",""
"psychophysics","76","288136","0.0-8.0-0.29","5a5679b58e6259000175bec5","609a8bf73b2ac84e2732f618","609d74fcdd736343ce8cbc89","118.45500000345055","","","","37","","","","key","16.644333333332643","683","312.5","true","-1","138.86122813440002","2.5769803776000004","11","-1","-1","","","","","","","","","","","","",""
"psychophysics","77","289456","0.0-8.0-0.30","5a5679b58e6259000175bec5","609a8bf73b2ac84e2732f618","609d74fcdd736343ce8cbc89","313.97499999729916","","","","39","","","","key","17.07941772151868","683","312.5","true","1","136.28424775680003","2.5769803776000004","11","-1","-1","","","","","","","","","","","","",""
"psychophysics","78","290719","0.0-8.0-0.31","5a5679b58e6259000175bec5","609a8bf73b2ac84e2732f618","609d74fcdd736343ce8cbc89","253.63000000652391","","","","39","","","","key","16.65177027027066","683","312.5","true","1","136.28424775680003","2.5769803776000004","11","-1","-1","","","","","","","","","","","","",""
"psychophysics","79","292421","0.0-8.0-0.32","5a5679b58e6259000175bec5","609a8bf73b2ac84e2732f618","609d74fcdd736343ce8cbc89","699.2899999895599","","","","37","","","","key","16.667627450980373","683","312.5","true","1","133.70726737920003","2.0615843020800004","12","1","-1","","","","","","","","","","","","",""
"psychophysics","80","294022","0.0-8.0-0.33","5a5679b58e6259000175bec5","609a8bf73b2ac84e2732f618","609d74fcdd736343ce8cbc89","583.7049999972805","","","","37","","","","key","16.665052631579485","683","312.5","true","-1","135.76885168128004","2.0615843020800004","12","-1","1","","","","","","","","","","","","",""
"psychophysics","81","295101","0.0-8.0-0.34","5a5679b58e6259000175bec5","609a8bf73b2ac84e2732f618","609d74fcdd736343ce8cbc89","74.11000000138301","","","","39","","","","key","16.908952380952773","683","312.5","true","-1","135.76885168128004","1.6492674416640005","13","1","-1","","","","","","","","","","","","",""
"psychophysics","82","296353","0.0-8.0-0.35","5a5679b58e6259000175bec5","609a8bf73b2ac84e2732f618","609d74fcdd736343ce8cbc89","243.7999999965541","","","","39","","","","key","16.664445945946657","683","312.5","true","1","137.41811912294403","1.6492674416640005","13","-1","1","","","","","","","","","","","","",""
"psychophysics","83","297688","0.0-8.0-0.36","5a5679b58e6259000175bec5","609a8bf73b2ac84e2732f618","609d74fcdd736343ce8cbc89","327.1600000007311","","","","39","","","","key","16.65753846153847","683","312.5","true","1","137.41811912294403","1.3194139533312006","14","-1","-1","","","","","","","","","","","","",""
"psychophysics","84","299085","0.0-8.0-0.37","5a5679b58e6259000175bec5","609a8bf73b2ac84e2732f618","609d74fcdd736343ce8cbc89","390.63500000338536","","","","39","","","","key","16.665952380952408","683","312.5","true","1","136.09870516961283","1.3194139533312006","14","-1","-1","","","","","","","","","","","","",""
"psychophysics","85","300303","0.0-8.0-0.38","5a5679b58e6259000175bec5","609a8bf73b2ac84e2732f618","609d74fcdd736343ce8cbc89","195.66999998642132","","","","37","","","","key","16.660305555555777","683","312.5","true","-1","136.09870516961283","1.3194139533312006","14","-1","-1","","","","","","","","","","","","",""
"psychophysics","86","301707","0.0-8.0-0.39","5a5679b58e6259000175bec5","609a8bf73b2ac84e2732f618","609d74fcdd736343ce8cbc89","401.1900000041351","","","","37","","","","key","16.6638072289159","683","312.5","true","1","134.77929121628162","1.0555311626649604","15","1","-1","","","","","","","","","","","","",""
"html-keyboard-response","87","303955","0.0-9.0","5a5679b58e6259000175bec5","609a8bf73b2ac84e2732f618","609d74fcdd736343ce8cbc89","2245.230000000447","<p>Well Done !</p><p>Prepare for a new block.</p><p>DON'T EXIT THE FULL SCREEN MODE</p><p>Press the Spacebar to start.</p>","","","32","","","","","","","","","","","","","","","true","137.22948415930372","","","","","","","","","","",""
"psychophysics","88","305795","0.0-10.0-0.0","5a5679b58e6259000175bec5","609a8bf73b2ac84e2732f618","609d74fcdd736343ce8cbc89","831.465000010212","","","","37","","","","key","16.671299999999942","683","312.5","true","-1","180","30","0","-1","","","","","","","","","","","","","",""
"psychophysics","89","308785","0.0-10.0-0.1","5a5679b58e6259000175bec5","609a8bf73b2ac84e2732f618","609d74fcdd736343ce8cbc89","1981.9250000000466","","","","37","","","","key","16.666597765363107","683","312.5","true","-1","180","30","0","-1","-1","","","","","","","","","","","","",""
"psychophysics","90","309867","0.0-10.0-0.2","5a5679b58e6259000175bec5","609a8bf73b2ac84e2732f618","609d74fcdd736343ce8cbc89","63.9999999984866","","","","39","","","","key","16.66569841269862","683","312.5","true","1","150","30","0","-1","-1","","","","","","","","","","","","",""
"psychophysics","91","311134","0.0-10.0-0.3","5a5679b58e6259000175bec5","609a8bf73b2ac84e2732f618","609d74fcdd736343ce8cbc89","257.54500000039116","","","","39","","","","key","16.66","683","312.5","true","1","150","30","0","-1","-1","","","","","","","","","","","","",""
"psychophysics","92","312597","0.0-10.0-0.4","5a5679b58e6259000175bec5","609a8bf73b2ac84e2732f618","609d74fcdd736343ce8cbc89","453.52000001003034","","","","39","","","","key","16.669045977011436","683","312.5","true","1","129","30","0","-1","-1","","","","","","","","","","","","",""
"psychophysics","93","314654","0.0-10.0-0.5","5a5679b58e6259000175bec5","609a8bf73b2ac84e2732f618","609d74fcdd736343ce8cbc89","1050.004999997327","","","","37","","","","key","16.67181147540992","683","312.5","true","-1","129","30","0","-1","-1","","","","","","","","","","","","",""
"psychophysics","94","316219","0.0-10.0-0.6","5a5679b58e6259000175bec5","609a8bf73b2ac84e2732f618","609d74fcdd736343ce8cbc89","551.4850000035949","","","","37","","","","key","16.658723404255763","683","312.5","true","1","129","24","1","1","-1","","","","","","","","","","","","",""
"psychophysics","95","317232","0.0-10.0-0.7","5a5679b58e6259000175bec5","609a8bf73b2ac84e2732f618","609d74fcdd736343ce8cbc89","10.250000006635673","","","","39","","","","key","16.67761016949139","683","312.5","true","1","153","24","1","-1","1","","","","","","","","","","","","",""
"psychophysics","96","318617","0.0-10.0-0.8","5a5679b58e6259000175bec5","609a8bf73b2ac84e2732f618","609d74fcdd736343ce8cbc89","378.80000000586733","","","","37","","","","key","16.66902439024373","683","312.5","true","-1","153","19.2","2","-1","-1","","","","","","","","","","","","",""
"psychophysics","97","319799","0.0-10.0-0.9","5a5679b58e6259000175bec5","609a8bf73b2ac84e2732f618","609d74fcdd736343ce8cbc89","178.0200000066543","","","","37","","","","key","16.65807142857146","683","312.5","true","-1","133.8","19.2","2","-1","-1","","","","","","","","","","","","",""
"psychophysics","98","320949","0.0-10.0-0.10","5a5679b58e6259000175bec5","609a8bf73b2ac84e2732f618","609d74fcdd736343ce8cbc89","144.42499999131542","","","","39","","","","key","16.67814705882355","683","312.5","true","1","133.8","19.2","2","-1","-1","","","","","","","","","","","","",""
"psychophysics","99","322763","0.0-10.0-0.11","5a5679b58e6259000175bec5","609a8bf73b2ac84e2732f618","609d74fcdd736343ce8cbc89","803.6499999871012","","","","39","","","","key","16.66458333333301","683","312.5","true","-1","129","15.36","3","1","-1","","","","","","","","","","","","",""
"psychophysics","100","323834","0.0-10.0-0.12","5a5679b58e6259000175bec5","609a8bf73b2ac84e2732f618","609d74fcdd736343ce8cbc89","65.41999999899417","","","","39","","","","key","16.66053125000053","683","312.5","true","1","144.36","15.36","3","-1","1","","","","","","","","","","","","",""
"psychophysics","101","325039","0.0-10.0-0.13","5a5679b58e6259000175bec5","609a8bf73b2ac84e2732f618","609d74fcdd736343ce8cbc89","200.4799999995157","","","","37","","","","key","16.66388732394364","683","312.5","true","-1","144.36","12.287999999999998","4","-1","-1","","","","","","","","","","","","",""
"psychophysics","102","327631","0.0-10.0-0.14","5a5679b58e6259000175bec5","609a8bf73b2ac84e2732f618","609d74fcdd736343ce8cbc89","1580.8350000006612","","","","39","","","","key","16.67183766233759","683","312.5","true","-1","132.072","9.8304","5","1","-1","","","","","","","","","","","","",""
"psychophysics","103","328721","0.0-10.0-0.15","5a5679b58e6259000175bec5","609a8bf73b2ac84e2732f618","609d74fcdd736343ce8cbc89","85.23000001150649","","","","37","","","","key","16.911578125000233","683","312.5","true","-1","141.9024","9.8304","5","-1","1","","","","","","","","","","","","",""
"psychophysics","104","330066","0.0-10.0-0.16","5a5679b58e6259000175bec5","609a8bf73b2ac84e2732f618","609d74fcdd736343ce8cbc89","337.72500000486616","","","","39","","","","key","16.665139240505987","683","312.5","true","1","141.9024","7.864319999999999","6","-1","-1","","","","","","","","","","","","",""
"psychophysics","105","331540","0.0-10.0-0.17","5a5679b58e6259000175bec5","609a8bf73b2ac84e2732f618","609d74fcdd736343ce8cbc89","467.5799999968149","","","","39","","","","key","16.660704545455122","683","312.5","true","1","134.03808","7.864319999999999","6","-1","-1","","","","","","","","","","","","",""
"psychophysics","106","332966","0.0-10.0-0.18","5a5679b58e6259000175bec5","609a8bf73b2ac84e2732f618","609d74fcdd736343ce8cbc89","418.71500000706874","","","","39","","","","key","16.668785714285885","683","312.5","true","-1","134.03808","6.291456","7","1","-1","","","","","","","","","","","","",""
"psychophysics","107","334049","0.0-10.0-0.19","5a5679b58e6259000175bec5","609a8bf73b2ac84e2732f618","609d74fcdd736343ce8cbc89","75.42500000272412","","","","37","","","","key","16.66840624999986","683","312.5","true","-1","140.32953600000002","6.291456","7","-1","1","","","","","","","","","","","","",""
"psychophysics","108","335197","0.0-10.0-0.20","5a5679b58e6259000175bec5","609a8bf73b2ac84e2732f618","609d74fcdd736343ce8cbc89","134.73499999963678","","","","37","","","","key","16.672058823529582","683","312.5","true","-1","140.32953600000002","5.033164800000001","8","-1","-1","","","","","","","","","","","","",""
"psychophysics","109","337714","0.0-10.0-0.21","5a5679b58e6259000175bec5","609a8bf73b2ac84e2732f618","609d74fcdd736343ce8cbc89","1504.9399999988964","","","","37","","","","key","16.662679999999625","683","312.5","true","1","135.2963712","4.0265318400000005","9","1","-1","","","","","","","","","","","","",""
"psychophysics","110","339321","0.0-10.0-0.22","5a5679b58e6259000175bec5","609a8bf73b2ac84e2732f618","609d74fcdd736343ce8cbc89","595.2499999984866","","","","37","","","","key","16.665208333333187","683","312.5","true","1","139.32290304","4.0265318400000005","9","1","1","","","","","","","","","","","","",""
"psychophysics","111","341122","0.0-10.0-0.23","5a5679b58e6259000175bec5","609a8bf73b2ac84e2732f618","609d74fcdd736343ce8cbc89","798.4149999974761","","","","39","","","","key","16.665252336448876","683","312.5","true","1","143.34943488","4.0265318400000005","9","-1","1","","","","","","","","","","","","",""
"psychophysics","112","342621","0.0-10.0-0.24","5a5679b58e6259000175bec5","609a8bf73b2ac84e2732f618","609d74fcdd736343ce8cbc89","493.45999999786727","","","","39","","","","key","16.662662921347813","683","312.5","true","1","143.34943488","3.2212254720000004","10","-1","-1","","","","","","","","","","","","",""
"psychophysics","113","344452","0.0-10.0-0.25","5a5679b58e6259000175bec5","609a8bf73b2ac84e2732f618","609d74fcdd736343ce8cbc89","824.849999989965","","","","37","","","","key","16.663449541284326","683","312.5","true","1","140.12820940799998","2.5769803776000004","11","1","-1","","","","","","","","","","","","",""
"psychophysics","114","345818","0.0-10.0-0.26","5a5679b58e6259000175bec5","609a8bf73b2ac84e2732f618","609d74fcdd736343ce8cbc89","359.2050000006566","","","","37","","","","key","16.662925925925748","683","312.5","true","-1","142.70518978559997","2.5769803776000004","11","-1","1","","","","","","","","","","","","",""
"psychophysics","115","347339","0.0-10.0-0.27","5a5679b58e6259000175bec5","609a8bf73b2ac84e2732f618","609d74fcdd736343ce8cbc89","512.8549999935785","","","","39","","","","key","16.856488636363462","683","312.5","true","1","142.70518978559997","2.0615843020800004","12","-1","-1","","","","","","","","","","","","",""
"psychophysics","116","348647","0.0-10.0-0.28","5a5679b58e6259000175bec5","609a8bf73b2ac84e2732f618","609d74fcdd736343ce8cbc89","296.64000000047963","","","","39","","","","key","16.663500000000333","683","312.5","true","1","140.64360548351996","2.0615843020800004","12","-1","-1","","","","","","","","","","","","",""
"psychophysics","117","349832","0.0-10.0-0.29","5a5679b58e6259000175bec5","609a8bf73b2ac84e2732f618","609d74fcdd736343ce8cbc89","179.12499999511056","","","","37","","","","key","16.66717142857129","683","312.5","true","-1","140.64360548351996","2.0615843020800004","12","-1","-1","","","","","","","","","","","","",""
"psychophysics","118","351523","0.0-10.0-0.30","5a5679b58e6259000175bec5","609a8bf73b2ac84e2732f618","609d74fcdd736343ce8cbc89","681.3150000089081","","","","37","","","","key","16.66494059405926","683","312.5","true","-1","138.58202118143996","2.0615843020800004","12","-1","-1","","","","","","","","","","","","",""
"psychophysics","119","352723","0.0-10.0-0.31","5a5679b58e6259000175bec5","609a8bf73b2ac84e2732f618","609d74fcdd736343ce8cbc89","188.9999999984866","","","","37","","","","key","16.66357746478875","683","312.5","true","-1","138.58202118143996","2.0615843020800004","12","-1","-1","","","","","","","","","","","","",""
"psychophysics","120","354073","0.0-10.0-0.32","5a5679b58e6259000175bec5","609a8bf73b2ac84e2732f618","609d74fcdd736343ce8cbc89","333.9449999912176","","","","37","","","","key","16.661462500000198","683","312.5","true","-1","136.52043687935995","2.0615843020800004","12","-1","-1","","","","","","","","","","","","",""
"psychophysics","121","355314","0.0-10.0-0.33","5a5679b58e6259000175bec5","609a8bf73b2ac84e2732f618","609d74fcdd736343ce8cbc89","232.9499999905238","","","","37","","","","key","16.668315068493303","683","312.5","true","-1","136.52043687935995","2.0615843020800004","12","-1","-1","","","","","","","","","","","","",""
"psychophysics","122","356626","0.0-10.0-0.34","5a5679b58e6259000175bec5","609a8bf73b2ac84e2732f618","609d74fcdd736343ce8cbc89","301.1850000038976","","","","39","","","","key","16.876935064935505","683","312.5","true","1","134.45885257727994","2.0615843020800004","12","-1","-1","","","","","","","","","","","","",""
"psychophysics","123","358055","0.0-10.0-0.35","5a5679b58e6259000175bec5","609a8bf73b2ac84e2732f618","609d74fcdd736343ce8cbc89","415.1350000029197","","","","39","","","","key","16.66780952380976","683","312.5","true","1","134.45885257727994","2.0615843020800004","12","-1","-1","","","","","","","","","","","","",""
"psychophysics","124","359763","0.0-10.0-0.36","5a5679b58e6259000175bec5","609a8bf73b2ac84e2732f618","609d74fcdd736343ce8cbc89","699.4549999944866","","","","37","","","","key","16.668470588235376","683","312.5","true","-1","132.39726827519993","2.0615843020800004","12","-1","-1","","","","","","","","","","","","",""
"psychophysics","125","361230","0.0-10.0-0.37","5a5679b58e6259000175bec5","609a8bf73b2ac84e2732f618","609d74fcdd736343ce8cbc89","458.6050000070827","","","","37","","","","key","16.668896551723673","683","312.5","true","-1","132.39726827519993","2.0615843020800004","12","-1","-1","","","","","","","","","","","","",""
"psychophysics","126","362874","0.0-10.0-0.38","5a5679b58e6259000175bec5","609a8bf73b2ac84e2732f618","609d74fcdd736343ce8cbc89","635.4799999971874","","","","37","","","","key","16.664367346938853","683","312.5","true","1","130.33568397311993","1.6492674416640005","13","1","-1","","","","","","","","","","","","",""
"psychophysics","127","364727","0.0-10.0-0.39","5a5679b58e6259000175bec5","609a8bf73b2ac84e2732f618","609d74fcdd736343ce8cbc89","846.1399999941932","","","","37","","","","key","16.67296363636322","683","312.5","true","1","131.98495141478392","1.6492674416640005","13","1","1","","","","","","","","","","","","",""
"html-keyboard-response","128","371396","0.0-11.0","5a5679b58e6259000175bec5","609a8bf73b2ac84e2732f618","609d74fcdd736343ce8cbc89","6666.665000011562","<p>Well Done !</p><p>Prepare for a new block.</p><p>DON'T EXIT THE FULL SCREEN MODE</p><p>Press the Spacebar to start.</p>","","","32","","","","","","","","","","","","","","","true","136.87090621071354","","","","","","","","","","",""
"psychophysics","129","373425","0.0-12.0-0.0","5a5679b58e6259000175bec5","609a8bf73b2ac84e2732f618","609d74fcdd736343ce8cbc89","1019.719999996596","","","","39","","","","key","16.946066666666592","683","312.5","true","1","180","30","0","-1","","","","","","","","","","","","","",""
"psychophysics","130","375776","0.0-12.0-0.1","5a5679b58e6259000175bec5","609a8bf73b2ac84e2732f618","609d74fcdd736343ce8cbc89","1343.5750000062399","","","","39","","","","key","16.662650000000056","683","312.5","true","1","180","30","0","-1","-1","","","","","","","","","","","","",""
"psychophysics","131","377341","0.0-12.0-0.2","5a5679b58e6259000175bec5","609a8bf73b2ac84e2732f618","609d74fcdd736343ce8cbc89","558.99999999383","","","","37","","","","key","16.6595053763438","683","312.5","true","-1","150","30","0","-1","-1","","","","","","","","","","","","",""
"psychophysics","132","378890","0.0-12.0-0.3","5a5679b58e6259000175bec5","609a8bf73b2ac84e2732f618","609d74fcdd736343ce8cbc89","539.9800000013784","","","","39","","","","key","16.658489130434845","683","312.5","true","1","150","30","0","-1","-1","","","","","","","","","","","","",""
"psychophysics","133","381062","0.0-12.0-0.4","5a5679b58e6259000175bec5","609a8bf73b2ac84e2732f618","609d74fcdd736343ce8cbc89","1165.340000006836","","","","39","","","","key","16.667798449612015","683","312.5","true","-1","129","24","1","1","-1","","","","","","","","","","","","",""
"psychophysics","134","382369","0.0-12.0-0.5","5a5679b58e6259000175bec5","609a8bf73b2ac84e2732f618","609d74fcdd736343ce8cbc89","296.7649999918649","","","","39","","","","key","16.67158441558441","683","312.5","true","1","153","24","1","-1","1","","","","","","","","","","","","",""
"psychophysics","135","383894","0.0-12.0-0.6","5a5679b58e6259000175bec5","609a8bf73b2ac84e2732f618","609d74fcdd736343ce8cbc89","518.7500000029104","","","","39","","","","key","16.666340659340527","683","312.5","true","1","153","19.2","2","-1","-1","","","","","","","","","","","","",""
"psychophysics","136","413306","0.0-12.0-0.7","5a5679b58e6259000175bec5","609a8bf73b2ac84e2732f618","609d74fcdd736343ce8cbc89","28406.090000004042","","","","39","","","","key","17.839373179611623","683","312.5","true","1","133.8","19.2","2","-1","-1","","","","","","","","","","","","",""
"psychophysics","137","414453","0.0-12.0-0.8","5a5679b58e6259000175bec5","609a8bf73b2ac84e2732f618","609d74fcdd736343ce8cbc89","139.179999998305","","","","39","","","","key","16.655441176470692","683","312.5","true","1","133.8","19.2","2","-1","-1","","","","","","","","","","","","",""
"psychophysics","138","417338","0.0-12.0-0.9","5a5679b58e6259000175bec5","609a8bf73b2ac84e2732f618","609d74fcdd736343ce8cbc89","1881.4650000131223","","","","39","","","","key","16.665267441860674","683","312.5","true","1","129","19.2","2","-1","-1","","","","","","","","","","","","",""
"psychophysics","139","438276","0.0-12.0-0.10","5a5679b58e6259000175bec5","609a8bf73b2ac84e2732f618","609d74fcdd736343ce8cbc89","19924.58500000066","","","","39","","","","key","16.66646055776892","683","312.5","true","-1","129","15.36","3","1","-1","","","","","","","","","","","","",""
"psychophysics","140","439385","0.0-12.0-0.11","5a5679b58e6259000175bec5","609a8bf73b2ac84e2732f618","609d74fcdd736343ce8cbc89","99.67500000493601","","","","37","","","","key","16.664738461538217","683","312.5","true","-1","144.36","15.36","3","-1","1","","","","","","","","","","","","",""
"psychophysics","141","440482","0.0-12.0-0.12","5a5679b58e6259000175bec5","609a8bf73b2ac84e2732f618","609d74fcdd736343ce8cbc89","92.9749999922933","","","","37","","","","key","16.66638461538465","683","312.5","true","-1","144.36","12.287999999999998","4","-1","-1","","","","","","","","","","","","",""
"psychophysics","142","442693","0.0-12.0-0.13","5a5679b58e6259000175bec5","609a8bf73b2ac84e2732f618","609d74fcdd736343ce8cbc89","1205.7000000058906","","","","37","","","","key","16.669606060605886","683","312.5","true","-1","132.072","12.287999999999998","4","-1","-1","","","","","","","","","","","","",""
"psychophysics","143","447809","0.0-12.0-0.14","5a5679b58e6259000175bec5","609a8bf73b2ac84e2732f618","609d74fcdd736343ce8cbc89","4109.685000003083","","","","39","","","","key","16.6669575163398","683","312.5","true","1","132.072","12.287999999999998","4","-1","-1","","","","","","","","","","","","",""
"psychophysics","144","449485","0.0-12.0-0.15","5a5679b58e6259000175bec5","609a8bf73b2ac84e2732f618","609d74fcdd736343ce8cbc89","667.2400000097696","","","","39","","","","key","16.661131313131214","683","312.5","true","1","129","12.287999999999998","4","-1","-1","","","","","","","","","","","","",""
"psychophysics","145","450667","0.0-12.0-0.16","5a5679b58e6259000175bec5","609a8bf73b2ac84e2732f618","609d74fcdd736343ce8cbc89","178.43499999435153","","","","37","","","","key","16.676442857142373","683","312.5","true","-1","129","12.287999999999998","4","-1","-1","","","","","","","","","","","","",""
"psychophysics","146","452827","0.0-12.0-0.17","5a5679b58e6259000175bec5","609a8bf73b2ac84e2732f618","609d74fcdd736343ce8cbc89","1154.3300000048475","","","","37","","","","key","16.66050387596912","683","312.5","true","-1","129","12.287999999999998","4","-1","-1","","","","","","","","","","","","",""
"psychophysics","147","453923","0.0-12.0-0.18","5a5679b58e6259000175bec5","609a8bf73b2ac84e2732f618","609d74fcdd736343ce8cbc89","86.19000000180677","","","","39","","","","key","16.662138461538305","683","312.5","true","-1","129","9.8304","5","1","-1","","","","","","","","","","","","",""
"psychophysics","148","455120","0.0-12.0-0.19","5a5679b58e6259000175bec5","609a8bf73b2ac84e2732f618","609d74fcdd736343ce8cbc89","191.2949999968987","","","","39","","","","key","16.66260563380259","683","312.5","true","1","138.8304","9.8304","5","-1","1","","","","","","","","","","","","",""
"psychophysics","149","456375","0.0-12.0-0.20","5a5679b58e6259000175bec5","609a8bf73b2ac84e2732f618","609d74fcdd736343ce8cbc89","252.055000004475","","","","39","","","","key","16.6607837837836","683","312.5","true","1","138.8304","7.864319999999999","6","-1","-1","","","","","","","","","","","","",""
"psychophysics","150","458120","0.0-12.0-0.21","5a5679b58e6259000175bec5","609a8bf73b2ac84e2732f618","609d74fcdd736343ce8cbc89","738.0499999999302","","","","39","","","","key","16.661615384615008","683","312.5","true","-1","130.96608","6.291456","7","1","-1","","","","","","","","","","","","",""
"psychophysics","151","459671","0.0-12.0-0.22","5a5679b58e6259000175bec5","609a8bf73b2ac84e2732f618","609d74fcdd736343ce8cbc89","545.6949999934295","","","","37","","","","key","16.668043478261097","683","312.5","true","-1","137.25753600000002","6.291456","7","-1","1","","","","","","","","","","","","",""
"psychophysics","152","460929","0.0-12.0-0.23","5a5679b58e6259000175bec5","609a8bf73b2ac84e2732f618","609d74fcdd736343ce8cbc89","252.41000000096392","","","","37","","","","key","16.66812162162151","683","312.5","true","-1","137.25753600000002","5.033164800000001","8","-1","-1","","","","","","","","","","","","",""
"psychophysics","153","462828","0.0-12.0-0.24","5a5679b58e6259000175bec5","609a8bf73b2ac84e2732f618","609d74fcdd736343ce8cbc89","892.8400000004331","","","","37","","","","key","16.670522123894067","683","312.5","true","-1","132.2243712","5.033164800000001","8","-1","-1","","","","","","","","","","","","",""
"psychophysics","154","466024","0.0-12.0-0.25","5a5679b58e6259000175bec5","609a8bf73b2ac84e2732f618","609d74fcdd736343ce8cbc89","2186.71500000346","","","","37","","","","key","16.666455497382227","683","312.5","true","-1","132.2243712","5.033164800000001","8","-1","-1","","","","","","","","","","","","",""
"psychophysics","155","469784","0.0-12.0-0.26","5a5679b58e6259000175bec5","609a8bf73b2ac84e2732f618","609d74fcdd736343ce8cbc89","2746.1849999963306","","","","37","","","","key","16.663049107142797","683","312.5","true","1","129","4.0265318400000005","9","1","-1","","","","","","","","","","","","",""
"psychophysics","156","471603","0.0-12.0-0.27","5a5679b58e6259000175bec5","609a8bf73b2ac84e2732f618","609d74fcdd736343ce8cbc89","809.2250000045169","","","","37","","","","key","16.655091743119524","683","312.5","true","1","133.02653184","4.0265318400000005","9","1","1","","","","","","","","","","","","",""
"psychophysics","157","473154","0.0-12.0-0.28","5a5679b58e6259000175bec5","609a8bf73b2ac84e2732f618","609d74fcdd736343ce8cbc89","540.5099999916274","","","","39","","","","key","16.667423913043383","683","312.5","true","-1","137.05306367999998","4.0265318400000005","9","1","1","","","","","","","","","","","","",""
"psychophysics","158","474436","0.0-12.0-0.29","5a5679b58e6259000175bec5","609a8bf73b2ac84e2732f618","609d74fcdd736343ce8cbc89","273.83499999996275","","","","37","","","","key","16.660840000000317","683","312.5","true","-1","141.07959551999997","4.0265318400000005","9","-1","1","","","","","","","","","","","","",""
"psychophysics","159","475688","0.0-12.0-0.30","5a5679b58e6259000175bec5","609a8bf73b2ac84e2732f618","609d74fcdd736343ce8cbc89","243.80999999993946","","","","39","","","","key","16.677333333333177","683","312.5","true","1","141.07959551999997","3.2212254720000004","10","-1","-1","","","","","","","","","","","","",""
"psychophysics","160","477523","0.0-12.0-0.31","5a5679b58e6259000175bec5","609a8bf73b2ac84e2732f618","609d74fcdd736343ce8cbc89","830.6900000025053","","","","37","","","","key","16.6598703703704","683","312.5","true","-1","137.85837004799998","3.2212254720000004","10","-1","-1","","","","","","","","","","","","",""
"psychophysics","161","479555","0.0-12.0-0.32","5a5679b58e6259000175bec5","609a8bf73b2ac84e2732f618","609d74fcdd736343ce8cbc89","1024.3800000025658","","","","37","","","","key","16.7996694214872","683","312.5","true","1","137.85837004799998","2.5769803776000004","11","1","-1","","","","","","","","","","","","",""
"psychophysics","162","480735","0.0-12.0-0.33","5a5679b58e6259000175bec5","609a8bf73b2ac84e2732f618","609d74fcdd736343ce8cbc89","169.56999999820255","","","","39","","","","key","16.659739130435586","683","312.5","true","1","140.43535042559998","2.5769803776000004","11","-1","1","","","","","","","","","","","","",""
"psychophysics","163","481925","0.0-12.0-0.34","5a5679b58e6259000175bec5","609a8bf73b2ac84e2732f618","609d74fcdd736343ce8cbc89","182.07000000984408","","","","37","","","","key","16.65802816901369","683","312.5","true","-1","140.43535042559998","2.0615843020800004","12","-1","-1","","","","","","","","","","","","",""
"psychophysics","164","483292","0.0-12.0-0.35","5a5679b58e6259000175bec5","609a8bf73b2ac84e2732f618","609d74fcdd736343ce8cbc89","360.69999999017455","","","","39","","","","key","16.668641975308326","683","312.5","true","1","138.37376612351997","2.0615843020800004","12","-1","-1","","","","","","","","","","","","",""
"psychophysics","165","484949","0.0-12.0-0.36","5a5679b58e6259000175bec5","609a8bf73b2ac84e2732f618","609d74fcdd736343ce8cbc89","651.0200000047917","","","","39","","","","key","16.662081632652672","683","312.5","true","1","138.37376612351997","2.0615843020800004","12","-1","-1","","","","","","","","","","","","",""
"psychophysics","166","486500","0.0-12.0-0.37","5a5679b58e6259000175bec5","609a8bf73b2ac84e2732f618","609d74fcdd736343ce8cbc89","541.8599999975413","","","","37","","","","key","16.666445652174172","683","312.5","true","-1","136.31218182143996","2.0615843020800004","12","-1","-1","","","","","","","","","","","","",""
"psychophysics","167","489133","0.0-12.0-0.38","5a5679b58e6259000175bec5","609a8bf73b2ac84e2732f618","609d74fcdd736343ce8cbc89","1626.959999994142","","","","39","","","","key","16.772006410256534","683","312.5","true","1","136.31218182143996","2.0615843020800004","12","-1","-1","","","","","","","","","","","","",""
"psychophysics","168","490571","0.0-12.0-0.39","5a5679b58e6259000175bec5","609a8bf73b2ac84e2732f618","609d74fcdd736343ce8cbc89","426.77000000549015","","","","37","","","","key","16.67510465116221","683","312.5","true","-1","134.25059751935996","2.0615843020800004","12","-1","-1","","","","","","","","","","","","",""
"html-keyboard-response","169","493292","0.0-13.0","5a5679b58e6259000175bec5","609a8bf73b2ac84e2732f618","609d74fcdd736343ce8cbc89","2718.189999999595","<p>Well Done !</p><p>Prepare for a new block.</p><p>DON'T EXIT THE FULL SCREEN MODE</p><p>Press the Spacebar to start.</p>","","","32","","","","","","","","","","","","","","","true","136.911539474432","","","","","","","","","","",""
"html-keyboard-response","170","493399","0.0-14.0","5a5679b58e6259000175bec5","609a8bf73b2ac84e2732f618","609d74fcdd736343ce8cbc89","null","","","","null","","","","","","","","","","","","","","","","","136.34502509832055","true","144.6900501966411","","","","","","","",""
"instructions","171","683505","0.0-15.0","5a5679b58e6259000175bec5","609a8bf73b2ac84e2732f618","609d74fcdd736343ce8cbc89","190101.06000000087","","","","","","","[{""page_index"":0,""viewing_time"":94609.08500000369},{""page_index"":1,""viewing_time"":92350.74999999779},{""page_index"":2,""viewing_time"":3140.400000003865}]","","","","","","","","","","","","","","","","","","","","","","","",""
"psychophysics","172","686565","0.0-16.0-0.0","5a5679b58e6259000175bec5","609a8bf73b2ac84e2732f618","609d74fcdd736343ce8cbc89","null","","","","null","","","","key","16.936758064516564","683","312.5","","","","","","","","","","","","","","","","","","","",""
"psychophysics","173","687073","0.0-16.0-1.0","5a5679b58e6259000175bec5","609a8bf73b2ac84e2732f618","609d74fcdd736343ce8cbc89","null","","","","null","","","","key","16.650233333332775","683","312.5","","","","","","","","","","","","","145","-1","0","false","","","",""
"psychophysics","174","688070","0.0-16.0-2.0","5a5679b58e6259000175bec5","609a8bf73b2ac84e2732f618","609d74fcdd736343ce8cbc89","980.6300000054762","","","","90","","","","key","16.68060344827546","683","312.5","","","","","","","","","","","","","","","","","","","",""
"psychophysics","175","689550","0.0-16.0-0.1","5a5679b58e6259000175bec5","609a8bf73b2ac84e2732f618","609d74fcdd736343ce8cbc89","null","","","","null","","","","key","16.665303370785857","683","312.5","","","","","","","","","","","","","","","","","","","",""
"psychophysics","176","690098","0.0-16.0-1.1","5a5679b58e6259000175bec5","609a8bf73b2ac84e2732f618","609d74fcdd736343ce8cbc89","null","","","","null","","","","key","16.67975862068927","683","312.5","","","","","","","","","","","","","145","-1","2","false","","","",""
"psychophysics","177","692119","0.0-16.0-2.1","5a5679b58e6259000175bec5","609a8bf73b2ac84e2732f618","609d74fcdd736343ce8cbc89","2010.614999991958","","","","77","","","","key","16.947358333333007","683","312.5","","","","","","","","","","","","","","","","","","","",""
"psychophysics","178","693467","0.0-16.0-0.2","5a5679b58e6259000175bec5","609a8bf73b2ac84e2732f618","609d74fcdd736343ce8cbc89","null","","","","null","","","","key","16.66658024691235","683","312.5","","","","","","","","","","","","","","","","","","","",""
"psychophysics","179","693973","0.0-16.0-1.2","5a5679b58e6259000175bec5","609a8bf73b2ac84e2732f618","609d74fcdd736343ce8cbc89","null","","","","null","","","","key","16.68058620689533","683","312.5","","","","","","","","","","","","","145","1","5","false","","","",""
"psychophysics","180","695836","0.0-16.0-2.2","5a5679b58e6259000175bec5","609a8bf73b2ac84e2732f618","609d74fcdd736343ce8cbc89","1849.7549999883631","","","","77","","","","key","16.82100000000051","683","312.5","","","","","","","","","","","","","","","","","","","",""
"psychophysics","181","696696","0.0-16.0-0.3","5a5679b58e6259000175bec5","609a8bf73b2ac84e2732f618","609d74fcdd736343ce8cbc89","null","","","","null","","","","key","16.657340000001714","683","312.5","","","","","","","","","","","","","","","","","","","",""
"psychophysics","182","697235","0.0-16.0-1.3","5a5679b58e6259000175bec5","609a8bf73b2ac84e2732f618","609d74fcdd736343ce8cbc89","null","","","","null","","","","key","17.19238709677161","683","312.5","","","","","","","","","","","","","145","1","4","false","","","",""
"psychophysics","183","697877","0.0-16.0-2.3","5a5679b58e6259000175bec5","609a8bf73b2ac84e2732f618","609d74fcdd736343ce8cbc89","632.1849999949336","","","","90","","","","key","16.667189189188836","683","312.5","","","","","","","","","","","","","","","","","","","",""
"psychophysics","184","699185","0.0-16.0-0.4","5a5679b58e6259000175bec5","609a8bf73b2ac84e2732f618","609d74fcdd736343ce8cbc89","null","","","","null","","","","key","16.670115384615013","683","312.5","","","","","","","","","","","","","","","","","","","",""
"psychophysics","185","699689","0.0-16.0-1.4","5a5679b58e6259000175bec5","609a8bf73b2ac84e2732f618","609d74fcdd736343ce8cbc89","null","","","","null","","","","key","16.637068965516438","683","312.5","","","","","","","","","","","","","145","-1","5","false","","","",""
"psychophysics","186","700554","0.0-16.0-2.4","5a5679b58e6259000175bec5","609a8bf73b2ac84e2732f618","609d74fcdd736343ce8cbc89","859.1600000072503","","","","90","","","","key","16.659686274509237","683","312.5","","","","","","","","","","","","","","","","","","","",""
"psychophysics","187","701290","0.0-16.0-0.5","5a5679b58e6259000175bec5","609a8bf73b2ac84e2732f618","609d74fcdd736343ce8cbc89","null","","","","null","","","","key","16.66972093023414","683","312.5","","","","","","","","","","","","","","","","","","","",""
"psychophysics","188","701829","0.0-16.0-1.5","5a5679b58e6259000175bec5","609a8bf73b2ac84e2732f618","609d74fcdd736343ce8cbc89","null","","","","null","","","","key","17.22070000000143","683","312.5","","","","","","","","","","","","","145","-1","3","false","","","",""
"psychophysics","189","704376","0.0-16.0-2.5","5a5679b58e6259000175bec5","609a8bf73b2ac84e2732f618","609d74fcdd736343ce8cbc89","2537.1199999935925","","","","90","","","","key","16.66815789473721","683","312.5","","","","","","","","","","","","","","","","","","","",""
"psychophysics","190","705685","0.0-16.0-0.6","5a5679b58e6259000175bec5","609a8bf73b2ac84e2732f618","609d74fcdd736343ce8cbc89","null","","","","null","","","","key","16.666756410256195","683","312.5","","","","","","","","","","","","","","","","","","","",""
"psychophysics","191","706196","0.0-16.0-1.6","5a5679b58e6259000175bec5","609a8bf73b2ac84e2732f618","609d74fcdd736343ce8cbc89","null","","","","null","","","","key","16.67648275862127","683","312.5","","","","","","","","","","","","","145","1","0","false","","","",""
"psychophysics","192","707320","0.0-16.0-2.6","5a5679b58e6259000175bec5","609a8bf73b2ac84e2732f618","609d74fcdd736343ce8cbc89","1114.4550000026356","","","","77","","","","key","16.6602089552247","683","312.5","","","","","","","","","","","","","","","","","","","",""
"psychophysics","193","708301","0.0-16.0-0.7","5a5679b58e6259000175bec5","609a8bf73b2ac84e2732f618","609d74fcdd736343ce8cbc89","null","","","","null","","","","key","16.674551724139118","683","312.5","","","","","","","","","","","","","","","","","","","",""
"psychophysics","194","708806","0.0-16.0-1.7","5a5679b58e6259000175bec5","609a8bf73b2ac84e2732f618","609d74fcdd736343ce8cbc89","null","","","","null","","","","key","16.63772413793325","683","312.5","","","","","","","","","","","","","145","1","6","false","","","",""
"psychophysics","195","709387","0.0-16.0-2.7","5a5679b58e6259000175bec5","609a8bf73b2ac84e2732f618","609d74fcdd736343ce8cbc89","574.640000006184","","","","77","","","","key","16.66379411764758","683","312.5","","","","","","","","","","","","","","","","","","","",""
"psychophysics","196","710471","0.0-16.0-0.8","5a5679b58e6259000175bec5","609a8bf73b2ac84e2732f618","609d74fcdd736343ce8cbc89","null","","","","null","","","","key","16.671593749999374","683","312.5","","","","","","","","","","","","","","","","","","","",""
"psychophysics","197","710980","0.0-16.0-1.8","5a5679b58e6259000175bec5","609a8bf73b2ac84e2732f618","609d74fcdd736343ce8cbc89","null","","","","null","","","","key","16.693068965518815","683","312.5","","","","","","","","","","","","","145","1","2","false","","","",""
"psychophysics","198","712687","0.0-16.0-2.8","5a5679b58e6259000175bec5","609a8bf73b2ac84e2732f618","609d74fcdd736343ce8cbc89","1697.1800000028452","","","","77","","","","key","16.665509803922546","683","312.5","","","","","","","","","","","","","","","","","","","",""
"psychophysics","199","713946","0.0-16.0-0.9","5a5679b58e6259000175bec5","609a8bf73b2ac84e2732f618","609d74fcdd736343ce8cbc89","null","","","","null","","","","key","16.672256756757978","683","312.5","","","","","","","","","","","","","","","","","","","",""
"psychophysics","200","714452","0.0-16.0-1.9","5a5679b58e6259000175bec5","609a8bf73b2ac84e2732f618","609d74fcdd736343ce8cbc89","null","","","","null","","","","key","16.663000000000466","683","312.5","","","","","","","","","","","","","145","1","3","false","","","",""
"psychophysics","201","715335","0.0-16.0-2.9","5a5679b58e6259000175bec5","609a8bf73b2ac84e2732f618","609d74fcdd736343ce8cbc89","875.8749999979045","","","","90","","","","key","16.68111764705813","683","312.5","","","","","","","","","","","","","","","","","","","",""
"psychophysics","202","716723","0.0-16.0-0.10","5a5679b58e6259000175bec5","609a8bf73b2ac84e2732f618","609d74fcdd736343ce8cbc89","null","","","","null","","","","key","16.858487804877434","683","312.5","","","","","","","","","","","","","","","","","","","",""
"psychophysics","203","717231","0.0-16.0-1.10","5a5679b58e6259000175bec5","609a8bf73b2ac84e2732f618","609d74fcdd736343ce8cbc89","null","","","","null","","","","key","16.688551724137707","683","312.5","","","","","","","","","","","","","145","-1","4","false","","","",""
"psychophysics","204","717918","0.0-16.0-2.10","5a5679b58e6259000175bec5","609a8bf73b2ac84e2732f618","609d74fcdd736343ce8cbc89","677.5699999998324","","","","90","","","","key","16.65689999999886","683","312.5","","","","","","","","","","","","","","","","","","","",""
"psychophysics","205","718815","0.0-16.0-0.11","5a5679b58e6259000175bec5","609a8bf73b2ac84e2732f618","609d74fcdd736343ce8cbc89","null","","","","null","","","","key","16.67611320754777","683","312.5","","","","","","","","","","","","","","","","","","","",""
"psychophysics","206","719326","0.0-16.0-1.11","5a5679b58e6259000175bec5","609a8bf73b2ac84e2732f618","609d74fcdd736343ce8cbc89","null","","","","null","","","","key","16.656600000003042","683","312.5","","","","","","","","","","","","","145","-1","6","false","","","",""
"psychophysics","207","719986","0.0-16.0-2.11","5a5679b58e6259000175bec5","609a8bf73b2ac84e2732f618","609d74fcdd736343ce8cbc89","647.8000000061002","","","","77","","","","key","16.67717948718032","683","312.5","","","","","","","","","","","","","","","","","","","",""
"psychophysics","208","720848","0.0-16.0-0.12","5a5679b58e6259000175bec5","609a8bf73b2ac84e2732f618","609d74fcdd736343ce8cbc89","null","","","","null","","","","key","16.67993999999948","683","312.5","","","","","","","","","","","","","","","","","","","",""
"psychophysics","209","721388","0.0-16.0-1.12","5a5679b58e6259000175bec5","609a8bf73b2ac84e2732f618","609d74fcdd736343ce8cbc89","null","","","","null","","","","key","17.154806451612874","683","312.5","","","","","","","","","","","","","145","1","3","false","","","",""
"psychophysics","210","722356","0.0-16.0-2.12","5a5679b58e6259000175bec5","609a8bf73b2ac84e2732f618","609d74fcdd736343ce8cbc89","952.305000013439","","","","77","","","","key","16.680140350875853","683","312.5","","","","","","","","","","","","","","","","","","","",""
"psychophysics","211","722880","0.0-16.0-0.13","5a5679b58e6259000175bec5","609a8bf73b2ac84e2732f618","609d74fcdd736343ce8cbc89","null","","","","null","","","","key","16.666499999999846","683","312.5","","","","","","","","","","","","","","","","","","","",""
"psychophysics","212","723387","0.0-16.0-1.13","5a5679b58e6259000175bec5","609a8bf73b2ac84e2732f618","609d74fcdd736343ce8cbc89","null","","","","null","","","","key","16.631899999997888","683","312.5","","","","","","","","","","","","","145","1","6","false","","","",""
"psychophysics","213","723992","0.0-16.0-2.13","5a5679b58e6259000175bec5","609a8bf73b2ac84e2732f618","609d74fcdd736343ce8cbc89","600.2549999975599","","","","90","","","","key","16.680371428570442","683","312.5","","","","","","","","","","","","","","","","","","","",""
"psychophysics","214","725006","0.0-16.0-0.14","5a5679b58e6259000175bec5","609a8bf73b2ac84e2732f618","609d74fcdd736343ce8cbc89","null","","","","null","","","","key","16.672533333334528","683","312.5","","","","","","","","","","","","","","","","","","","",""
"psychophysics","215","725513","0.0-16.0-1.14","5a5679b58e6259000175bec5","609a8bf73b2ac84e2732f618","609d74fcdd736343ce8cbc89","null","","","","null","","","","key","16.690206896553843","683","312.5","","","","","","","","","","","","","145","1","0","false","","","",""
"psychophysics","216","726120","0.0-16.0-2.14","5a5679b58e6259000175bec5","609a8bf73b2ac84e2732f618","609d74fcdd736343ce8cbc89","562.3699999996461","","","","90","","","","key","16.64072222222199","683","312.5","","","","","","","","","","","","","","","","","","","",""
"psychophysics","217","726819","0.0-16.0-0.15","5a5679b58e6259000175bec5","609a8bf73b2ac84e2732f618","609d74fcdd736343ce8cbc89","null","","","","null","","","","key","16.670170731706225","683","312.5","","","","","","","","","","","","","","","","","","","",""
"psychophysics","218","727329","0.0-16.0-1.15","5a5679b58e6259000175bec5","609a8bf73b2ac84e2732f618","609d74fcdd736343ce8cbc89","null","","","","null","","","","key","16.637241379309703","683","312.5","","","","","","","","","","","","","145","1","5","false","","","",""
"psychophysics","219","727808","0.0-16.0-2.15","5a5679b58e6259000175bec5","609a8bf73b2ac84e2732f618","609d74fcdd736343ce8cbc89","469.9749999999767","","","","77","","","","key","16.676892857142125","683","312.5","","","","","","","","","","","","","","","","","","","",""
"psychophysics","220","728433","0.0-16.0-0.16","5a5679b58e6259000175bec5","609a8bf73b2ac84e2732f618","609d74fcdd736343ce8cbc89","null","","","","null","","","","key","16.669621621620387","683","312.5","","","","","","","","","","","","","","","","","","","",""
"psychophysics","221","728941","0.0-16.0-1.16","5a5679b58e6259000175bec5","609a8bf73b2ac84e2732f618","609d74fcdd736343ce8cbc89","null","","","","null","","","","key","16.682068965518205","683","312.5","","","","","","","","","","","","","145","1","4","false","","","",""
"psychophysics","222","729576","0.0-16.0-2.16","5a5679b58e6259000175bec5","609a8bf73b2ac84e2732f618","609d74fcdd736343ce8cbc89","624.0600000019185","","","","77","","","","key","16.663567567568247","683","312.5","","","","","","","","","","","","","","","","","","","",""
"psychophysics","223","730628","0.0-16.0-0.17","5a5679b58e6259000175bec5","609a8bf73b2ac84e2732f618","609d74fcdd736343ce8cbc89","null","","","","null","","","","key","16.938967213114786","683","312.5","","","","","","","","","","","","","","","","","","","",""
"psychophysics","224","731137","0.0-16.0-1.17","5a5679b58e6259000175bec5","609a8bf73b2ac84e2732f618","609d74fcdd736343ce8cbc89","null","","","","null","","","","key","16.677933333332962","683","312.5","","","","","","","","","","","","","145","-1","6","false","","","",""
"psychophysics","225","731850","0.0-16.0-2.17","5a5679b58e6259000175bec5","609a8bf73b2ac84e2732f618","609d74fcdd736343ce8cbc89","708.6149999959162","","","","90","","","","key","16.66182926829291","683","312.5","","","","","","","","","","","","","","","","","","","",""
"psychophysics","226","732663","0.0-16.0-0.18","5a5679b58e6259000175bec5","609a8bf73b2ac84e2732f618","609d74fcdd736343ce8cbc89","null","","","","null","","","","key","16.688770833333063","683","312.5","","","","","","","","","","","","","","","","","","","",""
"psychophysics","227","733175","0.0-16.0-1.18","5a5679b58e6259000175bec5","609a8bf73b2ac84e2732f618","609d74fcdd736343ce8cbc89","null","","","","null","","","","key","16.669533333333675","683","312.5","","","","","","","","","","","","","145","1","2","false","","","",""
"psychophysics","228","734065","0.0-16.0-2.18","5a5679b58e6259000175bec5","609a8bf73b2ac84e2732f618","609d74fcdd736343ce8cbc89","877.44000001112","","","","90","","","","key","16.66526923076778","683","312.5","","","","","","","","","","","","","","","","","","","",""
"psychophysics","229","735027","0.0-16.0-0.19","5a5679b58e6259000175bec5","609a8bf73b2ac84e2732f618","609d74fcdd736343ce8cbc89","null","","","","null","","","","key","16.669298245614442","683","312.5","","","","","","","","","","","","","","","","","","","",""
"psychophysics","230","735534","0.0-16.0-1.19","5a5679b58e6259000175bec5","609a8bf73b2ac84e2732f618","609d74fcdd736343ce8cbc89","null","","","","null","","","","key","16.680500000001242","683","312.5","","","","","","","","","","","","","145","-1","2","false","","","",""
"psychophysics","231","736068","0.0-16.0-2.19","5a5679b58e6259000175bec5","609a8bf73b2ac84e2732f618","609d74fcdd736343ce8cbc89","527.6149999990594","","","","90","","","","key","16.65277419354947","683","312.5","","","","","","","","","","","","","","","","","","","",""
"psychophysics","232","736984","0.0-16.0-0.20","5a5679b58e6259000175bec5","609a8bf73b2ac84e2732f618","609d74fcdd736343ce8cbc89","null","","","","null","","","","key","16.68092592592627","683","312.5","","","","","","","","","","","","","","","","","","","",""
"psychophysics","233","737494","0.0-16.0-1.20","5a5679b58e6259000175bec5","609a8bf73b2ac84e2732f618","609d74fcdd736343ce8cbc89","null","","","","null","","","","key","16.63348275862217","683","312.5","","","","","","","","","","","","","145","-1","3","false","","","",""
"psychophysics","234","738617","0.0-16.0-2.20","5a5679b58e6259000175bec5","609a8bf73b2ac84e2732f618","609d74fcdd736343ce8cbc89","1113.5300000023562","","","","77","","","","key","16.664373134328887","683","312.5","","","","","","","","","","","","","","","","","","","",""
"psychophysics","235","740028","0.0-16.0-0.21","5a5679b58e6259000175bec5","609a8bf73b2ac84e2732f618","609d74fcdd736343ce8cbc89","null","","","","null","","","","key","16.669915662650634","683","312.5","","","","","","","","","","","","","","","","","","","",""
"psychophysics","236","740535","0.0-16.0-1.21","5a5679b58e6259000175bec5","609a8bf73b2ac84e2732f618","609d74fcdd736343ce8cbc89","null","","","","null","","","","key","16.653233333331688","683","312.5","","","","","","","","","","","","","145","-1","4","false","","","",""
"psychophysics","237","740838","0.0-16.0-2.21","5a5679b58e6259000175bec5","609a8bf73b2ac84e2732f618","609d74fcdd736343ce8cbc89","297.6550000021234","","","","90","","","","key","16.6604117647101","683","312.5","","","","","","","","","","","","","","","","","","","",""
"psychophysics","238","741569","0.0-16.0-0.22","5a5679b58e6259000175bec5","609a8bf73b2ac84e2732f618","609d74fcdd736343ce8cbc89","null","","","","null","","","","key","16.66827906976822","683","312.5","","","","","","","","","","","","","","","","","","","",""
"psychophysics","239","742076","0.0-16.0-1.22","5a5679b58e6259000175bec5","609a8bf73b2ac84e2732f618","609d74fcdd736343ce8cbc89","null","","","","null","","","","key","16.660482758620017","683","312.5","","","","","","","","","","","","","145","-1","0","false","","","",""
"psychophysics","240","742581","0.0-16.0-2.22","5a5679b58e6259000175bec5","609a8bf73b2ac84e2732f618","609d74fcdd736343ce8cbc89","492.84500000067055","","","","90","","","","key","16.680034482755282","683","312.5","","","","","","","","","","","","","","","","","","","",""
"psychophysics","241","743347","0.0-16.0-0.23","5a5679b58e6259000175bec5","609a8bf73b2ac84e2732f618","609d74fcdd736343ce8cbc89","null","","","","null","","","","key","16.679434782607764","683","312.5","","","","","","","","","","","","","","","","","","","",""
"psychophysics","242","743850","0.0-16.0-1.23","5a5679b58e6259000175bec5","609a8bf73b2ac84e2732f618","609d74fcdd736343ce8cbc89","null","","","","null","","","","key","16.634758620687503","683","312.5","","","","","","","","","","","","","145","-1","5","false","","","",""
"psychophysics","243","744175","0.0-16.0-2.23","5a5679b58e6259000175bec5","609a8bf73b2ac84e2732f618","609d74fcdd736343ce8cbc89","319.41000001097564","","","","90","","","","key","16.62216666666791","683","312.5","","","","","","","","","","","","","","","","","","","",""
"html-keyboard-response","244","746739","0.0-17.0","5a5679b58e6259000175bec5","609a8bf73b2ac84e2732f618","609d74fcdd736343ce8cbc89","2558.434999999008","<p>Well Done !</p><p>Training Complete. Press the spacebar to start.</p><p>DON'T EXIT THE FULL SCREEN MODE</p>","","","32","","","","","","","","","","","","","","","","","","","","","","","","","","",""
"psychophysics","245","749913","0.0-18.0-0.0","5a5679b58e6259000175bec5","609a8bf73b2ac84e2732f618","609d74fcdd736343ce8cbc89","null","","","","null","","","","key","16.665542857142697","683","312.5","","","","","","","","","","","","","","","","","","","",""
"psychophysics","246","750422","0.0-18.0-1.0","5a5679b58e6259000175bec5","609a8bf73b2ac84e2732f618","609d74fcdd736343ce8cbc89","null","","","","null","","","","key","16.665724137930425","683","312.5","","","","","","","","","","","","","145","1","4","true","","","",""
"psychophysics","247","834574","0.0-18.0-2.0","5a5679b58e6259000175bec5","609a8bf73b2ac84e2732f618","609d74fcdd736343ce8cbc89","84136.7450000107","","","","90","","","","key","16.666491877971474","683","312.5","","","","","","","","","","","","","","","","","","","",""
"psychophysics","248","835616","0.0-18.0-0.1","5a5679b58e6259000175bec5","609a8bf73b2ac84e2732f618","609d74fcdd736343ce8cbc89","null","","","","null","","","","key","16.664854838708116","683","312.5","","","","","","","","","","","","","","","","","","","",""
"psychophysics","249","836124","0.0-18.0-1.1","5a5679b58e6259000175bec5","609a8bf73b2ac84e2732f618","609d74fcdd736343ce8cbc89","null","","","","null","","","","key","16.664034482758044","683","312.5","","","","","","","","","","","","","145","-1","5","true","","","",""
"psychophysics","250","836563","0.0-18.0-2.1","5a5679b58e6259000175bec5","609a8bf73b2ac84e2732f618","609d74fcdd736343ce8cbc89","428.02999999548774","","","","90","","","","key","16.663159999996424","683","312.5","","","","","","","","","","","","","","","","","","","",""
"psychophysics","251","837568","0.0-18.0-0.2","5a5679b58e6259000175bec5","609a8bf73b2ac84e2732f618","609d74fcdd736343ce8cbc89","null","","","","null","","","","key","16.666466666666867","683","312.5","","","","","","","","","","","","","","","","","","","",""
"psychophysics","252","838077","0.0-18.0-1.2","5a5679b58e6259000175bec5","609a8bf73b2ac84e2732f618","609d74fcdd736343ce8cbc89","null","","","","null","","","","key","16.665517241380915","683","312.5","","","","","","","","","","","","","145","1","2","true","","","",""
"psychophysics","253","838540","0.0-18.0-2.2","5a5679b58e6259000175bec5","609a8bf73b2ac84e2732f618","609d74fcdd736343ce8cbc89","452.96999999845866","","","","90","","","","key","16.683296296297126","683","312.5","","","","","","","","","","","","","","","","","","","",""
"psychophysics","254","839877","0.0-18.0-0.3","5a5679b58e6259000175bec5","609a8bf73b2ac84e2732f618","609d74fcdd736343ce8cbc89","null","","","","null","","","","key","16.671468354430036","683","312.5","","","","","","","","","","","","","","","","","","","",""
"psychophysics","255","840388","0.0-18.0-1.3","5a5679b58e6259000175bec5","609a8bf73b2ac84e2732f618","609d74fcdd736343ce8cbc89","null","","","","null","","","","key","16.681233333330603","683","312.5","","","","","","","","","","","","","145","1","5","true","","","",""
"psychophysics","256","840670","0.0-18.0-2.3","5a5679b58e6259000175bec5","609a8bf73b2ac84e2732f618","609d74fcdd736343ce8cbc89","277.35000000393484","","","","77","","","","key","16.6328125","683","312.5","","","","","","","","","","","","","","","","","","","",""
"psychophysics","257","842005","0.0-18.0-0.4","5a5679b58e6259000175bec5","609a8bf73b2ac84e2732f618","609d74fcdd736343ce8cbc89","null","","","","null","","","","key","16.672544303796656","683","312.5","","","","","","","","","","","","","","","","","","","",""
"psychophysics","258","842512","0.0-18.0-1.4","5a5679b58e6259000175bec5","609a8bf73b2ac84e2732f618","609d74fcdd736343ce8cbc89","null","","","","null","","","","key","16.67403448275933","683","312.5","","","","","","","","","","","","","145","-1","4","true","","","",""
"psychophysics","259","843091","0.0-18.0-2.4","5a5679b58e6259000175bec5","609a8bf73b2ac84e2732f618","609d74fcdd736343ce8cbc89","568.7049999978626","","","","90","","","","key","16.664029411762705","683","312.5","","","","","","","","","","","","","","","","","","","",""
"psychophysics","260","844146","0.0-18.0-0.5","5a5679b58e6259000175bec5","609a8bf73b2ac84e2732f618","609d74fcdd736343ce8cbc89","null","","","","null","","","","key","16.679741935483406","683","312.5","","","","","","","","","","","","","","","","","","","",""
"psychophysics","261","844656","0.0-18.0-1.5","5a5679b58e6259000175bec5","609a8bf73b2ac84e2732f618","609d74fcdd736343ce8cbc89","null","","","","null","","","","key","16.659300000003228","683","312.5","","","","","","","","","","","","","145","1","0","true","","","",""
"psychophysics","262","845183","0.0-18.0-2.5","5a5679b58e6259000175bec5","609a8bf73b2ac84e2732f618","609d74fcdd736343ce8cbc89","514.3949999910546","","","","77","","","","key","16.67103333333119","683","312.5","","","","","","","","","","","","","","","","","","","",""
"psychophysics","263","846144","0.0-18.0-0.6","5a5679b58e6259000175bec5","609a8bf73b2ac84e2732f618","609d74fcdd736343ce8cbc89","null","","","","null","","","","key","16.679771929824103","683","312.5","","","","","","","","","","","","","","","","","","","",""
"psychophysics","264","846653","0.0-18.0-1.6","5a5679b58e6259000175bec5","609a8bf73b2ac84e2732f618","609d74fcdd736343ce8cbc89","null","","","","null","","","","key","16.701166666663873","683","312.5","","","","","","","","","","","","","145","-1","2","true","","","",""
"psychophysics","265","847151","0.0-18.0-2.6","5a5679b58e6259000175bec5","609a8bf73b2ac84e2732f618","609d74fcdd736343ce8cbc89","492.3149999958696","","","","90","","","","key","16.6647241379311","683","312.5","","","","","","","","","","","","","","","","","","","",""
"psychophysics","266","848329","0.0-18.0-0.7","5a5679b58e6259000175bec5","609a8bf73b2ac84e2732f618","609d74fcdd736343ce8cbc89","null","","","","null","","","","key","16.671376811595216","683","312.5","","","","","","","","","","","","","","","","","","","",""
"psychophysics","267","848839","0.0-18.0-1.7","5a5679b58e6259000175bec5","609a8bf73b2ac84e2732f618","609d74fcdd736343ce8cbc89","null","","","","null","","","","key","16.65513333333268","683","312.5","","","","","","","","","","","","","145","-1","0","true","","","",""
"psychophysics","268","849289","0.0-18.0-2.7","5a5679b58e6259000175bec5","609a8bf73b2ac84e2732f618","609d74fcdd736343ce8cbc89","437.3149999883026","","","","90","","","","key","16.687769230768588","683","312.5","","","","","","","","","","","","","","","","","","","",""
"psychophysics","269","849798","0.0-18.0-0.8","5a5679b58e6259000175bec5","609a8bf73b2ac84e2732f618","609d74fcdd736343ce8cbc89","null","","","","null","","","","key","16.67923333333262","683","312.5","","","","","","","","","","","","","","","","","","","",""
"psychophysics","270","850302","0.0-18.0-1.8","5a5679b58e6259000175bec5","609a8bf73b2ac84e2732f618","609d74fcdd736343ce8cbc89","null","","","","null","","","","key","16.653413793100206","683","312.5","","","","","","","","","","","","","145","-1","3","true","","","",""
"psychophysics","271","850758","0.0-18.0-2.8","5a5679b58e6259000175bec5","609a8bf73b2ac84e2732f618","609d74fcdd736343ce8cbc89","451.44999999320135","","","","77","","","","key","16.680384615382465","683","312.5","","","","","","","","","","","","","","","","","","","",""
"psychophysics","272","851331","0.0-18.0-0.9","5a5679b58e6259000175bec5","609a8bf73b2ac84e2732f618","609d74fcdd736343ce8cbc89","null","","","","null","","","","key","17.178333333333615","683","312.5","","","","","","","","","","","","","","","","","","","",""
"psychophysics","273","851835","0.0-18.0-1.9","5a5679b58e6259000175bec5","609a8bf73b2ac84e2732f618","609d74fcdd736343ce8cbc89","null","","","","null","","","","key","16.670517241381557","683","312.5","","","","","","","","","","","","","145","1","3","true","","","",""
"psychophysics","274","852234","0.0-18.0-2.9","5a5679b58e6259000175bec5","609a8bf73b2ac84e2732f618","609d74fcdd736343ce8cbc89","394.1599999961909","","","","90","","","","key","16.6685217391325","683","312.5","","","","","","","","","","","","","","","","","","","",""
"psychophysics","275","852978","0.0-18.0-0.10","5a5679b58e6259000175bec5","609a8bf73b2ac84e2732f618","609d74fcdd736343ce8cbc89","null","","","","null","","","","key","16.674953488370424","683","312.5","","","","","","","","","","","","","","","","","","","",""
"psychophysics","276","853489","0.0-18.0-1.10","5a5679b58e6259000175bec5","609a8bf73b2ac84e2732f618","609d74fcdd736343ce8cbc89","null","","","","null","","","","key","16.6625","683","312.5","","","","","","","","","","","","","145","-1","6","true","","","",""
"psychophysics","277","853904","0.0-18.0-2.10","5a5679b58e6259000175bec5","609a8bf73b2ac84e2732f618","609d74fcdd736343ce8cbc89","403.0849999981001","","","","77","","","","key","16.669434782608572","683","312.5","","","","","","","","","","","","","","","","","","","",""
"psychophysics","278","855262","0.0-18.0-0.11","5a5679b58e6259000175bec5","609a8bf73b2ac84e2732f618","609d74fcdd736343ce8cbc89","null","","","","null","","","","key","16.677790123456226","683","312.5","","","","","","","","","","","","","","","","","","","",""
"psychophysics","279","855767","0.0-18.0-1.11","5a5679b58e6259000175bec5","609a8bf73b2ac84e2732f618","609d74fcdd736343ce8cbc89","null","","","","null","","","","key","16.647500000001553","683","312.5","","","","","","","","","","","","","145","1","6","true","","","",""
"psychophysics","280","856248","0.0-18.0-2.11","5a5679b58e6259000175bec5","609a8bf73b2ac84e2732f618","609d74fcdd736343ce8cbc89","474.05000000435393","","","","77","","","","key","16.662444444442237","683","312.5","","","","","","","","","","","","","","","","","","","",""
"psychophysics","281","857584","0.0-18.0-0.12","5a5679b58e6259000175bec5","609a8bf73b2ac84e2732f618","609d74fcdd736343ce8cbc89","null","","","","null","","","","key","16.663149999998858","683","312.5","","","","","","","","","","","","","","","","","","","",""
"psychophysics","282","858093","0.0-18.0-1.12","5a5679b58e6259000175bec5","609a8bf73b2ac84e2732f618","609d74fcdd736343ce8cbc89","null","","","","null","","","","key","16.668633333333613","683","312.5","","","","","","","","","","","","","145","1","3","true","","","",""
"psychophysics","283","858373","0.0-18.0-2.12","5a5679b58e6259000175bec5","609a8bf73b2ac84e2732f618","609d74fcdd736343ce8cbc89","272.0499999995809","","","","77","","","","key","16.645800000002296","683","312.5","","","","","","","","","","","","","","","","","","","",""
"psychophysics","284","859558","0.0-18.0-0.13","5a5679b58e6259000175bec5","609a8bf73b2ac84e2732f618","609d74fcdd736343ce8cbc89","null","","","","null","","","","key","16.675521126761378","683","312.5","","","","","","","","","","","","","","","","","","","",""
"psychophysics","285","860061","0.0-18.0-1.13","5a5679b58e6259000175bec5","609a8bf73b2ac84e2732f618","609d74fcdd736343ce8cbc89","null","","","","null","","","","key","16.651965517241603","683","312.5","","","","","","","","","","","","","145","-1","3","true","","","",""
"psychophysics","286","860685","0.0-18.0-2.13","5a5679b58e6259000175bec5","609a8bf73b2ac84e2732f618","609d74fcdd736343ce8cbc89","578.9950000034878","","","","77","","","","key","17.160142857142326","683","312.5","","","","","","","","","","","","","","","","","","","",""
"psychophysics","287","861843","0.0-18.0-0.14","5a5679b58e6259000175bec5","609a8bf73b2ac84e2732f618","609d74fcdd736343ce8cbc89","null","","","","null","","","","key","16.668521739129126","683","312.5","","","","","","","","","","","","","","","","","","","",""
"psychophysics","288","862348","0.0-18.0-1.14","5a5679b58e6259000175bec5","609a8bf73b2ac84e2732f618","609d74fcdd736343ce8cbc89","null","","","","null","","","","key","16.67868965516943","683","312.5","","","","","","","","","","","","","145","-1","2","true","","","",""
"psychophysics","289","862563","0.0-18.0-2.14","5a5679b58e6259000175bec5","609a8bf73b2ac84e2732f618","609d74fcdd736343ce8cbc89","199.89999999233987","","","","90","","","","key","16.694500000002638","683","312.5","","","","","","","","","","","","","","","","","","","",""
"psychophysics","290","863738","0.0-18.0-0.15","5a5679b58e6259000175bec5","609a8bf73b2ac84e2732f618","609d74fcdd736343ce8cbc89","null","","","","null","","","","key","16.67936231883958","683","312.5","","","","","","","","","","","","","","","","","","","",""
"psychophysics","291","864244","0.0-18.0-1.15","5a5679b58e6259000175bec5","609a8bf73b2ac84e2732f618","609d74fcdd736343ce8cbc89","null","","","","null","","","","key","16.639366666666078","683","312.5","","","","","","","","","","","","","145","1","0","true","","","",""
"psychophysics","292","864679","0.0-18.0-2.15","5a5679b58e6259000175bec5","609a8bf73b2ac84e2732f618","609d74fcdd736343ce8cbc89","429.9300000129733","","","","77","","","","key","16.68468000000343","683","312.5","","","","","","","","","","","","","","","","","","","",""
"psychophysics","293","865978","0.0-18.0-0.16","5a5679b58e6259000175bec5","609a8bf73b2ac84e2732f618","609d74fcdd736343ce8cbc89","null","","","","null","","","","key","16.682922077921596","683","312.5","","","","","","","","","","","","","","","","","","","",""
"psychophysics","294","866487","0.0-18.0-1.16","5a5679b58e6259000175bec5","609a8bf73b2ac84e2732f618","609d74fcdd736343ce8cbc89","null","","","","null","","","","key","16.643827586205965","683","312.5","","","","","","","","","","","","","145","1","5","true","","","",""
"psychophysics","295","866762","0.0-18.0-2.16","5a5679b58e6259000175bec5","609a8bf73b2ac84e2732f618","609d74fcdd736343ce8cbc89","264.79999998991843","","","","77","","","","key","16.6909375000032","683","312.5","","","","","","","","","","","","","","","","","","","",""
"psychophysics","296","867697","0.0-18.0-0.17","5a5679b58e6259000175bec5","609a8bf73b2ac84e2732f618","609d74fcdd736343ce8cbc89","null","","","","null","","","","key","16.67539999999995","683","312.5","","","","","","","","","","","","","","","","","","","",""
"psychophysics","297","868203","0.0-18.0-1.17","5a5679b58e6259000175bec5","609a8bf73b2ac84e2732f618","609d74fcdd736343ce8cbc89","null","","","","null","","","","key","16.670137931034773","683","312.5","","","","","","","","","","","","","145","-1","0","true","","","",""
"psychophysics","298","868477","0.0-18.0-2.17","5a5679b58e6259000175bec5","609a8bf73b2ac84e2732f618","609d74fcdd736343ce8cbc89","263.7600000016391","","","","77","","","","key","16.683625000005122","683","312.5","","","","","","","","","","","","","","","","","","","",""
"psychophysics","299","869088","0.0-18.0-0.18","5a5679b58e6259000175bec5","609a8bf73b2ac84e2732f618","609d74fcdd736343ce8cbc89","null","","","","null","","","","key","16.680599999999895","683","312.5","","","","","","","","","","","","","","","","","","","",""
"psychophysics","300","869598","0.0-18.0-1.18","5a5679b58e6259000175bec5","609a8bf73b2ac84e2732f618","609d74fcdd736343ce8cbc89","null","","","","null","","","","key","16.661200000000342","683","312.5","","","","","","","","","","","","","145","1","4","true","","","",""
"psychophysics","301","869807","0.0-18.0-2.18","5a5679b58e6259000175bec5","609a8bf73b2ac84e2732f618","609d74fcdd736343ce8cbc89","195.26999999652617","","","","77","","","","key","16.70063636364119","683","312.5","","","","","","","","","","","","","","","","","","","",""
"psychophysics","302","870577","0.0-18.0-0.19","5a5679b58e6259000175bec5","609a8bf73b2ac84e2732f618","609d74fcdd736343ce8cbc89","null","","","","null","","","","key","16.648173913043298","683","312.5","","","","","","","","","","","","","","","","","","","",""
"psychophysics","303","871088","0.0-18.0-1.19","5a5679b58e6259000175bec5","609a8bf73b2ac84e2732f618","609d74fcdd736343ce8cbc89","null","","","","null","","","","key","16.65544827586313","683","312.5","","","","","","","","","","","","","145","-1","6","true","","","",""
"psychophysics","304","871494","0.0-18.0-2.19","5a5679b58e6259000175bec5","609a8bf73b2ac84e2732f618","609d74fcdd736343ce8cbc89","395.14999999664724","","","","77","","","","key","16.6387916666669","683","312.5","","","","","","","","","","","","","","","","","","","",""
"psychophysics","305","872463","0.0-18.0-0.20","5a5679b58e6259000175bec5","609a8bf73b2ac84e2732f618","609d74fcdd736343ce8cbc89","null","","","","null","","","","key","16.66975438596452","683","312.5","","","","","","","","","","","","","","","","","","","",""
"psychophysics","306","872972","0.0-18.0-1.20","5a5679b58e6259000175bec5","609a8bf73b2ac84e2732f618","609d74fcdd736343ce8cbc89","null","","","","null","","","","key","16.685655172416492","683","312.5","","","","","","","","","","","","","145","-1","5","true","","","",""
"psychophysics","307","873167","0.0-18.0-2.20","5a5679b58e6259000175bec5","609a8bf73b2ac84e2732f618","609d74fcdd736343ce8cbc89","159.6750000026077","","","","77","","","","key","16.759727272723634","683","312.5","","","","","","","","","","","","","","","","","","","",""
"psychophysics","308","874342","0.0-18.0-0.21","5a5679b58e6259000175bec5","609a8bf73b2ac84e2732f618","609d74fcdd736343ce8cbc89","null","","","","null","","","","key","16.662357142857008","683","312.5","","","","","","","","","","","","","","","","","","","",""
"psychophysics","309","874850","0.0-18.0-1.21","5a5679b58e6259000175bec5","609a8bf73b2ac84e2732f618","609d74fcdd736343ce8cbc89","null","","","","null","","","","key","16.67255172414047","683","312.5","","","","","","","","","","","","","145","1","6","true","","","",""
"psychophysics","310","875116","0.0-18.0-2.21","5a5679b58e6259000175bec5","609a8bf73b2ac84e2732f618","609d74fcdd736343ce8cbc89","254.27000000490807","","","","77","","","","key","16.70659999999528","683","312.5","","","","","","","","","","","","","","","","","","","",""
"psychophysics","311","875791","0.0-18.0-0.22","5a5679b58e6259000175bec5","609a8bf73b2ac84e2732f618","609d74fcdd736343ce8cbc89","null","","","","null","","","","key","16.66617499999993","683","312.5","","","","","","","","","","","","","","","","","","","",""
"psychophysics","312","876295","0.0-18.0-1.22","5a5679b58e6259000175bec5","609a8bf73b2ac84e2732f618","609d74fcdd736343ce8cbc89","null","","","","null","","","","key","16.667620689656328","683","312.5","","","","","","","","","","","","","145","1","2","true","","","",""
"psychophysics","313","876778","0.0-18.0-2.22","5a5679b58e6259000175bec5","609a8bf73b2ac84e2732f618","609d74fcdd736343ce8cbc89","477.9100000014296","","","","77","","","","key","16.685642857146117","683","312.5","","","","","","","","","","","","","","","","","","","",""
"psychophysics","314","877598","0.0-18.0-0.23","5a5679b58e6259000175bec5","609a8bf73b2ac84e2732f618","609d74fcdd736343ce8cbc89","null","","","","null","","","","key","17.013127659573815","683","312.5","","","","","","","","","","","","","","","","","","","",""
"psychophysics","315","878103","0.0-18.0-1.23","5a5679b58e6259000175bec5","609a8bf73b2ac84e2732f618","609d74fcdd736343ce8cbc89","null","","","","null","","","","key","16.680034482755282","683","312.5","","","","","","","","","","","","","145","-1","4","true","","","",""
"psychophysics","316","878510","0.0-18.0-2.23","5a5679b58e6259000175bec5","609a8bf73b2ac84e2732f618","609d74fcdd736343ce8cbc89","395.6799999868963","","","","77","","","","key","16.65587499999674","683","312.5","","","","","","","","","","","","","","","","","","","",""
"psychophysics","317","879954","0.0-18.0-0.24","5a5679b58e6259000175bec5","609a8bf73b2ac84e2732f618","609d74fcdd736343ce8cbc89","null","","","","null","","","","key","16.665623529411523","683","312.5","","","","","","","","","","","","","","","","","","","",""
"psychophysics","318","880465","0.0-18.0-1.24","5a5679b58e6259000175bec5","609a8bf73b2ac84e2732f618","609d74fcdd736343ce8cbc89","null","","","","null","","","","key","16.683833333333798","683","312.5","","","","","","","","","","","","","145","1","5","true","","","",""
"psychophysics","319","880628","0.0-18.0-2.24","5a5679b58e6259000175bec5","609a8bf73b2ac84e2732f618","609d74fcdd736343ce8cbc89","157.73500000068452","","","","77","","","","key","16.672222222227397","683","312.5","","","","","","","","","","","","","","","","","","","",""
"psychophysics","320","881682","0.0-18.0-0.25","5a5679b58e6259000175bec5","609a8bf73b2ac84e2732f618","609d74fcdd736343ce8cbc89","null","","","","null","","","","key","16.672322580645297","683","312.5","","","","","","","","","","","","","","","","","","","",""
"psychophysics","321","882189","0.0-18.0-1.25","5a5679b58e6259000175bec5","609a8bf73b2ac84e2732f618","609d74fcdd736343ce8cbc89","null","","","","null","","","","key","16.68496551723942","683","312.5","","","","","","","","","","","","","145","1","6","true","","","",""
"psychophysics","322","882344","0.0-18.0-2.25","5a5679b58e6259000175bec5","609a8bf73b2ac84e2732f618","609d74fcdd736343ce8cbc89","144.639999998617","","","","77","","","","key","16.65422222221322","683","312.5","","","","","","","","","","","","","","","","","","","",""
"psychophysics","323","883727","0.0-18.0-0.26","5a5679b58e6259000175bec5","609a8bf73b2ac84e2732f618","609d74fcdd736343ce8cbc89","null","","","","null","","","","key","16.66690243902423","683","312.5","","","","","","","","","","","","","","","","","","","",""
"psychophysics","324","884232","0.0-18.0-1.26","5a5679b58e6259000175bec5","609a8bf73b2ac84e2732f618","609d74fcdd736343ce8cbc89","null","","","","null","","","","key","16.645862068964874","683","312.5","","","","","","","","","","","","","145","1","3","true","","","",""
"psychophysics","325","884676","0.0-18.0-2.26","5a5679b58e6259000175bec5","609a8bf73b2ac84e2732f618","609d74fcdd736343ce8cbc89","430.6300000025658","","","","90","","","","key","16.677280000001193","683","312.5","","","","","","","","","","","","","","","","","","","",""
"psychophysics","326","885353","0.0-18.0-0.27","5a5679b58e6259000175bec5","609a8bf73b2ac84e2732f618","609d74fcdd736343ce8cbc89","null","","","","null","","","","key","17.535026315789622","683","312.5","","","","","","","","","","","","","","","","","","","",""
"psychophysics","327","885863","0.0-18.0-1.27","5a5679b58e6259000175bec5","609a8bf73b2ac84e2732f618","609d74fcdd736343ce8cbc89","null","","","","null","","","","key","16.666533333334762","683","312.5","","","","","","","","","","","","","145","-1","5","true","","","",""
