"trial_type","trial_index","time_elapsed","internal_node_id","PROLIFIC_PID","STUDY_ID","SESSION_ID","rt","stimulus","button_pressed","success","key_press","responses","isData","view_history","response_type","avg_frame_time","center_x","center_y","isSC","stim_side","trial_luminance","step_size","nReversal","correct","prev_ans","isThreshold","SC_threshold","final_threshold","isLuminance","FF_luminance","luminance","stimSide","ISInt","isFF","question_order","isSPQ","isCAPS","isAQ"
"pavlovia","0","10","0.0-0.0","608c2c2a3db559a3864afeb0","609a8bf73b2ac84e2732f618","609d759bad8531e4d0b0e014","","","","","","","","","","","","","","","","","","","","","","","","","","","","","","","",""
"html-button-response","1","3969","0.0-1.0","608c2c2a3db559a3864afeb0","609a8bf73b2ac84e2732f618","609d759bad8531e4d0b0e014","3956.110000028275","<div style='background-color: white; width:60%; margin: auto; padding: 50px; text-align: justify; text-justify: inter-word; margin-bottom: 20px;'><h1 style='text-align: center;'>Consent Form</h1><p>Please read this consent form carefully before deciding whether you would like to participate in this study. You have to be 18 years old or older to participate to this study.</p><p style='text-decoration: underline;'>Participation is voluntary:</p><p>It is your choice whether or not to participate in this research. If you choose to participate, you may change your mind and leave the study at any time. Refusal to participate or stopping your participation will involve no penalty or loss of benefits to which you are otherwise entitled.</p><p style='text-decoration: underline;'>Purpose of the Study:</p><p>To understand the mechanisms underlying human perception.</p><p style='text-decoration: underline;'>What you will do in this study:</p><p>You will be presented with a series of visual images and then you will press buttons on the keyboard of your computer to respond to simple questions about the images (e.g. Were one or two images presented?). In addition, you will be asked to complete a questionnaire concerning your beliefs and everyday mental and perceptual experiences.'</p><p style='text-decoration: underline;'> Time Required:</p><p>The study will take 40 minutes to complete. </p><p style='text-decoration: underline;'>Risks:</p><p>There are no anticipated risks associated with participating in this study that are beyond those experienced in everyday life. </p><p style='text-decoration: underline;'>Benefits:</p><p>There are no benefits to you in participating in the study. However, this study may lead to a better understanding of how different kinds of visual information are used.</p><p style='text-decoration: underline;'>Compensation:</p><p>You will be paid US$6.6/hour. </p><p style='text-decoration: underline;'>Privacy and Confidentiality:</p><p>Your participation in this study will be anonymous. No personal information about your name or identity will be asked or recorded. This anonymous data will be stored for several years and may be used for a variety of research purposes. The overall results of the study may be published, or the data files may be shared with other researchers, but your identity will not be revealed in any way. The online services we are using for this study may temporarily store your data, but this data will be downloaded and then promptly deleted from those services.Your data will not be permanently associated with your name, IP address, or any other identifiable information (e.g., your information will only be connected to your payment, not to any of your responses), though they may be temporarily stored together before we download and separate them. Even so, no guarantee of internet survey security can be given because, although unlikely, transmissions can be intercepted and IP addresses can be identified. The anonymous data may be shared publicly (for example, in conjunction with a resulting academic publication).</p><p style='text-decoration: underline;'>Participation and Withdrawal:</p><p>Your participation in this study is completely voluntary. You may stop responding to the stimuli or stop answering questions if you so choose and without penalty by exiting the full screen mode, closing this tab of your browser or redirecting it to a different website.</p><p style='text-decoration: underline;'>Contact Info of the Researcher: </p><p>If you have questions about this study, or if you would like to talk to the research team, please contact David Melcher (david.melcher@nyu.edu, md5050@nyu.edu) at the Perception and Active Cognition Laboratory, New York University Abu Dhabi, Computational Research Building, Saadiyat Island, Abu Dhabi, UAE.This research has been reviewed by the New York University Abu Dhabi Institutional Review Board (NYUAD IRB). To contact about your rights in this research, for questions, suggestions, or complaints that are not addressed by the researchers, please email IRBnyuad@nyu.edu, or call the NYUAD IRB at +971 2 628 4313. </p></div>","0","","","","","","","","","","","","","","","","","","","","","","","","","","","","",""
"fullscreen","2","5968","0.0-2.0","608c2c2a3db559a3864afeb0","609a8bf73b2ac84e2732f618","609d759bad8531e4d0b0e014","","","","true","","","","","","","","","","","","","","","","","","","","","","","","","","","",""
"html-keyboard-response","3","20730","0.0-3.0","608c2c2a3db559a3864afeb0","609a8bf73b2ac84e2732f618","609d759bad8531e4d0b0e014","14760.38500003051","<p>Welcome !</p><p>READ CAREFULLY THE FOLLOWING INDICATIONS:</p><p>From this moment you have ~40 minutes to complete the experiment.</p><p>During the experiment you will be prompted to take several breaks. Each break should not last longer than 2-3 minutes.</p><p>Make sure that your computer is plugged in and it's not running on battery power, even if the battery is already fully charged.</p><p>Turn off your phone and music, make sure that you are in a quiet room and that you will not be distracted for the next hour.</p><p>Failure to comply with the instructions and indications provided during the experiment will most likely result in the rejection of your data.<p>Press the spacebar to start.</p>","","","32","","","","","","","","","","","","","","","","","","","","","","","","","","",""
"survey-html-form","4","28676","0.0-4.0","608c2c2a3db559a3864afeb0","609a8bf73b2ac84e2732f618","609d759bad8531e4d0b0e014","7945.204999996349","","","","","{""age"":""24"",""sex"":""Male""}","true","","","","","","","","","","","","","","","","","","","","","","","","",""
"instructions","5","213646","0.0-5.0","608c2c2a3db559a3864afeb0","609a8bf73b2ac84e2732f618","609d759bad8531e4d0b0e014","184969.46499997284","","","","","","","[{""page_index"":0,""viewing_time"":167993.26000001747},{""page_index"":1,""viewing_time"":14196.80499995593},{""page_index"":2,""viewing_time"":2778.950000007171}]","","","","","","","","","","","","","","","","","","","","","","","",""
"psychophysics","6","226698","0.0-6.0-0.0","608c2c2a3db559a3864afeb0","609a8bf73b2ac84e2732f618","609d759bad8531e4d0b0e014","12046.815000008792","","","","39","","","","key","16.668946291560115","640","362.5","true","1","180","30","0","-1","","","","","","","","","","","","","",""
"psychophysics","7","228422","0.0-6.0-0.1","608c2c2a3db559a3864afeb0","609a8bf73b2ac84e2732f618","609d759bad8531e4d0b0e014","721.2450000224635","","","","39","","","","key","16.665999999999983","640","362.5","true","1","180","30","0","-1","-1","","","","","","","","","","","","",""
"psychophysics","8","229887","0.0-6.0-0.2","608c2c2a3db559a3864afeb0","609a8bf73b2ac84e2732f618","609d759bad8531e4d0b0e014","463.530000008177","","","","37","","","","key","16.666000000000114","640","362.5","true","-1","150","30","0","-1","-1","","","","","","","","","","","","",""
"psychophysics","9","230893","0.0-6.0-0.3","608c2c2a3db559a3864afeb0","609a8bf73b2ac84e2732f618","609d759bad8531e4d0b0e014","2.949999994598329","","","","39","","","","key","16.67240677966087","640","362.5","true","1","150","30","0","-1","-1","","","","","","","","","","","","",""
"psychophysics","10","232323","0.0-6.0-0.4","608c2c2a3db559a3864afeb0","609a8bf73b2ac84e2732f618","609d759bad8531e4d0b0e014","427.97999997856095","","","","39","","","","key","16.666000000000178","640","362.5","true","-1","129","24","1","1","-1","","","","","","","","","","","","",""
"psychophysics","11","236147","0.0-6.0-0.5","608c2c2a3db559a3864afeb0","609a8bf73b2ac84e2732f618","609d759bad8531e4d0b0e014","2822.340000013355","","","","37","","","","key","16.665999999999993","640","362.5","true","-1","153","24","1","-1","1","","","","","","","","","","","","",""
"psychophysics","12","237721","0.0-6.0-0.6","608c2c2a3db559a3864afeb0","609a8bf73b2ac84e2732f618","609d759bad8531e4d0b0e014","569.8949999641627","","","","39","","","","key","16.665999999999915","640","362.5","true","1","153","19.2","2","-1","-1","","","","","","","","","","","","",""
"psychophysics","13","239474","0.0-6.0-0.7","608c2c2a3db559a3864afeb0","609a8bf73b2ac84e2732f618","609d759bad8531e4d0b0e014","751.5799999819137","","","","37","","","","key","16.665999999999958","640","362.5","true","-1","133.8","19.2","2","-1","-1","","","","","","","","","","","","",""
"psychophysics","14","241008","0.0-6.0-0.8","608c2c2a3db559a3864afeb0","609a8bf73b2ac84e2732f618","609d759bad8531e4d0b0e014","532.4849999742582","","","","37","","","","key","16.668890109890178","640","362.5","true","-1","133.8","19.2","2","-1","-1","","","","","","","","","","","","",""
"psychophysics","15","242987","0.0-6.0-0.9","608c2c2a3db559a3864afeb0","609a8bf73b2ac84e2732f618","609d759bad8531e4d0b0e014","977.1049999981187","","","","37","","","","key","16.666000000000153","640","362.5","true","-1","129","19.2","2","-1","-1","","","","","","","","","","","","",""
"psychophysics","16","245089","0.0-6.0-0.10","608c2c2a3db559a3864afeb0","609a8bf73b2ac84e2732f618","609d759bad8531e4d0b0e014","1100.4599999869242","","","","39","","","","key","16.666","640","362.5","true","-1","129","15.36","3","1","-1","","","","","","","","","","","","",""
"psychophysics","17","246605","0.0-6.0-0.11","608c2c2a3db559a3864afeb0","609a8bf73b2ac84e2732f618","609d759bad8531e4d0b0e014","514.2249999917112","","","","39","","","","key","16.666000000000025","640","362.5","true","1","144.36","15.36","3","-1","1","","","","","","","","","","","","",""
"psychophysics","18","248092","0.0-6.0-0.12","608c2c2a3db559a3864afeb0","609a8bf73b2ac84e2732f618","609d759bad8531e4d0b0e014","485.0750000332482","","","","39","","","","key","16.666000000000086","640","362.5","true","1","144.36","12.287999999999998","4","-1","-1","","","","","","","","","","","","",""
"psychophysics","19","249770","0.0-6.0-0.13","608c2c2a3db559a3864afeb0","609a8bf73b2ac84e2732f618","609d759bad8531e4d0b0e014","675.3299999982119","","","","39","","","","key","16.666000000000057","640","362.5","true","-1","132.072","9.8304","5","1","-1","","","","","","","","","","","","",""
"psychophysics","20","251275","0.0-6.0-0.14","608c2c2a3db559a3864afeb0","609a8bf73b2ac84e2732f618","609d759bad8531e4d0b0e014","502.7649999829009","","","","37","","","","key","16.66838202247196","640","362.5","true","-1","141.9024","9.8304","5","-1","1","","","","","","","","","","","","",""
"psychophysics","21","252654","0.0-6.0-0.15","608c2c2a3db559a3864afeb0","609a8bf73b2ac84e2732f618","609d759bad8531e4d0b0e014","377.99999996786937","","","","39","","","","key","16.665999999999922","640","362.5","true","1","141.9024","7.864319999999999","6","-1","-1","","","","","","","","","","","","",""
"psychophysics","22","254035","0.0-6.0-0.16","608c2c2a3db559a3864afeb0","609a8bf73b2ac84e2732f618","609d759bad8531e4d0b0e014","379.19499998679385","","","","39","","","","key","16.665999999999922","640","362.5","true","1","134.03808","7.864319999999999","6","-1","-1","","","","","","","","","","","","",""
"psychophysics","23","255372","0.0-6.0-0.17","608c2c2a3db559a3864afeb0","609a8bf73b2ac84e2732f618","609d759bad8531e4d0b0e014","335.14000003924593","","","","37","","","","key","16.666000000000018","640","362.5","true","-1","134.03808","7.864319999999999","6","-1","-1","","","","","","","","","","","","",""
"psychophysics","24","256945","0.0-6.0-0.18","608c2c2a3db559a3864afeb0","609a8bf73b2ac84e2732f618","609d759bad8531e4d0b0e014","571.1050000390969","","","","37","","","","key","16.665999999999944","640","362.5","true","1","129","6.291456","7","1","-1","","","","","","","","","","","","",""
"psychophysics","25","258621","0.0-6.0-0.19","608c2c2a3db559a3864afeb0","609a8bf73b2ac84e2732f618","609d759bad8531e4d0b0e014","674.0449999924749","","","","39","","","","key","16.665999999999766","640","362.5","true","1","135.291456","6.291456","7","-1","1","","","","","","","","","","","","",""
"psychophysics","26","260024","0.0-6.0-0.20","608c2c2a3db559a3864afeb0","609a8bf73b2ac84e2732f618","609d759bad8531e4d0b0e014","401.34499996202067","","","","37","","","","key","16.666000000000246","640","362.5","true","-1","135.291456","5.033164800000001","8","-1","-1","","","","","","","","","","","","",""
"psychophysics","27","262151","0.0-6.0-0.21","608c2c2a3db559a3864afeb0","609a8bf73b2ac84e2732f618","609d759bad8531e4d0b0e014","1125.6249999860302","","","","37","","","","key","16.66855118110227","640","362.5","true","-1","130.2582912","5.033164800000001","8","-1","-1","","","","","","","","","","","","",""
"psychophysics","28","263587","0.0-6.0-0.22","608c2c2a3db559a3864afeb0","609a8bf73b2ac84e2732f618","609d759bad8531e4d0b0e014","434.1450000065379","","","","37","","","","key","16.665999999999837","640","362.5","true","1","130.2582912","4.0265318400000005","9","1","-1","","","","","","","","","","","","",""
"psychophysics","29","264955","0.0-6.0-0.23","608c2c2a3db559a3864afeb0","609a8bf73b2ac84e2732f618","609d759bad8531e4d0b0e014","366.06000002939254","","","","37","","","","key","16.665999999999954","640","362.5","true","-1","134.28482304","4.0265318400000005","9","-1","1","","","","","","","","","","","","",""
"psychophysics","30","266067","0.0-6.0-0.24","608c2c2a3db559a3864afeb0","609a8bf73b2ac84e2732f618","609d759bad8531e4d0b0e014","110.77000002842396","","","","37","","","","key","16.666000000000086","640","362.5","true","-1","134.28482304","3.2212254720000004","10","-1","-1","","","","","","","","","","","","",""
"psychophysics","31","267560","0.0-6.0-0.25","608c2c2a3db559a3864afeb0","609a8bf73b2ac84e2732f618","609d759bad8531e4d0b0e014","491.0999999847263","","","","37","","","","key","16.666000000000086","640","362.5","true","-1","131.06359756799998","3.2212254720000004","10","-1","-1","","","","","","","","","","","","",""
"psychophysics","32","268844","0.0-6.0-0.26","608c2c2a3db559a3864afeb0","609a8bf73b2ac84e2732f618","609d759bad8531e4d0b0e014","282.66999998595566","","","","37","","","","key","16.665999999999737","640","362.5","true","-1","131.06359756799998","3.2212254720000004","10","-1","-1","","","","","","","","","","","","",""
"psychophysics","33","270352","0.0-6.0-0.27","608c2c2a3db559a3864afeb0","609a8bf73b2ac84e2732f618","609d759bad8531e4d0b0e014","504.71999996807426","","","","39","","","","key","16.666000000000025","640","362.5","true","1","129","3.2212254720000004","10","-1","-1","","","","","","","","","","","","",""
"psychophysics","34","271709","0.0-6.0-0.28","608c2c2a3db559a3864afeb0","609a8bf73b2ac84e2732f618","609d759bad8531e4d0b0e014","354.78500003227964","","","","39","","","","key","16.669350000000122","640","362.5","true","1","129","3.2212254720000004","10","-1","-1","","","","","","","","","","","","",""
"psychophysics","35","273570","0.0-6.0-0.29","608c2c2a3db559a3864afeb0","609a8bf73b2ac84e2732f618","609d759bad8531e4d0b0e014","859.8700000438839","","","","37","","","","key","16.665999999999798","640","362.5","true","1","129","2.5769803776000004","11","1","-1","","","","","","","","","","","","",""
"psychophysics","36","274828","0.0-6.0-0.30","608c2c2a3db559a3864afeb0","609a8bf73b2ac84e2732f618","609d759bad8531e4d0b0e014","256.29500002833083","","","","37","","","","key","16.665999999999798","640","362.5","true","-1","131.5769803776","2.5769803776000004","11","-1","1","","","","","","","","","","","","",""
"psychophysics","37","276136","0.0-6.0-0.31","608c2c2a3db559a3864afeb0","609a8bf73b2ac84e2732f618","609d759bad8531e4d0b0e014","306.58999999286607","","","","37","","","","key","16.666000000000423","640","362.5","true","-1","131.5769803776","2.0615843020800004","12","-1","-1","","","","","","","","","","","","",""
"psychophysics","38","277884","0.0-6.0-0.32","608c2c2a3db559a3864afeb0","609a8bf73b2ac84e2732f618","609d759bad8531e4d0b0e014","746.2700000032783","","","","39","","","","key","16.66600000000024","640","362.5","true","1","129.51539607552","2.0615843020800004","12","-1","-1","","","","","","","","","","","","",""
"psychophysics","39","279405","0.0-6.0-0.33","608c2c2a3db559a3864afeb0","609a8bf73b2ac84e2732f618","609d759bad8531e4d0b0e014","518.9899999531917","","","","37","","","","key","16.666000000000025","640","362.5","true","1","129.51539607552","1.6492674416640005","13","1","-1","","","","","","","","","","","","",""
"psychophysics","40","280785","0.0-6.0-0.34","608c2c2a3db559a3864afeb0","609a8bf73b2ac84e2732f618","609d759bad8531e4d0b0e014","378.66499996744096","","","","37","","","","key","16.66924390243934","640","362.5","true","-1","131.16466351718398","1.6492674416640005","13","-1","1","","","","","","","","","","","","",""
"psychophysics","41","282175","0.0-6.0-0.35","608c2c2a3db559a3864afeb0","609a8bf73b2ac84e2732f618","609d759bad8531e4d0b0e014","388.1099999998696","","","","39","","","","key","16.666000000000277","640","362.5","true","-1","131.16466351718398","1.3194139533312006","14","1","-1","","","","","","","","","","","","",""
"psychophysics","42","283518","0.0-6.0-0.36","608c2c2a3db559a3864afeb0","609a8bf73b2ac84e2732f618","609d759bad8531e4d0b0e014","341.8350000283681","","","","39","","","","key","16.66600000000035","640","362.5","true","1","132.4840774705152","1.3194139533312006","14","-1","1","","","","","","","","","","","","",""
"psychophysics","43","284956","0.0-6.0-0.37","608c2c2a3db559a3864afeb0","609a8bf73b2ac84e2732f618","609d759bad8531e4d0b0e014","435.85500004701316","","","","39","","","","key","16.66600000000052","640","362.5","true","1","132.4840774705152","1.0555311626649604","15","-1","-1","","","","","","","","","","","","",""
"psychophysics","44","286277","0.0-6.0-0.38","608c2c2a3db559a3864afeb0","609a8bf73b2ac84e2732f618","609d759bad8531e4d0b0e014","319.58999997004867","","","","37","","","","key","16.666000000000423","640","362.5","true","1","131.42854630785024","1","16","1","-1","","","","","","","","","","","","",""
"psychophysics","45","287896","0.0-6.0-0.39","608c2c2a3db559a3864afeb0","609a8bf73b2ac84e2732f618","609d759bad8531e4d0b0e014","616.684999957215","","","","37","","","","key","16.665999999999865","640","362.5","true","1","132.42854630785024","1","16","1","1","","","","","","","","","","","","",""
"html-keyboard-response","46","317289","0.0-7.0","608c2c2a3db559a3864afeb0","609a8bf73b2ac84e2732f618","609d759bad8531e4d0b0e014","29392.070000001695","<p>Well Done !</p><p>Prepare for a new block.</p><p>DON'T EXIT THE FULL SCREEN MODE</p><p>Press the Spacebar to start.</p>","","","32","","","","","","","","","","","","","","","true","130.83110150888922","","","","","","","","","","",""
"psychophysics","47","318853","0.0-8.0-0.0","608c2c2a3db559a3864afeb0","609a8bf73b2ac84e2732f618","609d759bad8531e4d0b0e014","561.9799999985844","","","","37","","","","key","16.60231914893635","640","362.5","true","-1","180","30","0","-1","","","","","","","","","","","","","",""
"psychophysics","48","320278","0.0-8.0-0.1","608c2c2a3db559a3864afeb0","609a8bf73b2ac84e2732f618","609d759bad8531e4d0b0e014","423.23000001488253","","","","37","","","","key","16.665999999999837","640","362.5","true","-1","180","30","0","-1","-1","","","","","","","","","","","","",""
"psychophysics","49","321749","0.0-8.0-0.2","608c2c2a3db559a3864afeb0","609a8bf73b2ac84e2732f618","609d759bad8531e4d0b0e014","469.70499999588355","","","","37","","","","key","16.66599999999978","640","362.5","true","-1","150","30","0","-1","-1","","","","","","","","","","","","",""
"psychophysics","50","323191","0.0-8.0-0.3","608c2c2a3db559a3864afeb0","609a8bf73b2ac84e2732f618","609d759bad8531e4d0b0e014","440.68500003777444","","","","39","","","","key","16.666000000000146","640","362.5","true","1","150","30","0","-1","-1","","","","","","","","","","","","",""
"psychophysics","51","324675","0.0-8.0-0.4","608c2c2a3db559a3864afeb0","609a8bf73b2ac84e2732f618","609d759bad8531e4d0b0e014","481.7950000287965","","","","39","","","","key","16.666000000000086","640","362.5","true","1","129","30","0","-1","-1","","","","","","","","","","","","",""
"psychophysics","52","326493","0.0-8.0-0.5","608c2c2a3db559a3864afeb0","609a8bf73b2ac84e2732f618","609d759bad8531e4d0b0e014","816.0400000051595","","","","37","","","","key","16.665999999999595","640","362.5","true","-1","129","30","0","-1","-1","","","","","","","","","","","","",""
"psychophysics","53","327891","0.0-8.0-0.6","608c2c2a3db559a3864afeb0","609a8bf73b2ac84e2732f618","609d759bad8531e4d0b0e014","395.7649999647401","","","","37","","","","key","16.742536585365574","640","362.5","true","1","129","24","1","1","-1","","","","","","","","","","","","",""
"psychophysics","54","329183","0.0-8.0-0.7","608c2c2a3db559a3864afeb0","609a8bf73b2ac84e2732f618","609d759bad8531e4d0b0e014","290.03000003285706","","","","39","","","","key","16.666000000000086","640","362.5","true","1","153","24","1","-1","1","","","","","","","","","","","","",""
"psychophysics","55","330490","0.0-8.0-0.8","608c2c2a3db559a3864afeb0","609a8bf73b2ac84e2732f618","609d759bad8531e4d0b0e014","305.3899999940768","","","","37","","","","key","16.666000000000086","640","362.5","true","-1","153","19.2","2","-1","-1","","","","","","","","","","","","",""
"psychophysics","56","331820","0.0-8.0-0.9","608c2c2a3db559a3864afeb0","609a8bf73b2ac84e2732f618","609d759bad8531e4d0b0e014","328.74999998603016","","","","39","","","","key","16.666000000000018","640","362.5","true","1","133.8","19.2","2","-1","-1","","","","","","","","","","","","",""
"psychophysics","57","333136","0.0-8.0-0.10","608c2c2a3db559a3864afeb0","609a8bf73b2ac84e2732f618","609d759bad8531e4d0b0e014","313.4200000204146","","","","37","","","","key","16.666000000000423","640","362.5","true","-1","133.8","19.2","2","-1","-1","","","","","","","","","","","","",""
"psychophysics","58","334477","0.0-8.0-0.11","608c2c2a3db559a3864afeb0","609a8bf73b2ac84e2732f618","609d759bad8531e4d0b0e014","339.31999997003004","","","","39","","","","key","16.666000000000018","640","362.5","true","1","129","19.2","2","-1","-1","","","","","","","","","","","","",""
"psychophysics","59","335857","0.0-8.0-0.12","608c2c2a3db559a3864afeb0","609a8bf73b2ac84e2732f618","609d759bad8531e4d0b0e014","378.1050000106916","","","","39","","","","key","16.665999999999567","640","362.5","true","-1","129","15.36","3","1","-1","","","","","","","","","","","","",""
"psychophysics","60","337134","0.0-8.0-0.13","608c2c2a3db559a3864afeb0","609a8bf73b2ac84e2732f618","609d759bad8531e4d0b0e014","275.4500000155531","","","","37","","","","key","16.665999999999737","640","362.5","true","-1","144.36","15.36","3","-1","1","","","","","","","","","","","","",""
"psychophysics","61","338457","0.0-8.0-0.14","608c2c2a3db559a3864afeb0","609a8bf73b2ac84e2732f618","609d759bad8531e4d0b0e014","320.91999996919185","","","","37","","","","key","16.668448717948287","640","362.5","true","-1","144.36","12.287999999999998","4","-1","-1","","","","","","","","","","","","",""
"psychophysics","62","339802","0.0-8.0-0.15","608c2c2a3db559a3864afeb0","609a8bf73b2ac84e2732f618","609d759bad8531e4d0b0e014","343.9350000116974","","","","37","","","","key","16.66599999999962","640","362.5","true","1","132.072","9.8304","5","1","-1","","","","","","","","","","","","",""
"psychophysics","63","341129","0.0-8.0-0.16","608c2c2a3db559a3864afeb0","609a8bf73b2ac84e2732f618","609d759bad8531e4d0b0e014","325.8100000093691","","","","39","","","","key","16.666000000000018","640","362.5","true","1","141.9024","9.8304","5","-1","1","","","","","","","","","","","","",""
"psychophysics","64","342283","0.0-8.0-0.17","608c2c2a3db559a3864afeb0","609a8bf73b2ac84e2732f618","609d759bad8531e4d0b0e014","151.20500000193715","","","","37","","","","key","16.666000000000007","640","362.5","true","-1","141.9024","7.864319999999999","6","-1","-1","","","","","","","","","","","","",""
"psychophysics","65","343455","0.0-8.0-0.18","608c2c2a3db559a3864afeb0","609a8bf73b2ac84e2732f618","609d759bad8531e4d0b0e014","169.7400000412017","","","","39","","","","key","16.66599999999955","640","362.5","true","1","134.03808","7.864319999999999","6","-1","-1","","","","","","","","","","","","",""
"psychophysics","66","344554","0.0-8.0-0.19","608c2c2a3db559a3864afeb0","609a8bf73b2ac84e2732f618","609d759bad8531e4d0b0e014","97.90500003146008","","","","39","","","","key","16.665999999999677","640","362.5","true","1","134.03808","7.864319999999999","6","-1","-1","","","","","","","","","","","","",""
"psychophysics","67","345853","0.0-8.0-0.20","608c2c2a3db559a3864afeb0","609a8bf73b2ac84e2732f618","609d759bad8531e4d0b0e014","296.9800000428222","","","","39","","","","key","16.666000000000086","640","362.5","true","1","129","7.864319999999999","6","-1","-1","","","","","","","","","","","","",""
"psychophysics","68","347174","0.0-8.0-0.21","608c2c2a3db559a3864afeb0","609a8bf73b2ac84e2732f618","609d759bad8531e4d0b0e014","319.64000000152737","","","","39","","","","key","16.666000000000423","640","362.5","true","1","129","7.864319999999999","6","-1","-1","","","","","","","","","","","","",""
"psychophysics","69","348452","0.0-8.0-0.22","608c2c2a3db559a3864afeb0","609a8bf73b2ac84e2732f618","609d759bad8531e4d0b0e014","276.18500002427027","","","","37","","","","key","16.670565789474303","640","362.5","true","-1","129","7.864319999999999","6","-1","-1","","","","","","","","","","","","",""
"psychophysics","70","349781","0.0-8.0-0.23","608c2c2a3db559a3864afeb0","609a8bf73b2ac84e2732f618","609d759bad8531e4d0b0e014","328.1200000201352","","","","37","","","","key","16.666000000000018","640","362.5","true","1","129","6.291456","7","1","-1","","","","","","","","","","","","",""
"psychophysics","71","351045","0.0-8.0-0.24","608c2c2a3db559a3864afeb0","609a8bf73b2ac84e2732f618","609d759bad8531e4d0b0e014","262.5499999849126","","","","39","","","","key","16.66599999999938","640","362.5","true","1","135.291456","6.291456","7","-1","1","","","","","","","","","","","","",""
"psychophysics","72","352333","0.0-8.0-0.25","608c2c2a3db559a3864afeb0","609a8bf73b2ac84e2732f618","609d759bad8531e4d0b0e014","285.5150000541471","","","","39","","","","key","16.665999999999737","640","362.5","true","1","135.291456","5.033164800000001","8","-1","-1","","","","","","","","","","","","",""
"psychophysics","73","353668","0.0-8.0-0.26","608c2c2a3db559a3864afeb0","609a8bf73b2ac84e2732f618","609d759bad8531e4d0b0e014","331.39000000664964","","","","39","","","","key","16.666000000000018","640","362.5","true","-1","130.2582912","4.0265318400000005","9","1","-1","","","","","","","","","","","","",""
"psychophysics","74","354967","0.0-8.0-0.27","608c2c2a3db559a3864afeb0","609a8bf73b2ac84e2732f618","609d759bad8531e4d0b0e014","297.1200000029057","","","","39","","","","key","16.666000000000086","640","362.5","true","1","134.28482304","4.0265318400000005","9","-1","1","","","","","","","","","","","","",""
"psychophysics","75","356236","0.0-8.0-0.28","608c2c2a3db559a3864afeb0","609a8bf73b2ac84e2732f618","609d759bad8531e4d0b0e014","266.9350000214763","","","","39","","","","key","16.666000000000157","640","362.5","true","1","134.28482304","3.2212254720000004","10","-1","-1","","","","","","","","","","","","",""
"psychophysics","76","357617","0.0-8.0-0.29","608c2c2a3db559a3864afeb0","609a8bf73b2ac84e2732f618","609d759bad8531e4d0b0e014","379.71000000834465","","","","39","","","","key","16.66920731707317","640","362.5","true","-1","131.06359756799998","2.5769803776000004","11","1","-1","","","","","","","","","","","","",""
"psychophysics","77","358904","0.0-8.0-0.30","608c2c2a3db559a3864afeb0","609a8bf73b2ac84e2732f618","609d759bad8531e4d0b0e014","285.2500000153668","","","","37","","","","key","16.665999999999737","640","362.5","true","-1","133.64057794559997","2.5769803776000004","11","-1","1","","","","","","","","","","","","",""
"psychophysics","78","360154","0.0-8.0-0.31","608c2c2a3db559a3864afeb0","609a8bf73b2ac84e2732f618","609d759bad8531e4d0b0e014","247.67499999143183","","","","37","","","","key","16.665999999999798","640","362.5","true","-1","133.64057794559997","2.0615843020800004","12","-1","-1","","","","","","","","","","","","",""
"psychophysics","79","361433","0.0-8.0-0.32","608c2c2a3db559a3864afeb0","609a8bf73b2ac84e2732f618","609d759bad8531e4d0b0e014","277.6350000058301","","","","39","","","","key","16.6660000000005","640","362.5","true","1","131.57899364351996","2.0615843020800004","12","-1","-1","","","","","","","","","","","","",""
"psychophysics","80","362682","0.0-8.0-0.33","608c2c2a3db559a3864afeb0","609a8bf73b2ac84e2732f618","609d759bad8531e4d0b0e014","245.8049999549985","","","","37","","","","key","16.666000000000587","640","362.5","true","-1","131.57899364351996","2.0615843020800004","12","-1","-1","","","","","","","","","","","","",""
"psychophysics","81","364534","0.0-8.0-0.34","608c2c2a3db559a3864afeb0","609a8bf73b2ac84e2732f618","609d759bad8531e4d0b0e014","850.1299999770708","","","","37","","","","key","16.666000000000086","640","362.5","true","-1","129.51740934143996","2.0615843020800004","12","-1","-1","","","","","","","","","","","","",""
"psychophysics","82","365889","0.0-8.0-0.35","608c2c2a3db559a3864afeb0","609a8bf73b2ac84e2732f618","609d759bad8531e4d0b0e014","352.75000002002344","","","","37","","","","key","16.66600000000035","640","362.5","true","-1","129.51740934143996","2.0615843020800004","12","-1","-1","","","","","","","","","","","","",""
"psychophysics","83","368204","0.0-8.0-0.36","608c2c2a3db559a3864afeb0","609a8bf73b2ac84e2732f618","609d759bad8531e4d0b0e014","1313.0700000328943","","","","39","","","","key","16.66792753623188","640","362.5","true","-1","129","1.6492674416640005","13","1","-1","","","","","","","","","","","","",""
"psychophysics","84","369544","0.0-8.0-0.37","608c2c2a3db559a3864afeb0","609a8bf73b2ac84e2732f618","609d759bad8531e4d0b0e014","337.50500000314787","","","","39","","","","key","16.666000000000018","640","362.5","true","1","130.649267441664","1.6492674416640005","13","-1","1","","","","","","","","","","","","",""
"psychophysics","85","374150","0.0-8.0-0.38","608c2c2a3db559a3864afeb0","609a8bf73b2ac84e2732f618","609d759bad8531e4d0b0e014","3604.6799999894574","","","","39","","","","key","16.66599999999997","640","362.5","true","1","130.649267441664","1.3194139533312006","14","-1","-1","","","","","","","","","","","","",""
"psychophysics","86","375635","0.0-8.0-0.39","608c2c2a3db559a3864afeb0","609a8bf73b2ac84e2732f618","609d759bad8531e4d0b0e014","482.3150000302121","","","","39","","","","key","16.666000000000086","640","362.5","true","-1","129.3298534883328","1.0555311626649604","15","1","-1","","","","","","","","","","","","",""
"html-keyboard-response","87","380192","0.0-9.0","608c2c2a3db559a3864afeb0","609a8bf73b2ac84e2732f618","609d759bad8531e4d0b0e014","4556.235000025481","<p>Well Done !</p><p>Prepare for a new block.</p><p>DON'T EXIT THE FULL SCREEN MODE</p><p>Press the Spacebar to start.</p>","","","32","","","","","","","","","","","","","","","true","131.6190227387187","","","","","","","","","","",""
"psychophysics","88","381577","0.0-10.0-0.0","608c2c2a3db559a3864afeb0","609a8bf73b2ac84e2732f618","609d759bad8531e4d0b0e014","382.4049999821","","","","37","","","","key","16.66867469879518","640","362.5","true","-1","180","30","0","-1","","","","","","","","","","","","","",""
"psychophysics","89","382991","0.0-10.0-0.1","608c2c2a3db559a3864afeb0","609a8bf73b2ac84e2732f618","609d759bad8531e4d0b0e014","412.35499997856095","","","","37","","","","key","16.66600000000021","640","362.5","true","-1","180","30","0","-1","-1","","","","","","","","","","","","",""
"psychophysics","90","385118","0.0-10.0-0.2","608c2c2a3db559a3864afeb0","609a8bf73b2ac84e2732f618","609d759bad8531e4d0b0e014","1124.1249999729916","","","","37","","","","key","16.66600000000042","640","362.5","true","-1","150","30","0","-1","-1","","","","","","","","","","","","",""
"psychophysics","91","386456","0.0-10.0-0.3","608c2c2a3db559a3864afeb0","609a8bf73b2ac84e2732f618","609d759bad8531e4d0b0e014","335.8250000164844","","","","39","","","","key","16.666000000000018","640","362.5","true","1","150","30","0","-1","-1","","","","","","","","","","","","",""
"psychophysics","92","387831","0.0-10.0-0.4","608c2c2a3db559a3864afeb0","609a8bf73b2ac84e2732f618","609d759bad8531e4d0b0e014","372.25000001490116","","","","39","","","","key","16.665999999999567","640","362.5","true","-1","129","24","1","1","-1","","","","","","","","","","","","",""
"psychophysics","93","389171","0.0-10.0-0.5","608c2c2a3db559a3864afeb0","609a8bf73b2ac84e2732f618","609d759bad8531e4d0b0e014","338.2650000276044","","","","39","","","","key","16.666000000000018","640","362.5","true","1","153","24","1","-1","1","","","","","","","","","","","","",""
"psychophysics","94","390411","0.0-10.0-0.6","608c2c2a3db559a3864afeb0","609a8bf73b2ac84e2732f618","609d759bad8531e4d0b0e014","238.004999991972","","","","39","","","","key","16.67116438356158","640","362.5","true","1","153","19.2","2","-1","-1","","","","","","","","","","","","",""
"psychophysics","95","391767","0.0-10.0-0.7","608c2c2a3db559a3864afeb0","609a8bf73b2ac84e2732f618","609d759bad8531e4d0b0e014","353.86500001186505","","","","39","","","","key","16.665999999999954","640","362.5","true","1","133.8","19.2","2","-1","-1","","","","","","","","","","","","",""
"psychophysics","96","393048","0.0-10.0-0.8","608c2c2a3db559a3864afeb0","609a8bf73b2ac84e2732f618","609d759bad8531e4d0b0e014","279.5649999752641","","","","39","","","","key","16.6660000000005","640","362.5","true","1","133.8","19.2","2","-1","-1","","","","","","","","","","","","",""
"psychophysics","97","394934","0.0-10.0-0.9","608c2c2a3db559a3864afeb0","609a8bf73b2ac84e2732f618","609d759bad8531e4d0b0e014","884.2200000071898","","","","37","","","","key","16.666000000000036","640","362.5","true","1","129","15.36","3","1","-1","","","","","","","","","","","","",""
"psychophysics","98","396216","0.0-10.0-0.10","608c2c2a3db559a3864afeb0","609a8bf73b2ac84e2732f618","609d759bad8531e4d0b0e014","280.07500001695007","","","","39","","","","key","16.665999999999737","640","362.5","true","1","144.36","15.36","3","-1","1","","","","","","","","","","","","",""
"psychophysics","99","397558","0.0-10.0-0.11","608c2c2a3db559a3864afeb0","609a8bf73b2ac84e2732f618","609d759bad8531e4d0b0e014","340.314999979455","","","","37","","","","key","16.666000000000018","640","362.5","true","-1","144.36","12.287999999999998","4","-1","-1","","","","","","","","","","","","",""
"psychophysics","100","398765","0.0-10.0-0.12","608c2c2a3db559a3864afeb0","609a8bf73b2ac84e2732f618","609d759bad8531e4d0b0e014","205.66500001586974","","","","39","","","","key","16.665999999999865","640","362.5","true","1","132.072","12.287999999999998","4","-1","-1","","","","","","","","","","","","",""
"psychophysics","101","400050","0.0-10.0-0.13","608c2c2a3db559a3864afeb0","609a8bf73b2ac84e2732f618","609d759bad8531e4d0b0e014","283.545000012964","","","","37","","","","key","16.665999999999737","640","362.5","true","-1","132.072","12.287999999999998","4","-1","-1","","","","","","","","","","","","",""
"psychophysics","102","401387","0.0-10.0-0.14","608c2c2a3db559a3864afeb0","609a8bf73b2ac84e2732f618","609d759bad8531e4d0b0e014","334.2949999496341","","","","37","","","","key","16.669367088607654","640","362.5","true","1","129","9.8304","5","1","-1","","","","","","","","","","","","",""
"psychophysics","103","402656","0.0-10.0-0.15","608c2c2a3db559a3864afeb0","609a8bf73b2ac84e2732f618","609d759bad8531e4d0b0e014","267.0650000218302","","","","37","","","","key","16.666000000000157","640","362.5","true","-1","138.8304","9.8304","5","-1","1","","","","","","","","","","","","",""
"psychophysics","104","403967","0.0-10.0-0.16","608c2c2a3db559a3864afeb0","609a8bf73b2ac84e2732f618","609d759bad8531e4d0b0e014","308.65500000072643","","","","39","","","","key","16.665999999999677","640","362.5","true","1","138.8304","7.864319999999999","6","-1","-1","","","","","","","","","","","","",""
"psychophysics","105","405260","0.0-10.0-0.17","608c2c2a3db559a3864afeb0","609a8bf73b2ac84e2732f618","609d759bad8531e4d0b0e014","291.2750000250526","","","","37","","","","key","16.665999999999737","640","362.5","true","-1","130.96608","7.864319999999999","6","-1","-1","","","","","","","","","","","","",""
"psychophysics","106","406553","0.0-10.0-0.18","608c2c2a3db559a3864afeb0","609a8bf73b2ac84e2732f618","609d759bad8531e4d0b0e014","291.3399999961257","","","","37","","","","key","16.66599999999933","640","362.5","true","-1","130.96608","7.864319999999999","6","-1","-1","","","","","","","","","","","","",""
"psychophysics","107","407938","0.0-10.0-0.19","608c2c2a3db559a3864afeb0","609a8bf73b2ac84e2732f618","609d759bad8531e4d0b0e014","383.7099999655038","","","","39","","","","key","16.666000000000277","640","362.5","true","-1","129","6.291456","7","1","-1","","","","","","","","","","","","",""
"psychophysics","108","409206","0.0-10.0-0.20","608c2c2a3db559a3864afeb0","609a8bf73b2ac84e2732f618","609d759bad8531e4d0b0e014","265.8050000318326","","","","39","","","","key","16.666000000000157","640","362.5","true","1","135.291456","6.291456","7","-1","1","","","","","","","","","","","","",""
"psychophysics","109","410500","0.0-10.0-0.21","608c2c2a3db559a3864afeb0","609a8bf73b2ac84e2732f618","609d759bad8531e4d0b0e014","292.539999994915","","","","39","","","","key","16.66940259740328","640","362.5","true","1","135.291456","5.033164800000001","8","-1","-1","","","","","","","","","","","","",""
"psychophysics","110","412059","0.0-10.0-0.22","608c2c2a3db559a3864afeb0","609a8bf73b2ac84e2732f618","609d759bad8531e4d0b0e014","557.2350000147708","","","","39","","","","key","16.66599999999997","640","362.5","true","-1","130.2582912","4.0265318400000005","9","1","-1","","","","","","","","","","","","",""
"psychophysics","111","413360","0.0-10.0-0.23","608c2c2a3db559a3864afeb0","609a8bf73b2ac84e2732f618","609d759bad8531e4d0b0e014","297.0949999871664","","","","39","","","","key","16.666000000000086","640","362.5","true","1","134.28482304","4.0265318400000005","9","-1","1","","","","","","","","","","","","",""
"psychophysics","112","414639","0.0-10.0-0.24","608c2c2a3db559a3864afeb0","609a8bf73b2ac84e2732f618","609d759bad8531e4d0b0e014","276.2450000154786","","","","39","","","","key","16.665999999999737","640","362.5","true","1","134.28482304","3.2212254720000004","10","-1","-1","","","","","","","","","","","","",""
"psychophysics","113","416459","0.0-10.0-0.25","608c2c2a3db559a3864afeb0","609a8bf73b2ac84e2732f618","609d759bad8531e4d0b0e014","818.5799999628216","","","","37","","","","key","16.666000000000135","640","362.5","true","-1","131.06359756799998","3.2212254720000004","10","-1","-1","","","","","","","","","","","","",""
"psychophysics","114","417950","0.0-10.0-0.26","608c2c2a3db559a3864afeb0","609a8bf73b2ac84e2732f618","609d759bad8531e4d0b0e014","486.84000002685934","","","","39","","","","key","16.66600000000038","640","362.5","true","-1","131.06359756799998","2.5769803776000004","11","1","-1","","","","","","","","","","","","",""
"psychophysics","115","419274","0.0-10.0-0.27","608c2c2a3db559a3864afeb0","609a8bf73b2ac84e2732f618","609d759bad8531e4d0b0e014","322.4350000382401","","","","39","","","","key","16.666000000000423","640","362.5","true","1","133.64057794559997","2.5769803776000004","11","-1","1","","","","","","","","","","","","",""
"psychophysics","116","420584","0.0-10.0-0.28","608c2c2a3db559a3864afeb0","609a8bf73b2ac84e2732f618","609d759bad8531e4d0b0e014","308.8199999765493","","","","37","","","","key","16.668487179487084","640","362.5","true","-1","133.64057794559997","2.0615843020800004","12","-1","-1","","","","","","","","","","","","",""
"psychophysics","117","422150","0.0-10.0-0.29","608c2c2a3db559a3864afeb0","609a8bf73b2ac84e2732f618","609d759bad8531e4d0b0e014","564.1049999976531","","","","37","","","","key","16.666000000000256","640","362.5","true","-1","131.57899364351996","2.0615843020800004","12","-1","-1","","","","","","","","","","","","",""
"psychophysics","118","423416","0.0-10.0-0.30","608c2c2a3db559a3864afeb0","609a8bf73b2ac84e2732f618","609d759bad8531e4d0b0e014","264.72999999532476","","","","39","","","","key","16.666000000000157","640","362.5","true","1","131.57899364351996","2.0615843020800004","12","-1","-1","","","","","","","","","","","","",""
"psychophysics","119","424766","0.0-10.0-0.31","608c2c2a3db559a3864afeb0","609a8bf73b2ac84e2732f618","609d759bad8531e4d0b0e014","348.035000031814","","","","37","","","","key","16.66600000000035","640","362.5","true","-1","129.51740934143996","2.0615843020800004","12","-1","-1","","","","","","","","","","","","",""
"psychophysics","120","426338","0.0-10.0-0.32","608c2c2a3db559a3864afeb0","609a8bf73b2ac84e2732f618","609d759bad8531e4d0b0e014","569.3900000187568","","","","39","","","","key","16.666000000000256","640","362.5","true","-1","129.51740934143996","1.6492674416640005","13","1","-1","","","","","","","","","","","","",""
"psychophysics","121","427728","0.0-10.0-0.33","608c2c2a3db559a3864afeb0","609a8bf73b2ac84e2732f618","609d759bad8531e4d0b0e014","387.929999968037","","","","37","","","","key","16.665999999999567","640","362.5","true","1","131.16667678310395","1.6492674416640005","13","1","1","","","","","","","","","","","","",""
"psychophysics","122","429018","0.0-10.0-0.34","608c2c2a3db559a3864afeb0","609a8bf73b2ac84e2732f618","609d759bad8531e4d0b0e014","287.8400000045076","","","","39","","","","key","16.666000000000086","640","362.5","true","1","132.81594422476795","1.6492674416640005","13","-1","1","","","","","","","","","","","","",""
"psychophysics","123","430291","0.0-10.0-0.35","608c2c2a3db559a3864afeb0","609a8bf73b2ac84e2732f618","609d759bad8531e4d0b0e014","271.4299999643117","","","","39","","","","key","16.666000000000157","640","362.5","true","1","132.81594422476795","1.3194139533312006","14","-1","-1","","","","","","","","","","","","",""
"psychophysics","124","431566","0.0-10.0-0.36","608c2c2a3db559a3864afeb0","609a8bf73b2ac84e2732f618","609d759bad8531e4d0b0e014","273.2199999736622","","","","37","","","","key","16.67049999999979","640","362.5","true","-1","131.49653027143674","1.3194139533312006","14","-1","-1","","","","","","","","","","","","",""
"psychophysics","125","432837","0.0-10.0-0.37","608c2c2a3db559a3864afeb0","609a8bf73b2ac84e2732f618","609d759bad8531e4d0b0e014","269.6299999952316","","","","39","","","","key","16.666000000000157","640","362.5","true","1","131.49653027143674","1.3194139533312006","14","-1","-1","","","","","","","","","","","","",""
"psychophysics","126","434189","0.0-10.0-0.38","608c2c2a3db559a3864afeb0","609a8bf73b2ac84e2732f618","609d759bad8531e4d0b0e014","350.0699999858625","","","","37","","","","key","16.66599999999962","640","362.5","true","-1","130.17711631810553","1.3194139533312006","14","-1","-1","","","","","","","","","","","","",""
"psychophysics","127","435520","0.0-10.0-0.39","608c2c2a3db559a3864afeb0","609a8bf73b2ac84e2732f618","609d759bad8531e4d0b0e014","329.4449999812059","","","","39","","","","key","16.666000000000018","640","362.5","true","-1","130.17711631810553","1.0555311626649604","15","1","-1","","","","","","","","","","","","",""
"html-keyboard-response","128","440741","0.0-11.0","608c2c2a3db559a3864afeb0","609a8bf73b2ac84e2732f618","609d759bad8531e4d0b0e014","5219.809999980498","<p>Well Done !</p><p>Prepare for a new block.</p><p>DON'T EXIT THE FULL SCREEN MODE</p><p>Press the Spacebar to start.</p>","","","32","","","","","","","","","","","","","","","true","131.44980102725629","","","","","","","","","","",""
"psychophysics","129","442240","0.0-12.0-0.0","608c2c2a3db559a3864afeb0","609a8bf73b2ac84e2732f618","609d759bad8531e4d0b0e014","495.9750000271015","","","","37","","","","key","16.66913333333343","640","362.5","true","-1","180","30","0","-1","","","","","","","","","","","","","",""
"psychophysics","130","443517","0.0-12.0-0.1","608c2c2a3db559a3864afeb0","609a8bf73b2ac84e2732f618","609d759bad8531e4d0b0e014","274.61000002222136","","","","39","","","","key","16.6660000000005","640","362.5","true","1","180","30","0","-1","-1","","","","","","","","","","","","",""
"psychophysics","131","444785","0.0-12.0-0.2","608c2c2a3db559a3864afeb0","609a8bf73b2ac84e2732f618","609d759bad8531e4d0b0e014","266.83500001672655","","","","39","","","","key","16.666000000000157","640","362.5","true","1","150","30","0","-1","-1","","","","","","","","","","","","",""
"psychophysics","132","446189","0.0-12.0-0.3","608c2c2a3db559a3864afeb0","609a8bf73b2ac84e2732f618","609d759bad8531e4d0b0e014","401.74499998101965","","","","39","","","","key","16.665999999999894","640","362.5","true","-1","150","24","1","1","-1","","","","","","","","","","","","",""
"psychophysics","133","447735","0.0-12.0-0.4","608c2c2a3db559a3864afeb0","609a8bf73b2ac84e2732f618","609d759bad8531e4d0b0e014","545.1450000400655","","","","37","","","","key","16.66599999999997","640","362.5","true","-1","174","24","1","-1","1","","","","","","","","","","","","",""
"psychophysics","134","449107","0.0-12.0-0.5","608c2c2a3db559a3864afeb0","609a8bf73b2ac84e2732f618","609d759bad8531e4d0b0e014","368.7449999852106","","","","37","","","","key","16.665999999999954","640","362.5","true","-1","174","19.2","2","-1","-1","","","","","","","","","","","","",""
"psychophysics","135","450501","0.0-12.0-0.6","608c2c2a3db559a3864afeb0","609a8bf73b2ac84e2732f618","609d759bad8531e4d0b0e014","390.7400000025518","","","","39","","","","key","16.665999999999894","640","362.5","true","1","154.8","19.2","2","-1","-1","","","","","","","","","","","","",""
"psychophysics","136","451875","0.0-12.0-0.7","608c2c2a3db559a3864afeb0","609a8bf73b2ac84e2732f618","609d759bad8531e4d0b0e014","372.9049999965355","","","","39","","","","key","16.71755555555595","640","362.5","true","1","154.8","19.2","2","-1","-1","","","","","","","","","","","","",""
"psychophysics","137","453457","0.0-12.0-0.8","608c2c2a3db559a3864afeb0","609a8bf73b2ac84e2732f618","609d759bad8531e4d0b0e014","580.1149999606423","","","","39","","","","key","16.665999999999915","640","362.5","true","-1","135.60000000000002","15.36","3","1","-1","","","","","","","","","","","","",""
"psychophysics","138","454769","0.0-12.0-0.9","608c2c2a3db559a3864afeb0","609a8bf73b2ac84e2732f618","609d759bad8531e4d0b0e014","311.4599999971688","","","","39","","","","key","16.665999999999677","640","362.5","true","1","150.96000000000004","15.36","3","-1","1","","","","","","","","","","","","",""
"psychophysics","139","456037","0.0-12.0-0.10","608c2c2a3db559a3864afeb0","609a8bf73b2ac84e2732f618","609d759bad8531e4d0b0e014","265.0349999894388","","","","37","","","","key","16.666000000000157","640","362.5","true","-1","150.96000000000004","12.287999999999998","4","-1","-1","","","","","","","","","","","","",""
"psychophysics","140","457348","0.0-12.0-0.11","608c2c2a3db559a3864afeb0","609a8bf73b2ac84e2732f618","609d759bad8531e4d0b0e014","309.47000003652647","","","","39","","","","key","16.666000000000086","640","362.5","true","1","138.67200000000003","12.287999999999998","4","-1","-1","","","","","","","","","","","","",""
"psychophysics","141","458694","0.0-12.0-0.12","608c2c2a3db559a3864afeb0","609a8bf73b2ac84e2732f618","609d759bad8531e4d0b0e014","343.8650000025518","","","","39","","","","key","16.66599999999962","640","362.5","true","1","138.67200000000003","12.287999999999998","4","-1","-1","","","","","","","","","","","","",""
"psychophysics","142","460319","0.0-12.0-0.13","608c2c2a3db559a3864afeb0","609a8bf73b2ac84e2732f618","609d759bad8531e4d0b0e014","622.3299999837764","","","","39","","","","key","16.66599999999954","640","362.5","true","1","129","12.287999999999998","4","-1","-1","","","","","","","","","","","","",""
"psychophysics","143","461738","0.0-12.0-0.14","608c2c2a3db559a3864afeb0","609a8bf73b2ac84e2732f618","609d759bad8531e4d0b0e014","417.3599999630824","","","","37","","","","key","16.670642857142543","640","362.5","true","1","129","9.8304","5","1","-1","","","","","","","","","","","","",""
"psychophysics","144","463014","0.0-12.0-0.15","608c2c2a3db559a3864afeb0","609a8bf73b2ac84e2732f618","609d759bad8531e4d0b0e014","274.1200000164099","","","","37","","","","key","16.666000000000157","640","362.5","true","-1","138.8304","9.8304","5","-1","1","","","","","","","","","","","","",""
"psychophysics","145","464311","0.0-12.0-0.16","608c2c2a3db559a3864afeb0","609a8bf73b2ac84e2732f618","609d759bad8531e4d0b0e014","294.3749999976717","","","","37","","","","key","16.666000000000086","640","362.5","true","-1","138.8304","7.864319999999999","6","-1","-1","","","","","","","","","","","","",""
"psychophysics","146","465709","0.0-12.0-0.17","608c2c2a3db559a3864afeb0","609a8bf73b2ac84e2732f618","609d759bad8531e4d0b0e014","395.615000044927","","","","37","","","","key","16.665999999999894","640","362.5","true","-1","130.96608","7.864319999999999","6","-1","-1","","","","","","","","","","","","",""
"psychophysics","147","467022","0.0-12.0-0.18","608c2c2a3db559a3864afeb0","609a8bf73b2ac84e2732f618","609d759bad8531e4d0b0e014","311.3799999700859","","","","39","","","","key","16.666000000000423","640","362.5","true","1","130.96608","7.864319999999999","6","-1","-1","","","","","","","","","","","","",""
"psychophysics","148","468359","0.0-12.0-0.19","608c2c2a3db559a3864afeb0","609a8bf73b2ac84e2732f618","609d759bad8531e4d0b0e014","335.9649999765679","","","","37","","","","key","16.666000000000018","640","362.5","true","1","129","6.291456","7","1","-1","","","","","","","","","","","","",""
"psychophysics","149","469591","0.0-12.0-0.20","608c2c2a3db559a3864afeb0","609a8bf73b2ac84e2732f618","609d759bad8531e4d0b0e014","230.13999999966472","","","","37","","","","key","16.66600000000023","640","362.5","true","-1","135.291456","6.291456","7","-1","1","","","","","","","","","","","","",""
"psychophysics","150","470901","0.0-12.0-0.21","608c2c2a3db559a3864afeb0","609a8bf73b2ac84e2732f618","609d759bad8531e4d0b0e014","307.7499999781139","","","","39","","","","key","16.669217948718234","640","362.5","true","1","135.291456","5.033164800000001","8","-1","-1","","","","","","","","","","","","",""
"psychophysics","151","472433","0.0-12.0-0.22","608c2c2a3db559a3864afeb0","609a8bf73b2ac84e2732f618","609d759bad8531e4d0b0e014","530.9850000194274","","","","37","","","","key","16.666000000000025","640","362.5","true","1","130.2582912","4.0265318400000005","9","1","-1","","","","","","","","","","","","",""
"psychophysics","152","473702","0.0-12.0-0.23","608c2c2a3db559a3864afeb0","609a8bf73b2ac84e2732f618","609d759bad8531e4d0b0e014","266.85499999439344","","","","39","","","","key","16.665999999999737","640","362.5","true","1","134.28482304","4.0265318400000005","9","-1","1","","","","","","","","","","","","",""
"psychophysics","153","474978","0.0-12.0-0.24","608c2c2a3db559a3864afeb0","609a8bf73b2ac84e2732f618","609d759bad8531e4d0b0e014","274.2699999944307","","","","37","","","","key","16.666000000000157","640","362.5","true","-1","134.28482304","3.2212254720000004","10","-1","-1","","","","","","","","","","","","",""
"psychophysics","154","476274","0.0-12.0-0.25","608c2c2a3db559a3864afeb0","609a8bf73b2ac84e2732f618","609d759bad8531e4d0b0e014","295.1549999997951","","","","39","","","","key","16.666000000000086","640","362.5","true","1","131.06359756799998","3.2212254720000004","10","-1","-1","","","","","","","","","","","","",""
"psychophysics","155","477606","0.0-12.0-0.26","608c2c2a3db559a3864afeb0","609a8bf73b2ac84e2732f618","609d759bad8531e4d0b0e014","329.9600000027567","","","","39","","","","key","16.666000000000018","640","362.5","true","-1","131.06359756799998","2.5769803776000004","11","1","-1","","","","","","","","","","","","",""
"psychophysics","156","478923","0.0-12.0-0.27","608c2c2a3db559a3864afeb0","609a8bf73b2ac84e2732f618","609d759bad8531e4d0b0e014","315.2249999693595","","","","39","","","","key","16.666000000000423","640","362.5","true","1","133.64057794559997","2.5769803776000004","11","-1","1","","","","","","","","","","","","",""
"psychophysics","157","480237","0.0-12.0-0.28","608c2c2a3db559a3864afeb0","609a8bf73b2ac84e2732f618","609d759bad8531e4d0b0e014","312.01999995391816","","","","39","","","","key","16.665999999999677","640","362.5","true","1","133.64057794559997","2.0615843020800004","12","-1","-1","","","","","","","","","","","","",""
"psychophysics","158","481553","0.0-12.0-0.29","608c2c2a3db559a3864afeb0","609a8bf73b2ac84e2732f618","609d759bad8531e4d0b0e014","314.25499997567385","","","","39","","","","key","16.669384615384608","640","362.5","true","1","131.57899364351996","2.0615843020800004","12","-1","-1","","","","","","","","","","","","",""
"psychophysics","159","482911","0.0-12.0-0.30","608c2c2a3db559a3864afeb0","609a8bf73b2ac84e2732f618","609d759bad8531e4d0b0e014","356.17500002263114","","","","39","","","","key","16.66599999999962","640","362.5","true","1","131.57899364351996","2.0615843020800004","12","-1","-1","","","","","","","","","","","","",""
"psychophysics","160","484376","0.0-12.0-0.31","608c2c2a3db559a3864afeb0","609a8bf73b2ac84e2732f618","609d759bad8531e4d0b0e014","463.6099999770522","","","","39","","","","key","16.66599999999978","640","362.5","true","-1","129.51740934143996","1.6492674416640005","13","1","-1","","","","","","","","","","","","",""
"psychophysics","161","485724","0.0-12.0-0.32","608c2c2a3db559a3864afeb0","609a8bf73b2ac84e2732f618","609d759bad8531e4d0b0e014","345.9199999924749","","","","37","","","","key","16.66599999999962","640","362.5","true","-1","131.16667678310395","1.6492674416640005","13","-1","1","","","","","","","","","","","","",""
"psychophysics","162","487105","0.0-12.0-0.33","608c2c2a3db559a3864afeb0","609a8bf73b2ac84e2732f618","609d759bad8531e4d0b0e014","379.72999998601153","","","","39","","","","key","16.665999999999567","640","362.5","true","-1","131.16667678310395","1.3194139533312006","14","1","-1","","","","","","","","","","","","",""
"psychophysics","163","488425","0.0-12.0-0.34","608c2c2a3db559a3864afeb0","609a8bf73b2ac84e2732f618","609d759bad8531e4d0b0e014","318.07500001741573","","","","37","","","","key","16.665999999999677","640","362.5","true","-1","132.48609073643516","1.3194139533312006","14","-1","1","","","","","","","","","","","","",""
"psychophysics","164","489745","0.0-12.0-0.35","608c2c2a3db559a3864afeb0","609a8bf73b2ac84e2732f618","609d759bad8531e4d0b0e014","318.65999998990446","","","","37","","","","key","16.665999999999677","640","362.5","true","-1","132.48609073643516","1.0555311626649604","15","-1","-1","","","","","","","","","","","","",""
"psychophysics","165","491098","0.0-12.0-0.36","608c2c2a3db559a3864afeb0","609a8bf73b2ac84e2732f618","609d759bad8531e4d0b0e014","349.8249999829568","","","","37","","","","key","16.668862499999523","640","362.5","true","-1","131.4305595737702","1.0555311626649604","15","-1","-1","","","","","","","","","","","","",""
"psychophysics","166","492485","0.0-12.0-0.37","608c2c2a3db559a3864afeb0","609a8bf73b2ac84e2732f618","609d759bad8531e4d0b0e014","385.13499998953193","","","","37","","","","key","16.665999999999894","640","362.5","true","-1","131.4305595737702","1.0555311626649604","15","-1","-1","","","","","","","","","","","","",""
"psychophysics","167","494352","0.0-12.0-0.38","608c2c2a3db559a3864afeb0","609a8bf73b2ac84e2732f618","609d759bad8531e4d0b0e014","865.5349999899045","","","","39","","","","key","16.665999999999798","640","362.5","true","1","130.37502841110526","1.0555311626649604","15","-1","-1","","","","","","","","","","","","",""
"psychophysics","168","495968","0.0-12.0-0.39","608c2c2a3db559a3864afeb0","609a8bf73b2ac84e2732f618","609d759bad8531e4d0b0e014","614.4149999599904","","","","39","","","","key","16.665999999999865","640","362.5","true","-1","130.37502841110526","1","16","1","-1","","","","","","","","","","","","",""
"html-keyboard-response","169","503820","0.0-13.0","608c2c2a3db559a3864afeb0","609a8bf73b2ac84e2732f618","609d759bad8531e4d0b0e014","7850.42999999132","<p>Well Done !</p><p>Prepare for a new block.</p><p>DON'T EXIT THE FULL SCREEN MODE</p><p>Press the Spacebar to start.</p>","","","32","","","","","","","","","","","","","","","true","131.53336391096724","","","","","","","","","","",""
"html-keyboard-response","170","503925","0.0-14.0","608c2c2a3db559a3864afeb0","609a8bf73b2ac84e2732f618","609d759bad8531e4d0b0e014","null","","","","null","","","","","","","","","","","","","","","","","131.35832229645786","true","134.7166445929157","","","","","","","",""
"instructions","171","528969","0.0-15.0","608c2c2a3db559a3864afeb0","609a8bf73b2ac84e2732f618","609d759bad8531e4d0b0e014","25042.920000036247","","","","","","","[{""page_index"":0,""viewing_time"":22557.605000038166},{""page_index"":1,""viewing_time"":1030.3299999795854},{""page_index"":2,""viewing_time"":1454.555000003893}]","","","","","","","","","","","","","","","","","","","","","","","",""
"psychophysics","172","531659","0.0-16.0-0.0","608c2c2a3db559a3864afeb0","609a8bf73b2ac84e2732f618","609d759bad8531e4d0b0e014","null","","","","null","","","","key","16.66600000000035","640","362.5","","","","","","","","","","","","","","","","","","","",""
"psychophysics","173","532161","0.0-16.0-1.0","608c2c2a3db559a3864afeb0","609a8bf73b2ac84e2732f618","609d759bad8531e4d0b0e014","null","","","","null","","","","key","16.66599999999938","640","362.5","","","","","","","","","","","","","135","-1","2","false","","","",""
"psychophysics","174","535517","0.0-16.0-2.0","608c2c2a3db559a3864afeb0","609a8bf73b2ac84e2732f618","609d759bad8531e4d0b0e014","3354.1449999902397","","","","90","","","","key","16.68558000000019","640","362.5","","","","","","","","","","","","","","","","","","","",""
"psychophysics","175","536769","0.0-16.0-0.1","608c2c2a3db559a3864afeb0","609a8bf73b2ac84e2732f618","609d759bad8531e4d0b0e014","null","","","","null","","","","key","16.665999999999798","640","362.5","","","","","","","","","","","","","","","","","","","",""
"psychophysics","176","537282","0.0-16.0-1.1","608c2c2a3db559a3864afeb0","609a8bf73b2ac84e2732f618","609d759bad8531e4d0b0e014","null","","","","null","","","","key","16.66599999999938","640","362.5","","","","","","","","","","","","","135","1","6","false","","","",""
"psychophysics","177","537971","0.0-16.0-2.1","608c2c2a3db559a3864afeb0","609a8bf73b2ac84e2732f618","609d759bad8531e4d0b0e014","686.7150000180118","","","","77","","","","key","16.66600000000035","640","362.5","","","","","","","","","","","","","","","","","","","",""
"psychophysics","178","538926","0.0-16.0-0.2","608c2c2a3db559a3864afeb0","609a8bf73b2ac84e2732f618","609d759bad8531e4d0b0e014","null","","","","null","","","","key","16.666000000001596","640","362.5","","","","","","","","","","","","","","","","","","","",""
"psychophysics","179","539430","0.0-16.0-1.2","608c2c2a3db559a3864afeb0","609a8bf73b2ac84e2732f618","609d759bad8531e4d0b0e014","null","","","","null","","","","key","16.66599999999938","640","362.5","","","","","","","","","","","","","135","1","5","false","","","",""
"psychophysics","180","539877","0.0-16.0-2.2","608c2c2a3db559a3864afeb0","609a8bf73b2ac84e2732f618","609d759bad8531e4d0b0e014","444.0850000246428","","","","77","","","","key","16.66600000000093","640","362.5","","","","","","","","","","","","","","","","","","","",""
"psychophysics","181","540986","0.0-16.0-0.3","608c2c2a3db559a3864afeb0","609a8bf73b2ac84e2732f618","609d759bad8531e4d0b0e014","null","","","","null","","","","key","16.666000000000086","640","362.5","","","","","","","","","","","","","","","","","","","",""
"psychophysics","182","541489","0.0-16.0-1.3","608c2c2a3db559a3864afeb0","609a8bf73b2ac84e2732f618","609d759bad8531e4d0b0e014","null","","","","null","","","","key","16.665999999996437","640","362.5","","","","","","","","","","","","","135","-1","0","false","","","",""
"psychophysics","183","543980","0.0-16.0-2.3","608c2c2a3db559a3864afeb0","609a8bf73b2ac84e2732f618","609d759bad8531e4d0b0e014","2489.0700000105426","","","","90","","","","key","16.668288590603716","640","362.5","","","","","","","","","","","","","","","","","","","",""
"psychophysics","184","544679","0.0-16.0-0.4","608c2c2a3db559a3864afeb0","609a8bf73b2ac84e2732f618","609d759bad8531e4d0b0e014","null","","","","null","","","","key","16.66600000000241","640","362.5","","","","","","","","","","","","","","","","","","","",""
"psychophysics","185","545183","0.0-16.0-1.4","608c2c2a3db559a3864afeb0","609a8bf73b2ac84e2732f618","609d759bad8531e4d0b0e014","null","","","","null","","","","key","16.666000000000448","640","362.5","","","","","","","","","","","","","135","1","4","false","","","",""
"psychophysics","186","545678","0.0-16.0-2.4","608c2c2a3db559a3864afeb0","609a8bf73b2ac84e2732f618","609d759bad8531e4d0b0e014","492.934999987483","","","","77","","","","key","16.666000000001596","640","362.5","","","","","","","","","","","","","","","","","","","",""
"psychophysics","187","547131","0.0-16.0-0.5","608c2c2a3db559a3864afeb0","609a8bf73b2ac84e2732f618","609d759bad8531e4d0b0e014","null","","","","null","","","","key","16.666000000000448","640","362.5","","","","","","","","","","","","","","","","","","","",""
"psychophysics","188","547633","0.0-16.0-1.5","608c2c2a3db559a3864afeb0","609a8bf73b2ac84e2732f618","609d759bad8531e4d0b0e014","null","","","","null","","","","key","16.666000000000448","640","362.5","","","","","","","","","","","","","135","-1","3","false","","","",""
"psychophysics","189","548168","0.0-16.0-2.5","608c2c2a3db559a3864afeb0","609a8bf73b2ac84e2732f618","609d759bad8531e4d0b0e014","532.6650000060908","","","","77","","","","key","16.665999999998377","640","362.5","","","","","","","","","","","","","","","","","","","",""
"psychophysics","190","549279","0.0-16.0-0.6","608c2c2a3db559a3864afeb0","609a8bf73b2ac84e2732f618","609d759bad8531e4d0b0e014","null","","","","null","","","","key","16.665999999998782","640","362.5","","","","","","","","","","","","","","","","","","","",""
"psychophysics","191","549782","0.0-16.0-1.6","608c2c2a3db559a3864afeb0","609a8bf73b2ac84e2732f618","609d759bad8531e4d0b0e014","null","","","","null","","","","key","16.66599999999938","640","362.5","","","","","","","","","","","","","135","1","2","false","","","",""
"psychophysics","192","550228","0.0-16.0-2.6","608c2c2a3db559a3864afeb0","609a8bf73b2ac84e2732f618","609d759bad8531e4d0b0e014","443.80000000819564","","","","90","","","","key","16.66600000000093","640","362.5","","","","","","","","","","","","","","","","","","","",""
"psychophysics","193","550887","0.0-16.0-0.7","608c2c2a3db559a3864afeb0","609a8bf73b2ac84e2732f618","609d759bad8531e4d0b0e014","null","","","","null","","","","key","16.66600000000117","640","362.5","","","","","","","","","","","","","","","","","","","",""
"psychophysics","194","551389","0.0-16.0-1.7","608c2c2a3db559a3864afeb0","609a8bf73b2ac84e2732f618","609d759bad8531e4d0b0e014","null","","","","null","","","","key","16.666000000000448","640","362.5","","","","","","","","","","","","","135","-1","6","false","","","",""
"psychophysics","195","551812","0.0-16.0-2.7","608c2c2a3db559a3864afeb0","609a8bf73b2ac84e2732f618","609d759bad8531e4d0b0e014","420.45999999390915","","","","77","","","","key","16.66600000000229","640","362.5","","","","","","","","","","","","","","","","","","","",""
"psychophysics","196","553282","0.0-16.0-0.8","608c2c2a3db559a3864afeb0","609a8bf73b2ac84e2732f618","609d759bad8531e4d0b0e014","null","","","","null","","","","key","16.666000000000086","640","362.5","","","","","","","","","","","","","","","","","","","",""
"psychophysics","197","553785","0.0-16.0-1.8","608c2c2a3db559a3864afeb0","609a8bf73b2ac84e2732f618","609d759bad8531e4d0b0e014","null","","","","null","","","","key","16.666000000000448","640","362.5","","","","","","","","","","","","","135","1","0","false","","","",""
"psychophysics","198","555936","0.0-16.0-2.8","608c2c2a3db559a3864afeb0","609a8bf73b2ac84e2732f618","609d759bad8531e4d0b0e014","2148.1849999981932","","","","77","","","","key","16.668179687500015","640","362.5","","","","","","","","","","","","","","","","","","","",""
"psychophysics","199","557246","0.0-16.0-0.9","608c2c2a3db559a3864afeb0","609a8bf73b2ac84e2732f618","609d759bad8531e4d0b0e014","null","","","","null","","","","key","16.665999999999677","640","362.5","","","","","","","","","","","","","","","","","","","",""
"psychophysics","200","557749","0.0-16.0-1.9","608c2c2a3db559a3864afeb0","609a8bf73b2ac84e2732f618","609d759bad8531e4d0b0e014","null","","","","null","","","","key","16.666000000000448","640","362.5","","","","","","","","","","","","","135","1","3","false","","","",""
"psychophysics","201","558256","0.0-16.0-2.9","608c2c2a3db559a3864afeb0","609a8bf73b2ac84e2732f618","609d759bad8531e4d0b0e014","505.04499999806285","","","","77","","","","key","16.666000000000448","640","362.5","","","","","","","","","","","","","","","","","","","",""
"psychophysics","202","559630","0.0-16.0-0.10","608c2c2a3db559a3864afeb0","609a8bf73b2ac84e2732f618","609d759bad8531e4d0b0e014","null","","","","null","","","","key","16.666000000000988","640","362.5","","","","","","","","","","","","","","","","","","","",""
"psychophysics","203","560134","0.0-16.0-1.10","608c2c2a3db559a3864afeb0","609a8bf73b2ac84e2732f618","609d759bad8531e4d0b0e014","null","","","","null","","","","key","16.666000000000448","640","362.5","","","","","","","","","","","","","135","-1","5","false","","","",""
"psychophysics","204","560553","0.0-16.0-2.10","608c2c2a3db559a3864afeb0","609a8bf73b2ac84e2732f618","609d759bad8531e4d0b0e014","416.7499999748543","","","","77","","","","key","16.66600000000229","640","362.5","","","","","","","","","","","","","","","","","","","",""
"psychophysics","205","561987","0.0-16.0-0.11","608c2c2a3db559a3864afeb0","609a8bf73b2ac84e2732f618","609d759bad8531e4d0b0e014","null","","","","null","","","","key","16.665999999999837","640","362.5","","","","","","","","","","","","","","","","","","","",""
"psychophysics","206","562489","0.0-16.0-1.11","608c2c2a3db559a3864afeb0","609a8bf73b2ac84e2732f618","609d759bad8531e4d0b0e014","null","","","","null","","","","key","16.666000000000448","640","362.5","","","","","","","","","","","","","135","-1","4","false","","","",""
"psychophysics","207","562887","0.0-16.0-2.11","608c2c2a3db559a3864afeb0","609a8bf73b2ac84e2732f618","609d759bad8531e4d0b0e014","396.20499999728054","","","","77","","","","key","16.666000000003766","640","362.5","","","","","","","","","","","","","","","","","","","",""
"psychophysics","208","564231","0.0-16.0-0.12","608c2c2a3db559a3864afeb0","609a8bf73b2ac84e2732f618","609d759bad8531e4d0b0e014","null","","","","null","","","","key","16.66921250000014","640","362.5","","","","","","","","","","","","","","","","","","","",""
"psychophysics","209","564733","0.0-16.0-1.12","608c2c2a3db559a3864afeb0","609a8bf73b2ac84e2732f618","609d759bad8531e4d0b0e014","null","","","","null","","","","key","16.666000000000448","640","362.5","","","","","","","","","","","","","135","-1","0","false","","","",""
"psychophysics","210","565170","0.0-16.0-2.12","608c2c2a3db559a3864afeb0","609a8bf73b2ac84e2732f618","609d759bad8531e4d0b0e014","434.15000004461035","","","","90","","","","key","16.66600000000093","640","362.5","","","","","","","","","","","","","","","","","","","",""
"psychophysics","211","566509","0.0-16.0-0.13","608c2c2a3db559a3864afeb0","609a8bf73b2ac84e2732f618","609d759bad8531e4d0b0e014","null","","","","null","","","","key","16.666000000000754","640","362.5","","","","","","","","","","","","","","","","","","","",""
"psychophysics","212","567014","0.0-16.0-1.13","608c2c2a3db559a3864afeb0","609a8bf73b2ac84e2732f618","609d759bad8531e4d0b0e014","null","","","","null","","","","key","16.66599999999938","640","362.5","","","","","","","","","","","","","135","-1","2","false","","","",""
"psychophysics","213","567721","0.0-16.0-2.13","608c2c2a3db559a3864afeb0","609a8bf73b2ac84e2732f618","609d759bad8531e4d0b0e014","704.66500002658","","","","90","","","","key","16.665999999999567","640","362.5","","","","","","","","","","","","","","","","","","","",""
"psychophysics","214","568782","0.0-16.0-0.14","608c2c2a3db559a3864afeb0","609a8bf73b2ac84e2732f618","609d759bad8531e4d0b0e014","null","","","","null","","","","key","16.665999999999748","640","362.5","","","","","","","","","","","","","","","","","","","",""
"psychophysics","215","569285","0.0-16.0-1.14","608c2c2a3db559a3864afeb0","609a8bf73b2ac84e2732f618","609d759bad8531e4d0b0e014","null","","","","null","","","","key","16.666000000000448","640","362.5","","","","","","","","","","","","","135","1","6","false","","","",""
"psychophysics","216","569719","0.0-16.0-2.14","608c2c2a3db559a3864afeb0","609a8bf73b2ac84e2732f618","609d759bad8531e4d0b0e014","432.45999998180196","","","","77","","","","key","16.665999999996274","640","362.5","","","","","","","","","","","","","","","","","","","",""
"psychophysics","217","571042","0.0-16.0-0.15","608c2c2a3db559a3864afeb0","609a8bf73b2ac84e2732f618","609d759bad8531e4d0b0e014","null","","","","null","","","","key","16.665999999999677","640","362.5","","","","","","","","","","","","","","","","","","","",""
"psychophysics","218","571549","0.0-16.0-1.15","608c2c2a3db559a3864afeb0","609a8bf73b2ac84e2732f618","609d759bad8531e4d0b0e014","null","","","","null","","","","key","16.66599999999938","640","362.5","","","","","","","","","","","","","135","-1","5","false","","","",""
"psychophysics","219","571809","0.0-16.0-2.15","608c2c2a3db559a3864afeb0","609a8bf73b2ac84e2732f618","609d759bad8531e4d0b0e014","257.74999998975545","","","","77","","","","key","16.665999999993282","640","362.5","","","","","","","","","","","","","","","","","","","",""
"psychophysics","220","572580","0.0-16.0-0.16","608c2c2a3db559a3864afeb0","609a8bf73b2ac84e2732f618","609d759bad8531e4d0b0e014","null","","","","null","","","","key","16.665999999998704","640","362.5","","","","","","","","","","","","","","","","","","","",""
"psychophysics","221","573083","0.0-16.0-1.16","608c2c2a3db559a3864afeb0","609a8bf73b2ac84e2732f618","609d759bad8531e4d0b0e014","null","","","","null","","","","key","16.666000000000448","640","362.5","","","","","","","","","","","","","135","-1","6","false","","","",""
"psychophysics","222","573401","0.0-16.0-2.16","608c2c2a3db559a3864afeb0","609a8bf73b2ac84e2732f618","609d759bad8531e4d0b0e014","316.14500004798174","","","","77","","","","key","16.666000000000672","640","362.5","","","","","","","","","","","","","","","","","","","",""
"psychophysics","223","574536","0.0-16.0-0.17","608c2c2a3db559a3864afeb0","609a8bf73b2ac84e2732f618","609d759bad8531e4d0b0e014","null","","","","null","","","","key","16.66997014925252","640","362.5","","","","","","","","","","","","","","","","","","","",""
"psychophysics","224","575039","0.0-16.0-1.17","608c2c2a3db559a3864afeb0","609a8bf73b2ac84e2732f618","609d759bad8531e4d0b0e014","null","","","","null","","","","key","16.666000000000448","640","362.5","","","","","","","","","","","","","135","-1","3","false","","","",""
"psychophysics","225","575265","0.0-16.0-2.17","608c2c2a3db559a3864afeb0","609a8bf73b2ac84e2732f618","609d759bad8531e4d0b0e014","223.20499998750165","","","","77","","","","key","16.6659999999952","640","362.5","","","","","","","","","","","","","","","","","","","",""
"psychophysics","226","576032","0.0-16.0-0.18","608c2c2a3db559a3864afeb0","609a8bf73b2ac84e2732f618","609d759bad8531e4d0b0e014","null","","","","null","","","","key","16.66599999999938","640","362.5","","","","","","","","","","","","","","","","","","","",""
"psychophysics","227","576534","0.0-16.0-1.18","608c2c2a3db559a3864afeb0","609a8bf73b2ac84e2732f618","609d759bad8531e4d0b0e014","null","","","","null","","","","key","16.666000000000448","640","362.5","","","","","","","","","","","","","135","1","4","false","","","",""
"psychophysics","228","576874","0.0-16.0-2.18","608c2c2a3db559a3864afeb0","609a8bf73b2ac84e2732f618","609d759bad8531e4d0b0e014","338.3349999785423","","","","77","","","","key","16.6660000000051","640","362.5","","","","","","","","","","","","","","","","","","","",""
"psychophysics","229","577852","0.0-16.0-0.19","608c2c2a3db559a3864afeb0","609a8bf73b2ac84e2732f618","609d759bad8531e4d0b0e014","null","","","","null","","","","key","16.666000000000448","640","362.5","","","","","","","","","","","","","","","","","","","",""
"psychophysics","230","578354","0.0-16.0-1.19","608c2c2a3db559a3864afeb0","609a8bf73b2ac84e2732f618","609d759bad8531e4d0b0e014","null","","","","null","","","","key","16.666000000000448","640","362.5","","","","","","","","","","","","","135","1","5","false","","","",""
"psychophysics","231","578459","0.0-16.0-2.19","608c2c2a3db559a3864afeb0","609a8bf73b2ac84e2732f618","609d759bad8531e4d0b0e014","102.36000001896173","","","","77","","","","key","16.66599999999162","640","362.5","","","","","","","","","","","","","","","","","","","",""
"psychophysics","232","579030","0.0-16.0-0.20","608c2c2a3db559a3864afeb0","609a8bf73b2ac84e2732f618","609d759bad8531e4d0b0e014","null","","","","null","","","","key","16.66599999999915","640","362.5","","","","","","","","","","","","","","","","","","","",""
"psychophysics","233","579533","0.0-16.0-1.20","608c2c2a3db559a3864afeb0","609a8bf73b2ac84e2732f618","609d759bad8531e4d0b0e014","null","","","","null","","","","key","16.666000000000448","640","362.5","","","","","","","","","","","","","135","1","0","false","","","",""
"psychophysics","234","580039","0.0-16.0-2.20","608c2c2a3db559a3864afeb0","609a8bf73b2ac84e2732f618","609d759bad8531e4d0b0e014","504.04500000877306","","","","90","","","","key","16.666000000000448","640","362.5","","","","","","","","","","","","","","","","","","","",""
"psychophysics","235","581229","0.0-16.0-0.21","608c2c2a3db559a3864afeb0","609a8bf73b2ac84e2732f618","609d759bad8531e4d0b0e014","null","","","","null","","","","key","16.66599999999949","640","362.5","","","","","","","","","","","","","","","","","","","",""
"psychophysics","236","581732","0.0-16.0-1.21","608c2c2a3db559a3864afeb0","609a8bf73b2ac84e2732f618","609d759bad8531e4d0b0e014","null","","","","null","","","","key","16.666000000000448","640","362.5","","","","","","","","","","","","","135","1","2","false","","","",""
"psychophysics","237","581900","0.0-16.0-2.21","608c2c2a3db559a3864afeb0","609a8bf73b2ac84e2732f618","609d759bad8531e4d0b0e014","166.50499997194856","","","","77","","","","key","16.66600000000714","640","362.5","","","","","","","","","","","","","","","","","","","",""
"psychophysics","238","583358","0.0-16.0-0.22","608c2c2a3db559a3864afeb0","609a8bf73b2ac84e2732f618","609d759bad8531e4d0b0e014","null","","","","null","","","","key","16.66599999999947","640","362.5","","","","","","","","","","","","","","","","","","","",""
"psychophysics","239","583860","0.0-16.0-1.22","608c2c2a3db559a3864afeb0","609a8bf73b2ac84e2732f618","609d759bad8531e4d0b0e014","null","","","","null","","","","key","16.666000000000448","640","362.5","","","","","","","","","","","","","135","1","3","false","","","",""
"psychophysics","240","584048","0.0-16.0-2.22","608c2c2a3db559a3864afeb0","609a8bf73b2ac84e2732f618","609d759bad8531e4d0b0e014","184.22499997541308","","","","77","","","","key","16.689818181817166","640","362.5","","","","","","","","","","","","","","","","","","","",""
"psychophysics","241","585029","0.0-16.0-0.23","608c2c2a3db559a3864afeb0","609a8bf73b2ac84e2732f618","609d759bad8531e4d0b0e014","null","","","","null","","","","key","16.666000000000448","640","362.5","","","","","","","","","","","","","","","","","","","",""
"psychophysics","242","585532","0.0-16.0-1.23","608c2c2a3db559a3864afeb0","609a8bf73b2ac84e2732f618","609d759bad8531e4d0b0e014","null","","","","null","","","","key","16.666000000000448","640","362.5","","","","","","","","","","","","","135","-1","4","false","","","",""
"psychophysics","243","585826","0.0-16.0-2.23","608c2c2a3db559a3864afeb0","609a8bf73b2ac84e2732f618","609d759bad8531e4d0b0e014","292.01500001363456","","","","77","","","","key","16.666000000004715","640","362.5","","","","","","","","","","","","","","","","","","","",""
"html-keyboard-response","244","591196","0.0-17.0","608c2c2a3db559a3864afeb0","609a8bf73b2ac84e2732f618","609d759bad8531e4d0b0e014","5368.215000024065","<p>Well Done !</p><p>Training Complete. Press the spacebar to start.</p><p>DON'T EXIT THE FULL SCREEN MODE</p>","","","32","","","","","","","","","","","","","","","","","","","","","","","","","","",""
"psychophysics","245","594216","0.0-18.0-0.0","608c2c2a3db559a3864afeb0","609a8bf73b2ac84e2732f618","609d759bad8531e4d0b0e014","null","","","","null","","","","key","16.705278688524544","640","362.5","","","","","","","","","","","","","","","","","","","",""
"psychophysics","246","594719","0.0-18.0-1.0","608c2c2a3db559a3864afeb0","609a8bf73b2ac84e2732f618","609d759bad8531e4d0b0e014","null","","","","null","","","","key","16.665999999996437","640","362.5","","","","","","","","","","","","","135","1","4","true","","","",""
"psychophysics","247","595737","0.0-18.0-2.0","608c2c2a3db559a3864afeb0","609a8bf73b2ac84e2732f618","609d759bad8531e4d0b0e014","1015.7249999465421","","","","77","","","","key","16.66599999999938","640","362.5","","","","","","","","","","","","","","","","","","","",""
"psychophysics","248","596716","0.0-18.0-0.1","608c2c2a3db559a3864afeb0","609a8bf73b2ac84e2732f618","609d759bad8531e4d0b0e014","null","","","","null","","","","key","16.666000000000448","640","362.5","","","","","","","","","","","","","","","","","","","",""
"psychophysics","249","597218","0.0-18.0-1.1","608c2c2a3db559a3864afeb0","609a8bf73b2ac84e2732f618","609d759bad8531e4d0b0e014","null","","","","null","","","","key","16.666000000000448","640","362.5","","","","","","","","","","","","","135","-1","6","true","","","",""
"psychophysics","250","597273","0.0-18.0-2.1","608c2c2a3db559a3864afeb0","609a8bf73b2ac84e2732f618","609d759bad8531e4d0b0e014","53.019999992102385","","","","90","","","","key","16.666000000026543","640","362.5","","","","","","","","","","","","","","","","","","","",""
"psychophysics","251","598249","0.0-18.0-0.2","608c2c2a3db559a3864afeb0","609a8bf73b2ac84e2732f618","609d759bad8531e4d0b0e014","null","","","","null","","","","key","16.666000000000448","640","362.5","","","","","","","","","","","","","","","","","","","",""
"psychophysics","252","598751","0.0-18.0-1.2","608c2c2a3db559a3864afeb0","609a8bf73b2ac84e2732f618","609d759bad8531e4d0b0e014","null","","","","null","","","","key","16.666000000000448","640","362.5","","","","","","","","","","","","","135","1","3","true","","","",""
"psychophysics","253","599126","0.0-18.0-2.2","608c2c2a3db559a3864afeb0","609a8bf73b2ac84e2732f618","609d759bad8531e4d0b0e014","373.26999998185784","","","","77","","","","key","16.665999999996053","640","362.5","","","","","","","","","","","","","","","","","","","",""
"psychophysics","254","600271","0.0-18.0-0.3","608c2c2a3db559a3864afeb0","609a8bf73b2ac84e2732f618","609d759bad8531e4d0b0e014","null","","","","null","","","","key","16.66599999999915","640","362.5","","","","","","","","","","","","","","","","","","","",""
"psychophysics","255","600774","0.0-18.0-1.3","608c2c2a3db559a3864afeb0","609a8bf73b2ac84e2732f618","609d759bad8531e4d0b0e014","null","","","","null","","","","key","16.666000000000448","640","362.5","","","","","","","","","","","","","135","-1","2","true","","","",""
"psychophysics","256","601065","0.0-18.0-2.3","608c2c2a3db559a3864afeb0","609a8bf73b2ac84e2732f618","609d759bad8531e4d0b0e014","289.4050000468269","","","","77","","","","key","16.666000000002576","640","362.5","","","","","","","","","","","","","","","","","","","",""
"psychophysics","257","602047","0.0-18.0-0.4","608c2c2a3db559a3864afeb0","609a8bf73b2ac84e2732f618","609d759bad8531e4d0b0e014","null","","","","null","","","","key","16.666000000001013","640","362.5","","","","","","","","","","","","","","","","","","","",""
"psychophysics","258","602548","0.0-18.0-1.4","608c2c2a3db559a3864afeb0","609a8bf73b2ac84e2732f618","609d759bad8531e4d0b0e014","null","","","","null","","","","key","16.66599999999938","640","362.5","","","","","","","","","","","","","135","1","5","true","","","",""
"psychophysics","259","602831","0.0-18.0-2.4","608c2c2a3db559a3864afeb0","609a8bf73b2ac84e2732f618","609d759bad8531e4d0b0e014","280.1850000396371","","","","77","","","","key","16.66599999999938","640","362.5","","","","","","","","","","","","","","","","","","","",""
"psychophysics","260","603344","0.0-18.0-0.5","608c2c2a3db559a3864afeb0","609a8bf73b2ac84e2732f618","609d759bad8531e4d0b0e014","null","","","","null","","","","key","16.66599999999938","640","362.5","","","","","","","","","","","","","","","","","","","",""
"psychophysics","261","603846","0.0-18.0-1.5","608c2c2a3db559a3864afeb0","609a8bf73b2ac84e2732f618","609d759bad8531e4d0b0e014","null","","","","null","","","","key","16.666000000000448","640","362.5","","","","","","","","","","","","","135","1","0","true","","","",""
"psychophysics","262","606644","0.0-18.0-2.5","608c2c2a3db559a3864afeb0","609a8bf73b2ac84e2732f618","609d759bad8531e4d0b0e014","2794.594999984838","","","","77","","","","key","16.70254491018006","640","362.5","","","","","","","","","","","","","","","","","","","",""
"psychophysics","263","607881","0.0-18.0-0.6","608c2c2a3db559a3864afeb0","609a8bf73b2ac84e2732f618","609d759bad8531e4d0b0e014","null","","","","null","","","","key","16.66600000000023","640","362.5","","","","","","","","","","","","","","","","","","","",""
"psychophysics","264","608384","0.0-18.0-1.6","608c2c2a3db559a3864afeb0","609a8bf73b2ac84e2732f618","609d759bad8531e4d0b0e014","null","","","","null","","","","key","16.666000000000448","640","362.5","","","","","","","","","","","","","135","-1","5","true","","","",""
"psychophysics","265","608630","0.0-18.0-2.6","608c2c2a3db559a3864afeb0","609a8bf73b2ac84e2732f618","609d759bad8531e4d0b0e014","241.150000016205","","","","77","","","","key","16.666000000001596","640","362.5","","","","","","","","","","","","","","","","","","","",""
"psychophysics","266","609739","0.0-18.0-0.7","608c2c2a3db559a3864afeb0","609a8bf73b2ac84e2732f618","609d759bad8531e4d0b0e014","null","","","","null","","","","key","16.66599999999832","640","362.5","","","","","","","","","","","","","","","","","","","",""
"psychophysics","267","610240","0.0-18.0-1.7","608c2c2a3db559a3864afeb0","609a8bf73b2ac84e2732f618","609d759bad8531e4d0b0e014","null","","","","null","","","","key","16.666000000000448","640","362.5","","","","","","","","","","","","","135","-1","3","true","","","",""
"psychophysics","268","610569","0.0-18.0-2.7","608c2c2a3db559a3864afeb0","609a8bf73b2ac84e2732f618","609d759bad8531e4d0b0e014","326.2349999858998","","","","77","","","","key","16.666000000000672","640","362.5","","","","","","","","","","","","","","","","","","","",""
"psychophysics","269","611525","0.0-18.0-0.8","608c2c2a3db559a3864afeb0","609a8bf73b2ac84e2732f618","609d759bad8531e4d0b0e014","null","","","","null","","","","key","16.666000000001013","640","362.5","","","","","","","","","","","","","","","","","","","",""
"psychophysics","270","612027","0.0-18.0-1.8","608c2c2a3db559a3864afeb0","609a8bf73b2ac84e2732f618","609d759bad8531e4d0b0e014","null","","","","null","","","","key","16.666000000000448","640","362.5","","","","","","","","","","","","","135","1","6","true","","","",""
"psychophysics","271","612328","0.0-18.0-2.8","608c2c2a3db559a3864afeb0","609a8bf73b2ac84e2732f618","609d759bad8531e4d0b0e014","299.60500000743195","","","","77","","","","key","16.666000000002576","640","362.5","","","","","","","","","","","","","","","","","","","",""
"psychophysics","272","613489","0.0-18.0-0.9","608c2c2a3db559a3864afeb0","609a8bf73b2ac84e2732f618","609d759bad8531e4d0b0e014","null","","","","null","","","","key","16.66600000000039","640","362.5","","","","","","","","","","","","","","","","","","","",""
"psychophysics","273","613991","0.0-18.0-1.9","608c2c2a3db559a3864afeb0","609a8bf73b2ac84e2732f618","609d759bad8531e4d0b0e014","null","","","","null","","","","key","16.666000000000448","640","362.5","","","","","","","","","","","","","135","-1","0","true","","","",""
"psychophysics","274","614269","0.0-18.0-2.9","608c2c2a3db559a3864afeb0","609a8bf73b2ac84e2732f618","609d759bad8531e4d0b0e014","276.33500000229105","","","","77","","","","key","16.686200000004224","640","362.5","","","","","","","","","","","","","","","","","","","",""
"psychophysics","275","615659","0.0-18.0-0.10","608c2c2a3db559a3864afeb0","609a8bf73b2ac84e2732f618","609d759bad8531e4d0b0e014","null","","","","null","","","","key","16.66599999999919","640","362.5","","","","","","","","","","","","","","","","","","","",""
"psychophysics","276","616161","0.0-18.0-1.10","608c2c2a3db559a3864afeb0","609a8bf73b2ac84e2732f618","609d759bad8531e4d0b0e014","null","","","","null","","","","key","16.666000000000448","640","362.5","","","","","","","","","","","","","135","1","2","true","","","",""
"psychophysics","277","616577","0.0-18.0-2.10","608c2c2a3db559a3864afeb0","609a8bf73b2ac84e2732f618","609d759bad8531e4d0b0e014","413.4300000150688","","","","90","","","","key","16.66599999999744","640","362.5","","","","","","","","","","","","","","","","","","","",""
"psychophysics","278","617509","0.0-18.0-0.11","608c2c2a3db559a3864afeb0","609a8bf73b2ac84e2732f618","609d759bad8531e4d0b0e014","null","","","","null","","","","key","16.666000000000086","640","362.5","","","","","","","","","","","","","","","","","","","",""
"psychophysics","279","618011","0.0-18.0-1.11","608c2c2a3db559a3864afeb0","609a8bf73b2ac84e2732f618","609d759bad8531e4d0b0e014","null","","","","null","","","","key","16.666000000000448","640","362.5","","","","","","","","","","","","","135","-1","4","true","","","",""
"psychophysics","280","618229","0.0-18.0-2.11","608c2c2a3db559a3864afeb0","609a8bf73b2ac84e2732f618","609d759bad8531e4d0b0e014","215.7850000075996","","","","77","","","","key","16.66599999999744","640","362.5","","","","","","","","","","","","","","","","","","","",""
"psychophysics","281","619610","0.0-18.0-0.12","608c2c2a3db559a3864afeb0","609a8bf73b2ac84e2732f618","609d759bad8531e4d0b0e014","null","","","","null","","","","key","16.665999999999567","640","362.5","","","","","","","","","","","","","","","","","","","",""
"psychophysics","282","620113","0.0-18.0-1.12","608c2c2a3db559a3864afeb0","609a8bf73b2ac84e2732f618","609d759bad8531e4d0b0e014","null","","","","null","","","","key","16.666000000000448","640","362.5","","","","","","","","","","","","","135","1","4","true","","","",""
"psychophysics","283","620253","0.0-18.0-2.12","608c2c2a3db559a3864afeb0","609a8bf73b2ac84e2732f618","609d759bad8531e4d0b0e014","138.07000004453585","","","","77","","","","key","16.66599999999744","640","362.5","","","","","","","","","","","","","","","","","","","",""
"psychophysics","284","621435","0.0-18.0-0.13","608c2c2a3db559a3864afeb0","609a8bf73b2ac84e2732f618","609d759bad8531e4d0b0e014","null","","","","null","","","","key","16.66600000000039","640","362.5","","","","","","","","","","","","","","","","","","","",""
"psychophysics","285","621938","0.0-18.0-1.13","608c2c2a3db559a3864afeb0","609a8bf73b2ac84e2732f618","609d759bad8531e4d0b0e014","null","","","","null","","","","key","16.66599999999938","640","362.5","","","","","","","","","","","","","135","1","3","true","","","",""
"psychophysics","286","622742","0.0-18.0-2.13","608c2c2a3db559a3864afeb0","609a8bf73b2ac84e2732f618","609d759bad8531e4d0b0e014","801.7499999841675","","","","77","","","","key","16.666000000000533","640","362.5","","","","","","","","","","","","","","","","","","","",""
"psychophysics","287","623746","0.0-18.0-0.14","608c2c2a3db559a3864afeb0","609a8bf73b2ac84e2732f618","609d759bad8531e4d0b0e014","null","","","","null","","","","key","16.665999999999904","640","362.5","","","","","","","","","","","","","","","","","","","",""
"psychophysics","288","624248","0.0-18.0-1.14","608c2c2a3db559a3864afeb0","609a8bf73b2ac84e2732f618","609d759bad8531e4d0b0e014","null","","","","null","","","","key","16.67482758620513","640","362.5","","","","","","","","","","","","","135","1","5","true","","","",""
"psychophysics","289","624341","0.0-18.0-2.14","608c2c2a3db559a3864afeb0","609a8bf73b2ac84e2732f618","609d759bad8531e4d0b0e014","89.57000001100823","","","","77","","","","key","16.6660000000149","640","362.5","","","","","","","","","","","","","","","","","","","",""
"psychophysics","290","625161","0.0-18.0-0.15","608c2c2a3db559a3864afeb0","609a8bf73b2ac84e2732f618","609d759bad8531e4d0b0e014","null","","","","null","","","","key","16.665999999999865","640","362.5","","","","","","","","","","","","","","","","","","","",""
"psychophysics","291","625664","0.0-18.0-1.15","608c2c2a3db559a3864afeb0","609a8bf73b2ac84e2732f618","609d759bad8531e4d0b0e014","null","","","","null","","","","key","16.666000000000448","640","362.5","","","","","","","","","","","","","135","1","0","true","","","",""
"psychophysics","292","626440","0.0-18.0-2.15","608c2c2a3db559a3864afeb0","609a8bf73b2ac84e2732f618","609d759bad8531e4d0b0e014","774.0199999534525","","","","77","","","","key","16.666000000001237","640","362.5","","","","","","","","","","","","","","","","","","","",""
"psychophysics","293","627029","0.0-18.0-0.16","608c2c2a3db559a3864afeb0","609a8bf73b2ac84e2732f618","609d759bad8531e4d0b0e014","null","","","","null","","","","key","16.66599999999915","640","362.5","","","","","","","","","","","","","","","","","","","",""
"psychophysics","294","627530","0.0-18.0-1.16","608c2c2a3db559a3864afeb0","609a8bf73b2ac84e2732f618","609d759bad8531e4d0b0e014","null","","","","null","","","","key","16.666000000000448","640","362.5","","","","","","","","","","","","","135","1","6","true","","","",""
"psychophysics","295","627725","0.0-18.0-2.16","608c2c2a3db559a3864afeb0","609a8bf73b2ac84e2732f618","609d759bad8531e4d0b0e014","192.07499996991828","","","","77","","","","key","16.666000000000086","640","362.5","","","","","","","","","","","","","","","","","","","",""
"psychophysics","296","628851","0.0-18.0-0.17","608c2c2a3db559a3864afeb0","609a8bf73b2ac84e2732f618","609d759bad8531e4d0b0e014","null","","","","null","","","","key","16.666000000000086","640","362.5","","","","","","","","","","","","","","","","","","","",""
"psychophysics","297","629353","0.0-18.0-1.17","608c2c2a3db559a3864afeb0","609a8bf73b2ac84e2732f618","609d759bad8531e4d0b0e014","null","","","","null","","","","key","16.666000000000448","640","362.5","","","","","","","","","","","","","135","-1","3","true","","","",""
"psychophysics","298","629678","0.0-18.0-2.17","608c2c2a3db559a3864afeb0","609a8bf73b2ac84e2732f618","609d759bad8531e4d0b0e014","321.0799999651499","","","","90","","","","key","16.66599999999897","640","362.5","","","","","","","","","","","","","","","","","","","",""
"psychophysics","299","630482","0.0-18.0-0.18","608c2c2a3db559a3864afeb0","609a8bf73b2ac84e2732f618","609d759bad8531e4d0b0e014","null","","","","null","","","","key","16.666000000000533","640","362.5","","","","","","","","","","","","","","","","","","","",""
"psychophysics","300","630985","0.0-18.0-1.18","608c2c2a3db559a3864afeb0","609a8bf73b2ac84e2732f618","609d759bad8531e4d0b0e014","null","","","","null","","","","key","16.666000000000448","640","362.5","","","","","","","","","","","","","135","-1","5","true","","","",""
"psychophysics","301","631139","0.0-18.0-2.18","608c2c2a3db559a3864afeb0","609a8bf73b2ac84e2732f618","609d759bad8531e4d0b0e014","150.09499998996034","","","","77","","","","key","16.66600000000714","640","362.5","","","","","","","","","","","","","","","","","","","",""
"psychophysics","302","632308","0.0-18.0-0.19","608c2c2a3db559a3864afeb0","609a8bf73b2ac84e2732f618","609d759bad8531e4d0b0e014","null","","","","null","","","","key","16.66600000000039","640","362.5","","","","","","","","","","","","","","","","","","","",""
"psychophysics","303","632810","0.0-18.0-1.19","608c2c2a3db559a3864afeb0","609a8bf73b2ac84e2732f618","609d759bad8531e4d0b0e014","null","","","","null","","","","key","16.666000000000448","640","362.5","","","","","","","","","","","","","135","1","2","true","","","",""
"psychophysics","304","633711","0.0-18.0-2.19","608c2c2a3db559a3864afeb0","609a8bf73b2ac84e2732f618","609d759bad8531e4d0b0e014","899.3200000259094","","","","90","","","","key","16.666000000001283","640","362.5","","","","","","","","","","","","","","","","","","","",""
"psychophysics","305","635190","0.0-18.0-0.20","608c2c2a3db559a3864afeb0","609a8bf73b2ac84e2732f618","609d759bad8531e4d0b0e014","null","","","","null","","","","key","16.66912500000035","640","362.5","","","","","","","","","","","","","","","","","","","",""
"psychophysics","306","635692","0.0-18.0-1.20","608c2c2a3db559a3864afeb0","609a8bf73b2ac84e2732f618","609d759bad8531e4d0b0e014","null","","","","null","","","","key","16.666000000000448","640","362.5","","","","","","","","","","","","","135","-1","2","true","","","",""
"psychophysics","307","636030","0.0-18.0-2.20","608c2c2a3db559a3864afeb0","609a8bf73b2ac84e2732f618","609d759bad8531e4d0b0e014","335.68999997805804","","","","90","","","","key","16.66599999999897","640","362.5","","","","","","","","","","","","","","","","","","","",""
"psychophysics","308","636755","0.0-18.0-0.21","608c2c2a3db559a3864afeb0","609a8bf73b2ac84e2732f618","609d759bad8531e4d0b0e014","null","","","","null","","","","key","16.666000000000825","640","362.5","","","","","","","","","","","","","","","","","","","",""
"psychophysics","309","637257","0.0-18.0-1.21","608c2c2a3db559a3864afeb0","609a8bf73b2ac84e2732f618","609d759bad8531e4d0b0e014","null","","","","null","","","","key","16.666000000000448","640","362.5","","","","","","","","","","","","","135","-1","6","true","","","",""
"psychophysics","310","637542","0.0-18.0-2.21","608c2c2a3db559a3864afeb0","609a8bf73b2ac84e2732f618","609d759bad8531e4d0b0e014","282.1750000002794","","","","77","","","","key","16.66599999999744","640","362.5","","","","","","","","","","","","","","","","","","","",""
"psychophysics","311","638530","0.0-18.0-0.22","608c2c2a3db559a3864afeb0","609a8bf73b2ac84e2732f618","609d759bad8531e4d0b0e014","null","","","","null","","","","key","16.666000000000448","640","362.5","","","","","","","","","","","","","","","","","","","",""
"psychophysics","312","639033","0.0-18.0-1.22","608c2c2a3db559a3864afeb0","609a8bf73b2ac84e2732f618","609d759bad8531e4d0b0e014","null","","","","null","","","","key","16.666000000000448","640","362.5","","","","","","","","","","","","","135","-1","4","true","","","",""
"psychophysics","313","639123","0.0-18.0-2.22","608c2c2a3db559a3864afeb0","609a8bf73b2ac84e2732f618","609d759bad8531e4d0b0e014","87.6750000170432","","","","77","","","","key","16.6660000000149","640","362.5","","","","","","","","","","","","","","","","","","","",""
"psychophysics","314","640116","0.0-18.0-0.23","608c2c2a3db559a3864afeb0","609a8bf73b2ac84e2732f618","609d759bad8531e4d0b0e014","null","","","","null","","","","key","16.666000000000448","640","362.5","","","","","","","","","","","","","","","","","","","",""
"psychophysics","315","640618","0.0-18.0-1.23","608c2c2a3db559a3864afeb0","609a8bf73b2ac84e2732f618","609d759bad8531e4d0b0e014","null","","","","null","","","","key","16.666000000000448","640","362.5","","","","","","","","","","","","","135","-1","0","true","","","",""
"psychophysics","316","640704","0.0-18.0-2.23","608c2c2a3db559a3864afeb0","609a8bf73b2ac84e2732f618","609d759bad8531e4d0b0e014","81.95500000147149","","","","77","","","","key","16.66599999999744","640","362.5","","","","","","","","","","","","","","","","","","","",""
"psychophysics","317","642205","0.0-18.0-0.24","608c2c2a3db559a3864afeb0","609a8bf73b2ac84e2732f618","609d759bad8531e4d0b0e014","null","","","","null","","","","key","16.66599999999938","640","362.5","","","","","","","","","","","","","","","","","","","",""
"psychophysics","318","642707","0.0-18.0-1.24","608c2c2a3db559a3864afeb0","609a8bf73b2ac84e2732f618","609d759bad8531e4d0b0e014","null","","","","null","","","","key","16.666000000000448","640","362.5","","","","","","","","","","","","","135","1","2","true","","","",""
"psychophysics","319","642975","0.0-18.0-2.24","608c2c2a3db559a3864afeb0","609a8bf73b2ac84e2732f618","609d759bad8531e4d0b0e014","266.58499997574836","","","","90","","","","key","16.66600000000714","640","362.5","","","","","","","","","","","","","","","","","","","",""
"psychophysics","320","644205","0.0-18.0-0.25","608c2c2a3db559a3864afeb0","609a8bf73b2ac84e2732f618","609d759bad8531e4d0b0e014","null","","","","null","","","","key","16.669821917808182","640","362.5","","","","","","","","","","","","","","","","","","","",""
"psychophysics","321","644707","0.0-18.0-1.25","608c2c2a3db559a3864afeb0","609a8bf73b2ac84e2732f618","609d759bad8531e4d0b0e014","null","","","","null","","","","key","16.666000000000448","640","362.5","","","","","","","","","","","","","135","1","6","true","","","",""
"psychophysics","322","644962","0.0-18.0-2.25","608c2c2a3db559a3864afeb0","609a8bf73b2ac84e2732f618","609d759bad8531e4d0b0e014","253.19000001763925","","","","77","","","","key","16.666000000001596","640","362.5","","","","","","","","","","","","","","","","","","","",""
"psychophysics","323","646405","0.0-18.0-0.26","608c2c2a3db559a3864afeb0","609a8bf73b2ac84e2732f618","609d759bad8531e4d0b0e014","null","","","","null","","","","key","16.666000000000825","640","362.5","","","","","","","","","","","","","","","","","","","",""
"psychophysics","324","646907","0.0-18.0-1.26","608c2c2a3db559a3864afeb0","609a8bf73b2ac84e2732f618","609d759bad8531e4d0b0e014","null","","","","null","","","","key","16.666000000000448","640","362.5","","","","","","","","","","","","","135","1","3","true","","","",""
"psychophysics","325","647005","0.0-18.0-2.26","608c2c2a3db559a3864afeb0","609a8bf73b2ac84e2732f618","609d759bad8531e4d0b0e014","96.1150000221096","","","","77","","","","key","16.6660000000149","640","362.5","","","","","","","","","","","","","","","","","","","",""
"psychophysics","326","648014","0.0-18.0-0.27","608c2c2a3db559a3864afeb0","609a8bf73b2ac84e2732f618","609d759bad8531e4d0b0e014","null","","","","null","","","","key","16.665999999999904","640","362.5","","","","","","","","","","","","","","","","","","","",""
"psychophysics","327","648515","0.0-18.0-1.27","608c2c2a3db559a3864afeb0","609a8bf73b2ac84e2732f618","609d759bad8531e4d0b0e014","null","","","","null","","","","key","16.666000000000448","640","362.5","","","","","","","","","","","","","135","1","5","true","","","",""
