"trial_type","trial_index","time_elapsed","internal_node_id","PROLIFIC_PID","STUDY_ID","SESSION_ID","rt","stimulus","button_pressed","success","key_press","responses","isData","view_history","response_type","avg_frame_time","center_x","center_y","isSC","stim_side","trial_luminance","step_size","nReversal","correct","prev_ans","isThreshold","SC_threshold","final_threshold","isLuminance","FF_luminance","luminance","stimSide","ISInt","isFF","question_order","isSPQ","isCAPS","isAQ"
"pavlovia","0","4","0.0-0.0","586fccd06cb8dd0001a29aec","609a8bf73b2ac84e2732f618","609d7c963cae2fc26b66a82a","","","","","","","","","","","","","","","","","","","","","","","","","","","","","","","",""
"html-button-response","1","11845","0.0-1.0","586fccd06cb8dd0001a29aec","609a8bf73b2ac84e2732f618","609d7c963cae2fc26b66a82a","11840","<div style='background-color: white; width:60%; margin: auto; padding: 50px; text-align: justify; text-justify: inter-word; margin-bottom: 20px;'><h1 style='text-align: center;'>Consent Form</h1><p>Please read this consent form carefully before deciding whether you would like to participate in this study. You have to be 18 years old or older to participate to this study.</p><p style='text-decoration: underline;'>Participation is voluntary:</p><p>It is your choice whether or not to participate in this research. If you choose to participate, you may change your mind and leave the study at any time. Refusal to participate or stopping your participation will involve no penalty or loss of benefits to which you are otherwise entitled.</p><p style='text-decoration: underline;'>Purpose of the Study:</p><p>To understand the mechanisms underlying human perception.</p><p style='text-decoration: underline;'>What you will do in this study:</p><p>You will be presented with a series of visual images and then you will press buttons on the keyboard of your computer to respond to simple questions about the images (e.g. Were one or two images presented?). In addition, you will be asked to complete a questionnaire concerning your beliefs and everyday mental and perceptual experiences.'</p><p style='text-decoration: underline;'> Time Required:</p><p>The study will take 40 minutes to complete. </p><p style='text-decoration: underline;'>Risks:</p><p>There are no anticipated risks associated with participating in this study that are beyond those experienced in everyday life. </p><p style='text-decoration: underline;'>Benefits:</p><p>There are no benefits to you in participating in the study. However, this study may lead to a better understanding of how different kinds of visual information are used.</p><p style='text-decoration: underline;'>Compensation:</p><p>You will be paid US$6.6/hour. </p><p style='text-decoration: underline;'>Privacy and Confidentiality:</p><p>Your participation in this study will be anonymous. No personal information about your name or identity will be asked or recorded. This anonymous data will be stored for several years and may be used for a variety of research purposes. The overall results of the study may be published, or the data files may be shared with other researchers, but your identity will not be revealed in any way. The online services we are using for this study may temporarily store your data, but this data will be downloaded and then promptly deleted from those services.Your data will not be permanently associated with your name, IP address, or any other identifiable information (e.g., your information will only be connected to your payment, not to any of your responses), though they may be temporarily stored together before we download and separate them. Even so, no guarantee of internet survey security can be given because, although unlikely, transmissions can be intercepted and IP addresses can be identified. The anonymous data may be shared publicly (for example, in conjunction with a resulting academic publication).</p><p style='text-decoration: underline;'>Participation and Withdrawal:</p><p>Your participation in this study is completely voluntary. You may stop responding to the stimuli or stop answering questions if you so choose and without penalty by exiting the full screen mode, closing this tab of your browser or redirecting it to a different website.</p><p style='text-decoration: underline;'>Contact Info of the Researcher: </p><p>If you have questions about this study, or if you would like to talk to the research team, please contact David Melcher (david.melcher@nyu.edu, md5050@nyu.edu) at the Perception and Active Cognition Laboratory, New York University Abu Dhabi, Computational Research Building, Saadiyat Island, Abu Dhabi, UAE.This research has been reviewed by the New York University Abu Dhabi Institutional Review Board (NYUAD IRB). To contact about your rights in this research, for questions, suggestions, or complaints that are not addressed by the researchers, please email IRBnyuad@nyu.edu, or call the NYUAD IRB at +971 2 628 4313. </p></div>","0","","","","","","","","","","","","","","","","","","","","","","","","","","","","",""
"fullscreen","2","14849","0.0-2.0","586fccd06cb8dd0001a29aec","609a8bf73b2ac84e2732f618","609d7c963cae2fc26b66a82a","","","","true","","","","","","","","","","","","","","","","","","","","","","","","","","","",""
"html-keyboard-response","3","27737","0.0-3.0","586fccd06cb8dd0001a29aec","609a8bf73b2ac84e2732f618","609d7c963cae2fc26b66a82a","12887.999999999998","<p>Welcome !</p><p>READ CAREFULLY THE FOLLOWING INDICATIONS:</p><p>From this moment you have ~40 minutes to complete the experiment.</p><p>During the experiment you will be prompted to take several breaks. Each break should not last longer than 2-3 minutes.</p><p>Make sure that your computer is plugged in and it's not running on battery power, even if the battery is already fully charged.</p><p>Turn off your phone and music, make sure that you are in a quiet room and that you will not be distracted for the next hour.</p><p>Failure to comply with the instructions and indications provided during the experiment will most likely result in the rejection of your data.<p>Press the spacebar to start.</p>","","","32","","","","","","","","","","","","","","","","","","","","","","","","","","",""
"survey-html-form","4","32624","0.0-4.0","586fccd06cb8dd0001a29aec","609a8bf73b2ac84e2732f618","609d7c963cae2fc26b66a82a","4885","","","","","{""age"":""37"",""sex"":""F""}","true","","","","","","","","","","","","","","","","","","","","","","","","",""
"instructions","5","66733","0.0-5.0","586fccd06cb8dd0001a29aec","609a8bf73b2ac84e2732f618","609d7c963cae2fc26b66a82a","34109","","","","","","","[{""page_index"":0,""viewing_time"":15673},{""page_index"":1,""viewing_time"":8402},{""page_index"":2,""viewing_time"":10033}]","","","","","","","","","","","","","","","","","","","","","","","",""
"psychophysics","6","69204","0.0-6.0-0.0","586fccd06cb8dd0001a29aec","609a8bf73b2ac84e2732f618","609d7c963cae2fc26b66a82a","1463.0000000000146","","","","37","","","","key","16.96527777777778","683","490","true","-1","180","30","0","-1","","","","","","","","","","","","","",""
"psychophysics","7","70228","0.0-6.0-0.1","586fccd06cb8dd0001a29aec","609a8bf73b2ac84e2732f618","609d7c963cae2fc26b66a82a","21.999999999985448","","","","39","","","","key","16.65573770491803","683","490","true","1","180","30","0","-1","-1","","","","","","","","","","","","",""
"psychophysics","8","71321","0.0-6.0-0.2","586fccd06cb8dd0001a29aec","609a8bf73b2ac84e2732f618","609d7c963cae2fc26b66a82a","89.99999999998545","","","","37","","","","key","16.671875","683","490","true","-1","150","30","0","-1","-1","","","","","","","","","","","","",""
"psychophysics","9","73606","0.0-6.0-0.3","586fccd06cb8dd0001a29aec","609a8bf73b2ac84e2732f618","609d7c963cae2fc26b66a82a","1283","","","","37","","","","key","16.669117647058822","683","490","true","-1","150","30","0","-1","-1","","","","","","","","","","","","",""
"psychophysics","10","76536","0.0-6.0-0.4","586fccd06cb8dd0001a29aec","609a8bf73b2ac84e2732f618","609d7c963cae2fc26b66a82a","1929","","","","39","","","","key","16.674285714285713","683","490","true","1","129","30","0","-1","-1","","","","","","","","","","","","",""
"psychophysics","11","78582","0.0-6.0-0.5","586fccd06cb8dd0001a29aec","609a8bf73b2ac84e2732f618","609d7c963cae2fc26b66a82a","1043.0000000000146","","","","39","","","","key","16.68032786885246","683","490","true","-1","129","24","1","1","-1","","","","","","","","","","","","",""
"psychophysics","12","80051","0.0-6.0-0.6","586fccd06cb8dd0001a29aec","609a8bf73b2ac84e2732f618","609d7c963cae2fc26b66a82a","466.99999999998545","","","","37","","","","key","16.67816091954023","683","490","true","-1","153","24","1","-1","1","","","","","","","","","","","","",""
"psychophysics","13","81761","0.0-6.0-0.7","586fccd06cb8dd0001a29aec","609a8bf73b2ac84e2732f618","609d7c963cae2fc26b66a82a","708","","","","39","","","","key","16.673267326732674","683","490","true","1","153","19.2","2","-1","-1","","","","","","","","","","","","",""
"psychophysics","14","83191","0.0-6.0-0.8","586fccd06cb8dd0001a29aec","609a8bf73b2ac84e2732f618","609d7c963cae2fc26b66a82a","427","","","","39","","","","key","16.647058823529413","683","490","true","1","133.8","19.2","2","-1","-1","","","","","","","","","","","","",""
"psychophysics","15","85713","0.0-6.0-0.9","586fccd06cb8dd0001a29aec","609a8bf73b2ac84e2732f618","609d7c963cae2fc26b66a82a","1519","","","","37","","","","key","16.673333333333332","683","490","true","-1","133.8","19.2","2","-1","-1","","","","","","","","","","","","",""
"psychophysics","16","87655","0.0-6.0-0.10","586fccd06cb8dd0001a29aec","609a8bf73b2ac84e2732f618","609d7c963cae2fc26b66a82a","939","","","","37","","","","key","16.663793103448278","683","490","true","1","129","15.36","3","1","-1","","","","","","","","","","","","",""
"psychophysics","17","89013","0.0-6.0-0.11","586fccd06cb8dd0001a29aec","609a8bf73b2ac84e2732f618","609d7c963cae2fc26b66a82a","356","","","","37","","","","key","16.675","683","490","true","-1","144.36","15.36","3","-1","1","","","","","","","","","","","","",""
"psychophysics","18","90332","0.0-6.0-0.12","586fccd06cb8dd0001a29aec","609a8bf73b2ac84e2732f618","609d7c963cae2fc26b66a82a","317","","","","39","","","","key","16.67948717948718","683","490","true","1","144.36","12.287999999999998","4","-1","-1","","","","","","","","","","","","",""
"psychophysics","19","92672","0.0-6.0-0.13","586fccd06cb8dd0001a29aec","609a8bf73b2ac84e2732f618","609d7c963cae2fc26b66a82a","1337.9999999999854","","","","37","","","","key","16.664285714285715","683","490","true","-1","132.072","12.287999999999998","4","-1","-1","","","","","","","","","","","","",""
"psychophysics","20","94869","0.0-6.0-0.14","586fccd06cb8dd0001a29aec","609a8bf73b2ac84e2732f618","609d7c963cae2fc26b66a82a","1193","","","","37","","","","key","16.676923076923078","683","490","true","-1","132.072","12.287999999999998","4","-1","-1","","","","","","","","","","","","",""
"psychophysics","21","96387","0.0-6.0-0.15","586fccd06cb8dd0001a29aec","609a8bf73b2ac84e2732f618","609d7c963cae2fc26b66a82a","516.9999999999854","","","","37","","","","key","16.644444444444446","683","490","true","1","129","9.8304","5","1","-1","","","","","","","","","","","","",""
"psychophysics","22","97677","0.0-6.0-0.16","586fccd06cb8dd0001a29aec","609a8bf73b2ac84e2732f618","609d7c963cae2fc26b66a82a","289","","","","37","","","","key","16.623376623376622","683","490","true","-1","138.8304","9.8304","5","-1","1","","","","","","","","","","","","",""
"psychophysics","23","98974","0.0-6.0-0.17","586fccd06cb8dd0001a29aec","609a8bf73b2ac84e2732f618","609d7c963cae2fc26b66a82a","295.00000000001455","","","","39","","","","key","16.675324675324674","683","490","true","1","138.8304","7.864319999999999","6","-1","-1","","","","","","","","","","","","",""
"psychophysics","24","100913","0.0-6.0-0.18","586fccd06cb8dd0001a29aec","609a8bf73b2ac84e2732f618","609d7c963cae2fc26b66a82a","937","","","","37","","","","key","16.678260869565218","683","490","true","-1","130.96608","7.864319999999999","6","-1","-1","","","","","","","","","","","","",""
"psychophysics","25","103547","0.0-6.0-0.19","586fccd06cb8dd0001a29aec","609a8bf73b2ac84e2732f618","609d7c963cae2fc26b66a82a","1631","","","","37","","","","key","16.67515923566879","683","490","true","-1","130.96608","7.864319999999999","6","-1","-1","","","","","","","","","","","","",""
"psychophysics","26","105139","0.0-6.0-0.20","586fccd06cb8dd0001a29aec","609a8bf73b2ac84e2732f618","609d7c963cae2fc26b66a82a","590","","","","37","","","","key","16.670212765957448","683","490","true","-1","129","7.864319999999999","6","-1","-1","","","","","","","","","","","","",""
"psychophysics","27","106876","0.0-6.0-0.21","586fccd06cb8dd0001a29aec","609a8bf73b2ac84e2732f618","609d7c963cae2fc26b66a82a","735.0000000000146","","","","37","","","","key","16.66990291262136","683","490","true","-1","129","7.864319999999999","6","-1","-1","","","","","","","","","","","","",""
"psychophysics","28","110084","0.0-6.0-0.22","586fccd06cb8dd0001a29aec","609a8bf73b2ac84e2732f618","609d7c963cae2fc26b66a82a","2206.0000000000146","","","","39","","","","key","16.661458333333332","683","490","true","1","129","7.864319999999999","6","-1","-1","","","","","","","","","","","","",""
"psychophysics","29","111999","0.0-6.0-0.23","586fccd06cb8dd0001a29aec","609a8bf73b2ac84e2732f618","609d7c963cae2fc26b66a82a","911.9999999999854","","","","39","","","","key","16.67543859649123","683","490","true","1","129","7.864319999999999","6","-1","-1","","","","","","","","","","","","",""
"psychophysics","30","113813","0.0-6.0-0.24","586fccd06cb8dd0001a29aec","609a8bf73b2ac84e2732f618","609d7c963cae2fc26b66a82a","811","","","","39","","","","key","16.682242990654206","683","490","true","1","129","7.864319999999999","6","-1","-1","","","","","","","","","","","","",""
"psychophysics","31","115481","0.0-6.0-0.25","586fccd06cb8dd0001a29aec","609a8bf73b2ac84e2732f618","609d7c963cae2fc26b66a82a","665","","","","39","","","","key","16.646464646464647","683","490","true","-1","129","6.291456","7","1","-1","","","","","","","","","","","","",""
"psychophysics","32","116952","0.0-6.0-0.26","586fccd06cb8dd0001a29aec","609a8bf73b2ac84e2732f618","609d7c963cae2fc26b66a82a","471.00000000001455","","","","37","","","","key","16.647727272727273","683","490","true","1","135.291456","6.291456","7","1","1","","","","","","","","","","","","",""
"psychophysics","33","118163","0.0-6.0-0.27","586fccd06cb8dd0001a29aec","609a8bf73b2ac84e2732f618","609d7c963cae2fc26b66a82a","206.99999999998545","","","","39","","","","key","16.676056338028168","683","490","true","1","141.58291200000002","6.291456","7","-1","1","","","","","","","","","","","","",""
"psychophysics","34","119933","0.0-6.0-0.28","586fccd06cb8dd0001a29aec","609a8bf73b2ac84e2732f618","609d7c963cae2fc26b66a82a","768","","","","39","","","","key","16.676190476190477","683","490","true","1","141.58291200000002","5.033164800000001","8","-1","-1","","","","","","","","","","","","",""
"psychophysics","35","121330","0.0-6.0-0.29","586fccd06cb8dd0001a29aec","609a8bf73b2ac84e2732f618","609d7c963cae2fc26b66a82a","395","","","","39","","","","key","16.650602409638555","683","490","true","1","136.5497472","5.033164800000001","8","-1","-1","","","","","","","","","","","","",""
"psychophysics","36","124488","0.0-6.0-0.30","586fccd06cb8dd0001a29aec","609a8bf73b2ac84e2732f618","609d7c963cae2fc26b66a82a","2157.0000000000146","","","","39","","","","key","16.677248677248677","683","490","true","1","136.5497472","5.033164800000001","8","-1","-1","","","","","","","","","","","","",""
"psychophysics","37","126421","0.0-6.0-0.31","586fccd06cb8dd0001a29aec","609a8bf73b2ac84e2732f618","609d7c963cae2fc26b66a82a","931","","","","37","","","","key","16.67543859649123","683","490","true","-1","131.5165824","5.033164800000001","8","-1","-1","","","","","","","","","","","","",""
"psychophysics","38","128147","0.0-6.0-0.32","586fccd06cb8dd0001a29aec","609a8bf73b2ac84e2732f618","609d7c963cae2fc26b66a82a","721","","","","37","","","","key","16.650485436893202","683","490","true","-1","131.5165824","5.033164800000001","8","-1","-1","","","","","","","","","","","","",""
"psychophysics","39","129871","0.0-6.0-0.33","586fccd06cb8dd0001a29aec","609a8bf73b2ac84e2732f618","609d7c963cae2fc26b66a82a","721","","","","37","","","","key","16.676470588235293","683","490","true","-1","129","5.033164800000001","8","-1","-1","","","","","","","","","","","","",""
"psychophysics","40","131248","0.0-6.0-0.34","586fccd06cb8dd0001a29aec","609a8bf73b2ac84e2732f618","609d7c963cae2fc26b66a82a","374","","","","37","","","","key","16.658536585365855","683","490","true","1","129","4.0265318400000005","9","1","-1","","","","","","","","","","","","",""
"psychophysics","41","133790","0.0-6.0-0.35","586fccd06cb8dd0001a29aec","609a8bf73b2ac84e2732f618","609d7c963cae2fc26b66a82a","1540","","","","39","","","","key","16.67549668874172","683","490","true","1","133.02653184","4.0265318400000005","9","-1","1","","","","","","","","","","","","",""
"psychophysics","42","135105","0.0-6.0-0.36","586fccd06cb8dd0001a29aec","609a8bf73b2ac84e2732f618","609d7c963cae2fc26b66a82a","314","","","","37","","","","key","16.641025641025642","683","490","true","-1","133.02653184","3.2212254720000004","10","-1","-1","","","","","","","","","","","","",""
"psychophysics","43","137813","0.0-6.0-0.37","586fccd06cb8dd0001a29aec","609a8bf73b2ac84e2732f618","609d7c963cae2fc26b66a82a","1704","","","","37","","","","key","16.67283950617284","683","490","true","1","129.805306368","2.5769803776000004","11","1","-1","","","","","","","","","","","","",""
"psychophysics","44","141405","0.0-6.0-0.38","586fccd06cb8dd0001a29aec","609a8bf73b2ac84e2732f618","609d7c963cae2fc26b66a82a","2592","","","","39","","","","key","16.677570093457945","683","490","true","1","132.3822867456","2.5769803776000004","11","-1","1","","","","","","","","","","","","",""
"psychophysics","45","143034","0.0-6.0-0.39","586fccd06cb8dd0001a29aec","609a8bf73b2ac84e2732f618","609d7c963cae2fc26b66a82a","626","","","","37","","","","key","16.670103092783506","683","490","true","-1","132.3822867456","2.0615843020800004","12","-1","-1","","","","","","","","","","","","",""
"html-keyboard-response","46","158357","0.0-7.0","586fccd06cb8dd0001a29aec","609a8bf73b2ac84e2732f618","609d7c963cae2fc26b66a82a","15323","<p>Well Done !</p><p>Prepare for a new block.</p><p>DON'T EXIT THE FULL SCREEN MODE</p><p>Press the Spacebar to start.</p>","","","32","","","","","","","","","","","","","","","true","133.48085884928","","","","","","","","","","",""
"psychophysics","47","161694","0.0-8.0-0.0","586fccd06cb8dd0001a29aec","609a8bf73b2ac84e2732f618","609d7c963cae2fc26b66a82a","2331","","","","39","","","","key","16.595","683","490","true","1","180","30","0","-1","","","","","","","","","","","","","",""
"psychophysics","48","162741","0.0-8.0-0.1","586fccd06cb8dd0001a29aec","609a8bf73b2ac84e2732f618","609d7c963cae2fc26b66a82a","44","","","","39","","","","key","16.677419354838708","683","490","true","1","180","30","0","-1","-1","","","","","","","","","","","","",""
"psychophysics","49","164053","0.0-8.0-0.2","586fccd06cb8dd0001a29aec","609a8bf73b2ac84e2732f618","609d7c963cae2fc26b66a82a","309","","","","39","","","","key","16.675324675324674","683","490","true","1","150","30","0","-1","-1","","","","","","","","","","","","",""
"psychophysics","50","165655","0.0-8.0-0.3","586fccd06cb8dd0001a29aec","609a8bf73b2ac84e2732f618","609d7c963cae2fc26b66a82a","600","","","","37","","","","key","16.625","683","490","true","-1","150","30","0","-1","-1","","","","","","","","","","","","",""
"psychophysics","51","167962","0.0-8.0-0.4","586fccd06cb8dd0001a29aec","609a8bf73b2ac84e2732f618","609d7c963cae2fc26b66a82a","1304.999999999971","","","","39","","","","key","16.67883211678832","683","490","true","-1","129","24","1","1","-1","","","","","","","","","","","","",""
"psychophysics","52","169400","0.0-8.0-0.5","586fccd06cb8dd0001a29aec","609a8bf73b2ac84e2732f618","609d7c963cae2fc26b66a82a","436.0000000000291","","","","37","","","","key","16.68235294117647","683","490","true","-1","153","24","1","-1","1","","","","","","","","","","","","",""
"psychophysics","53","170722","0.0-8.0-0.6","586fccd06cb8dd0001a29aec","609a8bf73b2ac84e2732f618","609d7c963cae2fc26b66a82a","320.0000000000291","","","","37","","","","key","16.670886075949365","683","490","true","-1","153","19.2","2","-1","-1","","","","","","","","","","","","",""
"psychophysics","54","172443","0.0-8.0-0.7","586fccd06cb8dd0001a29aec","609a8bf73b2ac84e2732f618","609d7c963cae2fc26b66a82a","718.0000000000291","","","","37","","","","key","16.676470588235293","683","490","true","-1","133.8","19.2","2","-1","-1","","","","","","","","","","","","",""
"psychophysics","55","174720","0.0-8.0-0.8","586fccd06cb8dd0001a29aec","609a8bf73b2ac84e2732f618","609d7c963cae2fc26b66a82a","1275","","","","39","","","","key","16.68148148148148","683","490","true","-1","133.8","15.36","3","1","-1","","","","","","","","","","","","",""
"psychophysics","56","176264","0.0-8.0-0.9","586fccd06cb8dd0001a29aec","609a8bf73b2ac84e2732f618","609d7c963cae2fc26b66a82a","540","","","","37","","","","key","16.67391304347826","683","490","true","-1","149.16000000000003","15.36","3","-1","1","","","","","","","","","","","","",""
"psychophysics","57","177870","0.0-8.0-0.10","586fccd06cb8dd0001a29aec","609a8bf73b2ac84e2732f618","609d7c963cae2fc26b66a82a","605","","","","37","","","","key","16.673684210526314","683","490","true","-1","149.16000000000003","12.287999999999998","4","-1","-1","","","","","","","","","","","","",""
"psychophysics","58","179724","0.0-8.0-0.11","586fccd06cb8dd0001a29aec","609a8bf73b2ac84e2732f618","609d7c963cae2fc26b66a82a","851","","","","39","","","","key","16.672727272727272","683","490","true","1","136.872","12.287999999999998","4","-1","-1","","","","","","","","","","","","",""
"psychophysics","59","181026","0.0-8.0-0.12","586fccd06cb8dd0001a29aec","609a8bf73b2ac84e2732f618","609d7c963cae2fc26b66a82a","299.0000000000291","","","","39","","","","key","16.649350649350648","683","490","true","1","136.872","12.287999999999998","4","-1","-1","","","","","","","","","","","","",""
"psychophysics","60","183796","0.0-8.0-0.13","586fccd06cb8dd0001a29aec","609a8bf73b2ac84e2732f618","609d7c963cae2fc26b66a82a","1768","","","","37","","","","key","16.662650602409638","683","490","true","1","129","9.8304","5","1","-1","","","","","","","","","","","","",""
"psychophysics","61","185335","0.0-8.0-0.14","586fccd06cb8dd0001a29aec","609a8bf73b2ac84e2732f618","609d7c963cae2fc26b66a82a","538.0000000000291","","","","37","","","","key","16.67032967032967","683","490","true","-1","138.8304","9.8304","5","-1","1","","","","","","","","","","","","",""
"psychophysics","62","187136","0.0-8.0-0.15","586fccd06cb8dd0001a29aec","609a8bf73b2ac84e2732f618","609d7c963cae2fc26b66a82a","798","","","","37","","","","key","16.672897196261683","683","490","true","-1","138.8304","7.864319999999999","6","-1","-1","","","","","","","","","","","","",""
"psychophysics","63","189084","0.0-8.0-0.16","586fccd06cb8dd0001a29aec","609a8bf73b2ac84e2732f618","609d7c963cae2fc26b66a82a","944","","","","39","","","","key","16.678260869565218","683","490","true","1","130.96608","7.864319999999999","6","-1","-1","","","","","","","","","","","","",""
"psychophysics","64","190491","0.0-8.0-0.17","586fccd06cb8dd0001a29aec","609a8bf73b2ac84e2732f618","609d7c963cae2fc26b66a82a","404","","","","39","","","","key","16.595238095238095","683","490","true","-1","130.96608","6.291456","7","1","-1","","","","","","","","","","","","",""
"psychophysics","65","192705","0.0-8.0-0.18","586fccd06cb8dd0001a29aec","609a8bf73b2ac84e2732f618","609d7c963cae2fc26b66a82a","1212","","","","39","","","","key","16.674242424242426","683","490","true","-1","137.25753600000002","6.291456","7","1","1","","","","","","","","","","","","",""
"psychophysics","66","194019","0.0-8.0-0.19","586fccd06cb8dd0001a29aec","609a8bf73b2ac84e2732f618","609d7c963cae2fc26b66a82a","312.0000000000291","","","","39","","","","key","16.67948717948718","683","490","true","1","143.54899200000003","6.291456","7","-1","1","","","","","","","","","","","","",""
"psychophysics","67","195536","0.0-8.0-0.20","586fccd06cb8dd0001a29aec","609a8bf73b2ac84e2732f618","609d7c963cae2fc26b66a82a","516","","","","39","","","","key","16.677777777777777","683","490","true","1","143.54899200000003","5.033164800000001","8","-1","-1","","","","","","","","","","","","",""
"psychophysics","68","196911","0.0-8.0-0.21","586fccd06cb8dd0001a29aec","609a8bf73b2ac84e2732f618","609d7c963cae2fc26b66a82a","373.9999999999709","","","","37","","","","key","16.679012345679013","683","490","true","-1","138.51582720000002","5.033164800000001","8","-1","-1","","","","","","","","","","","","",""
"psychophysics","69","198381","0.0-8.0-0.22","586fccd06cb8dd0001a29aec","609a8bf73b2ac84e2732f618","609d7c963cae2fc26b66a82a","467","","","","37","","","","key","16.67816091954023","683","490","true","-1","138.51582720000002","5.033164800000001","8","-1","-1","","","","","","","","","","","","",""
"psychophysics","70","200131","0.0-8.0-0.23","586fccd06cb8dd0001a29aec","609a8bf73b2ac84e2732f618","609d7c963cae2fc26b66a82a","747","","","","39","","","","key","16.673076923076923","683","490","true","-1","133.4826624","4.0265318400000005","9","1","-1","","","","","","","","","","","","",""
"psychophysics","71","201626","0.0-8.0-0.24","586fccd06cb8dd0001a29aec","609a8bf73b2ac84e2732f618","609d7c963cae2fc26b66a82a","492","","","","37","","","","key","16.674157303370787","683","490","true","-1","137.50919424","4.0265318400000005","9","-1","1","","","","","","","","","","","","",""
"psychophysics","72","203830","0.0-8.0-0.25","586fccd06cb8dd0001a29aec","609a8bf73b2ac84e2732f618","609d7c963cae2fc26b66a82a","1202","","","","37","","","","key","16.671755725190838","683","490","true","1","137.50919424","3.2212254720000004","10","1","-1","","","","","","","","","","","","",""
"psychophysics","73","206050","0.0-8.0-0.26","586fccd06cb8dd0001a29aec","609a8bf73b2ac84e2732f618","609d7c963cae2fc26b66a82a","1214","","","","37","","","","key","16.674242424242426","683","490","true","-1","140.730419712","3.2212254720000004","10","-1","1","","","","","","","","","","","","",""
"psychophysics","74","207543","0.0-8.0-0.27","586fccd06cb8dd0001a29aec","609a8bf73b2ac84e2732f618","609d7c963cae2fc26b66a82a","491.0000000000291","","","","39","","","","key","16.674157303370787","683","490","true","1","140.730419712","2.5769803776000004","11","-1","-1","","","","","","","","","","","","",""
"psychophysics","75","208986","0.0-8.0-0.28","586fccd06cb8dd0001a29aec","609a8bf73b2ac84e2732f618","609d7c963cae2fc26b66a82a","441","","","","39","","","","key","16.67058823529412","683","490","true","1","138.15343933440002","2.5769803776000004","11","-1","-1","","","","","","","","","","","","",""
"psychophysics","76","211346","0.0-8.0-0.29","586fccd06cb8dd0001a29aec","609a8bf73b2ac84e2732f618","609d7c963cae2fc26b66a82a","1355.999999999971","","","","39","","","","key","16.673758865248228","683","490","true","-1","138.15343933440002","2.0615843020800004","12","1","-1","","","","","","","","","","","","",""
"psychophysics","77","212670","0.0-8.0-0.30","586fccd06cb8dd0001a29aec","609a8bf73b2ac84e2732f618","609d7c963cae2fc26b66a82a","321","","","","39","","","","key","16.67948717948718","683","490","true","1","140.21502363648003","2.0615843020800004","12","-1","1","","","","","","","","","","","","",""
"psychophysics","78","214004","0.0-8.0-0.31","586fccd06cb8dd0001a29aec","609a8bf73b2ac84e2732f618","609d7c963cae2fc26b66a82a","331","","","","39","","","","key","16.68354430379747","683","490","true","1","140.21502363648003","1.6492674416640005","13","-1","-1","","","","","","","","","","","","",""
"psychophysics","79","215330","0.0-8.0-0.32","586fccd06cb8dd0001a29aec","609a8bf73b2ac84e2732f618","609d7c963cae2fc26b66a82a","324","","","","39","","","","key","16.67948717948718","683","490","true","1","138.56575619481603","1.6492674416640005","13","-1","-1","","","","","","","","","","","","",""
"psychophysics","80","216602","0.0-8.0-0.33","586fccd06cb8dd0001a29aec","609a8bf73b2ac84e2732f618","609d7c963cae2fc26b66a82a","270","","","","39","","","","key","16.63157894736842","683","490","true","1","138.56575619481603","1.6492674416640005","13","-1","-1","","","","","","","","","","","","",""
"psychophysics","81","217939","0.0-8.0-0.34","586fccd06cb8dd0001a29aec","609a8bf73b2ac84e2732f618","609d7c963cae2fc26b66a82a","333","","","","37","","","","key","16.670886075949365","683","490","true","-1","136.91648875315204","1.6492674416640005","13","-1","-1","","","","","","","","","","","","",""
"psychophysics","82","219234","0.0-8.0-0.35","586fccd06cb8dd0001a29aec","609a8bf73b2ac84e2732f618","609d7c963cae2fc26b66a82a","293.0000000000291","","","","37","","","","key","16.675324675324674","683","490","true","-1","136.91648875315204","1.6492674416640005","13","-1","-1","","","","","","","","","","","","",""
"psychophysics","83","220539","0.0-8.0-0.36","586fccd06cb8dd0001a29aec","609a8bf73b2ac84e2732f618","609d7c963cae2fc26b66a82a","303","","","","39","","","","key","16.675324675324674","683","490","true","1","135.26722131148804","1.6492674416640005","13","-1","-1","","","","","","","","","","","","",""
"psychophysics","84","221542","0.0-8.0-0.37","586fccd06cb8dd0001a29aec","609a8bf73b2ac84e2732f618","609d7c963cae2fc26b66a82a","1","","","","39","","","","key","16.694915254237287","683","490","true","1","135.26722131148804","1.6492674416640005","13","-1","-1","","","","","","","","","","","","",""
"psychophysics","85","223054","0.0-8.0-0.38","586fccd06cb8dd0001a29aec","609a8bf73b2ac84e2732f618","609d7c963cae2fc26b66a82a","510","","","","39","","","","key","16.677777777777777","683","490","true","1","133.61795386982405","1.6492674416640005","13","-1","-1","","","","","","","","","","","","",""
"psychophysics","86","224834","0.0-8.0-0.39","586fccd06cb8dd0001a29aec","609a8bf73b2ac84e2732f618","609d7c963cae2fc26b66a82a","778","","","","37","","","","key","16.676190476190477","683","490","true","1","133.61795386982405","1.3194139533312006","14","1","-1","","","","","","","","","","","","",""
"html-keyboard-response","87","227869","0.0-9.0","586fccd06cb8dd0001a29aec","609a8bf73b2ac84e2732f618","609d7c963cae2fc26b66a82a","3032.999999999971","<p>Well Done !</p><p>Prepare for a new block.</p><p>DON'T EXIT THE FULL SCREEN MODE</p><p>Press the Spacebar to start.</p>","","","32","","","","","","","","","","","","","","","true","137.62945332428802","","","","","","","","","","",""
"psychophysics","88","229036","0.0-10.0-0.0","586fccd06cb8dd0001a29aec","609a8bf73b2ac84e2732f618","609d7c963cae2fc26b66a82a","163","","","","37","","","","key","16.485714285714284","683","490","true","-1","180","30","0","-1","","","","","","","","","","","","","",""
"psychophysics","89","230119","0.0-10.0-0.1","586fccd06cb8dd0001a29aec","609a8bf73b2ac84e2732f618","609d7c963cae2fc26b66a82a","81","","","","37","","","","key","16.6875","683","490","true","-1","180","30","0","-1","-1","","","","","","","","","","","","",""
"psychophysics","90","231461","0.0-10.0-0.2","586fccd06cb8dd0001a29aec","609a8bf73b2ac84e2732f618","609d7c963cae2fc26b66a82a","339.9999999999709","","","","39","","","","key","16.68354430379747","683","490","true","1","150","30","0","-1","-1","","","","","","","","","","","","",""
"psychophysics","91","232767","0.0-10.0-0.3","586fccd06cb8dd0001a29aec","609a8bf73b2ac84e2732f618","609d7c963cae2fc26b66a82a","302","","","","39","","","","key","16.666666666666668","683","490","true","1","150","30","0","-1","-1","","","","","","","","","","","","",""
"psychophysics","92","235004","0.0-10.0-0.4","586fccd06cb8dd0001a29aec","609a8bf73b2ac84e2732f618","609d7c963cae2fc26b66a82a","1236","","","","39","","","","key","16.67669172932331","683","490","true","1","129","30","0","-1","-1","","","","","","","","","","","","",""
"psychophysics","93","237060","0.0-10.0-0.5","586fccd06cb8dd0001a29aec","609a8bf73b2ac84e2732f618","609d7c963cae2fc26b66a82a","1050.999999999971","","","","39","","","","key","16.68032786885246","683","490","true","1","129","30","0","-1","-1","","","","","","","","","","","","",""
"psychophysics","94","239041","0.0-10.0-0.6","586fccd06cb8dd0001a29aec","609a8bf73b2ac84e2732f618","609d7c963cae2fc26b66a82a","978","","","","37","","","","key","16.677966101694917","683","490","true","-1","129","30","0","-1","-1","","","","","","","","","","","","",""
"psychophysics","95","242843","0.0-10.0-0.7","586fccd06cb8dd0001a29aec","609a8bf73b2ac84e2732f618","609d7c963cae2fc26b66a82a","2799.999999999971","","","","37","","","","key","16.674008810572687","683","490","true","-1","129","30","0","-1","-1","","","","","","","","","","","","",""
"psychophysics","96","244310","0.0-10.0-0.8","586fccd06cb8dd0001a29aec","609a8bf73b2ac84e2732f618","609d7c963cae2fc26b66a82a","465","","","","37","","","","key","16.67816091954023","683","490","true","-1","129","30","0","-1","-1","","","","","","","","","","","","",""
"psychophysics","97","246198","0.0-10.0-0.9","586fccd06cb8dd0001a29aec","609a8bf73b2ac84e2732f618","609d7c963cae2fc26b66a82a","886.0000000000291","","","","39","","","","key","16.678571428571427","683","490","true","1","129","30","0","-1","-1","","","","","","","","","","","","",""
"psychophysics","98","248651","0.0-10.0-0.10","586fccd06cb8dd0001a29aec","609a8bf73b2ac84e2732f618","609d7c963cae2fc26b66a82a","1450","","","","37","","","","key","16.67808219178082","683","490","true","1","129","24","1","1","-1","","","","","","","","","","","","",""
"psychophysics","99","249835","0.0-10.0-0.11","586fccd06cb8dd0001a29aec","609a8bf73b2ac84e2732f618","609d7c963cae2fc26b66a82a","181.0000000000291","","","","37","","","","key","16.685714285714287","683","490","true","-1","153","24","1","-1","1","","","","","","","","","","","","",""
"psychophysics","100","251117","0.0-10.0-0.12","586fccd06cb8dd0001a29aec","609a8bf73b2ac84e2732f618","609d7c963cae2fc26b66a82a","280","","","","37","","","","key","16.68421052631579","683","490","true","-1","153","19.2","2","-1","-1","","","","","","","","","","","","",""
"psychophysics","101","253482","0.0-10.0-0.13","586fccd06cb8dd0001a29aec","609a8bf73b2ac84e2732f618","609d7c963cae2fc26b66a82a","1362","","","","37","","","","key","16.680851063829788","683","490","true","-1","133.8","19.2","2","-1","-1","","","","","","","","","","","","",""
"psychophysics","102","254965","0.0-10.0-0.14","586fccd06cb8dd0001a29aec","609a8bf73b2ac84e2732f618","609d7c963cae2fc26b66a82a","481.0000000000291","","","","39","","","","key","16.681818181818183","683","490","true","-1","133.8","15.36","3","1","-1","","","","","","","","","","","","",""
"psychophysics","103","256313","0.0-10.0-0.15","586fccd06cb8dd0001a29aec","609a8bf73b2ac84e2732f618","609d7c963cae2fc26b66a82a","344.9999999999709","","","","39","","","","key","16.68354430379747","683","490","true","1","149.16000000000003","15.36","3","-1","1","","","","","","","","","","","","",""
"psychophysics","104","257737","0.0-10.0-0.16","586fccd06cb8dd0001a29aec","609a8bf73b2ac84e2732f618","609d7c963cae2fc26b66a82a","422.0000000000291","","","","37","","","","key","16.611764705882354","683","490","true","-1","149.16000000000003","12.287999999999998","4","-1","-1","","","","","","","","","","","","",""
"psychophysics","105","259075","0.0-10.0-0.17","586fccd06cb8dd0001a29aec","609a8bf73b2ac84e2732f618","609d7c963cae2fc26b66a82a","335.0000000000291","","","","37","","","","key","16.670886075949365","683","490","true","-1","136.872","12.287999999999998","4","-1","-1","","","","","","","","","","","","",""
"psychophysics","106","260415","0.0-10.0-0.18","586fccd06cb8dd0001a29aec","609a8bf73b2ac84e2732f618","609d7c963cae2fc26b66a82a","337","","","","37","","","","key","16.670886075949365","683","490","true","-1","136.872","12.287999999999998","4","-1","-1","","","","","","","","","","","","",""
"psychophysics","107","261896","0.0-10.0-0.19","586fccd06cb8dd0001a29aec","609a8bf73b2ac84e2732f618","609d7c963cae2fc26b66a82a","478","","","","39","","","","key","16.613636363636363","683","490","true","-1","129","9.8304","5","1","-1","","","","","","","","","","","","",""
"psychophysics","108","263217","0.0-10.0-0.20","586fccd06cb8dd0001a29aec","609a8bf73b2ac84e2732f618","609d7c963cae2fc26b66a82a","318","","","","37","","","","key","16.653846153846153","683","490","true","-1","138.8304","9.8304","5","-1","1","","","","","","","","","","","","",""
"psychophysics","109","264526","0.0-10.0-0.21","586fccd06cb8dd0001a29aec","609a8bf73b2ac84e2732f618","609d7c963cae2fc26b66a82a","307.9999999999418","","","","39","","","","key","16.58974358974359","683","490","true","1","138.8304","7.864319999999999","6","-1","-1","","","","","","","","","","","","",""
"psychophysics","110","266441","0.0-10.0-0.22","586fccd06cb8dd0001a29aec","609a8bf73b2ac84e2732f618","609d7c963cae2fc26b66a82a","912","","","","39","","","","key","16.67543859649123","683","490","true","1","130.96608","7.864319999999999","6","-1","-1","","","","","","","","","","","","",""
"psychophysics","111","268522","0.0-10.0-0.23","586fccd06cb8dd0001a29aec","609a8bf73b2ac84e2732f618","609d7c963cae2fc26b66a82a","1079","","","","37","","","","key","16.677419354838708","683","490","true","1","130.96608","6.291456","7","1","-1","","","","","","","","","","","","",""
"psychophysics","112","269851","0.0-10.0-0.24","586fccd06cb8dd0001a29aec","609a8bf73b2ac84e2732f618","609d7c963cae2fc26b66a82a","327","","","","37","","","","key","16.67948717948718","683","490","true","-1","137.25753600000002","6.291456","7","-1","1","","","","","","","","","","","","",""
"psychophysics","113","271378","0.0-10.0-0.25","586fccd06cb8dd0001a29aec","609a8bf73b2ac84e2732f618","609d7c963cae2fc26b66a82a","521","","","","39","","","","key","16.64835164835165","683","490","true","1","137.25753600000002","5.033164800000001","8","-1","-1","","","","","","","","","","","","",""
"psychophysics","114","273721","0.0-10.0-0.26","586fccd06cb8dd0001a29aec","609a8bf73b2ac84e2732f618","609d7c963cae2fc26b66a82a","1341","","","","37","","","","key","16.676258992805757","683","490","true","1","132.2243712","4.0265318400000005","9","1","-1","","","","","","","","","","","","",""
"psychophysics","115","275353","0.0-10.0-0.27","586fccd06cb8dd0001a29aec","609a8bf73b2ac84e2732f618","609d7c963cae2fc26b66a82a","630","","","","39","","","","key","16.63917525773196","683","490","true","1","136.25090304","4.0265318400000005","9","-1","1","","","","","","","","","","","","",""
"psychophysics","116","276627","0.0-10.0-0.28","586fccd06cb8dd0001a29aec","609a8bf73b2ac84e2732f618","609d7c963cae2fc26b66a82a","272","","","","39","","","","key","16.657894736842106","683","490","true","1","136.25090304","3.2212254720000004","10","-1","-1","","","","","","","","","","","","",""
"psychophysics","117","278054","0.0-10.0-0.29","586fccd06cb8dd0001a29aec","609a8bf73b2ac84e2732f618","609d7c963cae2fc26b66a82a","424.9999999999418","","","","37","","","","key","16.678571428571427","683","490","true","-1","133.029677568","3.2212254720000004","10","-1","-1","","","","","","","","","","","","",""
"psychophysics","118","280333","0.0-10.0-0.30","586fccd06cb8dd0001a29aec","609a8bf73b2ac84e2732f618","609d7c963cae2fc26b66a82a","1274","","","","39","","","","key","16.669117647058822","683","490","true","-1","133.029677568","2.5769803776000004","11","1","-1","","","","","","","","","","","","",""
"psychophysics","119","282569","0.0-10.0-0.31","586fccd06cb8dd0001a29aec","609a8bf73b2ac84e2732f618","609d7c963cae2fc26b66a82a","1233","","","","37","","","","key","16.67669172932331","683","490","true","1","135.6066579456","2.5769803776000004","11","1","1","","","","","","","","","","","","",""
"psychophysics","120","283829","0.0-10.0-0.32","586fccd06cb8dd0001a29aec","609a8bf73b2ac84e2732f618","609d7c963cae2fc26b66a82a","258","","","","39","","","","key","16.68","683","490","true","1","138.1836383232","2.5769803776000004","11","-1","1","","","","","","","","","","","","",""
"psychophysics","121","285126","0.0-10.0-0.33","586fccd06cb8dd0001a29aec","609a8bf73b2ac84e2732f618","609d7c963cae2fc26b66a82a","295","","","","39","","","","key","16.67105263157895","683","490","true","1","138.1836383232","2.0615843020800004","12","-1","-1","","","","","","","","","","","","",""
"psychophysics","122","286444","0.0-10.0-0.34","586fccd06cb8dd0001a29aec","609a8bf73b2ac84e2732f618","609d7c963cae2fc26b66a82a","316","","","","39","","","","key","16.653846153846153","683","490","true","1","136.12205402112","2.0615843020800004","12","-1","-1","","","","","","","","","","","","",""
"psychophysics","123","288334","0.0-10.0-0.35","586fccd06cb8dd0001a29aec","609a8bf73b2ac84e2732f618","609d7c963cae2fc26b66a82a","888","","","","37","","","","key","16.654867256637168","683","490","true","-1","136.12205402112","2.0615843020800004","12","-1","-1","","","","","","","","","","","","",""
"psychophysics","124","289702","0.0-10.0-0.36","586fccd06cb8dd0001a29aec","609a8bf73b2ac84e2732f618","609d7c963cae2fc26b66a82a","366","","","","39","","","","key","16.666666666666668","683","490","true","1","134.06046971904","2.0615843020800004","12","-1","-1","","","","","","","","","","","","",""
"psychophysics","125","291141","0.0-10.0-0.37","586fccd06cb8dd0001a29aec","609a8bf73b2ac84e2732f618","609d7c963cae2fc26b66a82a","436","","","","37","","","","key","16.68235294117647","683","490","true","-1","134.06046971904","2.0615843020800004","12","-1","-1","","","","","","","","","","","","",""
"psychophysics","126","293073","0.0-10.0-0.38","586fccd06cb8dd0001a29aec","609a8bf73b2ac84e2732f618","609d7c963cae2fc26b66a82a","929","","","","39","","","","key","16.678260869565218","683","490","true","-1","131.99888541695998","1.6492674416640005","13","1","-1","","","","","","","","","","","","",""
"psychophysics","127","294996","0.0-10.0-0.39","586fccd06cb8dd0001a29aec","609a8bf73b2ac84e2732f618","609d7c963cae2fc26b66a82a","920","","","","37","","","","key","16.67543859649123","683","490","true","1","133.64815285862397","1.6492674416640005","13","1","1","","","","","","","","","","","","",""
"html-keyboard-response","128","298356","0.0-11.0","586fccd06cb8dd0001a29aec","609a8bf73b2ac84e2732f618","609d7c963cae2fc26b66a82a","3357","<p>Well Done !</p><p>Prepare for a new block.</p><p>DON'T EXIT THE FULL SCREEN MODE</p><p>Press the Spacebar to start.</p>","","","32","","","","","","","","","","","","","","","true","135.06860591759357","","","","","","","","","","",""
"psychophysics","129","299423","0.0-12.0-0.0","586fccd06cb8dd0001a29aec","609a8bf73b2ac84e2732f618","609d7c963cae2fc26b66a82a","62","","","","37","","","","key","16.484375","683","490","true","-1","180","30","0","-1","","","","","","","","","","","","","",""
"psychophysics","130","302042","0.0-12.0-0.1","586fccd06cb8dd0001a29aec","609a8bf73b2ac84e2732f618","609d7c963cae2fc26b66a82a","1617","","","","39","","","","key","16.67948717948718","683","490","true","1","180","30","0","-1","-1","","","","","","","","","","","","",""
"psychophysics","131","303490","0.0-12.0-0.2","586fccd06cb8dd0001a29aec","609a8bf73b2ac84e2732f618","609d7c963cae2fc26b66a82a","446","","","","37","","","","key","16.686046511627907","683","490","true","-1","150","30","0","-1","-1","","","","","","","","","","","","",""
"psychophysics","132","304771","0.0-12.0-0.3","586fccd06cb8dd0001a29aec","609a8bf73b2ac84e2732f618","609d7c963cae2fc26b66a82a","280","","","","37","","","","key","16.68","683","490","true","-1","150","30","0","-1","-1","","","","","","","","","","","","",""
"psychophysics","133","307515","0.0-12.0-0.4","586fccd06cb8dd0001a29aec","609a8bf73b2ac84e2732f618","609d7c963cae2fc26b66a82a","1742","","","","37","","","","key","16.652439024390244","683","490","true","-1","129","30","0","-1","-1","","","","","","","","","","","","",""
"psychophysics","134","308896","0.0-12.0-0.5","586fccd06cb8dd0001a29aec","609a8bf73b2ac84e2732f618","609d7c963cae2fc26b66a82a","378","","","","37","","","","key","16.682926829268293","683","490","true","1","129","24","1","1","-1","","","","","","","","","","","","",""
"psychophysics","135","310169","0.0-12.0-0.6","586fccd06cb8dd0001a29aec","609a8bf73b2ac84e2732f618","609d7c963cae2fc26b66a82a","272","","","","37","","","","key","16.68","683","490","true","-1","153","24","1","-1","1","","","","","","","","","","","","",""
"psychophysics","136","311546","0.0-12.0-0.7","586fccd06cb8dd0001a29aec","609a8bf73b2ac84e2732f618","609d7c963cae2fc26b66a82a","374.0000000000582","","","","37","","","","key","16.670731707317074","683","490","true","-1","153","19.2","2","-1","-1","","","","","","","","","","","","",""
"psychophysics","137","312968","0.0-12.0-0.8","586fccd06cb8dd0001a29aec","609a8bf73b2ac84e2732f618","609d7c963cae2fc26b66a82a","420","","","","39","","","","key","16.678571428571427","683","490","true","1","133.8","19.2","2","-1","-1","","","","","","","","","","","","",""
"psychophysics","138","314735","0.0-12.0-0.9","586fccd06cb8dd0001a29aec","609a8bf73b2ac84e2732f618","609d7c963cae2fc26b66a82a","764","","","","39","","","","key","16.676190476190477","683","490","true","-1","133.8","15.36","3","1","-1","","","","","","","","","","","","",""
"psychophysics","139","315959","0.0-12.0-0.10","586fccd06cb8dd0001a29aec","609a8bf73b2ac84e2732f618","609d7c963cae2fc26b66a82a","222","","","","39","","","","key","16.680555555555557","683","490","true","1","149.16000000000003","15.36","3","-1","1","","","","","","","","","","","","",""
"psychophysics","140","317237","0.0-12.0-0.11","586fccd06cb8dd0001a29aec","609a8bf73b2ac84e2732f618","609d7c963cae2fc26b66a82a","275","","","","37","","","","key","16.67105263157895","683","490","true","-1","149.16000000000003","12.287999999999998","4","-1","-1","","","","","","","","","","","","",""
"psychophysics","141","318537","0.0-12.0-0.12","586fccd06cb8dd0001a29aec","609a8bf73b2ac84e2732f618","609d7c963cae2fc26b66a82a","298","","","","39","","","","key","16.675324675324674","683","490","true","1","136.872","12.287999999999998","4","-1","-1","","","","","","","","","","","","",""
"psychophysics","142","320208","0.0-12.0-0.13","586fccd06cb8dd0001a29aec","609a8bf73b2ac84e2732f618","609d7c963cae2fc26b66a82a","669","","","","37","","","","key","16.67676767676768","683","490","true","-1","136.872","12.287999999999998","4","-1","-1","","","","","","","","","","","","",""
"psychophysics","143","321884","0.0-12.0-0.14","586fccd06cb8dd0001a29aec","609a8bf73b2ac84e2732f618","609d7c963cae2fc26b66a82a","674","","","","37","","","","key","16.67","683","490","true","1","129","9.8304","5","1","-1","","","","","","","","","","","","",""
"psychophysics","144","323206","0.0-12.0-0.15","586fccd06cb8dd0001a29aec","609a8bf73b2ac84e2732f618","609d7c963cae2fc26b66a82a","319","","","","37","","","","key","16.67948717948718","683","490","true","-1","138.8304","9.8304","5","-1","1","","","","","","","","","","","","",""
"psychophysics","145","324512","0.0-12.0-0.16","586fccd06cb8dd0001a29aec","609a8bf73b2ac84e2732f618","609d7c963cae2fc26b66a82a","302","","","","37","","","","key","16.675324675324674","683","490","true","-1","138.8304","7.864319999999999","6","-1","-1","","","","","","","","","","","","",""
"psychophysics","146","326382","0.0-12.0-0.17","586fccd06cb8dd0001a29aec","609a8bf73b2ac84e2732f618","609d7c963cae2fc26b66a82a","867","","","","37","","","","key","16.666666666666668","683","490","true","1","130.96608","6.291456","7","1","-1","","","","","","","","","","","","",""
"psychophysics","147","327632","0.0-12.0-0.18","586fccd06cb8dd0001a29aec","609a8bf73b2ac84e2732f618","609d7c963cae2fc26b66a82a","246","","","","39","","","","key","16.66216216216216","683","490","true","1","137.25753600000002","6.291456","7","-1","1","","","","","","","","","","","","",""
"psychophysics","148","328972","0.0-12.0-0.19","586fccd06cb8dd0001a29aec","609a8bf73b2ac84e2732f618","609d7c963cae2fc26b66a82a","338","","","","39","","","","key","16.6625","683","490","true","1","137.25753600000002","5.033164800000001","8","-1","-1","","","","","","","","","","","","",""
"psychophysics","149","331175","0.0-12.0-0.20","586fccd06cb8dd0001a29aec","609a8bf73b2ac84e2732f618","609d7c963cae2fc26b66a82a","1202","","","","37","","","","key","16.6793893129771","683","490","true","1","132.2243712","4.0265318400000005","9","1","-1","","","","","","","","","","","","",""
"psychophysics","150","332661","0.0-12.0-0.21","586fccd06cb8dd0001a29aec","609a8bf73b2ac84e2732f618","609d7c963cae2fc26b66a82a","482","","","","37","","","","key","16.670454545454547","683","490","true","-1","136.25090304","4.0265318400000005","9","-1","1","","","","","","","","","","","","",""
"psychophysics","151","334762","0.0-12.0-0.22","586fccd06cb8dd0001a29aec","609a8bf73b2ac84e2732f618","609d7c963cae2fc26b66a82a","1100","","","","37","","","","key","16.672","683","490","true","1","136.25090304","3.2212254720000004","10","1","-1","","","","","","","","","","","","",""
"psychophysics","152","336146","0.0-12.0-0.23","586fccd06cb8dd0001a29aec","609a8bf73b2ac84e2732f618","609d7c963cae2fc26b66a82a","381","","","","39","","","","key","16.682926829268293","683","490","true","1","139.47212851199998","3.2212254720000004","10","-1","1","","","","","","","","","","","","",""
"psychophysics","153","337577","0.0-12.0-0.24","586fccd06cb8dd0001a29aec","609a8bf73b2ac84e2732f618","609d7c963cae2fc26b66a82a","430","","","","37","","","","key","16.68235294117647","683","490","true","-1","139.47212851199998","2.5769803776000004","11","-1","-1","","","","","","","","","","","","",""
"psychophysics","154","339002","0.0-12.0-0.25","586fccd06cb8dd0001a29aec","609a8bf73b2ac84e2732f618","609d7c963cae2fc26b66a82a","423","","","","39","","","","key","16.678571428571427","683","490","true","1","136.8951481344","2.5769803776000004","11","-1","-1","","","","","","","","","","","","",""
"psychophysics","155","340367","0.0-12.0-0.26","586fccd06cb8dd0001a29aec","609a8bf73b2ac84e2732f618","609d7c963cae2fc26b66a82a","362.0000000000582","","","","39","","","","key","16.679012345679013","683","490","true","1","136.8951481344","2.5769803776000004","11","-1","-1","","","","","","","","","","","","",""
"psychophysics","156","341859","0.0-12.0-0.27","586fccd06cb8dd0001a29aec","609a8bf73b2ac84e2732f618","609d7c963cae2fc26b66a82a","490","","","","37","","","","key","16.681818181818183","683","490","true","-1","134.3181677568","2.5769803776000004","11","-1","-1","","","","","","","","","","","","",""
"psychophysics","157","343352","0.0-12.0-0.28","586fccd06cb8dd0001a29aec","609a8bf73b2ac84e2732f618","609d7c963cae2fc26b66a82a","490","","","","37","","","","key","16.640449438202246","683","490","true","-1","134.3181677568","2.5769803776000004","11","-1","-1","","","","","","","","","","","","",""
"psychophysics","158","344891","0.0-12.0-0.29","586fccd06cb8dd0001a29aec","609a8bf73b2ac84e2732f618","609d7c963cae2fc26b66a82a","537.0000000000582","","","","37","","","","key","16.681318681318682","683","490","true","-1","131.7411873792","2.5769803776000004","11","-1","-1","","","","","","","","","","","","",""
"psychophysics","159","346793","0.0-12.0-0.30","586fccd06cb8dd0001a29aec","609a8bf73b2ac84e2732f618","609d7c963cae2fc26b66a82a","900","","","","39","","","","key","16.68141592920354","683","490","true","-1","131.7411873792","2.0615843020800004","12","1","-1","","","","","","","","","","","","",""
"psychophysics","160","348085","0.0-12.0-0.31","586fccd06cb8dd0001a29aec","609a8bf73b2ac84e2732f618","609d7c963cae2fc26b66a82a","289.9999999999418","","","","37","","","","key","16.662337662337663","683","490","true","-1","133.80277168128","2.0615843020800004","12","-1","1","","","","","","","","","","","","",""
"psychophysics","161","349424","0.0-12.0-0.32","586fccd06cb8dd0001a29aec","609a8bf73b2ac84e2732f618","609d7c963cae2fc26b66a82a","334","","","","39","","","","key","16.68354430379747","683","490","true","1","133.80277168128","1.6492674416640005","13","-1","-1","","","","","","","","","","","","",""
"psychophysics","162","350914","0.0-12.0-0.33","586fccd06cb8dd0001a29aec","609a8bf73b2ac84e2732f618","609d7c963cae2fc26b66a82a","489","","","","37","","","","key","16.681818181818183","683","490","true","1","132.153504239616","1.3194139533312006","14","1","-1","","","","","","","","","","","","",""
"psychophysics","163","352175","0.0-12.0-0.34","586fccd06cb8dd0001a29aec","609a8bf73b2ac84e2732f618","609d7c963cae2fc26b66a82a","259.9999999999418","","","","39","","","","key","16.626666666666665","683","490","true","1","133.47291819294722","1.3194139533312006","14","-1","1","","","","","","","","","","","","",""
"psychophysics","164","353450","0.0-12.0-0.35","586fccd06cb8dd0001a29aec","609a8bf73b2ac84e2732f618","609d7c963cae2fc26b66a82a","272.9999999999418","","","","37","","","","key","16.68","683","490","true","-1","133.47291819294722","1.0555311626649604","15","-1","-1","","","","","","","","","","","","",""
"psychophysics","165","354862","0.0-12.0-0.36","586fccd06cb8dd0001a29aec","609a8bf73b2ac84e2732f618","609d7c963cae2fc26b66a82a","411","","","","39","","","","key","16.61904761904762","683","490","true","1","132.41738703028227","1.0555311626649604","15","-1","-1","","","","","","","","","","","","",""
"psychophysics","166","356207","0.0-12.0-0.37","586fccd06cb8dd0001a29aec","609a8bf73b2ac84e2732f618","609d7c963cae2fc26b66a82a","343","","","","39","","","","key","16.675","683","490","true","1","132.41738703028227","1.0555311626649604","15","-1","-1","","","","","","","","","","","","",""
"psychophysics","167","357816","0.0-12.0-0.38","586fccd06cb8dd0001a29aec","609a8bf73b2ac84e2732f618","609d7c963cae2fc26b66a82a","606","","","","37","","","","key","16.673684210526314","683","490","true","1","131.36185586761732","1","16","1","-1","","","","","","","","","","","","",""
"psychophysics","168","360041","0.0-12.0-0.39","586fccd06cb8dd0001a29aec","609a8bf73b2ac84e2732f618","609d7c963cae2fc26b66a82a","1219","","","","37","","","","key","16.669172932330827","683","490","true","-1","132.36185586761732","1","16","-1","1","","","","","","","","","","","","",""
"html-keyboard-response","169","369382","0.0-13.0","586fccd06cb8dd0001a29aec","609a8bf73b2ac84e2732f618","609d7c963cae2fc26b66a82a","9340","<p>Well Done !</p><p>Prepare for a new block.</p><p>DON'T EXIT THE FULL SCREEN MODE</p><p>Press the Spacebar to start.</p>","","","32","","","","","","","","","","","","","","","true","133.41149175497796","","","","","","","","","","",""
"html-keyboard-response","170","369485","0.0-14.0","586fccd06cb8dd0001a29aec","609a8bf73b2ac84e2732f618","609d7c963cae2fc26b66a82a","null","","","","null","","","","","","","","","","","","","","","","","134.8976024615349","true","141.79520492306978","","","","","","","",""
"instructions","171","391208","0.0-15.0","586fccd06cb8dd0001a29aec","609a8bf73b2ac84e2732f618","609d7c963cae2fc26b66a82a","21720","","","","","","","[{""page_index"":0,""viewing_time"":16726},{""page_index"":1,""viewing_time"":1599},{""page_index"":2,""viewing_time"":3395}]","","","","","","","","","","","","","","","","","","","","","","","",""
"psychophysics","172","394403","0.0-16.0-0.0","586fccd06cb8dd0001a29aec","609a8bf73b2ac84e2732f618","609d7c963cae2fc26b66a82a","null","","","","null","","","","key","16.704225352112676","683","490","","","","","","","","","","","","","","","","","","","",""
"psychophysics","173","394904","0.0-16.0-1.0","586fccd06cb8dd0001a29aec","609a8bf73b2ac84e2732f618","609d7c963cae2fc26b66a82a","null","","","","null","","","","key","16.655172413793103","683","490","","","","","","","","","","","","","142","-1","4","false","","","",""
"psychophysics","174","396014","0.0-16.0-2.0","586fccd06cb8dd0001a29aec","609a8bf73b2ac84e2732f618","609d7c963cae2fc26b66a82a","1107","","","","90","","","","key","16.676923076923078","683","490","","","","","","","","","","","","","","","","","","","",""
"psychophysics","175","397482","0.0-16.0-0.1","586fccd06cb8dd0001a29aec","609a8bf73b2ac84e2732f618","609d7c963cae2fc26b66a82a","null","","","","null","","","","key","16.689655172413794","683","490","","","","","","","","","","","","","","","","","","","",""
"psychophysics","176","397989","0.0-16.0-1.1","586fccd06cb8dd0001a29aec","609a8bf73b2ac84e2732f618","609d7c963cae2fc26b66a82a","null","","","","null","","","","key","16.533333333333335","683","490","","","","","","","","","","","","","142","-1","0","false","","","",""
"psychophysics","177","399095","0.0-16.0-2.1","586fccd06cb8dd0001a29aec","609a8bf73b2ac84e2732f618","609d7c963cae2fc26b66a82a","1104","","","","90","","","","key","16.676923076923078","683","490","","","","","","","","","","","","","","","","","","","",""
"psychophysics","178","400595","0.0-16.0-0.2","586fccd06cb8dd0001a29aec","609a8bf73b2ac84e2732f618","609d7c963cae2fc26b66a82a","null","","","","null","","","","key","16.674157303370787","683","490","","","","","","","","","","","","","","","","","","","",""
"psychophysics","179","401097","0.0-16.0-1.2","586fccd06cb8dd0001a29aec","609a8bf73b2ac84e2732f618","609d7c963cae2fc26b66a82a","null","","","","null","","","","key","16.655172413793103","683","490","","","","","","","","","","","","","142","-1","5","false","","","",""
"psychophysics","180","401930","0.0-16.0-2.2","586fccd06cb8dd0001a29aec","609a8bf73b2ac84e2732f618","609d7c963cae2fc26b66a82a","831","","","","90","","","","key","16.6734693877551","683","490","","","","","","","","","","","","","","","","","","","",""
"psychophysics","181","402750","0.0-16.0-0.3","586fccd06cb8dd0001a29aec","609a8bf73b2ac84e2732f618","609d7c963cae2fc26b66a82a","null","","","","null","","","","key","16.666666666666668","683","490","","","","","","","","","","","","","","","","","","","",""
"psychophysics","182","403254","0.0-16.0-1.3","586fccd06cb8dd0001a29aec","609a8bf73b2ac84e2732f618","609d7c963cae2fc26b66a82a","null","","","","null","","","","key","16.655172413793103","683","490","","","","","","","","","","","","","142","1","2","false","","","",""
"psychophysics","183","403737","0.0-16.0-2.3","586fccd06cb8dd0001a29aec","609a8bf73b2ac84e2732f618","609d7c963cae2fc26b66a82a","477","","","","77","","","","key","16.607142857142858","683","490","","","","","","","","","","","","","","","","","","","",""
"psychophysics","184","404489","0.0-16.0-0.4","586fccd06cb8dd0001a29aec","609a8bf73b2ac84e2732f618","609d7c963cae2fc26b66a82a","null","","","","null","","","","key","16.65909090909091","683","490","","","","","","","","","","","","","","","","","","","",""
"psychophysics","185","404997","0.0-16.0-1.4","586fccd06cb8dd0001a29aec","609a8bf73b2ac84e2732f618","609d7c963cae2fc26b66a82a","null","","","","null","","","","key","16.366666666666667","683","490","","","","","","","","","","","","","142","-1","6","false","","","",""
"psychophysics","186","406242","0.0-16.0-2.4","586fccd06cb8dd0001a29aec","609a8bf73b2ac84e2732f618","609d7c963cae2fc26b66a82a","1243.0000000000582","","","","77","","","","key","16.684931506849313","683","490","","","","","","","","","","","","","","","","","","","",""
"psychophysics","187","407060","0.0-16.0-0.5","586fccd06cb8dd0001a29aec","609a8bf73b2ac84e2732f618","609d7c963cae2fc26b66a82a","null","","","","null","","","","key","16.612244897959183","683","490","","","","","","","","","","","","","","","","","","","",""
"psychophysics","188","407562","0.0-16.0-1.5","586fccd06cb8dd0001a29aec","609a8bf73b2ac84e2732f618","609d7c963cae2fc26b66a82a","null","","","","null","","","","key","16.655172413793103","683","490","","","","","","","","","","","","","142","-1","3","false","","","",""
"psychophysics","189","408106","0.0-16.0-2.5","586fccd06cb8dd0001a29aec","609a8bf73b2ac84e2732f618","609d7c963cae2fc26b66a82a","541.9999999999418","","","","90","","","","key","16.677419354838708","683","490","","","","","","","","","","","","","","","","","","","",""
"psychophysics","190","408947","0.0-16.0-0.6","586fccd06cb8dd0001a29aec","609a8bf73b2ac84e2732f618","609d7c963cae2fc26b66a82a","null","","","","null","","","","key","16.68","683","490","","","","","","","","","","","","","","","","","","","",""
"psychophysics","191","409450","0.0-16.0-1.6","586fccd06cb8dd0001a29aec","609a8bf73b2ac84e2732f618","609d7c963cae2fc26b66a82a","null","","","","null","","","","key","16.689655172413794","683","490","","","","","","","","","","","","","142","1","0","false","","","",""
"psychophysics","192","410756","0.0-16.0-2.6","586fccd06cb8dd0001a29aec","609a8bf73b2ac84e2732f618","609d7c963cae2fc26b66a82a","1303","","","","90","","","","key","16.675324675324674","683","490","","","","","","","","","","","","","","","","","","","",""
"psychophysics","193","411855","0.0-16.0-0.7","586fccd06cb8dd0001a29aec","609a8bf73b2ac84e2732f618","609d7c963cae2fc26b66a82a","null","","","","null","","","","key","16.676923076923078","683","490","","","","","","","","","","","","","","","","","","","",""
"psychophysics","194","412357","0.0-16.0-1.7","586fccd06cb8dd0001a29aec","609a8bf73b2ac84e2732f618","609d7c963cae2fc26b66a82a","null","","","","null","","","","key","16.689655172413794","683","490","","","","","","","","","","","","","142","1","3","false","","","",""
"psychophysics","195","413428","0.0-16.0-2.7","586fccd06cb8dd0001a29aec","609a8bf73b2ac84e2732f618","609d7c963cae2fc26b66a82a","1068","","","","90","","","","key","16.682539682539684","683","490","","","","","","","","","","","","","","","","","","","",""
"psychophysics","196","414595","0.0-16.0-0.8","586fccd06cb8dd0001a29aec","609a8bf73b2ac84e2732f618","609d7c963cae2fc26b66a82a","null","","","","null","","","","key","16.6","683","490","","","","","","","","","","","","","","","","","","","",""
"psychophysics","197","415097","0.0-16.0-1.8","586fccd06cb8dd0001a29aec","609a8bf73b2ac84e2732f618","609d7c963cae2fc26b66a82a","null","","","","null","","","","key","16.689655172413794","683","490","","","","","","","","","","","","","142","1","5","false","","","",""
"psychophysics","198","416451","0.0-16.0-2.8","586fccd06cb8dd0001a29aec","609a8bf73b2ac84e2732f618","609d7c963cae2fc26b66a82a","1352.0000000000582","","","","77","","","","key","16.675","683","490","","","","","","","","","","","","","","","","","","","",""
"psychophysics","199","417474","0.0-16.0-0.9","586fccd06cb8dd0001a29aec","609a8bf73b2ac84e2732f618","609d7c963cae2fc26b66a82a","null","","","","null","","","","key","16.683333333333334","683","490","","","","","","","","","","","","","","","","","","","",""
"psychophysics","200","417976","0.0-16.0-1.9","586fccd06cb8dd0001a29aec","609a8bf73b2ac84e2732f618","609d7c963cae2fc26b66a82a","null","","","","null","","","","key","16.655172413793103","683","490","","","","","","","","","","","","","142","1","6","false","","","",""
"psychophysics","201","418578","0.0-16.0-2.9","586fccd06cb8dd0001a29aec","609a8bf73b2ac84e2732f618","609d7c963cae2fc26b66a82a","597.9999999999418","","","","77","","","","key","16.65714285714286","683","490","","","","","","","","","","","","","","","","","","","",""
"psychophysics","202","419216","0.0-16.0-0.10","586fccd06cb8dd0001a29aec","609a8bf73b2ac84e2732f618","609d7c963cae2fc26b66a82a","null","","","","null","","","","key","16.57894736842105","683","490","","","","","","","","","","","","","","","","","","","",""
"psychophysics","203","419717","0.0-16.0-1.10","586fccd06cb8dd0001a29aec","609a8bf73b2ac84e2732f618","609d7c963cae2fc26b66a82a","null","","","","null","","","","key","16.655172413793103","683","490","","","","","","","","","","","","","142","-1","2","false","","","",""
"psychophysics","204","420228","0.0-16.0-2.10","586fccd06cb8dd0001a29aec","609a8bf73b2ac84e2732f618","609d7c963cae2fc26b66a82a","508","","","","90","","","","key","16.689655172413794","683","490","","","","","","","","","","","","","","","","","","","",""
"psychophysics","205","421373","0.0-16.0-0.11","586fccd06cb8dd0001a29aec","609a8bf73b2ac84e2732f618","609d7c963cae2fc26b66a82a","null","","","","null","","","","key","16.63235294117647","683","490","","","","","","","","","","","","","","","","","","","",""
"psychophysics","206","421875","0.0-16.0-1.11","586fccd06cb8dd0001a29aec","609a8bf73b2ac84e2732f618","609d7c963cae2fc26b66a82a","null","","","","null","","","","key","16.655172413793103","683","490","","","","","","","","","","","","","142","1","4","false","","","",""
"psychophysics","207","422295","0.0-16.0-2.11","586fccd06cb8dd0001a29aec","609a8bf73b2ac84e2732f618","609d7c963cae2fc26b66a82a","417.0000000000582","","","","77","","","","key","16.666666666666668","683","490","","","","","","","","","","","","","","","","","","","",""
"psychophysics","208","422895","0.0-16.0-0.12","586fccd06cb8dd0001a29aec","609a8bf73b2ac84e2732f618","609d7c963cae2fc26b66a82a","null","","","","null","","","","key","16.62857142857143","683","490","","","","","","","","","","","","","","","","","","","",""
"psychophysics","209","423399","0.0-16.0-1.12","586fccd06cb8dd0001a29aec","609a8bf73b2ac84e2732f618","609d7c963cae2fc26b66a82a","null","","","","null","","","","key","16.633333333333333","683","490","","","","","","","","","","","","","142","1","5","false","","","",""
"psychophysics","210","423821","0.0-16.0-2.12","586fccd06cb8dd0001a29aec","609a8bf73b2ac84e2732f618","609d7c963cae2fc26b66a82a","419","","","","77","","","","key","16.708333333333332","683","490","","","","","","","","","","","","","","","","","","","",""
"psychophysics","211","424596","0.0-16.0-0.13","586fccd06cb8dd0001a29aec","609a8bf73b2ac84e2732f618","609d7c963cae2fc26b66a82a","null","","","","null","","","","key","16.68888888888889","683","490","","","","","","","","","","","","","","","","","","","",""
"psychophysics","212","425101","0.0-16.0-1.13","586fccd06cb8dd0001a29aec","609a8bf73b2ac84e2732f618","609d7c963cae2fc26b66a82a","null","","","","null","","","","key","16.533333333333335","683","490","","","","","","","","","","","","","142","1","4","false","","","",""
"psychophysics","213","425570","0.0-16.0-2.13","586fccd06cb8dd0001a29aec","609a8bf73b2ac84e2732f618","609d7c963cae2fc26b66a82a","467","","","","77","","","","key","16.703703703703702","683","490","","","","","","","","","","","","","","","","","","","",""
"psychophysics","214","426999","0.0-16.0-0.14","586fccd06cb8dd0001a29aec","609a8bf73b2ac84e2732f618","609d7c963cae2fc26b66a82a","null","","","","null","","","","key","16.68235294117647","683","490","","","","","","","","","","","","","","","","","","","",""
"psychophysics","215","427501","0.0-16.0-1.14","586fccd06cb8dd0001a29aec","609a8bf73b2ac84e2732f618","609d7c963cae2fc26b66a82a","null","","","","null","","","","key","16.655172413793103","683","490","","","","","","","","","","","","","142","1","2","false","","","",""
"psychophysics","216","428335","0.0-16.0-2.14","586fccd06cb8dd0001a29aec","609a8bf73b2ac84e2732f618","609d7c963cae2fc26b66a82a","833","","","","90","","","","key","16.6734693877551","683","490","","","","","","","","","","","","","","","","","","","",""
"psychophysics","217","429447","0.0-16.0-0.15","586fccd06cb8dd0001a29aec","609a8bf73b2ac84e2732f618","609d7c963cae2fc26b66a82a","null","","","","null","","","","key","16.676923076923078","683","490","","","","","","","","","","","","","","","","","","","",""
"psychophysics","218","429952","0.0-16.0-1.15","586fccd06cb8dd0001a29aec","609a8bf73b2ac84e2732f618","609d7c963cae2fc26b66a82a","null","","","","null","","","","key","16.633333333333333","683","490","","","","","","","","","","","","","142","-1","6","false","","","",""
"psychophysics","219","430611","0.0-16.0-2.15","586fccd06cb8dd0001a29aec","609a8bf73b2ac84e2732f618","609d7c963cae2fc26b66a82a","656","","","","77","","","","key","16.68421052631579","683","490","","","","","","","","","","","","","","","","","","","",""
"psychophysics","220","431712","0.0-16.0-0.16","586fccd06cb8dd0001a29aec","609a8bf73b2ac84e2732f618","609d7c963cae2fc26b66a82a","null","","","","null","","","","key","16.676923076923078","683","490","","","","","","","","","","","","","","","","","","","",""
"psychophysics","221","432213","0.0-16.0-1.16","586fccd06cb8dd0001a29aec","609a8bf73b2ac84e2732f618","609d7c963cae2fc26b66a82a","null","","","","null","","","","key","16.689655172413794","683","490","","","","","","","","","","","","","142","-1","0","false","","","",""
"psychophysics","222","432878","0.0-16.0-2.16","586fccd06cb8dd0001a29aec","609a8bf73b2ac84e2732f618","609d7c963cae2fc26b66a82a","662","","","","77","","","","key","16.692307692307693","683","490","","","","","","","","","","","","","","","","","","","",""
"psychophysics","223","433578","0.0-16.0-0.17","586fccd06cb8dd0001a29aec","609a8bf73b2ac84e2732f618","609d7c963cae2fc26b66a82a","null","","","","null","","","","key","16.682926829268293","683","490","","","","","","","","","","","","","","","","","","","",""
"psychophysics","224","434083","0.0-16.0-1.17","586fccd06cb8dd0001a29aec","609a8bf73b2ac84e2732f618","609d7c963cae2fc26b66a82a","null","","","","null","","","","key","16.655172413793103","683","490","","","","","","","","","","","","","142","-1","3","false","","","",""
"psychophysics","225","434459","0.0-16.0-2.17","586fccd06cb8dd0001a29aec","609a8bf73b2ac84e2732f618","609d7c963cae2fc26b66a82a","367","","","","90","","","","key","16.636363636363637","683","490","","","","","","","","","","","","","","","","","","","",""
"psychophysics","226","435185","0.0-16.0-0.18","586fccd06cb8dd0001a29aec","609a8bf73b2ac84e2732f618","609d7c963cae2fc26b66a82a","null","","","","null","","","","key","16.666666666666668","683","490","","","","","","","","","","","","","","","","","","","",""
"psychophysics","227","435689","0.0-16.0-1.18","586fccd06cb8dd0001a29aec","609a8bf73b2ac84e2732f618","609d7c963cae2fc26b66a82a","null","","","","null","","","","key","16.633333333333333","683","490","","","","","","","","","","","","","142","-1","2","false","","","",""
"psychophysics","228","436075","0.0-16.0-2.18","586fccd06cb8dd0001a29aec","609a8bf73b2ac84e2732f618","609d7c963cae2fc26b66a82a","383","","","","90","","","","key","16.681818181818183","683","490","","","","","","","","","","","","","","","","","","","",""
"psychophysics","229","436706","0.0-16.0-0.19","586fccd06cb8dd0001a29aec","609a8bf73b2ac84e2732f618","609d7c963cae2fc26b66a82a","null","","","","null","","","","key","16.7027027027027","683","490","","","","","","","","","","","","","","","","","","","",""
"psychophysics","230","437209","0.0-16.0-1.19","586fccd06cb8dd0001a29aec","609a8bf73b2ac84e2732f618","609d7c963cae2fc26b66a82a","null","","","","null","","","","key","16.689655172413794","683","490","","","","","","","","","","","","","142","-1","4","false","","","",""
"psychophysics","231","437647","0.0-16.0-2.19","586fccd06cb8dd0001a29aec","609a8bf73b2ac84e2732f618","609d7c963cae2fc26b66a82a","437","","","","77","","","","key","16.72","683","490","","","","","","","","","","","","","","","","","","","",""
"psychophysics","232","438864","0.0-16.0-0.20","586fccd06cb8dd0001a29aec","609a8bf73b2ac84e2732f618","609d7c963cae2fc26b66a82a","null","","","","null","","","","key","16.680555555555557","683","490","","","","","","","","","","","","","","","","","","","",""
"psychophysics","233","439367","0.0-16.0-1.20","586fccd06cb8dd0001a29aec","609a8bf73b2ac84e2732f618","609d7c963cae2fc26b66a82a","null","","","","null","","","","key","16.689655172413794","683","490","","","","","","","","","","","","","142","1","6","false","","","",""
"psychophysics","234","439646","0.0-16.0-2.20","586fccd06cb8dd0001a29aec","609a8bf73b2ac84e2732f618","609d7c963cae2fc26b66a82a","278","","","","77","","","","key","16.6875","683","490","","","","","","","","","","","","","","","","","","","",""
"psychophysics","235","440373","0.0-16.0-0.21","586fccd06cb8dd0001a29aec","609a8bf73b2ac84e2732f618","609d7c963cae2fc26b66a82a","null","","","","null","","","","key","16.674418604651162","683","490","","","","","","","","","","","","","","","","","","","",""
"psychophysics","236","440878","0.0-16.0-1.21","586fccd06cb8dd0001a29aec","609a8bf73b2ac84e2732f618","609d7c963cae2fc26b66a82a","null","","","","null","","","","key","16.655172413793103","683","490","","","","","","","","","","","","","142","1","3","false","","","",""
"psychophysics","237","441504","0.0-16.0-2.21","586fccd06cb8dd0001a29aec","609a8bf73b2ac84e2732f618","609d7c963cae2fc26b66a82a","623.0000000000582","","","","90","","","","key","16.694444444444443","683","490","","","","","","","","","","","","","","","","","","","",""
"psychophysics","238","442419","0.0-16.0-0.22","586fccd06cb8dd0001a29aec","609a8bf73b2ac84e2732f618","609d7c963cae2fc26b66a82a","null","","","","null","","","","key","16.666666666666668","683","490","","","","","","","","","","","","","","","","","","","",""
"psychophysics","239","442921","0.0-16.0-1.22","586fccd06cb8dd0001a29aec","609a8bf73b2ac84e2732f618","609d7c963cae2fc26b66a82a","null","","","","null","","","","key","16.689655172413794","683","490","","","","","","","","","","","","","142","-1","5","false","","","",""
"psychophysics","240","443296","0.0-16.0-2.22","586fccd06cb8dd0001a29aec","609a8bf73b2ac84e2732f618","609d7c963cae2fc26b66a82a","372","","","","77","","","","key","16.636363636363637","683","490","","","","","","","","","","","","","","","","","","","",""
"psychophysics","241","444433","0.0-16.0-0.23","586fccd06cb8dd0001a29aec","609a8bf73b2ac84e2732f618","609d7c963cae2fc26b66a82a","null","","","","null","","","","key","16.686567164179106","683","490","","","","","","","","","","","","","","","","","","","",""
"psychophysics","242","444937","0.0-16.0-1.23","586fccd06cb8dd0001a29aec","609a8bf73b2ac84e2732f618","609d7c963cae2fc26b66a82a","null","","","","null","","","","key","16.689655172413794","683","490","","","","","","","","","","","","","142","1","0","false","","","",""
"psychophysics","243","445223","0.0-16.0-2.23","586fccd06cb8dd0001a29aec","609a8bf73b2ac84e2732f618","609d7c963cae2fc26b66a82a","283.9999999999418","","","","77","","","","key","16.6875","683","490","","","","","","","","","","","","","","","","","","","",""
"html-keyboard-response","244","447436","0.0-17.0","586fccd06cb8dd0001a29aec","609a8bf73b2ac84e2732f618","609d7c963cae2fc26b66a82a","2212","<p>Well Done !</p><p>Training Complete. Press the spacebar to start.</p><p>DON'T EXIT THE FULL SCREEN MODE</p>","","","32","","","","","","","","","","","","","","","","","","","","","","","","","","",""
"psychophysics","245","450473","0.0-18.0-0.0","586fccd06cb8dd0001a29aec","609a8bf73b2ac84e2732f618","609d7c963cae2fc26b66a82a","null","","","","null","","","","key","16.580645161290324","683","490","","","","","","","","","","","","","","","","","","","",""
"psychophysics","246","450974","0.0-18.0-1.0","586fccd06cb8dd0001a29aec","609a8bf73b2ac84e2732f618","609d7c963cae2fc26b66a82a","null","","","","null","","","","key","16.689655172413794","683","490","","","","","","","","","","","","","142","1","3","true","","","",""
"psychophysics","247","451544","0.0-18.0-2.0","586fccd06cb8dd0001a29aec","609a8bf73b2ac84e2732f618","609d7c963cae2fc26b66a82a","567","","","","90","","","","key","16.666666666666668","683","490","","","","","","","","","","","","","","","","","","","",""
"psychophysics","248","452799","0.0-18.0-0.1","586fccd06cb8dd0001a29aec","609a8bf73b2ac84e2732f618","609d7c963cae2fc26b66a82a","null","","","","null","","","","key","16.675675675675677","683","490","","","","","","","","","","","","","","","","","","","",""
"psychophysics","249","453301","0.0-18.0-1.1","586fccd06cb8dd0001a29aec","609a8bf73b2ac84e2732f618","609d7c963cae2fc26b66a82a","null","","","","null","","","","key","16.689655172413794","683","490","","","","","","","","","","","","","142","1","2","true","","","",""
"psychophysics","250","453992","0.0-18.0-2.1","586fccd06cb8dd0001a29aec","609a8bf73b2ac84e2732f618","609d7c963cae2fc26b66a82a","688.0000000000582","","","","90","","","","key","16.658536585365855","683","490","","","","","","","","","","","","","","","","","","","",""
"psychophysics","251","454825","0.0-18.0-0.2","586fccd06cb8dd0001a29aec","609a8bf73b2ac84e2732f618","609d7c963cae2fc26b66a82a","null","","","","null","","","","key","16.6734693877551","683","490","","","","","","","","","","","","","","","","","","","",""
"psychophysics","252","455326","0.0-18.0-1.2","586fccd06cb8dd0001a29aec","609a8bf73b2ac84e2732f618","609d7c963cae2fc26b66a82a","null","","","","null","","","","key","16.689655172413794","683","490","","","","","","","","","","","","","142","-1","3","true","","","",""
"psychophysics","253","455518","0.0-18.0-2.2","586fccd06cb8dd0001a29aec","609a8bf73b2ac84e2732f618","609d7c963cae2fc26b66a82a","189","","","","90","","","","key","16.7","683","490","","","","","","","","","","","","","","","","","","","",""
"psychophysics","254","456956","0.0-18.0-0.3","586fccd06cb8dd0001a29aec","609a8bf73b2ac84e2732f618","609d7c963cae2fc26b66a82a","null","","","","null","","","","key","16.68235294117647","683","490","","","","","","","","","","","","","","","","","","","",""
"psychophysics","255","457461","0.0-18.0-1.3","586fccd06cb8dd0001a29aec","609a8bf73b2ac84e2732f618","609d7c963cae2fc26b66a82a","null","","","","null","","","","key","16.5","683","490","","","","","","","","","","","","","142","-1","5","true","","","",""
"psychophysics","256","458021","0.0-18.0-2.3","586fccd06cb8dd0001a29aec","609a8bf73b2ac84e2732f618","609d7c963cae2fc26b66a82a","557.9999999999418","","","","77","","","","key","16.65625","683","490","","","","","","","","","","","","","","","","","","","",""
"psychophysics","257","459243","0.0-18.0-0.4","586fccd06cb8dd0001a29aec","609a8bf73b2ac84e2732f618","609d7c963cae2fc26b66a82a","null","","","","null","","","","key","16.671232876712327","683","490","","","","","","","","","","","","","","","","","","","",""
"psychophysics","258","459744","0.0-18.0-1.4","586fccd06cb8dd0001a29aec","609a8bf73b2ac84e2732f618","609d7c963cae2fc26b66a82a","null","","","","null","","","","key","16.689655172413794","683","490","","","","","","","","","","","","","142","-1","4","true","","","",""
"psychophysics","259","459940","0.0-18.0-2.4","586fccd06cb8dd0001a29aec","609a8bf73b2ac84e2732f618","609d7c963cae2fc26b66a82a","193","","","","77","","","","key","16.7","683","490","","","","","","","","","","","","","","","","","","","",""
"psychophysics","260","460629","0.0-18.0-0.5","586fccd06cb8dd0001a29aec","609a8bf73b2ac84e2732f618","609d7c963cae2fc26b66a82a","null","","","","null","","","","key","16.682926829268293","683","490","","","","","","","","","","","","","","","","","","","",""
"psychophysics","261","461135","0.0-18.0-1.5","586fccd06cb8dd0001a29aec","609a8bf73b2ac84e2732f618","609d7c963cae2fc26b66a82a","null","","","","null","","","","key","16.689655172413794","683","490","","","","","","","","","","","","","142","-1","2","true","","","",""
"psychophysics","262","461503","0.0-18.0-2.5","586fccd06cb8dd0001a29aec","609a8bf73b2ac84e2732f618","609d7c963cae2fc26b66a82a","366","","","","90","","","","key","16.666666666666668","683","490","","","","","","","","","","","","","","","","","","","",""
"psychophysics","263","462561","0.0-18.0-0.6","586fccd06cb8dd0001a29aec","609a8bf73b2ac84e2732f618","609d7c963cae2fc26b66a82a","null","","","","null","","","","key","16.682539682539684","683","490","","","","","","","","","","","","","","","","","","","",""
"psychophysics","264","463062","0.0-18.0-1.6","586fccd06cb8dd0001a29aec","609a8bf73b2ac84e2732f618","609d7c963cae2fc26b66a82a","null","","","","null","","","","key","16.655172413793103","683","490","","","","","","","","","","","","","142","1","5","true","","","",""
"psychophysics","265","463338","0.0-18.0-2.6","586fccd06cb8dd0001a29aec","609a8bf73b2ac84e2732f618","609d7c963cae2fc26b66a82a","273.0000000000582","","","","77","","","","key","16.666666666666668","683","490","","","","","","","","","","","","","","","","","","","",""
"psychophysics","266","464633","0.0-18.0-0.7","586fccd06cb8dd0001a29aec","609a8bf73b2ac84e2732f618","609d7c963cae2fc26b66a82a","null","","","","null","","","","key","16.68831168831169","683","490","","","","","","","","","","","","","","","","","","","",""
"psychophysics","267","465136","0.0-18.0-1.7","586fccd06cb8dd0001a29aec","609a8bf73b2ac84e2732f618","609d7c963cae2fc26b66a82a","null","","","","null","","","","key","16.689655172413794","683","490","","","","","","","","","","","","","142","-1","6","true","","","",""
"psychophysics","268","465694","0.0-18.0-2.7","586fccd06cb8dd0001a29aec","609a8bf73b2ac84e2732f618","609d7c963cae2fc26b66a82a","556.0000000000582","","","","77","","","","key","16.6875","683","490","","","","","","","","","","","","","","","","","","","",""
"psychophysics","269","467014","0.0-18.0-0.8","586fccd06cb8dd0001a29aec","609a8bf73b2ac84e2732f618","609d7c963cae2fc26b66a82a","null","","","","null","","","","key","16.658227848101266","683","490","","","","","","","","","","","","","","","","","","","",""
"psychophysics","270","467519","0.0-18.0-1.8","586fccd06cb8dd0001a29aec","609a8bf73b2ac84e2732f618","609d7c963cae2fc26b66a82a","null","","","","null","","","","key","16.689655172413794","683","490","","","","","","","","","","","","","142","1","6","true","","","",""
"psychophysics","271","467701","0.0-18.0-2.8","586fccd06cb8dd0001a29aec","609a8bf73b2ac84e2732f618","609d7c963cae2fc26b66a82a","179.0000000000582","","","","77","","","","key","16.7","683","490","","","","","","","","","","","","","","","","","","","",""
"psychophysics","272","468366","0.0-18.0-0.9","586fccd06cb8dd0001a29aec","609a8bf73b2ac84e2732f618","609d7c963cae2fc26b66a82a","null","","","","null","","","","key","16.666666666666668","683","490","","","","","","","","","","","","","","","","","","","",""
"psychophysics","273","468868","0.0-18.0-1.9","586fccd06cb8dd0001a29aec","609a8bf73b2ac84e2732f618","609d7c963cae2fc26b66a82a","null","","","","null","","","","key","16.655172413793103","683","490","","","","","","","","","","","","","142","1","0","true","","","",""
"psychophysics","274","469659","0.0-18.0-2.9","586fccd06cb8dd0001a29aec","609a8bf73b2ac84e2732f618","609d7c963cae2fc26b66a82a","788","","","","90","","","","key","16.67391304347826","683","490","","","","","","","","","","","","","","","","","","","",""
"psychophysics","275","470187","0.0-18.0-0.10","586fccd06cb8dd0001a29aec","609a8bf73b2ac84e2732f618","609d7c963cae2fc26b66a82a","null","","","","null","","","","key","16.677419354838708","683","490","","","","","","","","","","","","","","","","","","","",""
"psychophysics","276","470691","0.0-18.0-1.10","586fccd06cb8dd0001a29aec","609a8bf73b2ac84e2732f618","609d7c963cae2fc26b66a82a","null","","","","null","","","","key","16.689655172413794","683","490","","","","","","","","","","","","","142","-1","0","true","","","",""
"psychophysics","277","472006","0.0-18.0-2.10","586fccd06cb8dd0001a29aec","609a8bf73b2ac84e2732f618","609d7c963cae2fc26b66a82a","1313","","","","90","","","","key","16.67948717948718","683","490","","","","","","","","","","","","","","","","","","","",""
"psychophysics","278","472936","0.0-18.0-0.11","586fccd06cb8dd0001a29aec","609a8bf73b2ac84e2732f618","609d7c963cae2fc26b66a82a","null","","","","null","","","","key","16.672727272727272","683","490","","","","","","","","","","","","","","","","","","","",""
"psychophysics","279","473438","0.0-18.0-1.11","586fccd06cb8dd0001a29aec","609a8bf73b2ac84e2732f618","609d7c963cae2fc26b66a82a","null","","","","null","","","","key","16.689655172413794","683","490","","","","","","","","","","","","","142","1","4","true","","","",""
"psychophysics","280","473667","0.0-18.0-2.11","586fccd06cb8dd0001a29aec","609a8bf73b2ac84e2732f618","609d7c963cae2fc26b66a82a","227","","","","77","","","","key","16.583333333333332","683","490","","","","","","","","","","","","","","","","","","","",""
"psychophysics","281","475064","0.0-18.0-0.12","586fccd06cb8dd0001a29aec","609a8bf73b2ac84e2732f618","609d7c963cae2fc26b66a82a","null","","","","null","","","","key","16.63855421686747","683","490","","","","","","","","","","","","","","","","","","","",""
"psychophysics","282","475567","0.0-18.0-1.12","586fccd06cb8dd0001a29aec","609a8bf73b2ac84e2732f618","609d7c963cae2fc26b66a82a","null","","","","null","","","","key","16.655172413793103","683","490","","","","","","","","","","","","","142","1","2","true","","","",""
"psychophysics","283","475792","0.0-18.0-2.12","586fccd06cb8dd0001a29aec","609a8bf73b2ac84e2732f618","609d7c963cae2fc26b66a82a","218","","","","90","","","","key","16.46153846153846","683","490","","","","","","","","","","","","","","","","","","","",""
"psychophysics","284","476504","0.0-18.0-0.13","586fccd06cb8dd0001a29aec","609a8bf73b2ac84e2732f618","609d7c963cae2fc26b66a82a","null","","","","null","","","","key","16.666666666666668","683","490","","","","","","","","","","","","","","","","","","","",""
"psychophysics","285","477006","0.0-18.0-1.13","586fccd06cb8dd0001a29aec","609a8bf73b2ac84e2732f618","609d7c963cae2fc26b66a82a","null","","","","null","","","","key","16.655172413793103","683","490","","","","","","","","","","","","","142","1","6","true","","","",""
"psychophysics","286","477950","0.0-18.0-2.13","586fccd06cb8dd0001a29aec","609a8bf73b2ac84e2732f618","609d7c963cae2fc26b66a82a","936","","","","77","","","","key","16.672727272727272","683","490","","","","","","","","","","","","","","","","","","","",""
"psychophysics","287","479302","0.0-18.0-0.14","586fccd06cb8dd0001a29aec","609a8bf73b2ac84e2732f618","609d7c963cae2fc26b66a82a","null","","","","null","","","","key","16.675","683","490","","","","","","","","","","","","","","","","","","","",""
"psychophysics","288","479805","0.0-18.0-1.14","586fccd06cb8dd0001a29aec","609a8bf73b2ac84e2732f618","609d7c963cae2fc26b66a82a","null","","","","null","","","","key","16.566666666666666","683","490","","","","","","","","","","","","","142","1","5","true","","","",""
"psychophysics","289","480528","0.0-18.0-2.14","586fccd06cb8dd0001a29aec","609a8bf73b2ac84e2732f618","609d7c963cae2fc26b66a82a","720.0000000000582","","","","77","","","","key","16.666666666666668","683","490","","","","","","","","","","","","","","","","","","","",""
"psychophysics","290","481943","0.0-18.0-0.15","586fccd06cb8dd0001a29aec","609a8bf73b2ac84e2732f618","609d7c963cae2fc26b66a82a","null","","","","null","","","","key","16.678571428571427","683","490","","","","","","","","","","","","","","","","","","","",""
"psychophysics","291","482445","0.0-18.0-1.15","586fccd06cb8dd0001a29aec","609a8bf73b2ac84e2732f618","609d7c963cae2fc26b66a82a","null","","","","null","","","","key","16.689655172413794","683","490","","","","","","","","","","","","","142","-1","2","true","","","",""
"psychophysics","292","482697","0.0-18.0-2.15","586fccd06cb8dd0001a29aec","609a8bf73b2ac84e2732f618","609d7c963cae2fc26b66a82a","247","","","","90","","","","key","16.714285714285715","683","490","","","","","","","","","","","","","","","","","","","",""
"psychophysics","293","484125","0.0-18.0-0.16","586fccd06cb8dd0001a29aec","609a8bf73b2ac84e2732f618","609d7c963cae2fc26b66a82a","null","","","","null","","","","key","16.67058823529412","683","490","","","","","","","","","","","","","","","","","","","",""
"psychophysics","294","484631","0.0-18.0-1.16","586fccd06cb8dd0001a29aec","609a8bf73b2ac84e2732f618","609d7c963cae2fc26b66a82a","null","","","","null","","","","key","16.689655172413794","683","490","","","","","","","","","","","","","142","-1","6","true","","","",""
"psychophysics","295","485619","0.0-18.0-2.16","586fccd06cb8dd0001a29aec","609a8bf73b2ac84e2732f618","609d7c963cae2fc26b66a82a","985","","","","90","","","","key","16.67241379310345","683","490","","","","","","","","","","","","","","","","","","","",""
"psychophysics","296","486566","0.0-18.0-0.17","586fccd06cb8dd0001a29aec","609a8bf73b2ac84e2732f618","609d7c963cae2fc26b66a82a","null","","","","null","","","","key","16.678571428571427","683","490","","","","","","","","","","","","","","","","","","","",""
"psychophysics","297","487068","0.0-18.0-1.17","586fccd06cb8dd0001a29aec","609a8bf73b2ac84e2732f618","609d7c963cae2fc26b66a82a","null","","","","null","","","","key","16.689655172413794","683","490","","","","","","","","","","","","","142","1","4","true","","","",""
"psychophysics","298","487412","0.0-18.0-2.17","586fccd06cb8dd0001a29aec","609a8bf73b2ac84e2732f618","609d7c963cae2fc26b66a82a","342","","","","77","","","","key","16.65","683","490","","","","","","","","","","","","","","","","","","","",""
"psychophysics","299","488275","0.0-18.0-0.18","586fccd06cb8dd0001a29aec","609a8bf73b2ac84e2732f618","609d7c963cae2fc26b66a82a","null","","","","null","","","","key","16.68","683","490","","","","","","","","","","","","","","","","","","","",""
"psychophysics","300","488780","0.0-18.0-1.18","586fccd06cb8dd0001a29aec","609a8bf73b2ac84e2732f618","609d7c963cae2fc26b66a82a","null","","","","null","","","","key","16.466666666666665","683","490","","","","","","","","","","","","","142","1","0","true","","","",""
"psychophysics","301","489179","0.0-18.0-2.18","586fccd06cb8dd0001a29aec","609a8bf73b2ac84e2732f618","609d7c963cae2fc26b66a82a","395.9999999999418","","","","90","","","","key","16.681818181818183","683","490","","","","","","","","","","","","","","","","","","","",""
"psychophysics","302","489873","0.0-18.0-0.19","586fccd06cb8dd0001a29aec","609a8bf73b2ac84e2732f618","609d7c963cae2fc26b66a82a","null","","","","null","","","","key","16.536585365853657","683","490","","","","","","","","","","","","","","","","","","","",""
"psychophysics","303","490375","0.0-18.0-1.19","586fccd06cb8dd0001a29aec","609a8bf73b2ac84e2732f618","609d7c963cae2fc26b66a82a","null","","","","null","","","","key","16.655172413793103","683","490","","","","","","","","","","","","","142","-1","3","true","","","",""
"psychophysics","304","490680","0.0-18.0-2.19","586fccd06cb8dd0001a29aec","609a8bf73b2ac84e2732f618","609d7c963cae2fc26b66a82a","299","","","","90","","","","key","16.61111111111111","683","490","","","","","","","","","","","","","","","","","","","",""
"psychophysics","305","491439","0.0-18.0-0.20","586fccd06cb8dd0001a29aec","609a8bf73b2ac84e2732f618","609d7c963cae2fc26b66a82a","null","","","","null","","","","key","16.704545454545453","683","490","","","","","","","","","","","","","","","","","","","",""
"psychophysics","306","491941","0.0-18.0-1.20","586fccd06cb8dd0001a29aec","609a8bf73b2ac84e2732f618","609d7c963cae2fc26b66a82a","null","","","","null","","","","key","16.689655172413794","683","490","","","","","","","","","","","","","142","-1","4","true","","","",""
"psychophysics","307","492142","0.0-18.0-2.20","586fccd06cb8dd0001a29aec","609a8bf73b2ac84e2732f618","609d7c963cae2fc26b66a82a","194","","","","90","","","","key","16.727272727272727","683","490","","","","","","","","","","","","","","","","","","","",""
"psychophysics","308","492708","0.0-18.0-0.21","586fccd06cb8dd0001a29aec","609a8bf73b2ac84e2732f618","609d7c963cae2fc26b66a82a","null","","","","null","","","","key","16.666666666666668","683","490","","","","","","","","","","","","","","","","","","","",""
"psychophysics","309","493210","0.0-18.0-1.21","586fccd06cb8dd0001a29aec","609a8bf73b2ac84e2732f618","609d7c963cae2fc26b66a82a","null","","","","null","","","","key","16.689655172413794","683","490","","","","","","","","","","","","","142","-1","5","true","","","",""
"psychophysics","310","493593","0.0-18.0-2.21","586fccd06cb8dd0001a29aec","609a8bf73b2ac84e2732f618","609d7c963cae2fc26b66a82a","375.9999999999418","","","","77","","","","key","16.59090909090909","683","490","","","","","","","","","","","","","","","","","","","",""
"psychophysics","311","494241","0.0-18.0-0.22","586fccd06cb8dd0001a29aec","609a8bf73b2ac84e2732f618","609d7c963cae2fc26b66a82a","null","","","","null","","","","key","16.657894736842106","683","490","","","","","","","","","","","","","","","","","","","",""
"psychophysics","312","494744","0.0-18.0-1.22","586fccd06cb8dd0001a29aec","609a8bf73b2ac84e2732f618","609d7c963cae2fc26b66a82a","null","","","","null","","","","key","16.655172413793103","683","490","","","","","","","","","","","","","142","-1","0","true","","","",""
"psychophysics","313","495081","0.0-18.0-2.22","586fccd06cb8dd0001a29aec","609a8bf73b2ac84e2732f618","609d7c963cae2fc26b66a82a","331","","","","90","","","","key","16.6","683","490","","","","","","","","","","","","","","","","","","","",""
"psychophysics","314","496223","0.0-18.0-0.23","586fccd06cb8dd0001a29aec","609a8bf73b2ac84e2732f618","609d7c963cae2fc26b66a82a","null","","","","null","","","","key","16.671641791044777","683","490","","","","","","","","","","","","","","","","","","","",""
"psychophysics","315","496726","0.0-18.0-1.23","586fccd06cb8dd0001a29aec","609a8bf73b2ac84e2732f618","609d7c963cae2fc26b66a82a","null","","","","null","","","","key","16.689655172413794","683","490","","","","","","","","","","","","","142","1","3","true","","","",""
"psychophysics","316","497083","0.0-18.0-2.23","586fccd06cb8dd0001a29aec","609a8bf73b2ac84e2732f618","609d7c963cae2fc26b66a82a","354","","","","90","","","","key","16.7","683","490","","","","","","","","","","","","","","","","","","","",""
"psychophysics","317","497632","0.0-18.0-0.24","586fccd06cb8dd0001a29aec","609a8bf73b2ac84e2732f618","609d7c963cae2fc26b66a82a","null","","","","null","","","","key","16.515151515151516","683","490","","","","","","","","","","","","","","","","","","","",""
"psychophysics","318","498135","0.0-18.0-1.24","586fccd06cb8dd0001a29aec","609a8bf73b2ac84e2732f618","609d7c963cae2fc26b66a82a","null","","","","null","","","","key","16.655172413793103","683","490","","","","","","","","","","","","","142","-1","6","true","","","",""
"psychophysics","319","498781","0.0-18.0-2.24","586fccd06cb8dd0001a29aec","609a8bf73b2ac84e2732f618","609d7c963cae2fc26b66a82a","644","","","","77","","","","key","16.675675675675677","683","490","","","","","","","","","","","","","","","","","","","",""
"psychophysics","320","500082","0.0-18.0-0.25","586fccd06cb8dd0001a29aec","609a8bf73b2ac84e2732f618","609d7c963cae2fc26b66a82a","null","","","","null","","","","key","16.636363636363637","683","490","","","","","","","","","","","","","","","","","","","",""
"psychophysics","321","500585","0.0-18.0-1.25","586fccd06cb8dd0001a29aec","609a8bf73b2ac84e2732f618","609d7c963cae2fc26b66a82a","null","","","","null","","","","key","16.533333333333335","683","490","","","","","","","","","","","","","142","-1","0","true","","","",""
"psychophysics","322","501487","0.0-18.0-2.25","586fccd06cb8dd0001a29aec","609a8bf73b2ac84e2732f618","609d7c963cae2fc26b66a82a","899","","","","77","","","","key","16.673076923076923","683","490","","","","","","","","","","","","","","","","","","","",""
"psychophysics","323","502502","0.0-18.0-0.26","586fccd06cb8dd0001a29aec","609a8bf73b2ac84e2732f618","609d7c963cae2fc26b66a82a","null","","","","null","","","","key","16.557377049180328","683","490","","","","","","","","","","","","","","","","","","","",""
"psychophysics","324","503003","0.0-18.0-1.26","586fccd06cb8dd0001a29aec","609a8bf73b2ac84e2732f618","609d7c963cae2fc26b66a82a","null","","","","null","","","","key","16.655172413793103","683","490","","","","","","","","","","","","","142","-1","5","true","","","",""
"psychophysics","325","503329","0.0-18.0-2.26","586fccd06cb8dd0001a29aec","609a8bf73b2ac84e2732f618","609d7c963cae2fc26b66a82a","324","","","","77","","","","key","16.72222222222222","683","490","","","","","","","","","","","","","","","","","","","",""
"psychophysics","326","504382","0.0-18.0-0.27","586fccd06cb8dd0001a29aec","609a8bf73b2ac84e2732f618","609d7c963cae2fc26b66a82a","null","","","","null","","","","key","16.677419354838708","683","490","","","","","","","","","","","","","","","","","","","",""
"psychophysics","327","504886","0.0-18.0-1.27","586fccd06cb8dd0001a29aec","609a8bf73b2ac84e2732f618","609d7c963cae2fc26b66a82a","null","","","","null","","","","key","16.6","683","490","","","","","","","","","","","","","142","-1","2","true","","","",""
"psychophysics","328","505208","0.0-18.0-2.27","586fccd06cb8dd0001a29aec","609a8bf73b2ac84e2732f618","609d7c963cae2fc26b66a82a","320","","","","90","","","","key","16.666666666666668","683","490","","","","","","","","","","","","","","","","","","","",""
"psychophysics","329","505837","0.0-18.0-0.28","586fccd06cb8dd0001a29aec","609a8bf73b2ac84e2732f618","609d7c963cae2fc26b66a82a","null","","","","null","","","","key","16.7027027027027","683","490","","","","","","","","","","","","","","","","","","","",""
"psychophysics","330","506339","0.0-18.0-1.28","586fccd06cb8dd0001a29aec","609a8bf73b2ac84e2732f618","609d7c963cae2fc26b66a82a","null","","","","null","","","","key","16.655172413793103","683","490","","","","","","","","","","","","","142","1","5","true","","","",""
"psychophysics","331","506784","0.0-18.0-2.28","586fccd06cb8dd0001a29aec","609a8bf73b2ac84e2732f618","609d7c963cae2fc26b66a82a","442","","","","90","","","","key","16.64","683","490","","","","","","","","","","","","","","","","","","","",""
"psychophysics","332","508103","0.0-18.0-0.29","586fccd06cb8dd0001a29aec","609a8bf73b2ac84e2732f618","609d7c963cae2fc26b66a82a","null","","","","null","","","","key","16.666666666666668","683","490","","","","","","","","","","","","","","","","","","","",""
"psychophysics","333","508604","0.0-18.0-1.29","586fccd06cb8dd0001a29aec","609a8bf73b2ac84e2732f618","609d7c963cae2fc26b66a82a","null","","","","null","","","","key","16.6","683","490","","","","","","","","","","","","","142","1","2","true","","","",""
"psychophysics","334","508751","0.0-18.0-2.29","586fccd06cb8dd0001a29aec","609a8bf73b2ac84e2732f618","609d7c963cae2fc26b66a82a","144","","","","90","","","","key","16.714285714285715","683","490","","","","","","","","","","","","","","","","","","","",""
"psychophysics","335","509502","0.0-18.0-0.30","586fccd06cb8dd0001a29aec","609a8bf73b2ac84e2732f618","609d7c963cae2fc26b66a82a","null","","","","null","","","","key","16.681818181818183","683","490","","","","","","","","","","","","","","","","","","","",""
"psychophysics","336","510006","0.0-18.0-1.30","586fccd06cb8dd0001a29aec","609a8bf73b2ac84e2732f618","609d7c963cae2fc26b66a82a","null","","","","null","","","","key","16.6","683","490","","","","","","","","","","","","","142","1","6","true","","","",""
"psychophysics","337","510246","0.0-18.0-2.30","586fccd06cb8dd0001a29aec","609a8bf73b2ac84e2732f618","609d7c963cae2fc26b66a82a","237","","","","77","","","","key","16.692307692307693","683","490","","","","","","","","","","","","","","","","","","","",""
"psychophysics","338","511618","0.0-18.0-0.31","586fccd06cb8dd0001a29aec","609a8bf73b2ac84e2732f618","609d7c963cae2fc26b66a82a","null","","","","null","","","","key","16.679012345679013","683","490","","","","","","","","","","","","","","","","","","","",""
"psychophysics","339","512124","0.0-18.0-1.31","586fccd06cb8dd0001a29aec","609a8bf73b2ac84e2732f618","609d7c963cae2fc26b66a82a","null","","","","null","","","","key","16.566666666666666","683","490","","","","","","","","","","","","","142","1","0","true","","","",""
"psychophysics","340","512323","0.0-18.0-2.31","586fccd06cb8dd0001a29aec","609a8bf73b2ac84e2732f618","609d7c963cae2fc26b66a82a","196.0000000000582","","","","90","","","","key","16.7","683","490","","","","","","","","","","","","","","","","","","","",""
"psychophysics","341","513024","0.0-18.0-0.32","586fccd06cb8dd0001a29aec","609a8bf73b2ac84e2732f618","609d7c963cae2fc26b66a82a","null","","","","null","","","","key","16.595238095238095","683","490","","","","","","","","","","","","","","","","","","","",""
