"trial_type","trial_index","time_elapsed","internal_node_id","PROLIFIC_PID","STUDY_ID","SESSION_ID","rt","stimulus","button_pressed","success","key_press","responses","isData","view_history","response_type","avg_frame_time","center_x","center_y","isSC","stim_side","trial_luminance","step_size","nReversal","correct","prev_ans","isThreshold","SC_threshold","final_threshold","isLuminance","FF_luminance","luminance","stimSide","ISInt","isFF","question_order","isSPQ","isCAPS","isAQ"
"pavlovia","0","66","0.0-0.0","5f04c46bcfd81678efd229de","609a8bf73b2ac84e2732f618","609d79d0431a269afa465ee3","","","","","","","","","","","","","","","","","","","","","","","","","","","","","","","",""
"html-button-response","1","42396","0.0-1.0","5f04c46bcfd81678efd229de","609a8bf73b2ac84e2732f618","609d79d0431a269afa465ee3","42323.37999995798","<div style='background-color: white; width:60%; margin: auto; padding: 50px; text-align: justify; text-justify: inter-word; margin-bottom: 20px;'><h1 style='text-align: center;'>Consent Form</h1><p>Please read this consent form carefully before deciding whether you would like to participate in this study. You have to be 18 years old or older to participate to this study.</p><p style='text-decoration: underline;'>Participation is voluntary:</p><p>It is your choice whether or not to participate in this research. If you choose to participate, you may change your mind and leave the study at any time. Refusal to participate or stopping your participation will involve no penalty or loss of benefits to which you are otherwise entitled.</p><p style='text-decoration: underline;'>Purpose of the Study:</p><p>To understand the mechanisms underlying human perception.</p><p style='text-decoration: underline;'>What you will do in this study:</p><p>You will be presented with a series of visual images and then you will press buttons on the keyboard of your computer to respond to simple questions about the images (e.g. Were one or two images presented?). In addition, you will be asked to complete a questionnaire concerning your beliefs and everyday mental and perceptual experiences.'</p><p style='text-decoration: underline;'> Time Required:</p><p>The study will take 40 minutes to complete. </p><p style='text-decoration: underline;'>Risks:</p><p>There are no anticipated risks associated with participating in this study that are beyond those experienced in everyday life. </p><p style='text-decoration: underline;'>Benefits:</p><p>There are no benefits to you in participating in the study. However, this study may lead to a better understanding of how different kinds of visual information are used.</p><p style='text-decoration: underline;'>Compensation:</p><p>You will be paid US$6.6/hour. </p><p style='text-decoration: underline;'>Privacy and Confidentiality:</p><p>Your participation in this study will be anonymous. No personal information about your name or identity will be asked or recorded. This anonymous data will be stored for several years and may be used for a variety of research purposes. The overall results of the study may be published, or the data files may be shared with other researchers, but your identity will not be revealed in any way. The online services we are using for this study may temporarily store your data, but this data will be downloaded and then promptly deleted from those services.Your data will not be permanently associated with your name, IP address, or any other identifiable information (e.g., your information will only be connected to your payment, not to any of your responses), though they may be temporarily stored together before we download and separate them. Even so, no guarantee of internet survey security can be given because, although unlikely, transmissions can be intercepted and IP addresses can be identified. The anonymous data may be shared publicly (for example, in conjunction with a resulting academic publication).</p><p style='text-decoration: underline;'>Participation and Withdrawal:</p><p>Your participation in this study is completely voluntary. You may stop responding to the stimuli or stop answering questions if you so choose and without penalty by exiting the full screen mode, closing this tab of your browser or redirecting it to a different website.</p><p style='text-decoration: underline;'>Contact Info of the Researcher: </p><p>If you have questions about this study, or if you would like to talk to the research team, please contact David Melcher (david.melcher@nyu.edu, md5050@nyu.edu) at the Perception and Active Cognition Laboratory, New York University Abu Dhabi, Computational Research Building, Saadiyat Island, Abu Dhabi, UAE.This research has been reviewed by the New York University Abu Dhabi Institutional Review Board (NYUAD IRB). To contact about your rights in this research, for questions, suggestions, or complaints that are not addressed by the researchers, please email IRBnyuad@nyu.edu, or call the NYUAD IRB at +971 2 628 4313. </p></div>","0","","","","","","","","","","","","","","","","","","","","","","","","","","","","",""
"fullscreen","2","46114","0.0-2.0","5f04c46bcfd81678efd229de","609a8bf73b2ac84e2732f618","609d79d0431a269afa465ee3","","","","true","","","","","","","","","","","","","","","","","","","","","","","","","","","",""
"html-keyboard-response","3","74170","0.0-3.0","5f04c46bcfd81678efd229de","609a8bf73b2ac84e2732f618","609d79d0431a269afa465ee3","28053.985000005923","<p>Welcome !</p><p>READ CAREFULLY THE FOLLOWING INDICATIONS:</p><p>From this moment you have ~40 minutes to complete the experiment.</p><p>During the experiment you will be prompted to take several breaks. Each break should not last longer than 2-3 minutes.</p><p>Make sure that your computer is plugged in and it's not running on battery power, even if the battery is already fully charged.</p><p>Turn off your phone and music, make sure that you are in a quiet room and that you will not be distracted for the next hour.</p><p>Failure to comply with the instructions and indications provided during the experiment will most likely result in the rejection of your data.<p>Press the spacebar to start.</p>","","","32","","","","","","","","","","","","","","","","","","","","","","","","","","",""
"survey-html-form","4","83001","0.0-4.0","5f04c46bcfd81678efd229de","609a8bf73b2ac84e2732f618","609d79d0431a269afa465ee3","8826.935000019148","","","","","{""age"":""26"",""sex"":""F""}","true","","","","","","","","","","","","","","","","","","","","","","","","",""
"instructions","5","153238","0.0-5.0","5f04c46bcfd81678efd229de","609a8bf73b2ac84e2732f618","609d79d0431a269afa465ee3","70235.72500003502","","","","","","","[{""page_index"":0,""viewing_time"":40920.129999984056},{""page_index"":1,""viewing_time"":17009.07500006724},{""page_index"":2,""viewing_time"":12306.129999924451}]","","","","","","","","","","","","","","","","","","","","","","","",""
"psychophysics","6","154605","0.0-6.0-0.0","5f04c46bcfd81678efd229de","609a8bf73b2ac84e2732f618","609d79d0431a269afa465ee3","350.2349999034777","","","","37","","","","key","16.727691358024682","683","312.5","true","-1","180","30","0","-1","","","","","","","","","","","","","",""
"psychophysics","7","156587","0.0-6.0-0.1","5f04c46bcfd81678efd229de","609a8bf73b2ac84e2732f618","609d79d0431a269afa465ee3","963.9500000048429","","","","39","","","","key","16.710381355932302","683","312.5","true","1","180","30","0","-1","-1","","","","","","","","","","","","",""
"psychophysics","8","158321","0.0-6.0-0.2","5f04c46bcfd81678efd229de","609a8bf73b2ac84e2732f618","609d79d0431a269afa465ee3","725.124999997206","","","","39","","","","key","16.71025242718435","683","312.5","true","1","150","30","0","-1","-1","","","","","","","","","","","","",""
"psychophysics","9","159678","0.0-6.0-0.3","5f04c46bcfd81678efd229de","609a8bf73b2ac84e2732f618","609d79d0431a269afa465ee3","344.0499999560416","","","","39","","","","key","16.710562500000016","683","312.5","true","1","150","30","0","-1","-1","","","","","","","","","","","","",""
"psychophysics","10","163308","0.0-6.0-0.4","5f04c46bcfd81678efd229de","609a8bf73b2ac84e2732f618","609d79d0431a269afa465ee3","2625.0649999128655","","","","37","","","","key","16.710541666666593","683","312.5","true","-1","129","30","0","-1","-1","","","","","","","","","","","","",""
"psychophysics","11","166108","0.0-6.0-0.5","5f04c46bcfd81678efd229de","609a8bf73b2ac84e2732f618","609d79d0431a269afa465ee3","1789.7599999560043","","","","39","","","","key","16.710413173652668","683","312.5","true","-1","129","24","1","1","-1","","","","","","","","","","","","",""
"psychophysics","12","167693","0.0-6.0-0.6","5f04c46bcfd81678efd229de","609a8bf73b2ac84e2732f618","609d79d0431a269afa465ee3","571.4700000826269","","","","39","","","","key","16.71024468085113","683","312.5","true","1","153","24","1","-1","1","","","","","","","","","","","","",""
"psychophysics","13","169035","0.0-6.0-0.7","5f04c46bcfd81678efd229de","609a8bf73b2ac84e2732f618","609d79d0431a269afa465ee3","327.7649999363348","","","","37","","","","key","16.709898734177518","683","312.5","true","-1","153","19.2","2","-1","-1","","","","","","","","","","","","",""
"psychophysics","14","170505","0.0-6.0-0.8","5f04c46bcfd81678efd229de","609a8bf73b2ac84e2732f618","609d79d0431a269afa465ee3","464.3449999857694","","","","39","","","","key","16.71040229885083","683","312.5","true","1","133.8","19.2","2","-1","-1","","","","","","","","","","","","",""
"psychophysics","15","172126","0.0-6.0-0.9","5f04c46bcfd81678efd229de","609a8bf73b2ac84e2732f618","609d79d0431a269afa465ee3","611.4350000862032","","","","37","","","","key","16.710322916666883","683","312.5","true","1","133.8","15.36","3","1","-1","","","","","","","","","","","","",""
"psychophysics","16","173498","0.0-6.0-0.10","5f04c46bcfd81678efd229de","609a8bf73b2ac84e2732f618","609d79d0431a269afa465ee3","359.8500000080094","","","","37","","","","key","16.710901234568066","683","312.5","true","-1","149.16000000000003","15.36","3","-1","1","","","","","","","","","","","","",""
"psychophysics","17","174816","0.0-6.0-0.11","5f04c46bcfd81678efd229de","609a8bf73b2ac84e2732f618","609d79d0431a269afa465ee3","310.8650000067428","","","","37","","","","key","16.70961538461546","683","312.5","true","-1","149.16000000000003","12.287999999999998","4","-1","-1","","","","","","","","","","","","",""
"psychophysics","18","176148","0.0-6.0-0.12","5f04c46bcfd81678efd229de","609a8bf73b2ac84e2732f618","609d79d0431a269afa465ee3","321.544999955222","","","","37","","","","key","16.711316455696426","683","312.5","true","-1","136.872","12.287999999999998","4","-1","-1","","","","","","","","","","","","",""
"psychophysics","19","177422","0.0-6.0-0.13","5f04c46bcfd81678efd229de","609a8bf73b2ac84e2732f618","609d79d0431a269afa465ee3","264.3000000389293","","","","39","","","","key","16.709879999999732","683","312.5","true","1","136.872","12.287999999999998","4","-1","-1","","","","","","","","","","","","",""
"psychophysics","20","179133","0.0-6.0-0.14","5f04c46bcfd81678efd229de","609a8bf73b2ac84e2732f618","609d79d0431a269afa465ee3","709.5400000689551","","","","39","","","","key","16.7100099009902","683","312.5","true","-1","129","9.8304","5","1","-1","","","","","","","","","","","","",""
"psychophysics","21","180454","0.0-6.0-0.15","5f04c46bcfd81678efd229de","609a8bf73b2ac84e2732f618","609d79d0431a269afa465ee3","314.4600000232458","","","","39","","","","key","16.71075641025658","683","312.5","true","1","138.8304","9.8304","5","-1","1","","","","","","","","","","","","",""
"psychophysics","22","181740","0.0-6.0-0.16","5f04c46bcfd81678efd229de","609a8bf73b2ac84e2732f618","609d79d0431a269afa465ee3","280.6149999378249","","","","37","","","","key","16.711618421052425","683","312.5","true","-1","138.8304","7.864319999999999","6","-1","-1","","","","","","","","","","","","",""
"psychophysics","23","183107","0.0-6.0-0.17","5f04c46bcfd81678efd229de","609a8bf73b2ac84e2732f618","609d79d0431a269afa465ee3","357.50499996356666","","","","39","","","","key","16.70954320987652","683","312.5","true","-1","130.96608","6.291456","7","1","-1","","","","","","","","","","","","",""
"psychophysics","24","184365","0.0-6.0-0.18","5f04c46bcfd81678efd229de","609a8bf73b2ac84e2732f618","609d79d0431a269afa465ee3","248.5099999466911","","","","39","","","","key","16.70994594594624","683","312.5","true","1","137.25753600000002","6.291456","7","-1","1","","","","","","","","","","","","",""
"psychophysics","25","185633","0.0-6.0-0.19","5f04c46bcfd81678efd229de","609a8bf73b2ac84e2732f618","609d79d0431a269afa465ee3","260.7950000092387","","","","37","","","","key","16.71068000000009","683","312.5","true","-1","137.25753600000002","5.033164800000001","8","-1","-1","","","","","","","","","","","","",""
"psychophysics","26","186996","0.0-6.0-0.20","5f04c46bcfd81678efd229de","609a8bf73b2ac84e2732f618","609d79d0431a269afa465ee3","356.8950000917539","","","","37","","","","key","16.71017283950623","683","312.5","true","1","132.2243712","4.0265318400000005","9","1","-1","","","","","","","","","","","","",""
"psychophysics","27","188882","0.0-6.0-0.21","5f04c46bcfd81678efd229de","609a8bf73b2ac84e2732f618","609d79d0431a269afa465ee3","872.0299999695271","","","","39","","","","key","16.710214285714237","683","312.5","true","1","136.25090304","4.0265318400000005","9","-1","1","","","","","","","","","","","","",""
"psychophysics","28","190094","0.0-6.0-0.22","5f04c46bcfd81678efd229de","609a8bf73b2ac84e2732f618","609d79d0431a269afa465ee3","209.40500008873641","","","","37","","","","key","16.708732394365885","683","312.5","true","-1","136.25090304","3.2212254720000004","10","-1","-1","","","","","","","","","","","","",""
"psychophysics","29","191892","0.0-6.0-0.23","5f04c46bcfd81678efd229de","609a8bf73b2ac84e2732f618","609d79d0431a269afa465ee3","791.8950000312179","","","","39","","","","key","16.71035514018693","683","312.5","true","-1","133.029677568","2.5769803776000004","11","1","-1","","","","","","","","","","","","",""
"psychophysics","30","193243","0.0-6.0-0.24","5f04c46bcfd81678efd229de","609a8bf73b2ac84e2732f618","609d79d0431a269afa465ee3","343.80500006955117","","","","39","","","","key","16.709962500000255","683","312.5","true","1","135.6066579456","2.5769803776000004","11","-1","1","","","","","","","","","","","","",""
"psychophysics","31","194615","0.0-6.0-0.25","5f04c46bcfd81678efd229de","609a8bf73b2ac84e2732f618","609d79d0431a269afa465ee3","366.35500006377697","","","","37","","","","key","16.710135802469235","683","312.5","true","-1","135.6066579456","2.0615843020800004","12","-1","-1","","","","","","","","","","","","",""
"psychophysics","32","195973","0.0-6.0-0.26","5f04c46bcfd81678efd229de","609a8bf73b2ac84e2732f618","609d79d0431a269afa465ee3","350.4299999913201","","","","37","","","","key","16.70918750000019","683","312.5","true","1","133.54507364352","1.6492674416640005","13","1","-1","","","","","","","","","","","","",""
"psychophysics","33","197340","0.0-6.0-0.27","5f04c46bcfd81678efd229de","609a8bf73b2ac84e2732f618","609d79d0431a269afa465ee3","353.6450000246987","","","","37","","","","key","16.71017283950623","683","312.5","true","1","135.194341085184","1.6492674416640005","13","1","1","","","","","","","","","","","","",""
"psychophysics","34","198516","0.0-6.0-0.28","5f04c46bcfd81678efd229de","609a8bf73b2ac84e2732f618","609d79d0431a269afa465ee3","168.95000007934868","","","","39","","","","key","16.71017391304359","683","312.5","true","1","136.843608526848","1.6492674416640005","13","-1","1","","","","","","","","","","","","",""
"psychophysics","35","199694","0.0-6.0-0.29","5f04c46bcfd81678efd229de","609a8bf73b2ac84e2732f618","609d79d0431a269afa465ee3","173.07000001892447","","","","37","","","","key","16.709185714285454","683","312.5","true","-1","136.843608526848","1.3194139533312006","14","-1","-1","","","","","","","","","","","","",""
"psychophysics","36","200939","0.0-6.0-0.30","5f04c46bcfd81678efd229de","609a8bf73b2ac84e2732f618","609d79d0431a269afa465ee3","236.27999995369464","","","","37","","","","key","16.710493150684655","683","312.5","true","-1","135.52419457351678","1.3194139533312006","14","-1","-1","","","","","","","","","","","","",""
"psychophysics","37","201971","0.0-6.0-0.31","5f04c46bcfd81678efd229de","609a8bf73b2ac84e2732f618","609d79d0431a269afa465ee3","25.030000018887222","","","","39","","","","key","16.710245901639535","683","312.5","true","1","135.52419457351678","1.3194139533312006","14","-1","-1","","","","","","","","","","","","",""
"psychophysics","38","203040","0.0-6.0-0.32","5f04c46bcfd81678efd229de","609a8bf73b2ac84e2732f618","609d79d0431a269afa465ee3","57.92499997187406","","","","37","","","","key","16.97958064516124","683","312.5","true","-1","134.20478062018557","1.3194139533312006","14","-1","-1","","","","","","","","","","","","",""
"psychophysics","39","204363","0.0-6.0-0.33","5f04c46bcfd81678efd229de","609a8bf73b2ac84e2732f618","609d79d0431a269afa465ee3","312.18500004615635","","","","39","","","","key","16.710217948718284","683","312.5","true","1","134.20478062018557","1.3194139533312006","14","-1","-1","","","","","","","","","","","","",""
"psychophysics","40","205666","0.0-6.0-0.34","5f04c46bcfd81678efd229de","609a8bf73b2ac84e2732f618","609d79d0431a269afa465ee3","299.5649999938905","","","","37","","","","key","16.709077922078137","683","312.5","true","-1","132.88536666685437","1.3194139533312006","14","-1","-1","","","","","","","","","","","","",""
"psychophysics","41","206928","0.0-6.0-0.35","5f04c46bcfd81678efd229de","609a8bf73b2ac84e2732f618","609d79d0431a269afa465ee3","254.41999989561737","","","","39","","","","key","16.710760000000008","683","312.5","true","1","132.88536666685437","1.3194139533312006","14","-1","-1","","","","","","","","","","","","",""
"psychophysics","42","208300","0.0-6.0-0.36","5f04c46bcfd81678efd229de","609a8bf73b2ac84e2732f618","609d79d0431a269afa465ee3","356.969999964349","","","","39","","","","key","16.70960493827164","683","312.5","true","1","131.56595271352316","1.3194139533312006","14","-1","-1","","","","","","","","","","","","",""
"psychophysics","43","209744","0.0-6.0-0.37","5f04c46bcfd81678efd229de","609a8bf73b2ac84e2732f618","609d79d0431a269afa465ee3","438.94499994348735","","","","37","","","","key","16.711035294117583","683","312.5","true","-1","131.56595271352316","1.3194139533312006","14","-1","-1","","","","","","","","","","","","",""
"psychophysics","44","211204","0.0-6.0-0.38","5f04c46bcfd81678efd229de","609a8bf73b2ac84e2732f618","609d79d0431a269afa465ee3","449.20999999158084","","","","37","","","","key","16.90684705882381","683","312.5","true","1","130.24653876019195","1.0555311626649604","15","1","-1","","","","","","","","","","","","",""
"psychophysics","45","212756","0.0-6.0-0.39","5f04c46bcfd81678efd229de","609a8bf73b2ac84e2732f618","609d79d0431a269afa465ee3","539.3700000131503","","","","37","","","","key","16.711489130434728","683","312.5","true","-1","131.3020699228569","1.0555311626649604","15","-1","1","","","","","","","","","","","","",""
"html-keyboard-response","46","227725","0.0-7.0","5f04c46bcfd81678efd229de","609a8bf73b2ac84e2732f618","609d79d0431a269afa465ee3","14965.489999973215","<p>Well Done !</p><p>Prepare for a new block.</p><p>DON'T EXIT THE FULL SCREEN MODE</p><p>Press the Spacebar to start.</p>","","","32","","","","","","","","","","","","","","","true","133.86283250394723","","","","","","","","","","",""
"psychophysics","47","228824","0.0-8.0-0.0","5f04c46bcfd81678efd229de","609a8bf73b2ac84e2732f618","609d79d0431a269afa465ee3","89.50499992351979","","","","39","","","","key","16.791676923076963","683","312.5","true","1","180","30","0","-1","","","","","","","","","","","","","",""
"psychophysics","48","231362","0.0-8.0-0.1","5f04c46bcfd81678efd229de","609a8bf73b2ac84e2732f618","609d79d0431a269afa465ee3","1532.7050000196323","","","","39","","","","key","16.710423841059637","683","312.5","true","1","180","30","0","-1","-1","","","","","","","","","","","","",""
"psychophysics","49","232714","0.0-8.0-0.2","5f04c46bcfd81678efd229de","609a8bf73b2ac84e2732f618","609d79d0431a269afa465ee3","347.08500001579523","","","","39","","","","key","16.7109375","683","312.5","true","1","150","30","0","-1","-1","","","","","","","","","","","","",""
"psychophysics","50","234023","0.0-8.0-0.3","5f04c46bcfd81678efd229de","609a8bf73b2ac84e2732f618","609d79d0431a269afa465ee3","304.2099999729544","","","","37","","","","key","16.711155844155726","683","312.5","true","-1","150","30","0","-1","-1","","","","","","","","","","","","",""
"psychophysics","51","237178","0.0-8.0-0.4","5f04c46bcfd81678efd229de","609a8bf73b2ac84e2732f618","609d79d0431a269afa465ee3","2150.885000010021","","","","37","","","","key","16.710632978723492","683","312.5","true","1","129","24","1","1","-1","","","","","","","","","","","","",""
"psychophysics","52","238465","0.0-8.0-0.5","5f04c46bcfd81678efd229de","609a8bf73b2ac84e2732f618","609d79d0431a269afa465ee3","282.3999999091029","","","","37","","","","key","16.710999999999906","683","312.5","true","-1","153","24","1","-1","1","","","","","","","","","","","","",""
"psychophysics","53","239686","0.0-8.0-0.6","5f04c46bcfd81678efd229de","609a8bf73b2ac84e2732f618","609d79d0431a269afa465ee3","217.1400000806898","","","","37","","","","key","16.709513888888775","683","312.5","true","-1","153","19.2","2","-1","-1","","","","","","","","","","","","",""
"psychophysics","54","240960","0.0-8.0-0.7","5f04c46bcfd81678efd229de","609a8bf73b2ac84e2732f618","609d79d0431a269afa465ee3","270.0450000120327","","","","39","","","","key","16.710439999999945","683","312.5","true","1","133.8","19.2","2","-1","-1","","","","","","","","","","","","",""
"psychophysics","55","242276","0.0-8.0-0.8","5f04c46bcfd81678efd229de","609a8bf73b2ac84e2732f618","609d79d0431a269afa465ee3","311.0249999444932","","","","39","","","","key","16.709948717948954","683","312.5","true","1","133.8","19.2","2","-1","-1","","","","","","","","","","","","",""
"psychophysics","56","244036","0.0-8.0-0.9","5f04c46bcfd81678efd229de","609a8bf73b2ac84e2732f618","609d79d0431a269afa465ee3","755.5249999277294","","","","37","","","","key","16.710557692307564","683","312.5","true","1","129","15.36","3","1","-1","","","","","","","","","","","","",""
"psychophysics","57","245306","0.0-8.0-0.10","5f04c46bcfd81678efd229de","609a8bf73b2ac84e2732f618","609d79d0431a269afa465ee3","262.23999995272607","","","","37","","","","key","16.709453333333368","683","312.5","true","-1","144.36","15.36","3","-1","1","","","","","","","","","","","","",""
"psychophysics","58","246470","0.0-8.0-0.11","5f04c46bcfd81678efd229de","609a8bf73b2ac84e2732f618","609d79d0431a269afa465ee3","161.63500002585351","","","","39","","","","key","16.711478260869626","683","312.5","true","1","144.36","12.287999999999998","4","-1","-1","","","","","","","","","","","","",""
"psychophysics","59","247778","0.0-8.0-0.12","5f04c46bcfd81678efd229de","609a8bf73b2ac84e2732f618","609d79d0431a269afa465ee3","303.82999998982996","","","","39","","","","key","16.711103896103957","683","312.5","true","-1","132.072","9.8304","5","1","-1","","","","","","","","","","","","",""
"psychophysics","60","248907","0.0-8.0-0.13","5f04c46bcfd81678efd229de","609a8bf73b2ac84e2732f618","609d79d0431a269afa465ee3","119.57500001881272","","","","39","","","","key","16.710641791044957","683","312.5","true","1","141.9024","9.8304","5","-1","1","","","","","","","","","","","","",""
"psychophysics","61","250024","0.0-8.0-0.14","5f04c46bcfd81678efd229de","609a8bf73b2ac84e2732f618","609d79d0431a269afa465ee3","112.8000000026077","","","","37","","","","key","16.710515151515153","683","312.5","true","-1","141.9024","7.864319999999999","6","-1","-1","","","","","","","","","","","","",""
"psychophysics","62","251183","0.0-8.0-0.15","5f04c46bcfd81678efd229de","609a8bf73b2ac84e2732f618","609d79d0431a269afa465ee3","153.14000006765127","","","","37","","","","key","16.710014705882177","683","312.5","true","-1","134.03808","7.864319999999999","6","-1","-1","","","","","","","","","","","","",""
"psychophysics","63","252365","0.0-8.0-0.16","5f04c46bcfd81678efd229de","609a8bf73b2ac84e2732f618","609d79d0431a269afa465ee3","173.53999998886138","","","","37","","","","key","16.71072857142842","683","312.5","true","-1","134.03808","7.864319999999999","6","-1","-1","","","","","","","","","","","","",""
"psychophysics","64","253733","0.0-8.0-0.17","5f04c46bcfd81678efd229de","609a8bf73b2ac84e2732f618","609d79d0431a269afa465ee3","362.6099999528378","","","","37","","","","key","16.70920987654352","683","312.5","true","1","129","6.291456","7","1","-1","","","","","","","","","","","","",""
"psychophysics","65","254877","0.0-8.0-0.18","5f04c46bcfd81678efd229de","609a8bf73b2ac84e2732f618","609d79d0431a269afa465ee3","139.54000000376254","","","","39","","","","key","16.71046268656709","683","312.5","true","1","135.291456","6.291456","7","-1","1","","","","","","","","","","","","",""
"psychophysics","66","256073","0.0-8.0-0.19","5f04c46bcfd81678efd229de","609a8bf73b2ac84e2732f618","609d79d0431a269afa465ee3","190.56999997701496","","","","39","","","","key","16.71001408450694","683","312.5","true","1","135.291456","5.033164800000001","8","-1","-1","","","","","","","","","","","","",""
"psychophysics","67","257382","0.0-8.0-0.20","5f04c46bcfd81678efd229de","609a8bf73b2ac84e2732f618","609d79d0431a269afa465ee3","302.2999999811873","","","","39","","","","key","16.710012987013013","683","312.5","true","-1","130.2582912","4.0265318400000005","9","1","-1","","","","","","","","","","","","",""
"psychophysics","68","258672","0.0-8.0-0.21","5f04c46bcfd81678efd229de","609a8bf73b2ac84e2732f618","609d79d0431a269afa465ee3","285.3699999395758","","","","37","","","","key","16.71010526315781","683","312.5","true","1","134.28482304","4.0265318400000005","9","1","1","","","","","","","","","","","","",""
"psychophysics","69","259868","0.0-8.0-0.22","5f04c46bcfd81678efd229de","609a8bf73b2ac84e2732f618","609d79d0431a269afa465ee3","191.73999992199242","","","","37","","","","key","16.709056338028077","683","312.5","true","-1","138.31135487999998","4.0265318400000005","9","-1","1","","","","","","","","","","","","",""
"psychophysics","70","261045","0.0-8.0-0.23","5f04c46bcfd81678efd229de","609a8bf73b2ac84e2732f618","609d79d0431a269afa465ee3","172.86000004969537","","","","37","","","","key","16.710449275362432","683","312.5","true","-1","138.31135487999998","3.2212254720000004","10","-1","-1","","","","","","","","","","","","",""
"psychophysics","71","262157","0.0-8.0-0.24","5f04c46bcfd81678efd229de","609a8bf73b2ac84e2732f618","609d79d0431a269afa465ee3","105.84999993443489","","","","37","","","","key","16.7107424242422","683","312.5","true","-1","135.090129408","3.2212254720000004","10","-1","-1","","","","","","","","","","","","",""
"psychophysics","72","263426","0.0-8.0-0.25","5f04c46bcfd81678efd229de","609a8bf73b2ac84e2732f618","609d79d0431a269afa465ee3","262.4100000830367","","","","37","","","","key","16.710466666667102","683","312.5","true","1","135.090129408","2.5769803776000004","11","1","-1","","","","","","","","","","","","",""
"psychophysics","73","264543","0.0-8.0-0.26","5f04c46bcfd81678efd229de","609a8bf73b2ac84e2732f618","609d79d0431a269afa465ee3","105.81500001717359","","","","37","","","","key","16.71113846153827","683","312.5","true","-1","137.6671097856","2.5769803776000004","11","-1","1","","","","","","","","","","","","",""
"psychophysics","74","265688","0.0-8.0-0.27","5f04c46bcfd81678efd229de","609a8bf73b2ac84e2732f618","609d79d0431a269afa465ee3","140.32500004395843","","","","37","","","","key","16.70873529411705","683","312.5","true","-1","137.6671097856","2.0615843020800004","12","-1","-1","","","","","","","","","","","","",""
"psychophysics","75","268079","0.0-8.0-0.28","5f04c46bcfd81678efd229de","609a8bf73b2ac84e2732f618","609d79d0431a269afa465ee3","1388.5400000726804","","","","39","","","","key","16.710704225351996","683","312.5","true","1","135.60552548351998","2.0615843020800004","12","-1","-1","","","","","","","","","","","","",""
"psychophysics","76","269186","0.0-8.0-0.29","5f04c46bcfd81678efd229de","609a8bf73b2ac84e2732f618","609d79d0431a269afa465ee3","100.77999997884035","","","","37","","","","key","16.710153846153453","683","312.5","true","-1","135.60552548351998","2.0615843020800004","12","-1","-1","","","","","","","","","","","","",""
"psychophysics","77","270270","0.0-8.0-0.30","5f04c46bcfd81678efd229de","609a8bf73b2ac84e2732f618","609d79d0431a269afa465ee3","80.59500006493181","","","","37","","","","key","16.710859374999927","683","312.5","true","-1","133.54394118143998","2.0615843020800004","12","-1","-1","","","","","","","","","","","","",""
"psychophysics","78","271358","0.0-8.0-0.31","5f04c46bcfd81678efd229de","609a8bf73b2ac84e2732f618","609d79d0431a269afa465ee3","81.30999992135912","","","","37","","","","key","16.709765624999818","683","312.5","true","-1","133.54394118143998","2.0615843020800004","12","-1","-1","","","","","","","","","","","","",""
"psychophysics","79","273018","0.0-8.0-0.32","5f04c46bcfd81678efd229de","609a8bf73b2ac84e2732f618","609d79d0431a269afa465ee3","651.3399999821559","","","","37","","","","key","16.88026530612248","683","312.5","true","1","131.48235687935997","1.6492674416640005","13","1","-1","","","","","","","","","","","","",""
"psychophysics","80","274197","0.0-8.0-0.33","5f04c46bcfd81678efd229de","609a8bf73b2ac84e2732f618","609d79d0431a269afa465ee3","165.00500007532537","","","","37","","","","key","16.71081159420335","683","312.5","true","-1","133.13162432102396","1.6492674416640005","13","-1","1","","","","","","","","","","","","",""
"psychophysics","81","275830","0.0-8.0-0.34","5f04c46bcfd81678efd229de","609a8bf73b2ac84e2732f618","609d79d0431a269afa465ee3","624.26999991294","","","","37","","","","key","16.710340206185474","683","312.5","true","1","133.13162432102396","1.3194139533312006","14","1","-1","","","","","","","","","","","","",""
"psychophysics","82","277013","0.0-8.0-0.35","5f04c46bcfd81678efd229de","609a8bf73b2ac84e2732f618","609d79d0431a269afa465ee3","172.56500001531094","","","","37","","","","key","16.70958571428616","683","312.5","true","-1","134.45103827435517","1.3194139533312006","14","-1","1","","","","","","","","","","","","",""
"psychophysics","83","278056","0.0-8.0-0.36","5f04c46bcfd81678efd229de","609a8bf73b2ac84e2732f618","609d79d0431a269afa465ee3","30.43499996419996","","","","37","","","","key","16.71106557377049","683","312.5","true","-1","134.45103827435517","1.0555311626649604","15","-1","-1","","","","","","","","","","","","",""
"psychophysics","84","279551","0.0-8.0-0.37","5f04c46bcfd81678efd229de","609a8bf73b2ac84e2732f618","609d79d0431a269afa465ee3","487.1699999785051","","","","37","","","","key","16.710000000000026","683","312.5","true","1","133.39550711169022","1","16","1","-1","","","","","","","","","","","","",""
"psychophysics","85","281534","0.0-8.0-0.38","5f04c46bcfd81678efd229de","609a8bf73b2ac84e2732f618","609d79d0431a269afa465ee3","967.0799999730662","","","","39","","","","key","16.710034188034378","683","312.5","true","1","134.39550711169022","1","16","-1","1","","","","","","","","","","","","",""
"psychophysics","86","282936","0.0-8.0-0.39","5f04c46bcfd81678efd229de","609a8bf73b2ac84e2732f618","609d79d0431a269afa465ee3","396.915000048466","","","","39","","","","key","16.709710843373703","683","312.5","true","1","134.39550711169022","1","17","-1","-1","","","","","","","","","","","","",""
"html-keyboard-response","87","290716","0.0-9.0","5f04c46bcfd81678efd229de","609a8bf73b2ac84e2732f618","609d79d0431a269afa465ee3","7773.565000039525","<p>Well Done !</p><p>Prepare for a new block.</p><p>DON'T EXIT THE FULL SCREEN MODE</p><p>Press the Spacebar to start.</p>","","","32","","","","","","","","","","","","","","","true","134.50383238095392","","","","","","","","","","",""
"psychophysics","88","292871","0.0-10.0-0.0","5f04c46bcfd81678efd229de","609a8bf73b2ac84e2732f618","609d79d0431a269afa465ee3","1141.755000106059","","","","37","","","","key","16.736751937984252","683","312.5","true","-1","180","30","0","-1","","","","","","","","","","","","","",""
"psychophysics","89","294007","0.0-10.0-0.1","5f04c46bcfd81678efd229de","609a8bf73b2ac84e2732f618","609d79d0431a269afa465ee3","130.25499996729195","","","","39","","","","key","16.710208955223486","683","312.5","true","1","180","30","0","-1","-1","","","","","","","","","","","","",""
"psychophysics","90","295053","0.0-10.0-0.2","5f04c46bcfd81678efd229de","609a8bf73b2ac84e2732f618","609d79d0431a269afa465ee3","36.884999950416386","","","","37","","","","key","16.708590163934222","683","312.5","true","-1","150","30","0","-1","-1","","","","","","","","","","","","",""
"psychophysics","91","297072","0.0-10.0-0.3","5f04c46bcfd81678efd229de","609a8bf73b2ac84e2732f618","609d79d0431a269afa465ee3","1010.3050000034273","","","","39","","","","key","16.710508333333323","683","312.5","true","1","150","30","0","-1","-1","","","","","","","","","","","","",""
"psychophysics","92","298406","0.0-10.0-0.4","5f04c46bcfd81678efd229de","609a8bf73b2ac84e2732f618","609d79d0431a269afa465ee3","328.07000004686415","","","","39","","","","key","16.710468354430844","683","312.5","true","1","129","30","0","-1","-1","","","","","","","","","","","","",""
"psychophysics","93","299791","0.0-10.0-0.5","5f04c46bcfd81678efd229de","609a8bf73b2ac84e2732f618","609d79d0431a269afa465ee3","379.6550000552088","","","","37","","","","key","16.710060975610183","683","312.5","true","-1","129","30","0","-1","-1","","","","","","","","","","","","",""
"psychophysics","94","301569","0.0-10.0-0.6","5f04c46bcfd81678efd229de","609a8bf73b2ac84e2732f618","609d79d0431a269afa465ee3","767.7799999946728","","","","37","","","","key","16.70948571428612","683","312.5","true","-1","129","30","0","-1","-1","","","","","","","","","","","","",""
"psychophysics","95","302962","0.0-10.0-0.7","5f04c46bcfd81678efd229de","609a8bf73b2ac84e2732f618","609d79d0431a269afa465ee3","372.0200000097975","","","","37","","","","key","16.71243373494026","683","312.5","true","1","129","24","1","1","-1","","","","","","","","","","","","",""
"psychophysics","96","304035","0.0-10.0-0.8","5f04c46bcfd81678efd229de","609a8bf73b2ac84e2732f618","609d79d0431a269afa465ee3","58.68000001646578","","","","39","","","","key","16.710206349206615","683","312.5","true","1","153","24","1","-1","1","","","","","","","","","","","","",""
"psychophysics","97","305073","0.0-10.0-0.9","5f04c46bcfd81678efd229de","609a8bf73b2ac84e2732f618","609d79d0431a269afa465ee3","27.725000050850213","","","","39","","","","key","16.710967213114852","683","312.5","true","1","153","19.2","2","-1","-1","","","","","","","","","","","","",""
"psychophysics","98","306482","0.0-10.0-0.10","5f04c46bcfd81678efd229de","609a8bf73b2ac84e2732f618","609d79d0431a269afa465ee3","398.32500007469207","","","","39","","","","key","16.710469879517866","683","312.5","true","-1","133.8","15.36","3","1","-1","","","","","","","","","","","","",""
"psychophysics","99","307711","0.0-10.0-0.11","5f04c46bcfd81678efd229de","609a8bf73b2ac84e2732f618","609d79d0431a269afa465ee3","221.29000001586974","","","","39","","","","key","16.71161643835582","683","312.5","true","1","149.16000000000003","15.36","3","-1","1","","","","","","","","","","","","",""
"psychophysics","100","308869","0.0-10.0-0.12","5f04c46bcfd81678efd229de","609a8bf73b2ac84e2732f618","609d79d0431a269afa465ee3","145.1399999205023","","","","37","","","","key","16.71050000000019","683","312.5","true","-1","149.16000000000003","12.287999999999998","4","-1","-1","","","","","","","","","","","","",""
"psychophysics","101","310048","0.0-10.0-0.13","5f04c46bcfd81678efd229de","609a8bf73b2ac84e2732f618","609d79d0431a269afa465ee3","168.1150000076741","","","","37","","","","key","16.70964285714269","683","312.5","true","-1","136.872","12.287999999999998","4","-1","-1","","","","","","","","","","","","",""
"psychophysics","102","311292","0.0-10.0-0.14","5f04c46bcfd81678efd229de","609a8bf73b2ac84e2732f618","609d79d0431a269afa465ee3","229.08999992068857","","","","37","","","","key","16.709849315067938","683","312.5","true","-1","136.872","12.287999999999998","4","-1","-1","","","","","","","","","","","","",""
"psychophysics","103","312687","0.0-10.0-0.15","5f04c46bcfd81678efd229de","609a8bf73b2ac84e2732f618","609d79d0431a269afa465ee3","387.2850000625476","","","","39","","","","key","16.710228915662217","683","312.5","true","1","129","12.287999999999998","4","-1","-1","","","","","","","","","","","","",""
"psychophysics","104","314091","0.0-10.0-0.16","5f04c46bcfd81678efd229de","609a8bf73b2ac84e2732f618","609d79d0431a269afa465ee3","392.214999999851","","","","39","","","","key","16.710409638553955","683","312.5","true","1","129","12.287999999999998","4","-1","-1","","","","","","","","","","","","",""
"psychophysics","105","315774","0.0-10.0-0.17","5f04c46bcfd81678efd229de","609a8bf73b2ac84e2732f618","609d79d0431a269afa465ee3","664.3450000556186","","","","39","","","","key","16.709404040403744","683","312.5","true","-1","129","9.8304","5","1","-1","","","","","","","","","","","","",""
"psychophysics","106","316946","0.0-10.0-0.18","5f04c46bcfd81678efd229de","609a8bf73b2ac84e2732f618","609d79d0431a269afa465ee3","147.3999998997897","","","","37","","","","key","16.70892753623227","683","312.5","true","-1","138.8304","9.8304","5","-1","1","","","","","","","","","","","","",""
"psychophysics","107","318052","0.0-10.0-0.19","5f04c46bcfd81678efd229de","609a8bf73b2ac84e2732f618","609d79d0431a269afa465ee3","85.75500000733882","","","","39","","","","key","16.709272727272367","683","312.5","true","1","138.8304","7.864319999999999","6","-1","-1","","","","","","","","","","","","",""
"psychophysics","108","319328","0.0-10.0-0.20","5f04c46bcfd81678efd229de","609a8bf73b2ac84e2732f618","609d79d0431a269afa465ee3","260.6499999528751","","","","39","","","","key","16.710653333333322","683","312.5","true","1","130.96608","7.864319999999999","6","-1","-1","","","","","","","","","","","","",""
"psychophysics","109","320614","0.0-10.0-0.21","5f04c46bcfd81678efd229de","609a8bf73b2ac84e2732f618","609d79d0431a269afa465ee3","277.5149999652058","","","","37","","","","key","16.709105263158563","683","312.5","true","-1","130.96608","7.864319999999999","6","-1","-1","","","","","","","","","","","","",""
"psychophysics","110","321981","0.0-10.0-0.22","5f04c46bcfd81678efd229de","609a8bf73b2ac84e2732f618","609d79d0431a269afa465ee3","357.39500005729496","","","","37","","","","key","16.70962962963012","683","312.5","true","-1","129","7.864319999999999","6","-1","-1","","","","","","","","","","","","",""
"psychophysics","111","323367","0.0-10.0-0.23","5f04c46bcfd81678efd229de","609a8bf73b2ac84e2732f618","609d79d0431a269afa465ee3","381.04999996721745","","","","37","","","","key","16.7102926829269","683","312.5","true","-1","129","7.864319999999999","6","-1","-1","","","","","","","","","","","","",""
"psychophysics","112","325223","0.0-10.0-0.24","5f04c46bcfd81678efd229de","609a8bf73b2ac84e2732f618","609d79d0431a269afa465ee3","842.9299999261275","","","","39","","","","key","16.710400000000266","683","312.5","true","-1","129","6.291456","7","1","-1","","","","","","","","","","","","",""
"psychophysics","113","326399","0.0-10.0-0.25","5f04c46bcfd81678efd229de","609a8bf73b2ac84e2732f618","609d79d0431a269afa465ee3","166.34500003419816","","","","37","","","","key","16.71027536231913","683","312.5","true","-1","135.291456","6.291456","7","-1","1","","","","","","","","","","","","",""
"psychophysics","114","327579","0.0-10.0-0.26","5f04c46bcfd81678efd229de","609a8bf73b2ac84e2732f618","609d79d0431a269afa465ee3","174.3949999799952","","","","39","","","","key","16.709900000000406","683","312.5","true","1","135.291456","5.033164800000001","8","-1","-1","","","","","","","","","","","","",""
"psychophysics","115","329001","0.0-10.0-0.27","5f04c46bcfd81678efd229de","609a8bf73b2ac84e2732f618","609d79d0431a269afa465ee3","409.50499998871237","","","","39","","","","key","16.71046428571433","683","312.5","true","1","130.2582912","5.033164800000001","8","-1","-1","","","","","","","","","","","","",""
"psychophysics","116","330756","0.0-10.0-0.28","5f04c46bcfd81678efd229de","609a8bf73b2ac84e2732f618","609d79d0431a269afa465ee3","742.8450000006706","","","","39","","","","key","16.71055769230812","683","312.5","true","1","130.2582912","5.033164800000001","8","-1","-1","","","","","","","","","","","","",""
"psychophysics","117","332376","0.0-10.0-0.29","5f04c46bcfd81678efd229de","609a8bf73b2ac84e2732f618","609d79d0431a269afa465ee3","609.085000003688","","","","37","","","","key","16.710031250000004","683","312.5","true","1","129","4.0265318400000005","9","1","-1","","","","","","","","","","","","",""
"psychophysics","118","334203","0.0-10.0-0.30","5f04c46bcfd81678efd229de","609a8bf73b2ac84e2732f618","609d79d0431a269afa465ee3","816.4150000084192","","","","37","","","","key","16.710148148148114","683","312.5","true","-1","133.02653184","4.0265318400000005","9","-1","1","","","","","","","","","","","","",""
"psychophysics","119","335590","0.0-10.0-0.31","5f04c46bcfd81678efd229de","609a8bf73b2ac84e2732f618","609d79d0431a269afa465ee3","381.5900000045076","","","","39","","","","key","16.71043902439088","683","312.5","true","1","133.02653184","3.2212254720000004","10","-1","-1","","","","","","","","","","","","",""
"psychophysics","120","337266","0.0-10.0-0.32","5f04c46bcfd81678efd229de","609a8bf73b2ac84e2732f618","609d79d0431a269afa465ee3","670.9099999861792","","","","39","","","","key","16.880744897959428","683","312.5","true","-1","129.805306368","2.5769803776000004","11","1","-1","","","","","","","","","","","","",""
"psychophysics","121","339108","0.0-10.0-0.33","5f04c46bcfd81678efd229de","609a8bf73b2ac84e2732f618","609d79d0431a269afa465ee3","830.5549999931827","","","","39","","","","key","16.71046363636375","683","312.5","true","-1","132.3822867456","2.5769803776000004","11","1","1","","","","","","","","","","","","",""
"psychophysics","122","340958","0.0-10.0-0.34","5f04c46bcfd81678efd229de","609a8bf73b2ac84e2732f618","609d79d0431a269afa465ee3","842.3150000162423","","","","37","","","","key","16.710000000000317","683","312.5","true","1","134.9592671232","2.5769803776000004","11","1","1","","","","","","","","","","","","",""
"psychophysics","123","342669","0.0-10.0-0.35","5f04c46bcfd81678efd229de","609a8bf73b2ac84e2732f618","609d79d0431a269afa465ee3","698.16000002902","","","","37","","","","key","16.709554455445335","683","312.5","true","-1","137.5362475008","2.5769803776000004","11","-1","1","","","","","","","","","","","","",""
"psychophysics","124","343975","0.0-10.0-0.36","5f04c46bcfd81678efd229de","609a8bf73b2ac84e2732f618","609d79d0431a269afa465ee3","293.39500004425645","","","","37","","","","key","16.71012987012978","683","312.5","true","-1","137.5362475008","2.0615843020800004","12","-1","-1","","","","","","","","","","","","",""
"psychophysics","125","345264","0.0-10.0-0.37","5f04c46bcfd81678efd229de","609a8bf73b2ac84e2732f618","609d79d0431a269afa465ee3","279.21000006608665","","","","39","","","","key","16.93299999999969","683","312.5","true","1","135.47466319871998","2.0615843020800004","12","-1","-1","","","","","","","","","","","","",""
"psychophysics","126","346533","0.0-10.0-0.38","5f04c46bcfd81678efd229de","609a8bf73b2ac84e2732f618","609d79d0431a269afa465ee3","261.76999998278916","","","","39","","","","key","16.710426666666752","683","312.5","true","1","135.47466319871998","2.0615843020800004","12","-1","-1","","","","","","","","","","","","",""
"psychophysics","127","348466","0.0-10.0-0.39","5f04c46bcfd81678efd229de","609a8bf73b2ac84e2732f618","609d79d0431a269afa465ee3","923.685000045225","","","","39","","","","key","16.71042608695621","683","312.5","true","1","133.41307889663997","2.0615843020800004","12","-1","-1","","","","","","","","","","","","",""
"html-keyboard-response","128","359405","0.0-11.0","5f04c46bcfd81678efd229de","609a8bf73b2ac84e2732f618","609d79d0431a269afa465ee3","10937.400000053458","<p>Well Done !</p><p>Prepare for a new block.</p><p>DON'T EXIT THE FULL SCREEN MODE</p><p>Press the Spacebar to start.</p>","","","32","","","","","","","","","","","","","","","true","133.515621240832","","","","","","","","","","",""
"psychophysics","129","361284","0.0-12.0-0.0","5f04c46bcfd81678efd229de","609a8bf73b2ac84e2732f618","609d79d0431a269afa465ee3","873.7249999539927","","","","37","","","","key","16.664061946902564","683","312.5","true","-1","180","30","0","-1","","","","","","","","","","","","","",""
"psychophysics","130","362486","0.0-12.0-0.1","5f04c46bcfd81678efd229de","609a8bf73b2ac84e2732f618","609d79d0431a269afa465ee3","187.7849999582395","","","","37","","","","key","16.71095774647891","683","312.5","true","-1","180","30","0","-1","-1","","","","","","","","","","","","",""
"psychophysics","131","363759","0.0-12.0-0.2","5f04c46bcfd81678efd229de","609a8bf73b2ac84e2732f618","609d79d0431a269afa465ee3","260.2650000480935","","","","39","","","","key","16.710373333333216","683","312.5","true","1","150","30","0","-1","-1","","","","","","","","","","","","",""
"psychophysics","132","364981","0.0-12.0-0.3","5f04c46bcfd81678efd229de","609a8bf73b2ac84e2732f618","609d79d0431a269afa465ee3","212.7549999859184","","","","39","","","","key","16.94595774647888","683","312.5","true","1","150","30","0","-1","-1","","","","","","","","","","","","",""
"psychophysics","133","366341","0.0-12.0-0.4","5f04c46bcfd81678efd229de","609a8bf73b2ac84e2732f618","609d79d0431a269afa465ee3","351.69000003952533","","","","39","","","","key","16.709662500000558","683","312.5","true","1","129","30","0","-1","-1","","","","","","","","","","","","",""
"psychophysics","134","367719","0.0-12.0-0.5","5f04c46bcfd81678efd229de","609a8bf73b2ac84e2732f618","609d79d0431a269afa465ee3","372.39999999292195","","","","39","","","","key","16.70912195121935","683","312.5","true","1","129","30","0","-1","-1","","","","","","","","","","","","",""
"psychophysics","135","369173","0.0-12.0-0.6","5f04c46bcfd81678efd229de","609a8bf73b2ac84e2732f618","609d79d0431a269afa465ee3","443.59999999869615","","","","39","","","","key","16.709825581395158","683","312.5","true","-1","129","24","1","1","-1","","","","","","","","","","","","",""
"psychophysics","136","370494","0.0-12.0-0.7","5f04c46bcfd81678efd229de","609a8bf73b2ac84e2732f618","609d79d0431a269afa465ee3","317.99500004854053","","","","39","","","","key","16.710589743589455","683","312.5","true","1","153","24","1","-1","1","","","","","","","","","","","","",""
"psychophysics","137","371735","0.0-12.0-0.8","5f04c46bcfd81678efd229de","609a8bf73b2ac84e2732f618","609d79d0431a269afa465ee3","232.36000002361834","","","","39","","","","key","16.711082191781415","683","312.5","true","1","153","19.2","2","-1","-1","","","","","","","","","","","","",""
"psychophysics","138","372998","0.0-12.0-0.9","5f04c46bcfd81678efd229de","609a8bf73b2ac84e2732f618","609d79d0431a269afa465ee3","257.48000002931803","","","","39","","","","key","16.71062666666694","683","312.5","true","1","133.8","19.2","2","-1","-1","","","","","","","","","","","","",""
"psychophysics","139","374307","0.0-12.0-0.10","5f04c46bcfd81678efd229de","609a8bf73b2ac84e2732f618","609d79d0431a269afa465ee3","295.8550000330433","","","","39","","","","key","16.709519480519123","683","312.5","true","1","133.8","19.2","2","-1","-1","","","","","","","","","","","","",""
"psychophysics","140","375742","0.0-12.0-0.11","5f04c46bcfd81678efd229de","609a8bf73b2ac84e2732f618","609d79d0431a269afa465ee3","431.0500000137836","","","","37","","","","key","16.9081309523809","683","312.5","true","-1","129","19.2","2","-1","-1","","","","","","","","","","","","",""
"psychophysics","141","377332","0.0-12.0-0.12","5f04c46bcfd81678efd229de","609a8bf73b2ac84e2732f618","609d79d0431a269afa465ee3","586.890000035055","","","","37","","","","key","16.710691489362247","683","312.5","true","1","129","15.36","3","1","-1","","","","","","","","","","","","",""
"psychophysics","142","378635","0.0-12.0-0.13","5f04c46bcfd81678efd229de","609a8bf73b2ac84e2732f618","609d79d0431a269afa465ee3","295.46499997377396","","","","37","","","","key","16.710064935064786","683","312.5","true","-1","144.36","15.36","3","-1","1","","","","","","","","","","","","",""
"psychophysics","143","379885","0.0-12.0-0.14","5f04c46bcfd81678efd229de","609a8bf73b2ac84e2732f618","609d79d0431a269afa465ee3","244.96999999973923","","","","37","","","","key","16.710081081080716","683","312.5","true","-1","144.36","12.287999999999998","4","-1","-1","","","","","","","","","","","","",""
"psychophysics","144","381719","0.0-12.0-0.15","5f04c46bcfd81678efd229de","609a8bf73b2ac84e2732f618","609d79d0431a269afa465ee3","828.1349999597296","","","","37","","","","key","16.710211009174316","683","312.5","true","1","132.072","9.8304","5","1","-1","","","","","","","","","","","","",""
"psychophysics","145","383056","0.0-12.0-0.16","5f04c46bcfd81678efd229de","609a8bf73b2ac84e2732f618","609d79d0431a269afa465ee3","324.87999997101724","","","","37","","","","key","16.710012658228038","683","312.5","true","-1","141.9024","9.8304","5","-1","1","","","","","","","","","","","","",""
"psychophysics","146","384311","0.0-12.0-0.17","5f04c46bcfd81678efd229de","609a8bf73b2ac84e2732f618","609d79d0431a269afa465ee3","249.01500006671995","","","","39","","","","key","16.710378378378763","683","312.5","true","1","141.9024","7.864319999999999","6","-1","-1","","","","","","","","","","","","",""
"psychophysics","147","386112","0.0-12.0-0.18","5f04c46bcfd81678efd229de","609a8bf73b2ac84e2732f618","609d79d0431a269afa465ee3","794.980000006035","","","","39","","","","key","16.71017757009347","683","312.5","true","1","134.03808","7.864319999999999","6","-1","-1","","","","","","","","","","","","",""
"psychophysics","148","387449","0.0-12.0-0.19","5f04c46bcfd81678efd229de","609a8bf73b2ac84e2732f618","609d79d0431a269afa465ee3","332.7300000237301","","","","37","","","","key","16.710253164556786","683","312.5","true","-1","134.03808","7.864319999999999","6","-1","-1","","","","","","","","","","","","",""
"psychophysics","149","389409","0.0-12.0-0.20","5f04c46bcfd81678efd229de","609a8bf73b2ac84e2732f618","609d79d0431a269afa465ee3","944.1099999239668","","","","37","","","","key","16.709405172414023","683","312.5","true","-1","129","7.864319999999999","6","-1","-1","","","","","","","","","","","","",""
"psychophysics","150","390992","0.0-12.0-0.21","5f04c46bcfd81678efd229de","609a8bf73b2ac84e2732f618","609d79d0431a269afa465ee3","577.5600000051782","","","","37","","","","key","16.711138297871816","683","312.5","true","-1","129","7.864319999999999","6","-1","-1","","","","","","","","","","","","",""
"psychophysics","151","392404","0.0-12.0-0.22","5f04c46bcfd81678efd229de","609a8bf73b2ac84e2732f618","609d79d0431a269afa465ee3","405.060000019148","","","","37","","","","key","16.71054216867512","683","312.5","true","1","129","6.291456","7","1","-1","","","","","","","","","","","","",""
"psychophysics","152","393718","0.0-12.0-0.23","5f04c46bcfd81678efd229de","609a8bf73b2ac84e2732f618","609d79d0431a269afa465ee3","307.7100000809878","","","","37","","","","key","16.70923076923086","683","312.5","true","-1","135.291456","6.291456","7","-1","1","","","","","","","","","","","","",""
"psychophysics","153","395038","0.0-12.0-0.24","5f04c46bcfd81678efd229de","609a8bf73b2ac84e2732f618","609d79d0431a269afa465ee3","313.5899999178946","","","","37","","","","key","16.710205128205228","683","312.5","true","-1","135.291456","5.033164800000001","8","-1","-1","","","","","","","","","","","","",""
"psychophysics","154","396419","0.0-12.0-0.25","5f04c46bcfd81678efd229de","609a8bf73b2ac84e2732f618","609d79d0431a269afa465ee3","366.24500004108995","","","","39","","","","key","16.710901234568425","683","312.5","true","1","130.2582912","5.033164800000001","8","-1","-1","","","","","","","","","","","","",""
"psychophysics","155","398319","0.0-12.0-0.26","5f04c46bcfd81678efd229de","609a8bf73b2ac84e2732f618","609d79d0431a269afa465ee3","893.404999980703","","","","39","","","","key","16.71038938053076","683","312.5","true","-1","130.2582912","4.0265318400000005","9","1","-1","","","","","","","","","","","","",""
"psychophysics","156","400007","0.0-12.0-0.27","5f04c46bcfd81678efd229de","609a8bf73b2ac84e2732f618","609d79d0431a269afa465ee3","680.1850000629202","","","","37","","","","key","16.710200000000185","683","312.5","true","-1","134.28482304","4.0265318400000005","9","-1","1","","","","","","","","","","","","",""
"psychophysics","157","401945","0.0-12.0-0.28","5f04c46bcfd81678efd229de","609a8bf73b2ac84e2732f618","609d79d0431a269afa465ee3","932.2099999990314","","","","37","","","","key","16.71107826086986","683","312.5","true","1","134.28482304","3.2212254720000004","10","1","-1","","","","","","","","","","","","",""
"psychophysics","158","403193","0.0-12.0-0.29","5f04c46bcfd81678efd229de","609a8bf73b2ac84e2732f618","609d79d0431a269afa465ee3","240.2850000653416","","","","37","","","","key","16.709108108107937","683","312.5","true","-1","137.506048512","3.2212254720000004","10","-1","1","","","","","","","","","","","","",""
"psychophysics","159","404549","0.0-12.0-0.30","5f04c46bcfd81678efd229de","609a8bf73b2ac84e2732f618","609d79d0431a269afa465ee3","344.7050000540912","","","","39","","","","key","16.711100000000442","683","312.5","true","1","137.506048512","2.5769803776000004","11","-1","-1","","","","","","","","","","","","",""
"psychophysics","160","405834","0.0-12.0-0.31","5f04c46bcfd81678efd229de","609a8bf73b2ac84e2732f618","609d79d0431a269afa465ee3","281.45500004757196","","","","37","","","","key","16.7107499999999","683","312.5","true","-1","134.9290681344","2.5769803776000004","11","-1","-1","","","","","","","","","","","","",""
"psychophysics","161","407144","0.0-12.0-0.32","5f04c46bcfd81678efd229de","609a8bf73b2ac84e2732f618","609d79d0431a269afa465ee3","298.8249999471009","","","","37","","","","key","16.70998701298694","683","312.5","true","1","134.9290681344","2.0615843020800004","12","1","-1","","","","","","","","","","","","",""
"psychophysics","162","408475","0.0-12.0-0.33","5f04c46bcfd81678efd229de","609a8bf73b2ac84e2732f618","609d79d0431a269afa465ee3","324.5399999432266","","","","37","","","","key","16.710506329113983","683","312.5","true","-1","136.99065243648002","2.0615843020800004","12","-1","1","","","","","","","","","","","","",""
"psychophysics","163","409776","0.0-12.0-0.34","5f04c46bcfd81678efd229de","609a8bf73b2ac84e2732f618","609d79d0431a269afa465ee3","295.8399999188259","","","","39","","","","key","16.710181818181926","683","312.5","true","1","136.99065243648002","1.6492674416640005","13","-1","-1","","","","","","","","","","","","",""
"psychophysics","164","411058","0.0-12.0-0.35","5f04c46bcfd81678efd229de","609a8bf73b2ac84e2732f618","609d79d0431a269afa465ee3","268.45999993383884","","","","37","","","","key","16.711013333333344","683","312.5","true","-1","135.34138499481602","1.6492674416640005","13","-1","-1","","","","","","","","","","","","",""
"psychophysics","165","412441","0.0-12.0-0.36","5f04c46bcfd81678efd229de","609a8bf73b2ac84e2732f618","609d79d0431a269afa465ee3","375.11999998241663","","","","37","","","","key","16.710353658536715","683","312.5","true","1","135.34138499481602","1.3194139533312006","14","1","-1","","","","","","","","","","","","",""
"psychophysics","166","413688","0.0-12.0-0.37","5f04c46bcfd81678efd229de","609a8bf73b2ac84e2732f618","609d79d0431a269afa465ee3","239.54500001855195","","","","37","","","","key","16.709499999999565","683","312.5","true","-1","136.66079894814723","1.3194139533312006","14","-1","1","","","","","","","","","","","","",""
"psychophysics","167","414857","0.0-12.0-0.38","5f04c46bcfd81678efd229de","609a8bf73b2ac84e2732f618","609d79d0431a269afa465ee3","156.98500000871718","","","","39","","","","key","16.709913043478213","683","312.5","true","1","136.66079894814723","1.0555311626649604","15","-1","-1","","","","","","","","","","","","",""
"psychophysics","168","416019","0.0-12.0-0.39","5f04c46bcfd81678efd229de","609a8bf73b2ac84e2732f618","609d79d0431a269afa465ee3","158.14999991562217","","","","37","","","","key","16.710749999999226","683","312.5","true","-1","135.60526778548228","1.0555311626649604","15","-1","-1","","","","","","","","","","","","",""
"html-keyboard-response","169","425554","0.0-13.0","5f04c46bcfd81678efd229de","609a8bf73b2ac84e2732f618","609d79d0431a269afa465ee3","9530.705000041053","<p>Well Done !</p><p>Prepare for a new block.</p><p>DON'T EXIT THE FULL SCREEN MODE</p><p>Press the Spacebar to start.</p>","","","32","","","","","","","","","","","","","","","true","135.1698268211446","","","","","","","","","","",""
"html-keyboard-response","170","425667","0.0-14.0","5f04c46bcfd81678efd229de","609a8bf73b2ac84e2732f618","609d79d0431a269afa465ee3","null","","","","null","","","","","","","","","","","","","","","","","134.26302823671944","true","140.52605647343887","","","","","","","",""
"instructions","171","505874","0.0-15.0","5f04c46bcfd81678efd229de","609a8bf73b2ac84e2732f618","609d79d0431a269afa465ee3","80205.12000005692","","","","","","","[{""page_index"":0,""viewing_time"":48634.27500007674},{""page_index"":1,""viewing_time"":4822.054999996908},{""page_index"":2,""viewing_time"":26748.35999996867}]","","","","","","","","","","","","","","","","","","","","","","","",""
"psychophysics","172","509005","0.0-16.0-0.0","5f04c46bcfd81678efd229de","609a8bf73b2ac84e2732f618","609d79d0431a269afa465ee3","null","","","","null","","","","key","16.790567164179006","683","312.5","","","","","","","","","","","","","","","","","","","",""
"psychophysics","173","509510","0.0-16.0-1.0","5f04c46bcfd81678efd229de","609a8bf73b2ac84e2732f618","609d79d0431a269afa465ee3","null","","","","null","","","","key","16.711448275861493","683","312.5","","","","","","","","","","","","","141","-1","5","false","","","",""
"psychophysics","174","510387","0.0-16.0-2.0","5f04c46bcfd81678efd229de","609a8bf73b2ac84e2732f618","609d79d0431a269afa465ee3","865.0050000287592","","","","90","","","","key","16.709596153845688","683","312.5","","","","","","","","","","","","","","","","","","","",""
"psychophysics","175","511382","0.0-16.0-0.1","5f04c46bcfd81678efd229de","609a8bf73b2ac84e2732f618","609d79d0431a269afa465ee3","null","","","","null","","","","key","16.710086206896513","683","312.5","","","","","","","","","","","","","","","","","","","",""
"psychophysics","176","511886","0.0-16.0-1.1","5f04c46bcfd81678efd229de","609a8bf73b2ac84e2732f618","609d79d0431a269afa465ee3","null","","","","null","","","","key","16.707333333334343","683","312.5","","","","","","","","","","","","","141","1","4","false","","","",""
"psychophysics","177","512338","0.0-16.0-2.1","5f04c46bcfd81678efd229de","609a8bf73b2ac84e2732f618","609d79d0431a269afa465ee3","447.3200000356883","","","","90","","","","key","16.711423076924312","683","312.5","","","","","","","","","","","","","","","","","","","",""
"psychophysics","178","513577","0.0-16.0-0.2","5f04c46bcfd81678efd229de","609a8bf73b2ac84e2732f618","609d79d0431a269afa465ee3","null","","","","null","","","","key","16.711095890410608","683","312.5","","","","","","","","","","","","","","","","","","","",""
"psychophysics","179","514084","0.0-16.0-1.2","5f04c46bcfd81678efd229de","609a8bf73b2ac84e2732f618","609d79d0431a269afa465ee3","null","","","","null","","","","key","16.70979310344736","683","312.5","","","","","","","","","","","","","141","-1","3","false","","","",""
"psychophysics","180","514422","0.0-16.0-2.2","5f04c46bcfd81678efd229de","609a8bf73b2ac84e2732f618","609d79d0431a269afa465ee3","333.29500001855195","","","","90","","","","key","16.711789473682938","683","312.5","","","","","","","","","","","","","","","","","","","",""
"psychophysics","181","515678","0.0-16.0-0.3","5f04c46bcfd81678efd229de","609a8bf73b2ac84e2732f618","609d79d0431a269afa465ee3","null","","","","null","","","","key","16.710540540540762","683","312.5","","","","","","","","","","","","","","","","","","","",""
"psychophysics","182","516191","0.0-16.0-1.3","5f04c46bcfd81678efd229de","609a8bf73b2ac84e2732f618","609d79d0431a269afa465ee3","null","","","","null","","","","key","17.28931034482606","683","312.5","","","","","","","","","","","","","141","1","6","false","","","",""
"psychophysics","183","516842","0.0-16.0-2.3","5f04c46bcfd81678efd229de","609a8bf73b2ac84e2732f618","609d79d0431a269afa465ee3","647.9250000556931","","","","90","","","","key","16.70960526315857","683","312.5","","","","","","","","","","","","","","","","","","","",""
"psychophysics","184","517616","0.0-16.0-0.4","5f04c46bcfd81678efd229de","609a8bf73b2ac84e2732f618","609d79d0431a269afa465ee3","null","","","","null","","","","key","16.709933333334305","683","312.5","","","","","","","","","","","","","","","","","","","",""
"psychophysics","185","518121","0.0-16.0-1.4","5f04c46bcfd81678efd229de","609a8bf73b2ac84e2732f618","609d79d0431a269afa465ee3","null","","","","null","","","","key","16.707799999999892","683","312.5","","","","","","","","","","","","","141","1","3","false","","","",""
"psychophysics","186","518522","0.0-16.0-2.4","5f04c46bcfd81678efd229de","609a8bf73b2ac84e2732f618","609d79d0431a269afa465ee3","395.52000002004206","","","","90","","","","key","16.710954545454694","683","312.5","","","","","","","","","","","","","","","","","","","",""
"psychophysics","187","519388","0.0-16.0-0.5","5f04c46bcfd81678efd229de","609a8bf73b2ac84e2732f618","609d79d0431a269afa465ee3","null","","","","null","","","","key","16.710568627451007","683","312.5","","","","","","","","","","","","","","","","","","","",""
"psychophysics","188","519907","0.0-16.0-1.5","5f04c46bcfd81678efd229de","609a8bf73b2ac84e2732f618","609d79d0431a269afa465ee3","null","","","","null","","","","key","16.710166666666435","683","312.5","","","","","","","","","","","","","141","-1","0","false","","","",""
"psychophysics","189","520167","0.0-16.0-2.5","5f04c46bcfd81678efd229de","609a8bf73b2ac84e2732f618","609d79d0431a269afa465ee3","247.48999997973442","","","","90","","","","key","16.71260000000087","683","312.5","","","","","","","","","","","","","","","","","","","",""
"psychophysics","190","521595","0.0-16.0-0.6","5f04c46bcfd81678efd229de","609a8bf73b2ac84e2732f618","609d79d0431a269afa465ee3","null","","","","null","","","","key","16.71023809523779","683","312.5","","","","","","","","","","","","","","","","","","","",""
"psychophysics","191","522105","0.0-16.0-1.6","5f04c46bcfd81678efd229de","609a8bf73b2ac84e2732f618","609d79d0431a269afa465ee3","null","","","","null","","","","key","17.288931034483287","683","312.5","","","","","","","","","","","","","141","1","2","false","","","",""
"psychophysics","192","522409","0.0-16.0-2.6","5f04c46bcfd81678efd229de","609a8bf73b2ac84e2732f618","609d79d0431a269afa465ee3","298.4899999573827","","","","90","","","","key","16.71264705882298","683","312.5","","","","","","","","","","","","","","","","","","","",""
"psychophysics","193","522932","0.0-16.0-0.7","5f04c46bcfd81678efd229de","609a8bf73b2ac84e2732f618","609d79d0431a269afa465ee3","null","","","","null","","","","key","16.708966666665706","683","312.5","","","","","","","","","","","","","","","","","","","",""
"psychophysics","194","523451","0.0-16.0-1.7","5f04c46bcfd81678efd229de","609a8bf73b2ac84e2732f618","609d79d0431a269afa465ee3","null","","","","null","","","","key","16.709766666666837","683","312.5","","","","","","","","","","","","","141","-1","2","false","","","",""
"psychophysics","195","523787","0.0-16.0-2.7","5f04c46bcfd81678efd229de","609a8bf73b2ac84e2732f618","609d79d0431a269afa465ee3","327.0950000733137","","","","90","","","","key","16.71194999999716","683","312.5","","","","","","","","","","","","","","","","","","","",""
"psychophysics","196","525221","0.0-16.0-0.8","5f04c46bcfd81678efd229de","609a8bf73b2ac84e2732f618","609d79d0431a269afa465ee3","null","","","","null","","","","key","16.710095238094386","683","312.5","","","","","","","","","","","","","","","","","","","",""
"psychophysics","197","525739","0.0-16.0-1.8","5f04c46bcfd81678efd229de","609a8bf73b2ac84e2732f618","609d79d0431a269afa465ee3","null","","","","null","","","","key","16.70956666666704","683","312.5","","","","","","","","","","","","","141","-1","4","false","","","",""
"psychophysics","198","526037","0.0-16.0-2.8","5f04c46bcfd81678efd229de","609a8bf73b2ac84e2732f618","609d79d0431a269afa465ee3","288.4449999546632","","","","90","","","","key","16.710411764701885","683","312.5","","","","","","","","","","","","","","","","","","","",""
"psychophysics","199","527043","0.0-16.0-0.9","5f04c46bcfd81678efd229de","609a8bf73b2ac84e2732f618","609d79d0431a269afa465ee3","null","","","","null","","","","key","16.71106779660982","683","312.5","","","","","","","","","","","","","","","","","","","",""
"psychophysics","200","527555","0.0-16.0-1.9","5f04c46bcfd81678efd229de","609a8bf73b2ac84e2732f618","609d79d0431a269afa465ee3","null","","","","null","","","","key","16.710866666666696","683","312.5","","","","","","","","","","","","","141","1","5","false","","","",""
"psychophysics","201","527969","0.0-16.0-2.9","5f04c46bcfd81678efd229de","609a8bf73b2ac84e2732f618","609d79d0431a269afa465ee3","410.88500001933426","","","","90","","","","key","16.711458333336243","683","312.5","","","","","","","","","","","","","","","","","","","",""
"psychophysics","202","528815","0.0-16.0-0.10","5f04c46bcfd81678efd229de","609a8bf73b2ac84e2732f618","609d79d0431a269afa465ee3","null","","","","null","","","","key","16.710119999998714","683","312.5","","","","","","","","","","","","","","","","","","","",""
"psychophysics","203","529331","0.0-16.0-1.10","5f04c46bcfd81678efd229de","609a8bf73b2ac84e2732f618","609d79d0431a269afa465ee3","null","","","","null","","","","key","16.711379310344988","683","312.5","","","","","","","","","","","","","141","1","0","false","","","",""
"psychophysics","204","529978","0.0-16.0-2.10","5f04c46bcfd81678efd229de","609a8bf73b2ac84e2732f618","609d79d0431a269afa465ee3","640.445000026375","","","","90","","","","key","16.714157894737774","683","312.5","","","","","","","","","","","","","","","","","","","",""
"psychophysics","205","531423","0.0-16.0-0.11","5f04c46bcfd81678efd229de","609a8bf73b2ac84e2732f618","609d79d0431a269afa465ee3","null","","","","null","","","","key","16.710232558139047","683","312.5","","","","","","","","","","","","","","","","","","","",""
"psychophysics","206","531938","0.0-16.0-1.11","5f04c46bcfd81678efd229de","609a8bf73b2ac84e2732f618","609d79d0431a269afa465ee3","null","","","","null","","","","key","16.710310344825146","683","312.5","","","","","","","","","","","","","141","-1","6","false","","","",""
"psychophysics","207","532203","0.0-16.0-2.11","5f04c46bcfd81678efd229de","609a8bf73b2ac84e2732f618","609d79d0431a269afa465ee3","254.23500000033528","","","","90","","","","key","16.708466666665238","683","312.5","","","","","","","","","","","","","","","","","","","",""
"psychophysics","208","533045","0.0-16.0-0.12","5f04c46bcfd81678efd229de","609a8bf73b2ac84e2732f618","609d79d0431a269afa465ee3","null","","","","null","","","","key","16.70895918367231","683","312.5","","","","","","","","","","","","","","","","","","","",""
"psychophysics","209","533552","0.0-16.0-1.12","5f04c46bcfd81678efd229de","609a8bf73b2ac84e2732f618","609d79d0431a269afa465ee3","null","","","","null","","","","key","16.711799999997798","683","312.5","","","","","","","","","","","","","141","-1","4","false","","","",""
"psychophysics","210","533914","0.0-16.0-2.12","5f04c46bcfd81678efd229de","609a8bf73b2ac84e2732f618","609d79d0431a269afa465ee3","357.1800000499934","","","","90","","","","key","16.709523809519375","683","312.5","","","","","","","","","","","","","","","","","","","",""
"psychophysics","211","534725","0.0-16.0-0.13","5f04c46bcfd81678efd229de","609a8bf73b2ac84e2732f618","609d79d0431a269afa465ee3","null","","","","null","","","","key","16.71112765957344","683","312.5","","","","","","","","","","","","","","","","","","","",""
"psychophysics","212","535231","0.0-16.0-1.13","5f04c46bcfd81678efd229de","609a8bf73b2ac84e2732f618","609d79d0431a269afa465ee3","null","","","","null","","","","key","16.709655172412347","683","312.5","","","","","","","","","","","","","141","-1","3","false","","","",""
"psychophysics","213","535503","0.0-16.0-2.13","5f04c46bcfd81678efd229de","609a8bf73b2ac84e2732f618","609d79d0431a269afa465ee3","265.26000001467764","","","","90","","","","key","16.711750000002212","683","312.5","","","","","","","","","","","","","","","","","","","",""
"psychophysics","214","536667","0.0-16.0-0.14","5f04c46bcfd81678efd229de","609a8bf73b2ac84e2732f618","609d79d0431a269afa465ee3","null","","","","null","","","","key","16.959164179103976","683","312.5","","","","","","","","","","","","","","","","","","","",""
"psychophysics","215","537180","0.0-16.0-1.14","5f04c46bcfd81678efd229de","609a8bf73b2ac84e2732f618","609d79d0431a269afa465ee3","null","","","","null","","","","key","16.709666666667907","683","312.5","","","","","","","","","","","","","141","1","3","false","","","",""
"psychophysics","216","537899","0.0-16.0-2.14","5f04c46bcfd81678efd229de","609a8bf73b2ac84e2732f618","609d79d0431a269afa465ee3","715.1999999769032","","","","90","","","","key","16.711595238097722","683","312.5","","","","","","","","","","","","","","","","","","","",""
"psychophysics","217","539107","0.0-16.0-0.15","5f04c46bcfd81678efd229de","609a8bf73b2ac84e2732f618","609d79d0431a269afa465ee3","null","","","","null","","","","key","16.710577464788745","683","312.5","","","","","","","","","","","","","","","","","","","",""
"psychophysics","218","539613","0.0-16.0-1.15","5f04c46bcfd81678efd229de","609a8bf73b2ac84e2732f618","609d79d0431a269afa465ee3","null","","","","null","","","","key","16.710066666667505","683","312.5","","","","","","","","","","","","","141","1","5","false","","","",""
"psychophysics","219","540175","0.0-16.0-2.15","5f04c46bcfd81678efd229de","609a8bf73b2ac84e2732f618","609d79d0431a269afa465ee3","558.9150000596419","","","","77","","","","key","16.708749999997963","683","312.5","","","","","","","","","","","","","","","","","","","",""
"psychophysics","220","540744","0.0-16.0-0.16","5f04c46bcfd81678efd229de","609a8bf73b2ac84e2732f618","609d79d0431a269afa465ee3","null","","","","null","","","","key","16.709484848486625","683","312.5","","","","","","","","","","","","","","","","","","","",""
"psychophysics","221","541250","0.0-16.0-1.16","5f04c46bcfd81678efd229de","609a8bf73b2ac84e2732f618","609d79d0431a269afa465ee3","null","","","","null","","","","key","16.70809999999668","683","312.5","","","","","","","","","","","","","141","-1","5","false","","","",""
"psychophysics","222","541931","0.0-16.0-2.16","5f04c46bcfd81678efd229de","609a8bf73b2ac84e2732f618","609d79d0431a269afa465ee3","676.380000077188","","","","90","","","","key","16.711025641028147","683","312.5","","","","","","","","","","","","","","","","","","","",""
"psychophysics","223","543284","0.0-16.0-0.17","5f04c46bcfd81678efd229de","609a8bf73b2ac84e2732f618","609d79d0431a269afa465ee3","null","","","","null","","","","key","16.709325000000536","683","312.5","","","","","","","","","","","","","","","","","","","",""
"psychophysics","224","543790","0.0-16.0-1.17","5f04c46bcfd81678efd229de","609a8bf73b2ac84e2732f618","609d79d0431a269afa465ee3","null","","","","null","","","","key","16.70856666666611","683","312.5","","","","","","","","","","","","","141","1","2","false","","","",""
"psychophysics","225","544802","0.0-16.0-2.17","5f04c46bcfd81678efd229de","609a8bf73b2ac84e2732f618","609d79d0431a269afa465ee3","1009.2549999244511","","","","90","","","","key","16.709983050848862","683","312.5","","","","","","","","","","","","","","","","","","","",""
"psychophysics","226","545360","0.0-16.0-0.18","5f04c46bcfd81678efd229de","609a8bf73b2ac84e2732f618","609d79d0431a269afa465ee3","null","","","","null","","","","key","16.708939393939957","683","312.5","","","","","","","","","","","","","","","","","","","",""
"psychophysics","227","545872","0.0-16.0-1.18","5f04c46bcfd81678efd229de","609a8bf73b2ac84e2732f618","609d79d0431a269afa465ee3","null","","","","null","","","","key","16.70951724137934","683","312.5","","","","","","","","","","","","","141","1","6","false","","","",""
"psychophysics","228","546502","0.0-16.0-2.18","5f04c46bcfd81678efd229de","609a8bf73b2ac84e2732f618","609d79d0431a269afa465ee3","619.0000000642613","","","","90","","","","key","16.710135135135765","683","312.5","","","","","","","","","","","","","","","","","","","",""
"psychophysics","229","547695","0.0-16.0-0.19","5f04c46bcfd81678efd229de","609a8bf73b2ac84e2732f618","609d79d0431a269afa465ee3","null","","","","null","","","","key","16.710528571428068","683","312.5","","","","","","","","","","","","","","","","","","","",""
"psychophysics","230","548201","0.0-16.0-1.19","5f04c46bcfd81678efd229de","609a8bf73b2ac84e2732f618","609d79d0431a269afa465ee3","null","","","","null","","","","key","16.71149999999907","683","312.5","","","","","","","","","","","","","141","-1","6","false","","","",""
"psychophysics","231","548789","0.0-16.0-2.19","5f04c46bcfd81678efd229de","609a8bf73b2ac84e2732f618","609d79d0431a269afa465ee3","583.8500000536442","","","","77","","","","key","16.707970588235185","683","312.5","","","","","","","","","","","","","","","","","","","",""
"psychophysics","232","549422","0.0-16.0-0.20","5f04c46bcfd81678efd229de","609a8bf73b2ac84e2732f618","609d79d0431a269afa465ee3","null","","","","null","","","","key","16.70883783783663","683","312.5","","","","","","","","","","","","","","","","","","","",""
"psychophysics","233","549930","0.0-16.0-1.20","5f04c46bcfd81678efd229de","609a8bf73b2ac84e2732f618","609d79d0431a269afa465ee3","null","","","","null","","","","key","16.709827586205613","683","312.5","","","","","","","","","","","","","141","1","4","false","","","",""
"psychophysics","234","550814","0.0-16.0-2.20","5f04c46bcfd81678efd229de","609a8bf73b2ac84e2732f618","609d79d0431a269afa465ee3","880.3300000727177","","","","90","","","","key","16.710134615385098","683","312.5","","","","","","","","","","","","","","","","","","","",""
"psychophysics","235","552225","0.0-16.0-0.21","5f04c46bcfd81678efd229de","609a8bf73b2ac84e2732f618","609d79d0431a269afa465ee3","null","","","","null","","","","key","16.709614457831865","683","312.5","","","","","","","","","","","","","","","","","","","",""
"psychophysics","236","552734","0.0-16.0-1.21","5f04c46bcfd81678efd229de","609a8bf73b2ac84e2732f618","609d79d0431a269afa465ee3","null","","","","null","","","","key","16.71073333333091","683","312.5","","","","","","","","","","","","","141","-1","0","false","","","",""
"psychophysics","237","553453","0.0-16.0-2.21","5f04c46bcfd81678efd229de","609a8bf73b2ac84e2732f618","609d79d0431a269afa465ee3","715.0100000435486","","","","90","","","","key","16.709619047619135","683","312.5","","","","","","","","","","","","","","","","","","","",""
"psychophysics","238","554949","0.0-16.0-0.22","5f04c46bcfd81678efd229de","609a8bf73b2ac84e2732f618","609d79d0431a269afa465ee3","null","","","","null","","","","key","16.709840909091078","683","312.5","","","","","","","","","","","","","","","","","","","",""
"psychophysics","239","555454","0.0-16.0-1.22","5f04c46bcfd81678efd229de","609a8bf73b2ac84e2732f618","609d79d0431a269afa465ee3","null","","","","null","","","","key","16.710633333333924","683","312.5","","","","","","","","","","","","","141","-1","2","false","","","",""
"psychophysics","240","555990","0.0-16.0-2.22","5f04c46bcfd81678efd229de","609a8bf73b2ac84e2732f618","609d79d0431a269afa465ee3","533.0050000920892","","","","90","","","","key","16.710419354840152","683","312.5","","","","","","","","","","","","","","","","","","","",""
"psychophysics","241","556966","0.0-16.0-0.23","5f04c46bcfd81678efd229de","609a8bf73b2ac84e2732f618","609d79d0431a269afa465ee3","null","","","","null","","","","key","16.710491228070552","683","312.5","","","","","","","","","","","","","","","","","","","",""
"psychophysics","242","557473","0.0-16.0-1.23","5f04c46bcfd81678efd229de","609a8bf73b2ac84e2732f618","609d79d0431a269afa465ee3","null","","","","null","","","","key","16.710655172411673","683","312.5","","","","","","","","","","","","","141","1","0","false","","","",""
"psychophysics","243","558856","0.0-16.0-2.23","5f04c46bcfd81678efd229de","609a8bf73b2ac84e2732f618","609d79d0431a269afa465ee3","1375.0399999553338","","","","90","","","","key","16.709463414633873","683","312.5","","","","","","","","","","","","","","","","","","","",""
"html-keyboard-response","244","562245","0.0-17.0","5f04c46bcfd81678efd229de","609a8bf73b2ac84e2732f618","609d79d0431a269afa465ee3","3385.93500002753","<p>Well Done !</p><p>Training Complete. Press the spacebar to start.</p><p>DON'T EXIT THE FULL SCREEN MODE</p>","","","32","","","","","","","","","","","","","","","","","","","","","","","","","","",""
"psychophysics","245","565392","0.0-18.0-0.0","5f04c46bcfd81678efd229de","609a8bf73b2ac84e2732f618","609d79d0431a269afa465ee3","null","","","","null","","","","key","16.66599999999961","683","312.5","","","","","","","","","","","","","","","","","","","",""
"psychophysics","246","565899","0.0-18.0-1.0","5f04c46bcfd81678efd229de","609a8bf73b2ac84e2732f618","609d79d0431a269afa465ee3","null","","","","null","","","","key","16.707833333332868","683","312.5","","","","","","","","","","","","","141","1","3","true","","","",""
"psychophysics","247","567942","0.0-18.0-2.0","5f04c46bcfd81678efd229de","609a8bf73b2ac84e2732f618","609d79d0431a269afa465ee3","2040.6049999874085","","","","90","","","","key","16.71017355371886","683","312.5","","","","","","","","","","","","","","","","","","","",""
"psychophysics","248","569378","0.0-18.0-0.1","5f04c46bcfd81678efd229de","609a8bf73b2ac84e2732f618","609d79d0431a269afa465ee3","null","","","","null","","","","key","16.710505882353413","683","312.5","","","","","","","","","","","","","","","","","","","",""
"psychophysics","249","569883","0.0-18.0-1.1","5f04c46bcfd81678efd229de","609a8bf73b2ac84e2732f618","609d79d0431a269afa465ee3","null","","","","null","","","","key","16.71017241379214","683","312.5","","","","","","","","","","","","","141","1","0","true","","","",""
"psychophysics","250","570582","0.0-18.0-2.1","5f04c46bcfd81678efd229de","609a8bf73b2ac84e2732f618","609d79d0431a269afa465ee3","696.1850000079721","","","","90","","","","key","16.70765853658455","683","312.5","","","","","","","","","","","","","","","","","","","",""
"psychophysics","251","571946","0.0-18.0-0.2","5f04c46bcfd81678efd229de","609a8bf73b2ac84e2732f618","609d79d0431a269afa465ee3","null","","","","null","","","","key","16.710432098764514","683","312.5","","","","","","","","","","","","","","","","","","","",""
"psychophysics","252","572452","0.0-18.0-1.2","5f04c46bcfd81678efd229de","609a8bf73b2ac84e2732f618","609d79d0431a269afa465ee3","null","","","","null","","","","key","16.709793103449368","683","312.5","","","","","","","","","","","","","141","-1","2","true","","","",""
"psychophysics","253","573533","0.0-18.0-2.2","5f04c46bcfd81678efd229de","609a8bf73b2ac84e2732f618","609d79d0431a269afa465ee3","1076.009999960661","","","","90","","","","key","16.71069841269803","683","312.5","","","","","","","","","","","","","","","","","","","",""
"psychophysics","254","574583","0.0-18.0-0.3","5f04c46bcfd81678efd229de","609a8bf73b2ac84e2732f618","609d79d0431a269afa465ee3","null","","","","null","","","","key","16.70967741935484","683","312.5","","","","","","","","","","","","","","","","","","","",""
"psychophysics","255","575089","0.0-18.0-1.3","5f04c46bcfd81678efd229de","609a8bf73b2ac84e2732f618","609d79d0431a269afa465ee3","null","","","","null","","","","key","16.71076666666971","683","312.5","","","","","","","","","","","","","141","-1","0","true","","","",""
"psychophysics","256","575868","0.0-18.0-2.3","5f04c46bcfd81678efd229de","609a8bf73b2ac84e2732f618","609d79d0431a269afa465ee3","775.7599999895319","","","","77","","","","key","16.709399999998922","683","312.5","","","","","","","","","","","","","","","","","","","",""
"psychophysics","257","577274","0.0-18.0-0.4","5f04c46bcfd81678efd229de","609a8bf73b2ac84e2732f618","609d79d0431a269afa465ee3","null","","","","null","","","","key","16.710060240964527","683","312.5","","","","","","","","","","","","","","","","","","","",""
"psychophysics","258","577780","0.0-18.0-1.4","5f04c46bcfd81678efd229de","609a8bf73b2ac84e2732f618","609d79d0431a269afa465ee3","null","","","","null","","","","key","16.70919999999848","683","312.5","","","","","","","","","","","","","141","-1","4","true","","","",""
"psychophysics","259","578382","0.0-18.0-2.4","5f04c46bcfd81678efd229de","609a8bf73b2ac84e2732f618","609d79d0431a269afa465ee3","595.4849999397993","","","","90","","","","key","16.70911428571479","683","312.5","","","","","","","","","","","","","","","","","","","",""
"psychophysics","260","579830","0.0-18.0-0.5","5f04c46bcfd81678efd229de","609a8bf73b2ac84e2732f618","609d79d0431a269afa465ee3","null","","","","null","","","","key","16.71067058823537","683","312.5","","","","","","","","","","","","","","","","","","","",""
"psychophysics","261","580338","0.0-18.0-1.5","5f04c46bcfd81678efd229de","609a8bf73b2ac84e2732f618","609d79d0431a269afa465ee3","null","","","","null","","","","key","17.28824137931224","683","312.5","","","","","","","","","","","","","141","1","4","true","","","",""
"psychophysics","262","581829","0.0-18.0-2.5","5f04c46bcfd81678efd229de","609a8bf73b2ac84e2732f618","609d79d0431a269afa465ee3","1488.5800000047311","","","","90","","","","key","16.71084090909095","683","312.5","","","","","","","","","","","","","","","","","","","",""
"psychophysics","263","582337","0.0-18.0-0.6","5f04c46bcfd81678efd229de","609a8bf73b2ac84e2732f618","609d79d0431a269afa465ee3","null","","","","null","","","","key","16.708413793103254","683","312.5","","","","","","","","","","","","","","","","","","","",""
"psychophysics","264","582844","0.0-18.0-1.6","5f04c46bcfd81678efd229de","609a8bf73b2ac84e2732f618","609d79d0431a269afa465ee3","null","","","","null","","","","key","16.708600000001024","683","312.5","","","","","","","","","","","","","141","1","2","true","","","",""
"psychophysics","265","583531","0.0-18.0-2.6","5f04c46bcfd81678efd229de","609a8bf73b2ac84e2732f618","609d79d0431a269afa465ee3","683.4449999732897","","","","90","","","","key","16.708324999999604","683","312.5","","","","","","","","","","","","","","","","","","","",""
"psychophysics","266","584225","0.0-18.0-0.7","5f04c46bcfd81678efd229de","609a8bf73b2ac84e2732f618","609d79d0431a269afa465ee3","null","","","","null","","","","key","16.708775000000607","683","312.5","","","","","","","","","","","","","","","","","","","",""
"psychophysics","267","584742","0.0-18.0-1.7","5f04c46bcfd81678efd229de","609a8bf73b2ac84e2732f618","609d79d0431a269afa465ee3","null","","","","null","","","","key","16.708433333334202","683","312.5","","","","","","","","","","","","","141","-1","3","true","","","",""
"psychophysics","268","585809","0.0-18.0-2.7","5f04c46bcfd81678efd229de","609a8bf73b2ac84e2732f618","609d79d0431a269afa465ee3","1065.169999958016","","","","90","","","","key","16.71120634920607","683","312.5","","","","","","","","","","","","","","","","","","","",""
"psychophysics","269","587133","0.0-18.0-0.8","5f04c46bcfd81678efd229de","609a8bf73b2ac84e2732f618","609d79d0431a269afa465ee3","null","","","","null","","","","key","16.710576923076026","683","312.5","","","","","","","","","","","","","","","","","","","",""
"psychophysics","270","587642","0.0-18.0-1.8","5f04c46bcfd81678efd229de","609a8bf73b2ac84e2732f618","609d79d0431a269afa465ee3","null","","","","null","","","","key","16.711433333333115","683","312.5","","","","","","","","","","","","","141","1","6","true","","","",""
"psychophysics","271","588527","0.0-18.0-2.8","5f04c46bcfd81678efd229de","609a8bf73b2ac84e2732f618","609d79d0431a269afa465ee3","881.8250000476837","","","","90","","","","key","16.709865384614275","683","312.5","","","","","","","","","","","","","","","","","","","",""
"psychophysics","272","589839","0.0-18.0-0.9","5f04c46bcfd81678efd229de","609a8bf73b2ac84e2732f618","609d79d0431a269afa465ee3","null","","","","null","","","","key","16.710558441559808","683","312.5","","","","","","","","","","","","","","","","","","","",""
"psychophysics","273","590344","0.0-18.0-1.9","5f04c46bcfd81678efd229de","609a8bf73b2ac84e2732f618","609d79d0431a269afa465ee3","null","","","","null","","","","key","16.710233333334326","683","312.5","","","","","","","","","","","","","141","-1","6","true","","","",""
"psychophysics","274","591210","0.0-18.0-2.9","5f04c46bcfd81678efd229de","609a8bf73b2ac84e2732f618","609d79d0431a269afa465ee3","862.1849999763072","","","","90","","","","key","16.708660000001547","683","312.5","","","","","","","","","","","","","","","","","","","",""
"psychophysics","275","592113","0.0-18.0-0.10","5f04c46bcfd81678efd229de","609a8bf73b2ac84e2732f618","609d79d0431a269afa465ee3","null","","","","null","","","","key","16.711320754716102","683","312.5","","","","","","","","","","","","","","","","","","","",""
"psychophysics","276","592622","0.0-18.0-1.10","5f04c46bcfd81678efd229de","609a8bf73b2ac84e2732f618","609d79d0431a269afa465ee3","null","","","","null","","","","key","16.71059999999901","683","312.5","","","","","","","","","","","","","141","1","5","true","","","",""
"psychophysics","277","593791","0.0-18.0-2.10","5f04c46bcfd81678efd229de","609a8bf73b2ac84e2732f618","609d79d0431a269afa465ee3","1163.6550000403076","","","","90","","","","key","16.956411764705347","683","312.5","","","","","","","","","","","","","","","","","","","",""
"psychophysics","278","594996","0.0-18.0-0.11","5f04c46bcfd81678efd229de","609a8bf73b2ac84e2732f618","609d79d0431a269afa465ee3","null","","","","null","","","","key","16.710591549296456","683","312.5","","","","","","","","","","","","","","","","","","","",""
"psychophysics","279","595505","0.0-18.0-1.11","5f04c46bcfd81678efd229de","609a8bf73b2ac84e2732f618","609d79d0431a269afa465ee3","null","","","","null","","","","key","16.71168965517527","683","312.5","","","","","","","","","","","","","141","-1","5","true","","","",""
"psychophysics","280","597491","0.0-18.0-2.11","5f04c46bcfd81678efd229de","609a8bf73b2ac84e2732f618","609d79d0431a269afa465ee3","1976.9700000761077","","","","90","","","","key","16.709991525423565","683","312.5","","","","","","","","","","","","","","","","","","","",""
"psychophysics","281","598097","0.0-18.0-0.12","5f04c46bcfd81678efd229de","609a8bf73b2ac84e2732f618","609d79d0431a269afa465ee3","null","","","","null","","","","key","16.711361111109404","683","312.5","","","","","","","","","","","","","","","","","","","",""
"psychophysics","282","598604","0.0-18.0-1.12","5f04c46bcfd81678efd229de","609a8bf73b2ac84e2732f618","609d79d0431a269afa465ee3","null","","","","null","","","","key","16.708172413793488","683","312.5","","","","","","","","","","","","","141","1","0","true","","","",""
"psychophysics","283","599287","0.0-18.0-2.12","5f04c46bcfd81678efd229de","609a8bf73b2ac84e2732f618","609d79d0431a269afa465ee3","680.0000000512227","","","","90","","","","key","16.710274999999093","683","312.5","","","","","","","","","","","","","","","","","","","",""
"psychophysics","284","600046","0.0-18.0-0.13","5f04c46bcfd81678efd229de","609a8bf73b2ac84e2732f618","609d79d0431a269afa465ee3","null","","","","null","","","","key","16.710227272727273","683","312.5","","","","","","","","","","","","","","","","","","","",""
"psychophysics","285","600551","0.0-18.0-1.13","5f04c46bcfd81678efd229de","609a8bf73b2ac84e2732f618","609d79d0431a269afa465ee3","null","","","","null","","","","key","16.708689655169266","683","312.5","","","","","","","","","","","","","141","1","3","true","","","",""
"psychophysics","286","601022","0.0-18.0-2.13","5f04c46bcfd81678efd229de","609a8bf73b2ac84e2732f618","609d79d0431a269afa465ee3","462.4949999852106","","","","90","","","","key","16.707035714286445","683","312.5","","","","","","","","","","","","","","","","","","","",""
"psychophysics","287","602086","0.0-18.0-0.14","5f04c46bcfd81678efd229de","609a8bf73b2ac84e2732f618","609d79d0431a269afa465ee3","null","","","","null","","","","key","16.70835483870882","683","312.5","","","","","","","","","","","","","","","","","","","",""
"psychophysics","288","602593","0.0-18.0-1.14","5f04c46bcfd81678efd229de","609a8bf73b2ac84e2732f618","609d79d0431a269afa465ee3","null","","","","null","","","","key","16.70983333333085","683","312.5","","","","","","","","","","","","","141","-1","2","true","","","",""
"psychophysics","289","603251","0.0-18.0-2.14","5f04c46bcfd81678efd229de","609a8bf73b2ac84e2732f618","609d79d0431a269afa465ee3","648.8249999238178","","","","77","","","","key","16.710447368420365","683","312.5","","","","","","","","","","","","","","","","","","","",""
"psychophysics","290","604100","0.0-18.0-0.15","5f04c46bcfd81678efd229de","609a8bf73b2ac84e2732f618","609d79d0431a269afa465ee3","null","","","","null","","","","key","16.71134000000078","683","312.5","","","","","","","","","","","","","","","","","","","",""
"psychophysics","291","604604","0.0-18.0-1.15","5f04c46bcfd81678efd229de","609a8bf73b2ac84e2732f618","609d79d0431a269afa465ee3","null","","","","null","","","","key","16.710965517241956","683","312.5","","","","","","","","","","","","","141","1","2","true","","","",""
"psychophysics","292","605176","0.0-18.0-2.15","5f04c46bcfd81678efd229de","609a8bf73b2ac84e2732f618","609d79d0431a269afa465ee3","568.2599999709055","","","","90","","","","key","16.709030303031657","683","312.5","","","","","","","","","","","","","","","","","","","",""
"psychophysics","293","605897","0.0-18.0-0.16","5f04c46bcfd81678efd229de","609a8bf73b2ac84e2732f618","609d79d0431a269afa465ee3","null","","","","null","","","","key","16.709142857142503","683","312.5","","","","","","","","","","","","","","","","","","","",""
"psychophysics","294","606403","0.0-18.0-1.16","5f04c46bcfd81678efd229de","609a8bf73b2ac84e2732f618","609d79d0431a269afa465ee3","null","","","","null","","","","key","16.71103333333352","683","312.5","","","","","","","","","","","","","141","-1","3","true","","","",""
"psychophysics","295","607026","0.0-18.0-2.16","5f04c46bcfd81678efd229de","609a8bf73b2ac84e2732f618","609d79d0431a269afa465ee3","618.845000048168","","","","77","","","","key","16.70938888889052","683","312.5","","","","","","","","","","","","","","","","","","","",""
"psychophysics","296","608521","0.0-18.0-0.17","5f04c46bcfd81678efd229de","609a8bf73b2ac84e2732f618","609d79d0431a269afa465ee3","null","","","","null","","","","key","16.711386363635857","683","312.5","","","","","","","","","","","","","","","","","","","",""
"psychophysics","297","609031","0.0-18.0-1.17","5f04c46bcfd81678efd229de","609a8bf73b2ac84e2732f618","609d79d0431a269afa465ee3","null","","","","null","","","","key","16.710133333333456","683","312.5","","","","","","","","","","","","","141","1","6","true","","","",""
"psychophysics","298","610169","0.0-18.0-2.17","5f04c46bcfd81678efd229de","609a8bf73b2ac84e2732f618","609d79d0431a269afa465ee3","1134.914999944158","","","","77","","","","key","16.709761194029905","683","312.5","","","","","","","","","","","","","","","","","","","",""
"psychophysics","299","610764","0.0-18.0-0.18","5f04c46bcfd81678efd229de","609a8bf73b2ac84e2732f618","609d79d0431a269afa465ee3","null","","","","null","","","","key","16.711628571428758","683","312.5","","","","","","","","","","","","","","","","","","","",""
"psychophysics","300","611276","0.0-18.0-1.18","5f04c46bcfd81678efd229de","609a8bf73b2ac84e2732f618","609d79d0431a269afa465ee3","null","","","","null","","","","key","16.70686206896388","683","312.5","","","","","","","","","","","","","141","1","5","true","","","",""
"psychophysics","301","611779","0.0-18.0-2.18","5f04c46bcfd81678efd229de","609a8bf73b2ac84e2732f618","609d79d0431a269afa465ee3","499.3549999780953","","","","90","","","","key","16.713379310347655","683","312.5","","","","","","","","","","","","","","","","","","","",""
"psychophysics","302","613138","0.0-18.0-0.19","5f04c46bcfd81678efd229de","609a8bf73b2ac84e2732f618","609d79d0431a269afa465ee3","null","","","","null","","","","key","16.710703703704187","683","312.5","","","","","","","","","","","","","","","","","","","",""
"psychophysics","303","613644","0.0-18.0-1.19","5f04c46bcfd81678efd229de","609a8bf73b2ac84e2732f618","609d79d0431a269afa465ee3","null","","","","null","","","","key","16.708758620689785","683","312.5","","","","","","","","","","","","","141","-1","4","true","","","",""
"psychophysics","304","614092","0.0-18.0-2.19","5f04c46bcfd81678efd229de","609a8bf73b2ac84e2732f618","609d79d0431a269afa465ee3","442.87999998778105","","","","90","","","","key","16.707576923081294","683","312.5","","","","","","","","","","","","","","","","","","","",""
"psychophysics","305","615173","0.0-18.0-0.20","5f04c46bcfd81678efd229de","609a8bf73b2ac84e2732f618","609d79d0431a269afa465ee3","null","","","","null","","","","key","16.710587301587182","683","312.5","","","","","","","","","","","","","","","","","","","",""
"psychophysics","306","615678","0.0-18.0-1.20","5f04c46bcfd81678efd229de","609a8bf73b2ac84e2732f618","609d79d0431a269afa465ee3","null","","","","null","","","","key","16.710866666666696","683","312.5","","","","","","","","","","","","","141","-1","0","true","","","",""
"psychophysics","307","615960","0.0-18.0-2.20","5f04c46bcfd81678efd229de","609a8bf73b2ac84e2732f618","609d79d0431a269afa465ee3","277.6750000193715","","","","90","","","","key","16.70686666666685","683","312.5","","","","","","","","","","","","","","","","","","","",""
"psychophysics","308","616811","0.0-18.0-0.21","5f04c46bcfd81678efd229de","609a8bf73b2ac84e2732f618","609d79d0431a269afa465ee3","null","","","","null","","","","key","16.70929999999935","683","312.5","","","","","","","","","","","","","","","","","","","",""
"psychophysics","309","617329","0.0-18.0-1.21","5f04c46bcfd81678efd229de","609a8bf73b2ac84e2732f618","609d79d0431a269afa465ee3","null","","","","null","","","","key","16.712466666668963","683","312.5","","","","","","","","","","","","","141","1","4","true","","","",""
"psychophysics","310","617679","0.0-18.0-2.21","5f04c46bcfd81678efd229de","609a8bf73b2ac84e2732f618","609d79d0431a269afa465ee3","342.5949999364093","","","","90","","","","key","16.713449999998556","683","312.5","","","","","","","","","","","","","","","","","","","",""
"psychophysics","311","618662","0.0-18.0-0.22","5f04c46bcfd81678efd229de","609a8bf73b2ac84e2732f618","609d79d0431a269afa465ee3","null","","","","null","","","","key","16.708810344828166","683","312.5","","","","","","","","","","","","","","","","","","","",""
"psychophysics","312","619168","0.0-18.0-1.22","5f04c46bcfd81678efd229de","609a8bf73b2ac84e2732f618","609d79d0431a269afa465ee3","null","","","","null","","","","key","16.71072413793219","683","312.5","","","","","","","","","","","","","141","-1","6","true","","","",""
"psychophysics","313","619513","0.0-18.0-2.22","5f04c46bcfd81678efd229de","609a8bf73b2ac84e2732f618","609d79d0431a269afa465ee3","336.6300000343472","","","","90","","","","key","16.714050000003773","683","312.5","","","","","","","","","","","","","","","","","","","",""
"psychophysics","314","620704","0.0-18.0-0.23","5f04c46bcfd81678efd229de","609a8bf73b2ac84e2732f618","609d79d0431a269afa465ee3","null","","","","null","","","","key","16.710814285714047","683","312.5","","","","","","","","","","","","","","","","","","","",""
"psychophysics","315","621208","0.0-18.0-1.23","5f04c46bcfd81678efd229de","609a8bf73b2ac84e2732f618","609d79d0431a269afa465ee3","null","","","","null","","","","key","16.711366666667164","683","312.5","","","","","","","","","","","","","141","-1","5","true","","","",""
"psychophysics","316","621647","0.0-18.0-2.23","5f04c46bcfd81678efd229de","609a8bf73b2ac84e2732f618","609d79d0431a269afa465ee3","433.8899999856949","","","","90","","","","key","16.7107200000016","683","312.5","","","","","","","","","","","","","","","","","","","",""
"psychophysics","317","622893","0.0-18.0-0.24","5f04c46bcfd81678efd229de","609a8bf73b2ac84e2732f618","609d79d0431a269afa465ee3","null","","","","null","","","","key","16.709999999999425","683","312.5","","","","","","","","","","","","","","","","","","","",""
"psychophysics","318","623397","0.0-18.0-1.24","5f04c46bcfd81678efd229de","609a8bf73b2ac84e2732f618","609d79d0431a269afa465ee3","null","","","","null","","","","key","16.711266666666294","683","312.5","","","","","","","","","","","","","141","-1","4","true","","","",""
"psychophysics","319","624104","0.0-18.0-2.24","5f04c46bcfd81678efd229de","609a8bf73b2ac84e2732f618","609d79d0431a269afa465ee3","704.6949999639764","","","","77","","","","key","16.7112682926832","683","312.5","","","","","","","","","","","","","","","","","","","",""
"psychophysics","320","624782","0.0-18.0-0.25","5f04c46bcfd81678efd229de","609a8bf73b2ac84e2732f618","609d79d0431a269afa465ee3","null","","","","null","","","","key","16.7084358974348","683","312.5","","","","","","","","","","","","","","","","","","","",""
"psychophysics","321","625300","0.0-18.0-1.25","5f04c46bcfd81678efd229de","609a8bf73b2ac84e2732f618","609d79d0431a269afa465ee3","null","","","","null","","","","key","16.708699999998014","683","312.5","","","","","","","","","","","","","141","1","6","true","","","",""
"psychophysics","322","625772","0.0-18.0-2.25","5f04c46bcfd81678efd229de","609a8bf73b2ac84e2732f618","609d79d0431a269afa465ee3","463.36000005248934","","","","90","","","","key","16.710714285715117","683","312.5","","","","","","","","","","","","","","","","","","","",""
"psychophysics","323","627038","0.0-18.0-0.26","5f04c46bcfd81678efd229de","609a8bf73b2ac84e2732f618","609d79d0431a269afa465ee3","null","","","","null","","","","key","16.709918918918717","683","312.5","","","","","","","","","","","","","","","","","","","",""
"psychophysics","324","627549","0.0-18.0-1.26","5f04c46bcfd81678efd229de","609a8bf73b2ac84e2732f618","609d79d0431a269afa465ee3","null","","","","null","","","","key","16.709833333334732","683","312.5","","","","","","","","","","","","","141","-1","3","true","","","",""
"psychophysics","325","627994","0.0-18.0-2.26","5f04c46bcfd81678efd229de","609a8bf73b2ac84e2732f618","609d79d0431a269afa465ee3","439.9599999887869","","","","90","","","","key","16.710230769226865","683","312.5","","","","","","","","","","","","","","","","","","","",""
"psychophysics","326","629068","0.0-18.0-0.27","5f04c46bcfd81678efd229de","609a8bf73b2ac84e2732f618","609d79d0431a269afa465ee3","null","","","","null","","","","key","16.709634920635764","683","312.5","","","","","","","","","","","","","","","","","","","",""
"psychophysics","327","629607","0.0-18.0-1.27","5f04c46bcfd81678efd229de","609a8bf73b2ac84e2732f618","609d79d0431a269afa465ee3","null","","","","null","","","","key","16.707741935485824","683","312.5","","","","","","","","","","","","","141","1","0","true","","","",""
"psychophysics","328","630756","0.0-18.0-2.27","5f04c46bcfd81678efd229de","609a8bf73b2ac84e2732f618","609d79d0431a269afa465ee3","1144.9750000610948","","","","77","","","","key","16.710117647059686","683","312.5","","","","","","","","","","","","","","","","","","","",""
