"trial_type","trial_index","time_elapsed","internal_node_id","PROLIFIC_PID","STUDY_ID","SESSION_ID","rt","stimulus","button_pressed","success","key_press","responses","isData","view_history","response_type","avg_frame_time","center_x","center_y","isSC","stim_side","trial_luminance","step_size","nReversal","correct","prev_ans","isThreshold","SC_threshold","final_threshold","isLuminance","FF_luminance","luminance","stimSide","ISInt","isFF","question_order","isSPQ","isCAPS","isAQ"
"pavlovia","0","17","0.0-0.0","6049d09a4abaf27d9bb325b7","609a8bf73b2ac84e2732f618","609d7ccda4b0761905050abd","","","","","","","","","","","","","","","","","","","","","","","","","","","","","","","",""
"html-button-response","1","30200","0.0-1.0","6049d09a4abaf27d9bb325b7","609a8bf73b2ac84e2732f618","609d7ccda4b0761905050abd","30177.454999648035","<div style='background-color: white; width:60%; margin: auto; padding: 50px; text-align: justify; text-justify: inter-word; margin-bottom: 20px;'><h1 style='text-align: center;'>Consent Form</h1><p>Please read this consent form carefully before deciding whether you would like to participate in this study. You have to be 18 years old or older to participate to this study.</p><p style='text-decoration: underline;'>Participation is voluntary:</p><p>It is your choice whether or not to participate in this research. If you choose to participate, you may change your mind and leave the study at any time. Refusal to participate or stopping your participation will involve no penalty or loss of benefits to which you are otherwise entitled.</p><p style='text-decoration: underline;'>Purpose of the Study:</p><p>To understand the mechanisms underlying human perception.</p><p style='text-decoration: underline;'>What you will do in this study:</p><p>You will be presented with a series of visual images and then you will press buttons on the keyboard of your computer to respond to simple questions about the images (e.g. Were one or two images presented?). In addition, you will be asked to complete a questionnaire concerning your beliefs and everyday mental and perceptual experiences.'</p><p style='text-decoration: underline;'> Time Required:</p><p>The study will take 40 minutes to complete. </p><p style='text-decoration: underline;'>Risks:</p><p>There are no anticipated risks associated with participating in this study that are beyond those experienced in everyday life. </p><p style='text-decoration: underline;'>Benefits:</p><p>There are no benefits to you in participating in the study. However, this study may lead to a better understanding of how different kinds of visual information are used.</p><p style='text-decoration: underline;'>Compensation:</p><p>You will be paid US$6.6/hour. </p><p style='text-decoration: underline;'>Privacy and Confidentiality:</p><p>Your participation in this study will be anonymous. No personal information about your name or identity will be asked or recorded. This anonymous data will be stored for several years and may be used for a variety of research purposes. The overall results of the study may be published, or the data files may be shared with other researchers, but your identity will not be revealed in any way. The online services we are using for this study may temporarily store your data, but this data will be downloaded and then promptly deleted from those services.Your data will not be permanently associated with your name, IP address, or any other identifiable information (e.g., your information will only be connected to your payment, not to any of your responses), though they may be temporarily stored together before we download and separate them. Even so, no guarantee of internet survey security can be given because, although unlikely, transmissions can be intercepted and IP addresses can be identified. The anonymous data may be shared publicly (for example, in conjunction with a resulting academic publication).</p><p style='text-decoration: underline;'>Participation and Withdrawal:</p><p>Your participation in this study is completely voluntary. You may stop responding to the stimuli or stop answering questions if you so choose and without penalty by exiting the full screen mode, closing this tab of your browser or redirecting it to a different website.</p><p style='text-decoration: underline;'>Contact Info of the Researcher: </p><p>If you have questions about this study, or if you would like to talk to the research team, please contact David Melcher (david.melcher@nyu.edu, md5050@nyu.edu) at the Perception and Active Cognition Laboratory, New York University Abu Dhabi, Computational Research Building, Saadiyat Island, Abu Dhabi, UAE.This research has been reviewed by the New York University Abu Dhabi Institutional Review Board (NYUAD IRB). To contact about your rights in this research, for questions, suggestions, or complaints that are not addressed by the researchers, please email IRBnyuad@nyu.edu, or call the NYUAD IRB at +971 2 628 4313. </p></div>","0","","","","","","","","","","","","","","","","","","","","","","","","","","","","",""
"fullscreen","2","34474","0.0-2.0","6049d09a4abaf27d9bb325b7","609a8bf73b2ac84e2732f618","609d7ccda4b0761905050abd","","","","true","","","","","","","","","","","","","","","","","","","","","","","","","","","",""
"html-keyboard-response","3","45311","0.0-3.0","6049d09a4abaf27d9bb325b7","609a8bf73b2ac84e2732f618","609d7ccda4b0761905050abd","10832.819999661297","<p>Welcome !</p><p>READ CAREFULLY THE FOLLOWING INDICATIONS:</p><p>From this moment you have ~40 minutes to complete the experiment.</p><p>During the experiment you will be prompted to take several breaks. Each break should not last longer than 2-3 minutes.</p><p>Make sure that your computer is plugged in and it's not running on battery power, even if the battery is already fully charged.</p><p>Turn off your phone and music, make sure that you are in a quiet room and that you will not be distracted for the next hour.</p><p>Failure to comply with the instructions and indications provided during the experiment will most likely result in the rejection of your data.<p>Press the spacebar to start.</p>","","","32","","","","","","","","","","","","","","","","","","","","","","","","","","",""
"survey-html-form","4","51544","0.0-4.0","6049d09a4abaf27d9bb325b7","609a8bf73b2ac84e2732f618","609d7ccda4b0761905050abd","6226.644999813288","","","","","{""age"":""43"",""sex"":""F""}","true","","","","","","","","","","","","","","","","","","","","","","","","",""
"instructions","5","77917","0.0-5.0","6049d09a4abaf27d9bb325b7","609a8bf73b2ac84e2732f618","609d7ccda4b0761905050abd","26370.080000255257","","","","","","","[{""page_index"":0,""viewing_time"":16107.790000271052},{""page_index"":1,""viewing_time"":6467.679999768734},{""page_index"":2,""viewing_time"":3793.440000154078}]","","","","","","","","","","","","","","","","","","","","","","","",""
"psychophysics","6","79796","0.0-6.0-0.0","6049d09a4abaf27d9bb325b7","609a8bf73b2ac84e2732f618","609d7ccda4b0761905050abd","852.9600002802908","","","","37","","","","key","16.98327027027024","640","305","true","-1","180","30","0","-1","","","","","","","","","","","","","",""
"psychophysics","7","83210","0.0-6.0-0.1","6049d09a4abaf27d9bb325b7","609a8bf73b2ac84e2732f618","609d7ccda4b0761905050abd","2406.33499994874","","","","39","","","","key","16.682236453202","640","305","true","1","180","30","0","-1","-1","","","","","","","","","","","","",""
"psychophysics","8","84371","0.0-6.0-0.2","6049d09a4abaf27d9bb325b7","609a8bf73b2ac84e2732f618","609d7ccda4b0761905050abd","154.42499984055758","","","","39","","","","key","16.673231884057884","640","305","true","1","150","30","0","-1","-1","","","","","","","","","","","","",""
"psychophysics","9","87590","0.0-6.0-0.3","6049d09a4abaf27d9bb325b7","609a8bf73b2ac84e2732f618","609d7ccda4b0761905050abd","2207.345000002533","","","","37","","","","key","16.679614583333358","640","305","true","-1","150","30","0","-1","-1","","","","","","","","","","","","",""
"psychophysics","10","90150","0.0-6.0-0.4","6049d09a4abaf27d9bb325b7","609a8bf73b2ac84e2732f618","609d7ccda4b0761905050abd","1551.4150001108646","","","","37","","","","key","23.922150943396154","640","305","true","1","129","24","1","1","-1","","","","","","","","","","","","",""
"psychophysics","11","91541","0.0-6.0-0.5","6049d09a4abaf27d9bb325b7","609a8bf73b2ac84e2732f618","609d7ccda4b0761905050abd","384.4200000166893","","","","37","","","","key","16.67834939759036","640","305","true","-1","153","24","1","-1","1","","","","","","","","","","","","",""
"psychophysics","12","92843","0.0-6.0-0.6","6049d09a4abaf27d9bb325b7","609a8bf73b2ac84e2732f618","609d7ccda4b0761905050abd","293.6350000090897","","","","39","","","","key","16.682220779220813","640","305","true","1","153","19.2","2","-1","-1","","","","","","","","","","","","",""
"psychophysics","13","95143","0.0-6.0-0.7","6049d09a4abaf27d9bb325b7","609a8bf73b2ac84e2732f618","609d7ccda4b0761905050abd","1291.3600001484156","","","","37","","","","key","17.05598507462692","640","305","true","-1","133.8","19.2","2","-1","-1","","","","","","","","","","","","",""
"psychophysics","14","97106","0.0-6.0-0.8","6049d09a4abaf27d9bb325b7","609a8bf73b2ac84e2732f618","609d7ccda4b0761905050abd","957.740000449121","","","","39","","","","key","16.681784482758616","640","305","true","-1","133.8","15.36","3","1","-1","","","","","","","","","","","","",""
"psychophysics","15","98490","0.0-6.0-0.9","6049d09a4abaf27d9bb325b7","609a8bf73b2ac84e2732f618","609d7ccda4b0761905050abd","373.48500033840537","","","","37","","","","key","16.681268292682944","640","305","true","-1","149.16000000000003","15.36","3","-1","1","","","","","","","","","","","","",""
"psychophysics","16","100958","0.0-6.0-0.10","6049d09a4abaf27d9bb325b7","609a8bf73b2ac84e2732f618","609d7ccda4b0761905050abd","1458.5299999453127","","","","39","","","","key","16.683088435374177","640","305","true","1","149.16000000000003","12.287999999999998","4","-1","-1","","","","","","","","","","","","",""
"psychophysics","17","103764","0.0-6.0-0.11","6049d09a4abaf27d9bb325b7","609a8bf73b2ac84e2732f618","609d7ccda4b0761905050abd","1801.4699998311698","","","","37","","","","key","16.682952380952408","640","305","true","1","136.872","9.8304","5","1","-1","","","","","","","","","","","","",""
"psychophysics","18","105231","0.0-6.0-0.12","6049d09a4abaf27d9bb325b7","609a8bf73b2ac84e2732f618","609d7ccda4b0761905050abd","462.050000205636","","","","37","","","","key","16.681151162790673","640","305","true","-1","146.7024","9.8304","5","-1","1","","","","","","","","","","","","",""
"psychophysics","19","106650","0.0-6.0-0.13","6049d09a4abaf27d9bb325b7","609a8bf73b2ac84e2732f618","609d7ccda4b0761905050abd","412.3500003479421","","","","37","","","","key","16.676447058823438","640","305","true","-1","146.7024","7.864319999999999","6","-1","-1","","","","","","","","","","","","",""
"psychophysics","20","109919","0.0-6.0-0.14","6049d09a4abaf27d9bb325b7","609a8bf73b2ac84e2732f618","609d7ccda4b0761905050abd","2264.6350003778934","","","","39","","","","key","16.684461538461544","640","305","true","1","138.83808000000002","7.864319999999999","6","-1","-1","","","","","","","","","","","","",""
"psychophysics","21","111605","0.0-6.0-0.15","6049d09a4abaf27d9bb325b7","609a8bf73b2ac84e2732f618","609d7ccda4b0761905050abd","679.9249998293817","","","","39","","","","key","16.682189999999974","640","305","true","1","138.83808000000002","7.864319999999999","6","-1","-1","","","","","","","","","","","","",""
"psychophysics","22","113112","0.0-6.0-0.16","6049d09a4abaf27d9bb325b7","609a8bf73b2ac84e2732f618","609d7ccda4b0761905050abd","500.0199996866286","","","","39","","","","key","16.68151685393257","640","305","true","-1","130.97376000000003","6.291456","7","1","-1","","","","","","","","","","","","",""
"psychophysics","23","114590","0.0-6.0-0.17","6049d09a4abaf27d9bb325b7","609a8bf73b2ac84e2732f618","609d7ccda4b0761905050abd","470.8799999207258","","","","37","","","","key","16.677818181818193","640","305","true","-1","137.26521600000004","6.291456","7","-1","1","","","","","","","","","","","","",""
"psychophysics","24","116939","0.0-6.0-0.18","6049d09a4abaf27d9bb325b7","609a8bf73b2ac84e2732f618","609d7ccda4b0761905050abd","1341.3149998523295","","","","37","","","","key","16.681863309352586","640","305","true","1","137.26521600000004","5.033164800000001","8","1","-1","","","","","","","","","","","","",""
"psychophysics","25","118384","0.0-6.0-0.19","6049d09a4abaf27d9bb325b7","609a8bf73b2ac84e2732f618","609d7ccda4b0761905050abd","441.82000029832125","","","","37","","","","key","16.682883720930096","640","305","true","-1","142.29838080000005","5.033164800000001","8","-1","1","","","","","","","","","","","","",""
"psychophysics","26","119883","0.0-6.0-0.20","6049d09a4abaf27d9bb325b7","609a8bf73b2ac84e2732f618","609d7ccda4b0761905050abd","490.93500012531877","","","","39","","","","key","16.682640449438253","640","305","true","1","142.29838080000005","4.0265318400000005","9","-1","-1","","","","","","","","","","","","",""
"psychophysics","27","121478","0.0-6.0-0.21","6049d09a4abaf27d9bb325b7","609a8bf73b2ac84e2732f618","609d7ccda4b0761905050abd","587.5050001777709","","","","39","","","","key","16.682663157894766","640","305","true","1","138.27184896000006","4.0265318400000005","9","-1","-1","","","","","","","","","","","","",""
"psychophysics","28","122928","0.0-6.0-0.22","6049d09a4abaf27d9bb325b7","609a8bf73b2ac84e2732f618","609d7ccda4b0761905050abd","444.300000090152","","","","39","","","","key","16.68077647058817","640","305","true","-1","138.27184896000006","3.2212254720000004","10","1","-1","","","","","","","","","","","","",""
"psychophysics","29","125302","0.0-6.0-0.23","6049d09a4abaf27d9bb325b7","609a8bf73b2ac84e2732f618","609d7ccda4b0761905050abd","1367.1400002203882","","","","39","","","","key","16.679070422535315","640","305","true","1","141.49307443200007","3.2212254720000004","10","-1","1","","","","","","","","","","","","",""
"psychophysics","30","126694","0.0-6.0-0.24","6049d09a4abaf27d9bb325b7","609a8bf73b2ac84e2732f618","609d7ccda4b0761905050abd","387.0099997147918","","","","39","","","","key","16.68024390243901","640","305","true","1","141.49307443200007","2.5769803776000004","11","-1","-1","","","","","","","","","","","","",""
"psychophysics","31","128068","0.0-6.0-0.25","6049d09a4abaf27d9bb325b7","609a8bf73b2ac84e2732f618","609d7ccda4b0761905050abd","366.82499991729856","","","","37","","","","key","16.687024390244027","640","305","true","-1","138.91609405440008","2.5769803776000004","11","-1","-1","","","","","","","","","","","","",""
"psychophysics","32","129534","0.0-6.0-0.26","6049d09a4abaf27d9bb325b7","609a8bf73b2ac84e2732f618","609d7ccda4b0761905050abd","458.56499997898936","","","","37","","","","key","16.681965116279127","640","305","true","-1","138.91609405440008","2.5769803776000004","11","-1","-1","","","","","","","","","","","","",""
"psychophysics","33","131630","0.0-6.0-0.27","6049d09a4abaf27d9bb325b7","609a8bf73b2ac84e2732f618","609d7ccda4b0761905050abd","1084.749999921769","","","","37","","","","key","16.681951999999814","640","305","true","-1","136.33911367680008","2.5769803776000004","11","-1","-1","","","","","","","","","","","","",""
"psychophysics","34","133107","0.0-6.0-0.28","6049d09a4abaf27d9bb325b7","609a8bf73b2ac84e2732f618","609d7ccda4b0761905050abd","469.90999998524785","","","","37","","","","key","16.68357954545453","640","305","true","-1","136.33911367680008","2.5769803776000004","11","-1","-1","","","","","","","","","","","","",""
"psychophysics","35","134657","0.0-6.0-0.29","6049d09a4abaf27d9bb325b7","609a8bf73b2ac84e2732f618","609d7ccda4b0761905050abd","542.735000140965","","","","37","","","","key","16.865835164835136","640","305","true","1","133.7621332992001","2.0615843020800004","12","1","-1","","","","","","","","","","","","",""
"psychophysics","36","136126","0.0-6.0-0.30","6049d09a4abaf27d9bb325b7","609a8bf73b2ac84e2732f618","609d7ccda4b0761905050abd","464.20999988913536","","","","39","","","","key","16.68164367816075","640","305","true","1","135.8237176012801","2.0615843020800004","12","-1","1","","","","","","","","","","","","",""
"psychophysics","37","138130","0.0-6.0-0.31","6049d09a4abaf27d9bb325b7","609a8bf73b2ac84e2732f618","609d7ccda4b0761905050abd","995.9399998188019","","","","39","","","","key","16.6827647058822","640","305","true","-1","135.8237176012801","1.6492674416640005","13","1","-1","","","","","","","","","","","","",""
"psychophysics","38","140005","0.0-6.0-0.32","6049d09a4abaf27d9bb325b7","609a8bf73b2ac84e2732f618","609d7ccda4b0761905050abd","869.0399997867644","","","","37","","","","key","16.681396396396217","640","305","true","-1","137.4729850429441","1.6492674416640005","13","-1","1","","","","","","","","","","","","",""
"psychophysics","39","141714","0.0-6.0-0.33","6049d09a4abaf27d9bb325b7","609a8bf73b2ac84e2732f618","609d7ccda4b0761905050abd","702.1849998272955","","","","37","","","","key","16.68162745098023","640","305","true","-1","137.4729850429441","1.3194139533312006","14","-1","-1","","","","","","","","","","","","",""
"psychophysics","40","143374","0.0-6.0-0.34","6049d09a4abaf27d9bb325b7","609a8bf73b2ac84e2732f618","609d7ccda4b0761905050abd","654.7000003047287","","","","37","","","","key","16.681561224489847","640","305","true","1","136.15357108961288","1.0555311626649604","15","1","-1","","","","","","","","","","","","",""
"psychophysics","41","145353","0.0-6.0-0.35","6049d09a4abaf27d9bb325b7","609a8bf73b2ac84e2732f618","609d7ccda4b0761905050abd","971.6949998401105","","","","37","","","","key","16.681627118644073","640","305","true","1","137.20910225227783","1.0555311626649604","15","1","1","","","","","","","","","","","","",""
"psychophysics","42","146955","0.0-6.0-0.36","6049d09a4abaf27d9bb325b7","609a8bf73b2ac84e2732f618","609d7ccda4b0761905050abd","595.8249997347593","","","","37","","","","key","16.68198947368441","640","305","true","1","138.26463341494278","1.0555311626649604","15","1","1","","","","","","","","","","","","",""
"psychophysics","43","148601","0.0-6.0-0.37","6049d09a4abaf27d9bb325b7","609a8bf73b2ac84e2732f618","609d7ccda4b0761905050abd","641.3900000043213","","","","37","","","","key","16.68115463917511","640","305","true","1","139.32016457760773","1.0555311626649604","15","1","1","","","","","","","","","","","","",""
"psychophysics","44","149953","0.0-6.0-0.38","6049d09a4abaf27d9bb325b7","609a8bf73b2ac84e2732f618","609d7ccda4b0761905050abd","344.70999985933304","","","","39","","","","key","16.677137500000025","640","305","true","1","140.37569574027268","1.0555311626649604","15","-1","1","","","","","","","","","","","","",""
"psychophysics","45","151307","0.0-6.0-0.39","6049d09a4abaf27d9bb325b7","609a8bf73b2ac84e2732f618","609d7ccda4b0761905050abd","347.64500008895993","","","","37","","","","key","16.683296296296405","640","305","true","-1","140.37569574027268","1","16","-1","-1","","","","","","","","","","","","",""
"html-keyboard-response","46","156503","0.0-7.0","6049d09a4abaf27d9bb325b7","609a8bf73b2ac84e2732f618","609d7ccda4b0761905050abd","5192.13500013575","<p>Well Done !</p><p>Prepare for a new block.</p><p>DON'T EXIT THE FULL SCREEN MODE</p><p>Press the Spacebar to start.</p>","","","32","","","","","","","","","","","","","","","true","137.5043211243357","","","","","","","","","","",""
"psychophysics","47","159522","0.0-8.0-0.0","6049d09a4abaf27d9bb325b7","609a8bf73b2ac84e2732f618","609d7ccda4b0761905050abd","2015.3950001113117","","","","37","","","","key","16.68027624309395","640","305","true","-1","180","30","0","-1","","","","","","","","","","","","","",""
"psychophysics","48","161284","0.0-8.0-0.1","6049d09a4abaf27d9bb325b7","609a8bf73b2ac84e2732f618","609d7ccda4b0761905050abd","749.1099997423589","","","","39","","","","key","16.683657142857","640","305","true","1","180","30","0","-1","-1","","","","","","","","","","","","",""
"psychophysics","49","162677","0.0-8.0-0.2","6049d09a4abaf27d9bb325b7","609a8bf73b2ac84e2732f618","609d7ccda4b0761905050abd","381.9649997167289","","","","37","","","","key","16.681999999999988","640","305","true","-1","150","30","0","-1","-1","","","","","","","","","","","","",""
"psychophysics","50","164076","0.0-8.0-0.3","6049d09a4abaf27d9bb325b7","609a8bf73b2ac84e2732f618","609d7ccda4b0761905050abd","381.49499986320734","","","","39","","","","key","16.683626506023856","640","305","true","1","150","30","0","-1","-1","","","","","","","","","","","","",""
"psychophysics","51","165709","0.0-8.0-0.4","6049d09a4abaf27d9bb325b7","609a8bf73b2ac84e2732f618","609d7ccda4b0761905050abd","627.7600000612438","","","","37","","","","key","17.213053191489383","640","305","true","-1","129","30","0","-1","-1","","","","","","","","","","","","",""
"psychophysics","52","167246","0.0-8.0-0.5","6049d09a4abaf27d9bb325b7","609a8bf73b2ac84e2732f618","609d7ccda4b0761905050abd","529.3399998918176","","","","37","","","","key","16.67963736263714","640","305","true","1","129","24","1","1","-1","","","","","","","","","","","","",""
"psychophysics","53","168672","0.0-8.0-0.6","6049d09a4abaf27d9bb325b7","609a8bf73b2ac84e2732f618","609d7ccda4b0761905050abd","419.65499985963106","","","","37","","","","key","16.67895294117659","640","305","true","-1","153","24","1","-1","1","","","","","","","","","","","","",""
"psychophysics","54","170104","0.0-8.0-0.7","6049d09a4abaf27d9bb325b7","609a8bf73b2ac84e2732f618","609d7ccda4b0761905050abd","428.3799999393523","","","","37","","","","key","17.94778481012658","640","305","true","-1","153","19.2","2","-1","-1","","","","","","","","","","","","",""
"psychophysics","55","172371","0.0-8.0-0.8","6049d09a4abaf27d9bb325b7","609a8bf73b2ac84e2732f618","609d7ccda4b0761905050abd","1261.6300000809133","","","","37","","","","key","16.683574626865795","640","305","true","-1","133.8","19.2","2","-1","-1","","","","","","","","","","","","",""
"psychophysics","56","174353","0.0-8.0-0.9","6049d09a4abaf27d9bb325b7","609a8bf73b2ac84e2732f618","609d7ccda4b0761905050abd","973.2250003144145","","","","39","","","","key","16.681500000000135","640","305","true","1","133.8","19.2","2","-1","-1","","","","","","","","","","","","",""
"psychophysics","57","175984","0.0-8.0-0.10","6049d09a4abaf27d9bb325b7","609a8bf73b2ac84e2732f618","609d7ccda4b0761905050abd","624.5050001889467","","","","39","","","","key","16.682804123711527","640","305","true","1","129","19.2","2","-1","-1","","","","","","","","","","","","",""
"psychophysics","58","177479","0.0-8.0-0.11","6049d09a4abaf27d9bb325b7","609a8bf73b2ac84e2732f618","609d7ccda4b0761905050abd","487.32500011101365","","","","39","","","","key","16.682314606741844","640","305","true","-1","129","15.36","3","1","-1","","","","","","","","","","","","",""
"psychophysics","59","178848","0.0-8.0-0.12","6049d09a4abaf27d9bb325b7","609a8bf73b2ac84e2732f618","609d7ccda4b0761905050abd","360.0700004026294","","","","39","","","","key","16.68193749999991","640","305","true","1","144.36","15.36","3","-1","1","","","","","","","","","","","","",""
"psychophysics","60","180410","0.0-8.0-0.13","6049d09a4abaf27d9bb325b7","609a8bf73b2ac84e2732f618","609d7ccda4b0761905050abd","556.5100000239909","","","","37","","","","key","16.67506451612922","640","305","true","-1","144.36","12.287999999999998","4","-1","-1","","","","","","","","","","","","",""
"psychophysics","61","182059","0.0-8.0-0.14","6049d09a4abaf27d9bb325b7","609a8bf73b2ac84e2732f618","609d7ccda4b0761905050abd","641.1500000394881","","","","37","","","","key","16.683081632652865","640","305","true","-1","132.072","12.287999999999998","4","-1","-1","","","","","","","","","","","","",""
"psychophysics","62","183471","0.0-8.0-0.15","6049d09a4abaf27d9bb325b7","609a8bf73b2ac84e2732f618","609d7ccda4b0761905050abd","404.6049998141825","","","","39","","","","key","16.67676190476223","640","305","true","1","132.072","12.287999999999998","4","-1","-1","","","","","","","","","","","","",""
"psychophysics","63","185256","0.0-8.0-0.16","6049d09a4abaf27d9bb325b7","609a8bf73b2ac84e2732f618","609d7ccda4b0761905050abd","780.1049998961389","","","","37","","","","key","16.681037735849078","640","305","true","-1","129","12.287999999999998","4","-1","-1","","","","","","","","","","","","",""
"psychophysics","64","186996","0.0-8.0-0.17","6049d09a4abaf27d9bb325b7","609a8bf73b2ac84e2732f618","609d7ccda4b0761905050abd","735.3300000540912","","","","39","","","","key","16.68142718446607","640","305","true","-1","129","9.8304","5","1","-1","","","","","","","","","","","","",""
"psychophysics","65","188390","0.0-8.0-0.18","6049d09a4abaf27d9bb325b7","609a8bf73b2ac84e2732f618","609d7ccda4b0761905050abd","384.9749998189509","","","","37","","","","key","16.676182926829448","640","305","true","-1","138.8304","9.8304","5","-1","1","","","","","","","","","","","","",""
"psychophysics","66","189766","0.0-8.0-0.19","6049d09a4abaf27d9bb325b7","609a8bf73b2ac84e2732f618","609d7ccda4b0761905050abd","368.4899997897446","","","","39","","","","key","16.681829268292727","640","305","true","1","138.8304","7.864319999999999","6","-1","-1","","","","","","","","","","","","",""
"psychophysics","67","191436","0.0-8.0-0.20","6049d09a4abaf27d9bb325b7","609a8bf73b2ac84e2732f618","609d7ccda4b0761905050abd","664.1849996522069","","","","37","","","","key","16.682585858585867","640","305","true","-1","130.96608","7.864319999999999","6","-1","-1","","","","","","","","","","","","",""
"psychophysics","68","192994","0.0-8.0-0.21","6049d09a4abaf27d9bb325b7","609a8bf73b2ac84e2732f618","609d7ccda4b0761905050abd","548.5000000335276","","","","37","","","","key","16.681956521739345","640","305","true","-1","130.96608","7.864319999999999","6","-1","-1","","","","","","","","","","","","",""
"psychophysics","69","195263","0.0-8.0-0.22","6049d09a4abaf27d9bb325b7","609a8bf73b2ac84e2732f618","609d7ccda4b0761905050abd","1262.465000152588","","","","37","","","","key","16.68086764705881","640","305","true","-1","129","7.864319999999999","6","-1","-1","","","","","","","","","","","","",""
"psychophysics","70","196814","0.0-8.0-0.23","6049d09a4abaf27d9bb325b7","609a8bf73b2ac84e2732f618","609d7ccda4b0761905050abd","545.2999998815358","","","","39","","","","key","16.681450549450737","640","305","true","1","129","7.864319999999999","6","-1","-1","","","","","","","","","","","","",""
"psychophysics","71","198328","0.0-8.0-0.24","6049d09a4abaf27d9bb325b7","609a8bf73b2ac84e2732f618","609d7ccda4b0761905050abd","507.01000029221177","","","","39","","","","key","16.6797444444444","640","305","true","1","129","7.864319999999999","6","-1","-1","","","","","","","","","","","","",""
"psychophysics","72","199817","0.0-8.0-0.25","6049d09a4abaf27d9bb325b7","609a8bf73b2ac84e2732f618","609d7ccda4b0761905050abd","477.65000024810433","","","","39","","","","key","16.681511363636343","640","305","true","1","129","7.864319999999999","6","-1","-1","","","","","","","","","","","","",""
"psychophysics","73","201237","0.0-8.0-0.26","6049d09a4abaf27d9bb325b7","609a8bf73b2ac84e2732f618","609d7ccda4b0761905050abd","409.07999966293573","","","","39","","","","key","16.676223529412013","640","305","true","-1","129","6.291456","7","1","-1","","","","","","","","","","","","",""
"psychophysics","74","203356","0.0-8.0-0.27","6049d09a4abaf27d9bb325b7","609a8bf73b2ac84e2732f618","609d7ccda4b0761905050abd","1114.7900000214577","","","","39","","","","key","16.682373015872955","640","305","true","1","135.291456","6.291456","7","-1","1","","","","","","","","","","","","",""
"psychophysics","75","204805","0.0-8.0-0.28","6049d09a4abaf27d9bb325b7","609a8bf73b2ac84e2732f618","609d7ccda4b0761905050abd","442.68500013276935","","","","39","","","","key","16.877023529412007","640","305","true","1","135.291456","5.033164800000001","8","-1","-1","","","","","","","","","","","","",""
"psychophysics","76","206494","0.0-8.0-0.29","6049d09a4abaf27d9bb325b7","609a8bf73b2ac84e2732f618","609d7ccda4b0761905050abd","682.8600000590086","","","","37","","","","key","16.684229999999808","640","305","true","1","130.2582912","4.0265318400000005","9","1","-1","","","","","","","","","","","","",""
"psychophysics","77","208175","0.0-8.0-0.30","6049d09a4abaf27d9bb325b7","609a8bf73b2ac84e2732f618","609d7ccda4b0761905050abd","674.8199998401105","","","","37","","","","key","16.681939393939565","640","305","true","-1","134.28482304","4.0265318400000005","9","-1","1","","","","","","","","","","","","",""
"psychophysics","78","209588","0.0-8.0-0.31","6049d09a4abaf27d9bb325b7","609a8bf73b2ac84e2732f618","609d7ccda4b0761905050abd","406.360000371933","","","","37","","","","key","16.682630952380784","640","305","true","1","134.28482304","3.2212254720000004","10","1","-1","","","","","","","","","","","","",""
"psychophysics","79","211178","0.0-8.0-0.32","6049d09a4abaf27d9bb325b7","609a8bf73b2ac84e2732f618","609d7ccda4b0761905050abd","580.9200000949204","","","","37","","","","key","16.68078723404231","640","305","true","1","137.506048512","3.2212254720000004","10","1","1","","","","","","","","","","","","",""
"psychophysics","80","212516","0.0-8.0-0.33","6049d09a4abaf27d9bb325b7","609a8bf73b2ac84e2732f618","609d7ccda4b0761905050abd","327.0950000733137","","","","39","","","","key","16.674487500000033","640","305","true","1","140.72727398400002","3.2212254720000004","10","-1","1","","","","","","","","","","","","",""
"psychophysics","81","213847","0.0-8.0-0.34","6049d09a4abaf27d9bb325b7","609a8bf73b2ac84e2732f618","609d7ccda4b0761905050abd","323.7549997866154","","","","37","","","","key","16.68112820512854","640","305","true","-1","140.72727398400002","2.5769803776000004","11","-1","-1","","","","","","","","","","","","",""
"psychophysics","82","215801","0.0-8.0-0.35","6049d09a4abaf27d9bb325b7","609a8bf73b2ac84e2732f618","609d7ccda4b0761905050abd","947.9550002142787","","","","37","","","","key","16.67734188034197","640","305","true","1","138.15029360640003","2.0615843020800004","12","1","-1","","","","","","","","","","","","",""
"psychophysics","83","217119","0.0-8.0-0.36","6049d09a4abaf27d9bb325b7","609a8bf73b2ac84e2732f618","609d7ccda4b0761905050abd","313.74499993398786","","","","39","","","","key","16.68602564102576","640","305","true","1","140.21187790848003","2.0615843020800004","12","-1","1","","","","","","","","","","","","",""
"psychophysics","84","218472","0.0-8.0-0.37","6049d09a4abaf27d9bb325b7","609a8bf73b2ac84e2732f618","609d7ccda4b0761905050abd","346.11500008031726","","","","39","","","","key","16.678312499999812","640","305","true","1","140.21187790848003","1.6492674416640005","13","-1","-1","","","","","","","","","","","","",""
"psychophysics","85","219854","0.0-8.0-0.38","6049d09a4abaf27d9bb325b7","609a8bf73b2ac84e2732f618","609d7ccda4b0761905050abd","377.1300003863871","","","","37","","","","key","16.68371951219515","640","305","true","-1","138.56261046681604","1.6492674416640005","13","-1","-1","","","","","","","","","","","","",""
"psychophysics","86","221293","0.0-8.0-0.39","6049d09a4abaf27d9bb325b7","609a8bf73b2ac84e2732f618","609d7ccda4b0761905050abd","434.6150001510978","","","","37","","","","key","16.680811764705954","640","305","true","-1","138.56261046681604","1.6492674416640005","13","-1","-1","","","","","","","","","","","","",""
"html-keyboard-response","87","226456","0.0-9.0","6049d09a4abaf27d9bb325b7","609a8bf73b2ac84e2732f618","609d7ccda4b0761905050abd","5160.130000207573","<p>Well Done !</p><p>Prepare for a new block.</p><p>DON'T EXIT THE FULL SCREEN MODE</p><p>Press the Spacebar to start.</p>","","","32","","","","","","","","","","","","","","","true","136.13804774113285","","","","","","","","","","",""
"psychophysics","88","228408","0.0-10.0-0.0","6049d09a4abaf27d9bb325b7","609a8bf73b2ac84e2732f618","609d7ccda4b0761905050abd","942.7450001239777","","","","37","","","","key","16.68231034482772","640","305","true","-1","180","30","0","-1","","","","","","","","","","","","","",""
"psychophysics","89","229714","0.0-10.0-0.1","6049d09a4abaf27d9bb325b7","609a8bf73b2ac84e2732f618","609d7ccda4b0761905050abd","302.4049997329712","","","","37","","","","key","16.68314102564107","640","305","true","-1","180","30","0","-1","-1","","","","","","","","","","","","",""
"psychophysics","90","231077","0.0-10.0-0.2","6049d09a4abaf27d9bb325b7","609a8bf73b2ac84e2732f618","609d7ccda4b0761905050abd","358.5399999283254","","","","37","","","","key","16.68181250000016","640","305","true","-1","150","30","0","-1","-1","","","","","","","","","","","","",""
"psychophysics","91","232465","0.0-10.0-0.3","6049d09a4abaf27d9bb325b7","609a8bf73b2ac84e2732f618","609d7ccda4b0761905050abd","383.08999966830015","","","","39","","","","key","16.682253012048285","640","305","true","1","150","30","0","-1","-1","","","","","","","","","","","","",""
"psychophysics","92","234306","0.0-10.0-0.4","6049d09a4abaf27d9bb325b7","609a8bf73b2ac84e2732f618","609d7ccda4b0761905050abd","834.9049999378622","","","","37","","","","key","16.68238532110096","640","305","true","-1","129","30","0","-1","-1","","","","","","","","","","","","",""
"psychophysics","93","235828","0.0-10.0-0.5","6049d09a4abaf27d9bb325b7","609a8bf73b2ac84e2732f618","609d7ccda4b0761905050abd","513.7050002813339","","","","37","","","","key","16.68103333333339","640","305","true","1","129","24","1","1","-1","","","","","","","","","","","","",""
"psychophysics","94","237119","0.0-10.0-0.6","6049d09a4abaf27d9bb325b7","609a8bf73b2ac84e2732f618","609d7ccda4b0761905050abd","283.99999998509884","","","","39","","","","key","16.680844155844003","640","305","true","1","153","24","1","-1","1","","","","","","","","","","","","",""
"psychophysics","95","238437","0.0-10.0-0.7","6049d09a4abaf27d9bb325b7","609a8bf73b2ac84e2732f618","609d7ccda4b0761905050abd","310.0649998523295","","","","39","","","","key","16.68134615384639","640","305","true","1","153","19.2","2","-1","-1","","","","","","","","","","","","",""
"psychophysics","96","240372","0.0-10.0-0.8","6049d09a4abaf27d9bb325b7","609a8bf73b2ac84e2732f618","609d7ccda4b0761905050abd","926.7400000244379","","","","39","","","","key","16.68253913043477","640","305","true","-1","133.8","15.36","3","1","-1","","","","","","","","","","","","",""
"psychophysics","97","241551","0.0-10.0-0.9","6049d09a4abaf27d9bb325b7","609a8bf73b2ac84e2732f618","609d7ccda4b0761905050abd","172.22000006586313","","","","39","","","","key","16.677478260869766","640","305","true","1","149.16000000000003","15.36","3","-1","1","","","","","","","","","","","","",""
"psychophysics","98","242882","0.0-10.0-0.10","6049d09a4abaf27d9bb325b7","609a8bf73b2ac84e2732f618","609d7ccda4b0761905050abd","318.3100000023842","","","","39","","","","key","16.676886075949575","640","305","true","1","149.16000000000003","12.287999999999998","4","-1","-1","","","","","","","","","","","","",""
"psychophysics","99","244427","0.0-10.0-0.11","6049d09a4abaf27d9bb325b7","609a8bf73b2ac84e2732f618","609d7ccda4b0761905050abd","537.8350000828505","","","","39","","","","key","16.682945652173974","640","305","true","-1","136.872","9.8304","5","1","-1","","","","","","","","","","","","",""
"psychophysics","100","245635","0.0-10.0-0.12","6049d09a4abaf27d9bb325b7","609a8bf73b2ac84e2732f618","609d7ccda4b0761905050abd","196.89999986439943","","","","39","","","","key","16.681563380281737","640","305","true","1","146.7024","9.8304","5","-1","1","","","","","","","","","","","","",""
"psychophysics","101","246951","0.0-10.0-0.13","6049d09a4abaf27d9bb325b7","609a8bf73b2ac84e2732f618","609d7ccda4b0761905050abd","308.0199998803437","","","","37","","","","key","16.682846153846373","640","305","true","-1","146.7024","7.864319999999999","6","-1","-1","","","","","","","","","","","","",""
"psychophysics","102","248380","0.0-10.0-0.14","6049d09a4abaf27d9bb325b7","609a8bf73b2ac84e2732f618","609d7ccda4b0761905050abd","422.89499985054135","","","","37","","","","key","16.677541176470765","640","305","true","-1","138.83808000000002","7.864319999999999","6","-1","-1","","","","","","","","","","","","",""
"psychophysics","103","249743","0.0-10.0-0.15","6049d09a4abaf27d9bb325b7","609a8bf73b2ac84e2732f618","609d7ccda4b0761905050abd","355.2149999886751","","","","39","","","","key","16.681862499999987","640","305","true","1","138.83808000000002","7.864319999999999","6","-1","-1","","","","","","","","","","","","",""
"psychophysics","104","251433","0.0-10.0-0.16","6049d09a4abaf27d9bb325b7","609a8bf73b2ac84e2732f618","609d7ccda4b0761905050abd","686.2200000323355","","","","39","","","","key","16.676693069306836","640","305","true","-1","130.97376000000003","6.291456","7","1","-1","","","","","","","","","","","","",""
"psychophysics","105","252932","0.0-10.0-0.17","6049d09a4abaf27d9bb325b7","609a8bf73b2ac84e2732f618","609d7ccda4b0761905050abd","492.65999998897314","","","","37","","","","key","16.681876404494442","640","305","true","-1","137.26521600000004","6.291456","7","-1","1","","","","","","","","","","","","",""
"psychophysics","106","254370","0.0-10.0-0.18","6049d09a4abaf27d9bb325b7","609a8bf73b2ac84e2732f618","609d7ccda4b0761905050abd","433.77000000327826","","","","39","","","","key","16.681270588235588","640","305","true","1","137.26521600000004","5.033164800000001","8","-1","-1","","","","","","","","","","","","",""
"psychophysics","107","255918","0.0-10.0-0.19","6049d09a4abaf27d9bb325b7","609a8bf73b2ac84e2732f618","609d7ccda4b0761905050abd","543.2100002653897","","","","37","","","","key","16.6828260869566","640","305","true","-1","132.23205120000003","5.033164800000001","8","-1","-1","","","","","","","","","","","","",""
"psychophysics","108","258014","0.0-10.0-0.20","6049d09a4abaf27d9bb325b7","609a8bf73b2ac84e2732f618","609d7ccda4b0761905050abd","1081.9050003774464","","","","39","","","","key","16.680274193548325","640","305","true","-1","132.23205120000003","4.0265318400000005","9","1","-1","","","","","","","","","","","","",""
"psychophysics","109","259410","0.0-10.0-0.21","6049d09a4abaf27d9bb325b7","609a8bf73b2ac84e2732f618","609d7ccda4b0761905050abd","384.6200001426041","","","","39","","","","key","16.683265060241087","640","305","true","-1","136.25858304000002","4.0265318400000005","9","1","1","","","","","","","","","","","","",""
"psychophysics","110","260669","0.0-10.0-0.22","6049d09a4abaf27d9bb325b7","609a8bf73b2ac84e2732f618","609d7ccda4b0761905050abd","251.44500005990267","","","","37","","","","key","16.679567567567574","640","305","true","-1","140.28511488","4.0265318400000005","9","-1","1","","","","","","","","","","","","",""
"psychophysics","111","262348","0.0-10.0-0.23","6049d09a4abaf27d9bb325b7","609a8bf73b2ac84e2732f618","609d7ccda4b0761905050abd","674.170000012964","","","","37","","","","key","16.684870000000227","640","305","true","-1","140.28511488","3.2212254720000004","10","-1","-1","","","","","","","","","","","","",""
"psychophysics","112","264001","0.0-10.0-0.24","6049d09a4abaf27d9bb325b7","609a8bf73b2ac84e2732f618","609d7ccda4b0761905050abd","647.1600001677871","","","","37","","","","key","16.682897959183663","640","305","true","1","137.06388940800002","2.5769803776000004","11","1","-1","","","","","","","","","","","","",""
"psychophysics","113","265080","0.0-10.0-0.25","6049d09a4abaf27d9bb325b7","609a8bf73b2ac84e2732f618","609d7ccda4b0761905050abd","66.42000004649162","","","","39","","","","key","16.683921875000124","640","305","true","1","139.64086978560002","2.5769803776000004","11","-1","1","","","","","","","","","","","","",""
"psychophysics","114","266136","0.0-10.0-0.26","6049d09a4abaf27d9bb325b7","609a8bf73b2ac84e2732f618","609d7ccda4b0761905050abd","45.60500010848045","","","","39","","","","key","16.68269354838694","640","305","true","1","139.64086978560002","2.0615843020800004","12","-1","-1","","","","","","","","","","","","",""
"psychophysics","115","267194","0.0-10.0-0.27","6049d09a4abaf27d9bb325b7","609a8bf73b2ac84e2732f618","609d7ccda4b0761905050abd","50.359999760985374","","","","39","","","","key","16.688190476190936","640","305","true","1","137.57928548352","2.0615843020800004","12","-1","-1","","","","","","","","","","","","",""
"psychophysics","116","268614","0.0-10.0-0.28","6049d09a4abaf27d9bb325b7","609a8bf73b2ac84e2732f618","609d7ccda4b0761905050abd","404.8500000499189","","","","37","","","","key","16.682833333333424","640","305","true","1","137.57928548352","1.6492674416640005","13","1","-1","","","","","","","","","","","","",""
"psychophysics","117","269903","0.0-10.0-0.29","6049d09a4abaf27d9bb325b7","609a8bf73b2ac84e2732f618","609d7ccda4b0761905050abd","276.23000042513013","","","","37","","","","key","16.68369736842119","640","305","true","-1","139.228552925184","1.6492674416640005","13","-1","1","","","","","","","","","","","","",""
"psychophysics","118","271214","0.0-10.0-0.30","6049d09a4abaf27d9bb325b7","609a8bf73b2ac84e2732f618","609d7ccda4b0761905050abd","302.39999992772937","","","","37","","","","key","16.682402597402387","640","305","true","-1","139.228552925184","1.3194139533312006","14","-1","-1","","","","","","","","","","","","",""
"psychophysics","119","272480","0.0-10.0-0.31","6049d09a4abaf27d9bb325b7","609a8bf73b2ac84e2732f618","609d7ccda4b0761905050abd","254.14999993517995","","","","39","","","","key","16.68234666666637","640","305","true","1","137.9091389718528","1.3194139533312006","14","-1","-1","","","","","","","","","","","","",""
"psychophysics","120","273799","0.0-10.0-0.32","6049d09a4abaf27d9bb325b7","609a8bf73b2ac84e2732f618","609d7ccda4b0761905050abd","302.1299997344613","","","","39","","","","key","16.68337179487198","640","305","true","1","137.9091389718528","1.3194139533312006","14","-1","-1","","","","","","","","","","","","",""
"psychophysics","121","275302","0.0-10.0-0.33","6049d09a4abaf27d9bb325b7","609a8bf73b2ac84e2732f618","609d7ccda4b0761905050abd","491.84999987483025","","","","39","","","","key","16.683033333333313","640","305","true","1","136.5897250185216","1.3194139533312006","14","-1","-1","","","","","","","","","","","","",""
"psychophysics","122","276701","0.0-10.0-0.34","6049d09a4abaf27d9bb325b7","609a8bf73b2ac84e2732f618","609d7ccda4b0761905050abd","390.22000040858984","","","","39","","","","key","16.68063855421637","640","305","true","-1","136.5897250185216","1.0555311626649604","15","1","-1","","","","","","","","","","","","",""
"psychophysics","123","278084","0.0-10.0-0.35","6049d09a4abaf27d9bb325b7","609a8bf73b2ac84e2732f618","609d7ccda4b0761905050abd","377.8800000436604","","","","39","","","","key","16.68203703703698","640","305","true","1","137.64525618118654","1.0555311626649604","15","-1","1","","","","","","","","","","","","",""
"psychophysics","124","279697","0.0-10.0-0.36","6049d09a4abaf27d9bb325b7","609a8bf73b2ac84e2732f618","609d7ccda4b0761905050abd","595.5050000920892","","","","39","","","","key","16.677052083333063","640","305","true","-1","137.64525618118654","1","16","1","-1","","","","","","","","","","","","",""
"psychophysics","125","281029","0.0-10.0-0.37","6049d09a4abaf27d9bb325b7","609a8bf73b2ac84e2732f618","609d7ccda4b0761905050abd","323.0400001630187","","","","39","","","","key","16.67877215189827","640","305","true","1","138.64525618118654","1","16","-1","1","","","","","","","","","","","","",""
"psychophysics","126","282610","0.0-10.0-0.38","6049d09a4abaf27d9bb325b7","609a8bf73b2ac84e2732f618","609d7ccda4b0761905050abd","572.4799996241927","","","","39","","","","key","16.678861702127293","640","305","true","1","138.64525618118654","1","17","-1","-1","","","","","","","","","","","","",""
"psychophysics","127","284126","0.0-10.0-0.39","6049d09a4abaf27d9bb325b7","609a8bf73b2ac84e2732f618","609d7ccda4b0761905050abd","503.53500014171004","","","","39","","","","key","16.689177777777918","640","305","true","-1","137.64525618118654","1","18","1","-1","","","","","","","","","","","","",""
"html-keyboard-response","128","295110","0.0-11.0","6049d09a4abaf27d9bb325b7","609a8bf73b2ac84e2732f618","609d7ccda4b0761905050abd","10980.980000458658","<p>Well Done !</p><p>Prepare for a new block.</p><p>DON'T EXIT THE FULL SCREEN MODE</p><p>Press the Spacebar to start.</p>","","","32","","","","","","","","","","","","","","","true","138.141428351686","","","","","","","","","","",""
"psychophysics","129","296815","0.0-12.0-0.0","6049d09a4abaf27d9bb325b7","609a8bf73b2ac84e2732f618","609d7ccda4b0761905050abd","694.9700000695884","","","","39","","","","key","16.664990196078126","640","305","true","1","180","30","0","-1","","","","","","","","","","","","","",""
"psychophysics","130","298422","0.0-12.0-0.1","6049d09a4abaf27d9bb325b7","609a8bf73b2ac84e2732f618","609d7ccda4b0761905050abd","600.7150001823902","","","","39","","","","key","16.68163541666642","640","305","true","1","180","30","0","-1","-1","","","","","","","","","","","","",""
"psychophysics","131","299663","0.0-12.0-0.2","6049d09a4abaf27d9bb325b7","609a8bf73b2ac84e2732f618","609d7ccda4b0761905050abd","235.15000008046627","","","","37","","","","key","16.68276712328773","640","305","true","-1","150","30","0","-1","-1","","","","","","","","","","","","",""
"psychophysics","132","301038","0.0-12.0-0.3","6049d09a4abaf27d9bb325b7","609a8bf73b2ac84e2732f618","609d7ccda4b0761905050abd","369.8499999009073","","","","37","","","","key","16.6820123456785","640","305","true","-1","150","30","0","-1","-1","","","","","","","","","","","","",""
"psychophysics","133","302513","0.0-12.0-0.4","6049d09a4abaf27d9bb325b7","609a8bf73b2ac84e2732f618","609d7ccda4b0761905050abd","469.51500000432134","","","","37","","","","key","16.683090909090506","640","305","true","-1","129","30","0","-1","-1","","","","","","","","","","","","",""
"psychophysics","134","303993","0.0-12.0-0.5","6049d09a4abaf27d9bb325b7","609a8bf73b2ac84e2732f618","609d7ccda4b0761905050abd","465.9849996678531","","","","39","","","","key","16.683806818181687","640","305","true","1","129","30","0","-1","-1","","","","","","","","","","","","",""
"psychophysics","135","305399","0.0-12.0-0.6","6049d09a4abaf27d9bb325b7","609a8bf73b2ac84e2732f618","609d7ccda4b0761905050abd","396.269999910146","","","","39","","","","key","16.68403614457789","640","305","true","-1","129","24","1","1","-1","","","","","","","","","","","","",""
"psychophysics","136","306665","0.0-12.0-0.7","6049d09a4abaf27d9bb325b7","609a8bf73b2ac84e2732f618","609d7ccda4b0761905050abd","259.2600001953542","","","","37","","","","key","16.682520000000174","640","305","true","-1","153","24","1","-1","1","","","","","","","","","","","","",""
"psychophysics","137","308041","0.0-12.0-0.8","6049d09a4abaf27d9bb325b7","609a8bf73b2ac84e2732f618","609d7ccda4b0761905050abd","372.30500020086765","","","","39","","","","key","16.67746913580247","640","305","true","1","153","19.2","2","-1","-1","","","","","","","","","","","","",""
"psychophysics","138","309601","0.0-12.0-0.9","6049d09a4abaf27d9bb325b7","609a8bf73b2ac84e2732f618","609d7ccda4b0761905050abd","550.9150000289083","","","","39","","","","key","16.68077419354813","640","305","true","1","133.8","19.2","2","-1","-1","","","","","","","","","","","","",""
"psychophysics","139","310969","0.0-12.0-0.10","6049d09a4abaf27d9bb325b7","609a8bf73b2ac84e2732f618","609d7ccda4b0761905050abd","354.74500013515353","","","","39","","","","key","16.680925925925553","640","305","true","-1","133.8","15.36","3","1","-1","","","","","","","","","","","","",""
"psychophysics","140","312270","0.0-12.0-0.11","6049d09a4abaf27d9bb325b7","609a8bf73b2ac84e2732f618","609d7ccda4b0761905050abd","288.84000005200505","","","","39","","","","key","16.67998701298697","640","305","true","1","149.16000000000003","15.36","3","-1","1","","","","","","","","","","","","",""
"psychophysics","141","313696","0.0-12.0-0.12","6049d09a4abaf27d9bb325b7","609a8bf73b2ac84e2732f618","609d7ccda4b0761905050abd","420.9199999459088","","","","39","","","","key","16.68489285714237","640","305","true","1","149.16000000000003","12.287999999999998","4","-1","-1","","","","","","","","","","","","",""
"psychophysics","142","315442","0.0-12.0-0.13","6049d09a4abaf27d9bb325b7","609a8bf73b2ac84e2732f618","609d7ccda4b0761905050abd","738.1949997507036","","","","39","","","","key","16.681942307692506","640","305","true","1","136.872","12.287999999999998","4","-1","-1","","","","","","","","","","","","",""
"psychophysics","143","316927","0.0-12.0-0.14","6049d09a4abaf27d9bb325b7","609a8bf73b2ac84e2732f618","609d7ccda4b0761905050abd","474.55500019714236","","","","39","","","","key","16.681818181818183","640","305","true","1","136.872","12.287999999999998","4","-1","-1","","","","","","","","","","","","",""
"psychophysics","144","318598","0.0-12.0-0.15","6049d09a4abaf27d9bb325b7","609a8bf73b2ac84e2732f618","609d7ccda4b0761905050abd","660.8450002968311","","","","37","","","","key","16.68288888888918","640","305","true","-1","129","12.287999999999998","4","-1","-1","","","","","","","","","","","","",""
"psychophysics","145","320126","0.0-12.0-0.16","6049d09a4abaf27d9bb325b7","609a8bf73b2ac84e2732f618","609d7ccda4b0761905050abd","523.6100000329316","","","","37","","","","key","16.688120879120945","640","305","true","1","129","9.8304","5","1","-1","","","","","","","","","","","","",""
"psychophysics","146","321670","0.0-12.0-0.17","6049d09a4abaf27d9bb325b7","609a8bf73b2ac84e2732f618","609d7ccda4b0761905050abd","535.8100002631545","","","","37","","","","key","16.681890109889746","640","305","true","1","138.8304","9.8304","5","1","1","","","","","","","","","","","","",""
"psychophysics","147","322983","0.0-12.0-0.18","6049d09a4abaf27d9bb325b7","609a8bf73b2ac84e2732f618","609d7ccda4b0761905050abd","305.8400000445545","","","","39","","","","key","16.6833205128205","640","305","true","1","148.6608","9.8304","5","-1","1","","","","","","","","","","","","",""
"psychophysics","148","324436","0.0-12.0-0.19","6049d09a4abaf27d9bb325b7","609a8bf73b2ac84e2732f618","609d7ccda4b0761905050abd","442.71000009030104","","","","39","","","","key","16.682581395348723","640","305","true","1","148.6608","7.864319999999999","6","-1","-1","","","","","","","","","","","","",""
"psychophysics","149","325931","0.0-12.0-0.20","6049d09a4abaf27d9bb325b7","609a8bf73b2ac84e2732f618","609d7ccda4b0761905050abd","487.29499988257885","","","","39","","","","key","16.686752808989244","640","305","true","-1","140.79648","6.291456","7","1","-1","","","","","","","","","","","","",""
"psychophysics","150","327226","0.0-12.0-0.21","6049d09a4abaf27d9bb325b7","609a8bf73b2ac84e2732f618","609d7ccda4b0761905050abd","284.69999972730875","","","","37","","","","key","16.681947368420783","640","305","true","-1","147.087936","6.291456","7","-1","1","","","","","","","","","","","","",""
"psychophysics","151","328587","0.0-12.0-0.22","6049d09a4abaf27d9bb325b7","609a8bf73b2ac84e2732f618","609d7ccda4b0761905050abd","353.97000005468726","","","","37","","","","key","16.681518518518267","640","305","true","-1","147.087936","5.033164800000001","8","-1","-1","","","","","","","","","","","","",""
"psychophysics","152","329992","0.0-12.0-0.23","6049d09a4abaf27d9bb325b7","609a8bf73b2ac84e2732f618","609d7ccda4b0761905050abd","394.5599999278784","","","","39","","","","key","16.68169879518079","640","305","true","1","142.0547712","5.033164800000001","8","-1","-1","","","","","","","","","","","","",""
"psychophysics","153","331444","0.0-12.0-0.24","6049d09a4abaf27d9bb325b7","609a8bf73b2ac84e2732f618","609d7ccda4b0761905050abd","444.7900000959635","","","","39","","","","key","16.67533720930264","640","305","true","1","142.0547712","5.033164800000001","8","-1","-1","","","","","","","","","","","","",""
"psychophysics","154","332821","0.0-12.0-0.25","6049d09a4abaf27d9bb325b7","609a8bf73b2ac84e2732f618","609d7ccda4b0761905050abd","370.20999984815717","","","","39","","","","key","16.68184146341419","640","305","true","1","137.0216064","5.033164800000001","8","-1","-1","","","","","","","","","","","","",""
"psychophysics","155","334209","0.0-12.0-0.26","6049d09a4abaf27d9bb325b7","609a8bf73b2ac84e2732f618","609d7ccda4b0761905050abd","371.2550001218915","","","","37","","","","key","16.68139024390257","640","305","true","-1","137.0216064","5.033164800000001","8","-1","-1","","","","","","","","","","","","",""
"psychophysics","156","335741","0.0-12.0-0.27","6049d09a4abaf27d9bb325b7","609a8bf73b2ac84e2732f618","609d7ccda4b0761905050abd","521.2999996729195","","","","37","","","","key","16.681857142857133","640","305","true","-1","131.9884416","5.033164800000001","8","-1","-1","","","","","","","","","","","","",""
"psychophysics","157","337531","0.0-12.0-0.28","6049d09a4abaf27d9bb325b7","609a8bf73b2ac84e2732f618","609d7ccda4b0761905050abd","781.5849999897182","","","","37","","","","key","16.681566037735703","640","305","true","-1","131.9884416","5.033164800000001","8","-1","-1","","","","","","","","","","","","",""
"psychophysics","158","339044","0.0-12.0-0.29","6049d09a4abaf27d9bb325b7","609a8bf73b2ac84e2732f618","609d7ccda4b0761905050abd","504.3000001460314","","","","37","","","","key","16.681844444444224","640","305","true","1","129","4.0265318400000005","9","1","-1","","","","","","","","","","","","",""
"psychophysics","159","340588","0.0-12.0-0.30","6049d09a4abaf27d9bb325b7","609a8bf73b2ac84e2732f618","609d7ccda4b0761905050abd","539.1850001178682","","","","37","","","","key","16.681912087912128","640","305","true","-1","133.02653184","4.0265318400000005","9","-1","1","","","","","","","","","","","","",""
"psychophysics","160","341915","0.0-12.0-0.31","6049d09a4abaf27d9bb325b7","609a8bf73b2ac84e2732f618","609d7ccda4b0761905050abd","311.25500006601214","","","","39","","","","key","16.68344303797503","640","305","true","-1","133.02653184","3.2212254720000004","10","1","-1","","","","","","","","","","","","",""
"psychophysics","161","343328","0.0-12.0-0.32","6049d09a4abaf27d9bb325b7","609a8bf73b2ac84e2732f618","609d7ccda4b0761905050abd","405.560000333935","","","","39","","","","key","16.68273493975923","640","305","true","-1","136.24775731199998","3.2212254720000004","10","1","1","","","","","","","","","","","","",""
"psychophysics","162","344619","0.0-12.0-0.33","6049d09a4abaf27d9bb325b7","609a8bf73b2ac84e2732f618","609d7ccda4b0761905050abd","273.5249996185303","","","","37","","","","key","16.68366233766224","640","305","true","-1","139.468982784","3.2212254720000004","10","-1","1","","","","","","","","","","","","",""
"psychophysics","163","345964","0.0-12.0-0.34","6049d09a4abaf27d9bb325b7","609a8bf73b2ac84e2732f618","609d7ccda4b0761905050abd","334.61999986320734","","","","39","","","","key","16.681265822784898","640","305","true","1","139.468982784","2.5769803776000004","11","-1","-1","","","","","","","","","","","","",""
"psychophysics","164","347308","0.0-12.0-0.35","6049d09a4abaf27d9bb325b7","609a8bf73b2ac84e2732f618","609d7ccda4b0761905050abd","327.43999967351556","","","","39","","","","key","16.68416250000009","640","305","true","1","136.8920024064","2.5769803776000004","11","-1","-1","","","","","","","","","","","","",""
"psychophysics","165","348605","0.0-12.0-0.36","6049d09a4abaf27d9bb325b7","609a8bf73b2ac84e2732f618","609d7ccda4b0761905050abd","290.38000013679266","","","","37","","","","key","16.682441558441685","640","305","true","-1","136.8920024064","2.5769803776000004","11","-1","-1","","","","","","","","","","","","",""
"psychophysics","166","349984","0.0-12.0-0.37","6049d09a4abaf27d9bb325b7","609a8bf73b2ac84e2732f618","609d7ccda4b0761905050abd","371.9550003297627","","","","39","","","","key","16.681604938271146","640","305","true","1","134.3150220288","2.5769803776000004","11","-1","-1","","","","","","","","","","","","",""
"psychophysics","167","351688","0.0-12.0-0.38","6049d09a4abaf27d9bb325b7","609a8bf73b2ac84e2732f618","609d7ccda4b0761905050abd","696.5250000357628","","","","39","","","","key","16.683058823529613","640","305","true","-1","134.3150220288","2.0615843020800004","12","1","-1","","","","","","","","","","","","",""
"psychophysics","168","353073","0.0-12.0-0.39","6049d09a4abaf27d9bb325b7","609a8bf73b2ac84e2732f618","609d7ccda4b0761905050abd","371.79999984800816","","","","37","","","","key","16.686780487804775","640","305","true","-1","136.37660633088","2.0615843020800004","12","-1","1","","","","","","","","","","","","",""
"html-keyboard-response","169","361190","0.0-13.0","6049d09a4abaf27d9bb325b7","609a8bf73b2ac84e2732f618","609d7ccda4b0761905050abd","8113.195000216365","<p>Well Done !</p><p>Prepare for a new block.</p><p>DON'T EXIT THE FULL SCREEN MODE</p><p>Press the Spacebar to start.</p>","","","32","","","","","","","","","","","","","","","true","135.13663585075201","","","","","","","","","","",""
"html-keyboard-response","170","361305","0.0-14.0","6049d09a4abaf27d9bb325b7","609a8bf73b2ac84e2732f618","609d7ccda4b0761905050abd","null","","","","null","","","","","","","","","","","","","","","","","136.73010826697663","true","145.46021653395326","","","","","","","",""
"instructions","171","375882","0.0-15.0","6049d09a4abaf27d9bb325b7","609a8bf73b2ac84e2732f618","609d7ccda4b0761905050abd","14575.395000167191","","","","","","","[{""page_index"":0,""viewing_time"":11220.970000140369},{""page_index"":1,""viewing_time"":1567.4999998882413},{""page_index"":2,""viewing_time"":1785.8150000683963}]","","","","","","","","","","","","","","","","","","","","","","","",""
"psychophysics","172","379129","0.0-16.0-0.0","6049d09a4abaf27d9bb325b7","609a8bf73b2ac84e2732f618","609d7ccda4b0761905050abd","null","","","","null","","","","key","16.677229729729603","640","305","","","","","","","","","","","","","","","","","","","",""
"psychophysics","173","379635","0.0-16.0-1.0","6049d09a4abaf27d9bb325b7","609a8bf73b2ac84e2732f618","609d7ccda4b0761905050abd","null","","","","null","","","","key","16.68189655172494","640","305","","","","","","","","","","","","","145","-1","5","false","","","",""
"psychophysics","174","380814","0.0-16.0-2.0","6049d09a4abaf27d9bb325b7","609a8bf73b2ac84e2732f618","609d7ccda4b0761905050abd","1175.0750001519918","","","","77","","","","key","16.688857142857575","640","305","","","","","","","","","","","","","","","","","","","",""
"psychophysics","175","381814","0.0-16.0-0.1","6049d09a4abaf27d9bb325b7","609a8bf73b2ac84e2732f618","609d7ccda4b0761905050abd","null","","","","null","","","","key","16.680559322034735","640","305","","","","","","","","","","","","","","","","","","","",""
"psychophysics","176","382321","0.0-16.0-1.1","6049d09a4abaf27d9bb325b7","609a8bf73b2ac84e2732f618","609d7ccda4b0761905050abd","null","","","","null","","","","key","16.68465517241315","640","305","","","","","","","","","","","","","145","-1","6","false","","","",""
"psychophysics","177","382742","0.0-16.0-2.1","6049d09a4abaf27d9bb325b7","609a8bf73b2ac84e2732f618","609d7ccda4b0761905050abd","417.8000004030764","","","","77","","","","key","16.678333333332073","640","305","","","","","","","","","","","","","","","","","","","",""
"psychophysics","178","384148","0.0-16.0-0.2","6049d09a4abaf27d9bb325b7","609a8bf73b2ac84e2732f618","609d7ccda4b0761905050abd","null","","","","null","","","","key","16.68343373494018","640","305","","","","","","","","","","","","","","","","","","","",""
"psychophysics","179","384656","0.0-16.0-1.2","6049d09a4abaf27d9bb325b7","609a8bf73b2ac84e2732f618","609d7ccda4b0761905050abd","null","","","","null","","","","key","16.684533333334063","640","305","","","","","","","","","","","","","145","1","2","false","","","",""
"psychophysics","180","384801","0.0-16.0-2.2","6049d09a4abaf27d9bb325b7","609a8bf73b2ac84e2732f618","609d7ccda4b0761905050abd","141.30999986082315","","","","90","","","","key","16.671375000005355","640","305","","","","","","","","","","","","","","","","","","","",""
"psychophysics","181","385634","0.0-16.0-0.3","6049d09a4abaf27d9bb325b7","609a8bf73b2ac84e2732f618","609d7ccda4b0761905050abd","null","","","","null","","","","key","16.681959183672824","640","305","","","","","","","","","","","","","","","","","","","",""
"psychophysics","182","386141","0.0-16.0-1.3","6049d09a4abaf27d9bb325b7","609a8bf73b2ac84e2732f618","609d7ccda4b0761905050abd","null","","","","null","","","","key","16.6814137931034","640","305","","","","","","","","","","","","","145","-1","2","false","","","",""
"psychophysics","183","386313","0.0-16.0-2.3","6049d09a4abaf27d9bb325b7","609a8bf73b2ac84e2732f618","609d7ccda4b0761905050abd","168.61499985679984","","","","90","","","","key","16.69188888889039","640","305","","","","","","","","","","","","","","","","","","","",""
"psychophysics","184","387284","0.0-16.0-0.4","6049d09a4abaf27d9bb325b7","609a8bf73b2ac84e2732f618","609d7ccda4b0761905050abd","null","","","","null","","","","key","16.683228070175748","640","305","","","","","","","","","","","","","","","","","","","",""
"psychophysics","185","387788","0.0-16.0-1.4","6049d09a4abaf27d9bb325b7","609a8bf73b2ac84e2732f618","609d7ccda4b0761905050abd","null","","","","null","","","","key","16.68170000000003","640","305","","","","","","","","","","","","","145","-1","4","false","","","",""
"psychophysics","186","387927","0.0-16.0-2.4","6049d09a4abaf27d9bb325b7","609a8bf73b2ac84e2732f618","609d7ccda4b0761905050abd","134.87499998882413","","","","77","","","","key","16.68014285714266","640","305","","","","","","","","","","","","","","","","","","","",""
"psychophysics","187","389052","0.0-16.0-0.5","6049d09a4abaf27d9bb325b7","609a8bf73b2ac84e2732f618","609d7ccda4b0761905050abd","null","","","","null","","","","key","16.68189393939401","640","305","","","","","","","","","","","","","","","","","","","",""
"psychophysics","188","389556","0.0-16.0-1.5","6049d09a4abaf27d9bb325b7","609a8bf73b2ac84e2732f618","609d7ccda4b0761905050abd","null","","","","null","","","","key","16.68179999999896","640","305","","","","","","","","","","","","","145","1","3","false","","","",""
"psychophysics","189","389736","0.0-16.0-2.5","6049d09a4abaf27d9bb325b7","609a8bf73b2ac84e2732f618","609d7ccda4b0761905050abd","175.66999979317188","","","","77","","","","key","16.67255555555716","640","305","","","","","","","","","","","","","","","","","","","",""
"psychophysics","190","390337","0.0-16.0-0.6","6049d09a4abaf27d9bb325b7","609a8bf73b2ac84e2732f618","609d7ccda4b0761905050abd","null","","","","null","","","","key","16.686857142856542","640","305","","","","","","","","","","","","","","","","","","","",""
"psychophysics","191","390846","0.0-16.0-1.6","6049d09a4abaf27d9bb325b7","609a8bf73b2ac84e2732f618","609d7ccda4b0761905050abd","null","","","","null","","","","key","16.68206666666665","640","305","","","","","","","","","","","","","145","1","5","false","","","",""
"psychophysics","192","391008","0.0-16.0-2.6","6049d09a4abaf27d9bb325b7","609a8bf73b2ac84e2732f618","609d7ccda4b0761905050abd","158.49500009790063","","","","77","","","","key","16.682444444443618","640","305","","","","","","","","","","","","","","","","","","","",""
"psychophysics","193","392055","0.0-16.0-0.7","6049d09a4abaf27d9bb325b7","609a8bf73b2ac84e2732f618","609d7ccda4b0761905050abd","null","","","","null","","","","key","16.681967213114373","640","305","","","","","","","","","","","","","","","","","","","",""
"psychophysics","194","392560","0.0-16.0-1.7","6049d09a4abaf27d9bb325b7","609a8bf73b2ac84e2732f618","609d7ccda4b0761905050abd","null","","","","null","","","","key","16.68456666666704","640","305","","","","","","","","","","","","","145","1","4","false","","","",""
"psychophysics","195","395195","0.0-16.0-2.7","6049d09a4abaf27d9bb325b7","609a8bf73b2ac84e2732f618","609d7ccda4b0761905050abd","2629.8799999058247","","","","77","","","","key","16.682535031847106","640","305","","","","","","","","","","","","","","","","","","","",""
"psychophysics","196","396592","0.0-16.0-0.8","6049d09a4abaf27d9bb325b7","609a8bf73b2ac84e2732f618","609d7ccda4b0761905050abd","null","","","","null","","","","key","16.681939024390175","640","305","","","","","","","","","","","","","","","","","","","",""
"psychophysics","197","397110","0.0-16.0-1.8","6049d09a4abaf27d9bb325b7","609a8bf73b2ac84e2732f618","609d7ccda4b0761905050abd","null","","","","null","","","","key","16.684399999998277","640","305","","","","","","","","","","","","","145","-1","3","false","","","",""
"psychophysics","198","397520","0.0-16.0-2.8","6049d09a4abaf27d9bb325b7","609a8bf73b2ac84e2732f618","609d7ccda4b0761905050abd","403.8200001232326","","","","77","","","","key","16.681125000000367","640","305","","","","","","","","","","","","","","","","","","","",""
"psychophysics","199","398944","0.0-16.0-0.9","6049d09a4abaf27d9bb325b7","609a8bf73b2ac84e2732f618","609d7ccda4b0761905050abd","null","","","","null","","","","key","16.682988095238606","640","305","","","","","","","","","","","","","","","","","","","",""
"psychophysics","200","399452","0.0-16.0-1.9","6049d09a4abaf27d9bb325b7","609a8bf73b2ac84e2732f618","609d7ccda4b0761905050abd","null","","","","null","","","","key","16.67950000000031","640","305","","","","","","","","","","","","","145","1","0","false","","","",""
"psychophysics","201","400217","0.0-16.0-2.9","6049d09a4abaf27d9bb325b7","609a8bf73b2ac84e2732f618","609d7ccda4b0761905050abd","761.1250001937151","","","","90","","","","key","16.68239999999965","640","305","","","","","","","","","","","","","","","","","","","",""
"psychophysics","202","401246","0.0-16.0-0.10","6049d09a4abaf27d9bb325b7","609a8bf73b2ac84e2732f618","609d7ccda4b0761905050abd","null","","","","null","","","","key","16.683300000000358","640","305","","","","","","","","","","","","","","","","","","","",""
"psychophysics","203","401751","0.0-16.0-1.10","6049d09a4abaf27d9bb325b7","609a8bf73b2ac84e2732f618","609d7ccda4b0761905050abd","null","","","","null","","","","key","16.68153333333321","640","305","","","","","","","","","","","","","145","1","6","false","","","",""
"psychophysics","204","401968","0.0-16.0-2.10","6049d09a4abaf27d9bb325b7","609a8bf73b2ac84e2732f618","609d7ccda4b0761905050abd","211.98999974876642","","","","77","","","","key","16.676000000001903","640","305","","","","","","","","","","","","","","","","","","","",""
"psychophysics","205","402972","0.0-16.0-0.11","6049d09a4abaf27d9bb325b7","609a8bf73b2ac84e2732f618","609d7ccda4b0761905050abd","null","","","","null","","","","key","16.681796610168917","640","305","","","","","","","","","","","","","","","","","","","",""
"psychophysics","206","403482","0.0-16.0-1.11","6049d09a4abaf27d9bb325b7","609a8bf73b2ac84e2732f618","609d7ccda4b0761905050abd","null","","","","null","","","","key","16.67851724137817","640","305","","","","","","","","","","","","","145","-1","0","false","","","",""
"psychophysics","207","403653","0.0-16.0-2.11","6049d09a4abaf27d9bb325b7","609a8bf73b2ac84e2732f618","609d7ccda4b0761905050abd","146.60500036552548","","","","90","","","","key","16.681199999997624","640","305","","","","","","","","","","","","","","","","","","","",""
"psychophysics","208","404217","0.0-16.0-0.12","6049d09a4abaf27d9bb325b7","609a8bf73b2ac84e2732f618","609d7ccda4b0761905050abd","null","","","","null","","","","key","16.682531250000466","640","305","","","","","","","","","","","","","","","","","","","",""
"psychophysics","209","404733","0.0-16.0-1.12","6049d09a4abaf27d9bb325b7","609a8bf73b2ac84e2732f618","609d7ccda4b0761905050abd","null","","","","null","","","","key","16.68189999999983","640","305","","","","","","","","","","","","","145","1","3","false","","","",""
"psychophysics","210","404854","0.0-16.0-2.12","6049d09a4abaf27d9bb325b7","609a8bf73b2ac84e2732f618","609d7ccda4b0761905050abd","114.10999996587634","","","","77","","","","key","16.67899999999541","640","305","","","","","","","","","","","","","","","","","","","",""
"psychophysics","211","406141","0.0-16.0-0.13","6049d09a4abaf27d9bb325b7","609a8bf73b2ac84e2732f618","609d7ccda4b0761905050abd","null","","","","null","","","","key","16.682078947368275","640","305","","","","","","","","","","","","","","","","","","","",""
"psychophysics","212","406647","0.0-16.0-1.13","6049d09a4abaf27d9bb325b7","609a8bf73b2ac84e2732f618","609d7ccda4b0761905050abd","null","","","","null","","","","key","16.68537931034446","640","305","","","","","","","","","","","","","145","1","0","false","","","",""
"psychophysics","213","407110","0.0-16.0-2.13","6049d09a4abaf27d9bb325b7","609a8bf73b2ac84e2732f618","609d7ccda4b0761905050abd","458.1250003539026","","","","90","","","","key","16.684592592592473","640","305","","","","","","","","","","","","","","","","","","","",""
"psychophysics","214","408391","0.0-16.0-0.14","6049d09a4abaf27d9bb325b7","609a8bf73b2ac84e2732f618","609d7ccda4b0761905050abd","null","","","","null","","","","key","16.68367105263123","640","305","","","","","","","","","","","","","","","","","","","",""
"psychophysics","215","408894","0.0-16.0-1.14","6049d09a4abaf27d9bb325b7","609a8bf73b2ac84e2732f618","609d7ccda4b0761905050abd","null","","","","null","","","","key","16.68106896551687","640","305","","","","","","","","","","","","","145","1","2","false","","","",""
"psychophysics","216","409362","0.0-16.0-2.14","6049d09a4abaf27d9bb325b7","609a8bf73b2ac84e2732f618","609d7ccda4b0761905050abd","463.61999958753586","","","","90","","","","key","16.676185185184565","640","305","","","","","","","","","","","","","","","","","","","",""
"psychophysics","217","410523","0.0-16.0-0.15","6049d09a4abaf27d9bb325b7","609a8bf73b2ac84e2732f618","609d7ccda4b0761905050abd","null","","","","null","","","","key","16.68292647058757","640","305","","","","","","","","","","","","","","","","","","","",""
"psychophysics","218","411030","0.0-16.0-1.15","6049d09a4abaf27d9bb325b7","609a8bf73b2ac84e2732f618","609d7ccda4b0761905050abd","null","","","","null","","","","key","16.687699999999797","640","305","","","","","","","","","","","","","145","-1","6","false","","","",""
"psychophysics","219","411230","0.0-16.0-2.15","6049d09a4abaf27d9bb325b7","609a8bf73b2ac84e2732f618","609d7ccda4b0761905050abd","195.8249998278916","","","","77","","","","key","16.675363636363976","640","305","","","","","","","","","","","","","","","","","","","",""
"psychophysics","220","412352","0.0-16.0-0.16","6049d09a4abaf27d9bb325b7","609a8bf73b2ac84e2732f618","609d7ccda4b0761905050abd","null","","","","null","","","","key","16.682530303030614","640","305","","","","","","","","","","","","","","","","","","","",""
"psychophysics","221","412859","0.0-16.0-1.16","6049d09a4abaf27d9bb325b7","609a8bf73b2ac84e2732f618","609d7ccda4b0761905050abd","null","","","","null","","","","key","16.68427586207038","640","305","","","","","","","","","","","","","145","-1","5","false","","","",""
"psychophysics","222","413049","0.0-16.0-2.16","6049d09a4abaf27d9bb325b7","609a8bf73b2ac84e2732f618","609d7ccda4b0761905050abd","182.34000029042363","","","","77","","","","key","16.68363636363806","640","305","","","","","","","","","","","","","","","","","","","",""
"psychophysics","223","414300","0.0-16.0-0.17","6049d09a4abaf27d9bb325b7","609a8bf73b2ac84e2732f618","609d7ccda4b0761905050abd","null","","","","null","","","","key","16.680716216216506","640","305","","","","","","","","","","","","","","","","","","","",""
"psychophysics","224","414806","0.0-16.0-1.17","6049d09a4abaf27d9bb325b7","609a8bf73b2ac84e2732f618","609d7ccda4b0761905050abd","null","","","","null","","","","key","16.681586206896664","640","305","","","","","","","","","","","","","145","1","6","false","","","",""
"psychophysics","225","415072","0.0-16.0-2.17","6049d09a4abaf27d9bb325b7","609a8bf73b2ac84e2732f618","609d7ccda4b0761905050abd","260.16499986872077","","","","77","","","","key","16.68226666666645","640","305","","","","","","","","","","","","","","","","","","","",""
"psychophysics","226","416373","0.0-16.0-0.18","6049d09a4abaf27d9bb325b7","609a8bf73b2ac84e2732f618","609d7ccda4b0761905050abd","null","","","","null","","","","key","16.683896103895773","640","305","","","","","","","","","","","","","","","","","","","",""
"psychophysics","227","416879","0.0-16.0-1.18","6049d09a4abaf27d9bb325b7","609a8bf73b2ac84e2732f618","609d7ccda4b0761905050abd","null","","","","null","","","","key","16.689482758620528","640","305","","","","","","","","","","","","","145","-1","2","false","","","",""
"psychophysics","228","417386","0.0-16.0-2.18","6049d09a4abaf27d9bb325b7","609a8bf73b2ac84e2732f618","609d7ccda4b0761905050abd","500.7250001654029","","","","90","","","","key","16.679166666666667","640","305","","","","","","","","","","","","","","","","","","","",""
"psychophysics","229","418113","0.0-16.0-0.19","6049d09a4abaf27d9bb325b7","609a8bf73b2ac84e2732f618","609d7ccda4b0761905050abd","null","","","","null","","","","key","16.682404761903896","640","305","","","","","","","","","","","","","","","","","","","",""
"psychophysics","230","418617","0.0-16.0-1.19","6049d09a4abaf27d9bb325b7","609a8bf73b2ac84e2732f618","609d7ccda4b0761905050abd","null","","","","null","","","","key","16.67943333333436","640","305","","","","","","","","","","","","","145","-1","0","false","","","",""
"psychophysics","231","418937","0.0-16.0-2.19","6049d09a4abaf27d9bb325b7","609a8bf73b2ac84e2732f618","609d7ccda4b0761905050abd","315.9900000318885","","","","90","","","","key","16.679111111110412","640","305","","","","","","","","","","","","","","","","","","","",""
"psychophysics","232","420035","0.0-16.0-0.20","6049d09a4abaf27d9bb325b7","609a8bf73b2ac84e2732f618","609d7ccda4b0761905050abd","null","","","","null","","","","key","16.68056923076958","640","305","","","","","","","","","","","","","","","","","","","",""
"psychophysics","233","420541","0.0-16.0-1.20","6049d09a4abaf27d9bb325b7","609a8bf73b2ac84e2732f618","609d7ccda4b0761905050abd","null","","","","null","","","","key","16.68382758620709","640","305","","","","","","","","","","","","","145","-1","3","false","","","",""
"psychophysics","234","420782","0.0-16.0-2.20","6049d09a4abaf27d9bb325b7","609a8bf73b2ac84e2732f618","609d7ccda4b0761905050abd","238.4050004184246","","","","77","","","","key","16.678461538462077","640","305","","","","","","","","","","","","","","","","","","","",""
"psychophysics","235","421891","0.0-16.0-0.21","6049d09a4abaf27d9bb325b7","609a8bf73b2ac84e2732f618","609d7ccda4b0761905050abd","null","","","","null","","","","key","16.6826666666664","640","305","","","","","","","","","","","","","","","","","","","",""
"psychophysics","236","422396","0.0-16.0-1.21","6049d09a4abaf27d9bb325b7","609a8bf73b2ac84e2732f618","609d7ccda4b0761905050abd","null","","","","null","","","","key","16.68465517241315","640","305","","","","","","","","","","","","","145","1","5","false","","","",""
"psychophysics","237","422500","0.0-16.0-2.21","6049d09a4abaf27d9bb325b7","609a8bf73b2ac84e2732f618","609d7ccda4b0761905050abd","94.93499994277954","","","","77","","","","key","16.66019999999553","640","305","","","","","","","","","","","","","","","","","","","",""
"psychophysics","238","423328","0.0-16.0-0.22","6049d09a4abaf27d9bb325b7","609a8bf73b2ac84e2732f618","609d7ccda4b0761905050abd","null","","","","null","","","","key","16.681265306123294","640","305","","","","","","","","","","","","","","","","","","","",""
"psychophysics","239","423834","0.0-16.0-1.22","6049d09a4abaf27d9bb325b7","609a8bf73b2ac84e2732f618","609d7ccda4b0761905050abd","null","","","","null","","","","key","16.680733333332075","640","305","","","","","","","","","","","","","145","1","4","false","","","",""
"psychophysics","240","423859","0.0-16.0-2.22","6049d09a4abaf27d9bb325b7","609a8bf73b2ac84e2732f618","609d7ccda4b0761905050abd","20.585000049322844","","","","77","","","","key","NaN","640","305","","","","","","","","","","","","","","","","","","","",""
"psychophysics","241","424541","0.0-16.0-0.23","6049d09a4abaf27d9bb325b7","609a8bf73b2ac84e2732f618","609d7ccda4b0761905050abd","null","","","","null","","","","key","16.690124999999533","640","305","","","","","","","","","","","","","","","","","","","",""
"psychophysics","242","425046","0.0-16.0-1.23","6049d09a4abaf27d9bb325b7","609a8bf73b2ac84e2732f618","609d7ccda4b0761905050abd","null","","","","null","","","","key","16.681758620689926","640","305","","","","","","","","","","","","","145","-1","4","false","","","",""
"psychophysics","243","425269","0.0-16.0-2.23","6049d09a4abaf27d9bb325b7","609a8bf73b2ac84e2732f618","609d7ccda4b0761905050abd","214.6700001321733","","","","77","","","","key","16.69224999999763","640","305","","","","","","","","","","","","","","","","","","","",""
"html-keyboard-response","244","427720","0.0-17.0","6049d09a4abaf27d9bb325b7","609a8bf73b2ac84e2732f618","609d7ccda4b0761905050abd","2448.6799999140203","<p>Well Done !</p><p>Training Complete. Press the spacebar to start.</p><p>DON'T EXIT THE FULL SCREEN MODE</p>","","","32","","","","","","","","","","","","","","","","","","","","","","","","","","",""
"psychophysics","245","431051","0.0-18.0-0.0","6049d09a4abaf27d9bb325b7","609a8bf73b2ac84e2732f618","609d7ccda4b0761905050abd","null","","","","null","","","","key","16.67845569620251","640","305","","","","","","","","","","","","","","","","","","","",""
"psychophysics","246","431558","0.0-18.0-1.0","6049d09a4abaf27d9bb325b7","609a8bf73b2ac84e2732f618","609d7ccda4b0761905050abd","null","","","","null","","","","key","16.685133333333457","640","305","","","","","","","","","","","","","145","1","6","true","","","",""
"psychophysics","247","431818","0.0-18.0-2.0","6049d09a4abaf27d9bb325b7","609a8bf73b2ac84e2732f618","609d7ccda4b0761905050abd","255.00999996438622","","","","77","","","","key","16.681714285718044","640","305","","","","","","","","","","","","","","","","","","","",""
"psychophysics","248","433257","0.0-18.0-0.1","6049d09a4abaf27d9bb325b7","609a8bf73b2ac84e2732f618","609d7ccda4b0761905050abd","null","","","","null","","","","key","16.683094117646654","640","305","","","","","","","","","","","","","","","","","","","",""
"psychophysics","249","433760","0.0-18.0-1.1","6049d09a4abaf27d9bb325b7","609a8bf73b2ac84e2732f618","609d7ccda4b0761905050abd","null","","","","null","","","","key","16.681766666667922","640","305","","","","","","","","","","","","","145","-1","0","true","","","",""
"psychophysics","250","433939","0.0-18.0-2.1","6049d09a4abaf27d9bb325b7","609a8bf73b2ac84e2732f618","609d7ccda4b0761905050abd","174.48999965563416","","","","77","","","","key","16.681666666667702","640","305","","","","","","","","","","","","","","","","","","","",""
"psychophysics","251","434816","0.0-18.0-0.2","6049d09a4abaf27d9bb325b7","609a8bf73b2ac84e2732f618","609d7ccda4b0761905050abd","null","","","","null","","","","key","16.68569230769264","640","305","","","","","","","","","","","","","","","","","","","",""
"psychophysics","252","435321","0.0-18.0-1.2","6049d09a4abaf27d9bb325b7","609a8bf73b2ac84e2732f618","609d7ccda4b0761905050abd","null","","","","null","","","","key","16.683827586205084","640","305","","","","","","","","","","","","","145","1","5","true","","","",""
"psychophysics","253","437123","0.0-18.0-2.2","6049d09a4abaf27d9bb325b7","609a8bf73b2ac84e2732f618","609d7ccda4b0761905050abd","1788.3449997752905","","","","77","","","","key","16.682514018691407","640","305","","","","","","","","","","","","","","","","","","","",""
"psychophysics","254","438556","0.0-18.0-0.3","6049d09a4abaf27d9bb325b7","609a8bf73b2ac84e2732f618","609d7ccda4b0761905050abd","null","","","","null","","","","key","16.68337647058823","640","305","","","","","","","","","","","","","","","","","","","",""
"psychophysics","255","439062","0.0-18.0-1.3","6049d09a4abaf27d9bb325b7","609a8bf73b2ac84e2732f618","609d7ccda4b0761905050abd","null","","","","null","","","","key","16.684448275861634","640","305","","","","","","","","","","","","","145","-1","2","true","","","",""
"psychophysics","256","439680","0.0-18.0-2.3","6049d09a4abaf27d9bb325b7","609a8bf73b2ac84e2732f618","609d7ccda4b0761905050abd","610.954999923706","","","","90","","","","key","16.68194444444412","640","305","","","","","","","","","","","","","","","","","","","",""
"psychophysics","257","440478","0.0-18.0-0.4","6049d09a4abaf27d9bb325b7","609a8bf73b2ac84e2732f618","609d7ccda4b0761905050abd","null","","","","null","","","","key","16.684574468084858","640","305","","","","","","","","","","","","","","","","","","","",""
"psychophysics","258","440982","0.0-18.0-1.4","6049d09a4abaf27d9bb325b7","609a8bf73b2ac84e2732f618","609d7ccda4b0761905050abd","null","","","","null","","","","key","16.683866666666777","640","305","","","","","","","","","","","","","145","-1","5","true","","","",""
"psychophysics","259","441107","0.0-18.0-2.4","6049d09a4abaf27d9bb325b7","609a8bf73b2ac84e2732f618","609d7ccda4b0761905050abd","119.97999995946884","","","","77","","","","key","16.677833333330152","640","305","","","","","","","","","","","","","","","","","","","",""
"psychophysics","260","441677","0.0-18.0-0.5","6049d09a4abaf27d9bb325b7","609a8bf73b2ac84e2732f618","609d7ccda4b0761905050abd","null","","","","null","","","","key","16.683151515151344","640","305","","","","","","","","","","","","","","","","","","","",""
"psychophysics","261","442182","0.0-18.0-1.5","6049d09a4abaf27d9bb325b7","609a8bf73b2ac84e2732f618","609d7ccda4b0761905050abd","null","","","","null","","","","key","16.68613793103402","640","305","","","","","","","","","","","","","145","-1","3","true","","","",""
"psychophysics","262","442336","0.0-18.0-2.5","6049d09a4abaf27d9bb325b7","609a8bf73b2ac84e2732f618","609d7ccda4b0761905050abd","147.00999995693564","","","","77","","","","key","16.681888888887542","640","305","","","","","","","","","","","","","","","","","","","",""
"psychophysics","263","443835","0.0-18.0-0.6","6049d09a4abaf27d9bb325b7","609a8bf73b2ac84e2732f618","609d7ccda4b0761905050abd","null","","","","null","","","","key","16.680865168539427","640","305","","","","","","","","","","","","","","","","","","","",""
"psychophysics","264","444342","0.0-18.0-1.6","6049d09a4abaf27d9bb325b7","609a8bf73b2ac84e2732f618","609d7ccda4b0761905050abd","null","","","","null","","","","key","16.684413793103385","640","305","","","","","","","","","","","","","145","1","0","true","","","",""
"psychophysics","265","444556","0.0-18.0-2.6","6049d09a4abaf27d9bb325b7","609a8bf73b2ac84e2732f618","609d7ccda4b0761905050abd","209.79999983683228","","","","90","","","","key","16.68758333333244","640","305","","","","","","","","","","","","","","","","","","","",""
"psychophysics","266","445218","0.0-18.0-0.7","6049d09a4abaf27d9bb325b7","609a8bf73b2ac84e2732f618","609d7ccda4b0761905050abd","null","","","","null","","","","key","16.682578947367514","640","305","","","","","","","","","","","","","","","","","","","",""
"psychophysics","267","445722","0.0-18.0-1.7","6049d09a4abaf27d9bb325b7","609a8bf73b2ac84e2732f618","609d7ccda4b0761905050abd","null","","","","null","","","","key","16.681966666665783","640","305","","","","","","","","","","","","","145","1","2","true","","","",""
"psychophysics","268","445899","0.0-18.0-2.7","6049d09a4abaf27d9bb325b7","609a8bf73b2ac84e2732f618","609d7ccda4b0761905050abd","173.34500001743436","","","","90","","","","key","16.68122222222155","640","305","","","","","","","","","","","","","","","","","","","",""
"psychophysics","269","446861","0.0-18.0-0.8","6049d09a4abaf27d9bb325b7","609a8bf73b2ac84e2732f618","609d7ccda4b0761905050abd","null","","","","null","","","","key","16.68371929824577","640","305","","","","","","","","","","","","","","","","","","","",""
"psychophysics","270","447370","0.0-18.0-1.8","6049d09a4abaf27d9bb325b7","609a8bf73b2ac84e2732f618","609d7ccda4b0761905050abd","null","","","","null","","","","key","16.681965517241444","640","305","","","","","","","","","","","","","145","1","3","true","","","",""
"psychophysics","271","447614","0.0-18.0-2.8","6049d09a4abaf27d9bb325b7","609a8bf73b2ac84e2732f618","609d7ccda4b0761905050abd","238.08499984443188","","","","77","","","","key","16.694357142854383","640","305","","","","","","","","","","","","","","","","","","","",""
"psychophysics","272","448323","0.0-18.0-0.9","6049d09a4abaf27d9bb325b7","609a8bf73b2ac84e2732f618","609d7ccda4b0761905050abd","null","","","","null","","","","key","16.68192857142865","640","305","","","","","","","","","","","","","","","","","","","",""
"psychophysics","273","448830","0.0-18.0-1.9","6049d09a4abaf27d9bb325b7","609a8bf73b2ac84e2732f618","609d7ccda4b0761905050abd","null","","","","null","","","","key","16.68465517241315","640","305","","","","","","","","","","","","","145","1","4","true","","","",""
"psychophysics","274","450153","0.0-18.0-2.9","6049d09a4abaf27d9bb325b7","609a8bf73b2ac84e2732f618","609d7ccda4b0761905050abd","1319.3349996581674","","","","77","","","","key","16.682282051281966","640","305","","","","","","","","","","","","","","","","","","","",""
"psychophysics","275","451540","0.0-18.0-0.10","6049d09a4abaf27d9bb325b7","609a8bf73b2ac84e2732f618","609d7ccda4b0761905050abd","null","","","","null","","","","key","16.68330487804828","640","305","","","","","","","","","","","","","","","","","","","",""
"psychophysics","276","452046","0.0-18.0-1.10","6049d09a4abaf27d9bb325b7","609a8bf73b2ac84e2732f618","609d7ccda4b0761905050abd","null","","","","null","","","","key","16.68829999999919","640","305","","","","","","","","","","","","","145","-1","4","true","","","",""
"psychophysics","277","452423","0.0-18.0-2.10","6049d09a4abaf27d9bb325b7","609a8bf73b2ac84e2732f618","609d7ccda4b0761905050abd","373.2050000689924","","","","77","","","","key","16.681761904760997","640","305","","","","","","","","","","","","","","","","","","","",""
"psychophysics","278","453387","0.0-18.0-0.11","6049d09a4abaf27d9bb325b7","609a8bf73b2ac84e2732f618","609d7ccda4b0761905050abd","null","","","","null","","","","key","16.68347368421127","640","305","","","","","","","","","","","","","","","","","","","",""
"psychophysics","279","453893","0.0-18.0-1.11","6049d09a4abaf27d9bb325b7","609a8bf73b2ac84e2732f618","609d7ccda4b0761905050abd","null","","","","null","","","","key","16.675448275861683","640","305","","","","","","","","","","","","","145","-1","6","true","","","",""
"psychophysics","280","454019","0.0-18.0-2.11","6049d09a4abaf27d9bb325b7","609a8bf73b2ac84e2732f618","609d7ccda4b0761905050abd","120.36499986425042","","","","77","","","","key","16.66771428571415","640","305","","","","","","","","","","","","","","","","","","","",""
"psychophysics","281","454821","0.0-18.0-0.12","6049d09a4abaf27d9bb325b7","609a8bf73b2ac84e2732f618","609d7ccda4b0761905050abd","null","","","","null","","","","key","16.68223404255324","640","305","","","","","","","","","","","","","","","","","","","",""
"psychophysics","282","455327","0.0-18.0-1.12","6049d09a4abaf27d9bb325b7","609a8bf73b2ac84e2732f618","609d7ccda4b0761905050abd","null","","","","null","","","","key","16.681310344828645","640","305","","","","","","","","","","","","","145","-1","3","true","","","",""
"psychophysics","283","455786","0.0-18.0-2.12","6049d09a4abaf27d9bb325b7","609a8bf73b2ac84e2732f618","609d7ccda4b0761905050abd","445.4200002364814","","","","77","","","","key","16.685259259258466","640","305","","","","","","","","","","","","","","","","","","","",""
"psychophysics","284","456580","0.0-18.0-0.13","6049d09a4abaf27d9bb325b7","609a8bf73b2ac84e2732f618","609d7ccda4b0761905050abd","null","","","","null","","","","key","16.68180851063795","640","305","","","","","","","","","","","","","","","","","","","",""
"psychophysics","285","457088","0.0-18.0-1.13","6049d09a4abaf27d9bb325b7","609a8bf73b2ac84e2732f618","609d7ccda4b0761905050abd","null","","","","null","","","","key","16.682068965518205","640","305","","","","","","","","","","","","","145","1","0","true","","","",""
"psychophysics","286","457534","0.0-18.0-2.13","6049d09a4abaf27d9bb325b7","609a8bf73b2ac84e2732f618","609d7ccda4b0761905050abd","442.31999991461635","","","","77","","","","key","16.67957692307671","640","305","","","","","","","","","","","","","","","","","","","",""
"psychophysics","287","458405","0.0-18.0-0.14","6049d09a4abaf27d9bb325b7","609a8bf73b2ac84e2732f618","609d7ccda4b0761905050abd","null","","","","null","","","","key","16.68394117647047","640","305","","","","","","","","","","","","","","","","","","","",""
"psychophysics","288","458910","0.0-18.0-1.14","6049d09a4abaf27d9bb325b7","609a8bf73b2ac84e2732f618","609d7ccda4b0761905050abd","null","","","","null","","","","key","16.683172413794292","640","305","","","","","","","","","","","","","145","-1","5","true","","","",""
"psychophysics","289","459115","0.0-18.0-2.14","6049d09a4abaf27d9bb325b7","609a8bf73b2ac84e2732f618","609d7ccda4b0761905050abd","193.144999910146","","","","77","","","","key","16.68041666666492","640","305","","","","","","","","","","","","","","","","","","","",""
"psychophysics","290","460495","0.0-18.0-0.15","6049d09a4abaf27d9bb325b7","609a8bf73b2ac84e2732f618","609d7ccda4b0761905050abd","null","","","","null","","","","key","16.685333333333183","640","305","","","","","","","","","","","","","","","","","","","",""
"psychophysics","291","461001","0.0-18.0-1.15","6049d09a4abaf27d9bb325b7","609a8bf73b2ac84e2732f618","609d7ccda4b0761905050abd","null","","","","null","","","","key","16.68353333333313","640","305","","","","","","","","","","","","","145","1","2","true","","","",""
"psychophysics","292","461280","0.0-18.0-2.15","6049d09a4abaf27d9bb325b7","609a8bf73b2ac84e2732f618","609d7ccda4b0761905050abd","275.05499962717295","","","","77","","","","key","16.681666666665116","640","305","","","","","","","","","","","","","","","","","","","",""
"psychophysics","293","462013","0.0-18.0-0.16","6049d09a4abaf27d9bb325b7","609a8bf73b2ac84e2732f618","609d7ccda4b0761905050abd","null","","","","null","","","","key","16.68262790697681","640","305","","","","","","","","","","","","","","","","","","","",""
"psychophysics","294","462517","0.0-18.0-1.16","6049d09a4abaf27d9bb325b7","609a8bf73b2ac84e2732f618","609d7ccda4b0761905050abd","null","","","","null","","","","key","16.67655172413777","640","305","","","","","","","","","","","","","145","-1","6","true","","","",""
"psychophysics","295","462806","0.0-18.0-2.16","6049d09a4abaf27d9bb325b7","609a8bf73b2ac84e2732f618","609d7ccda4b0761905050abd","282.18500036746264","","","","77","","","","key","16.68111764706041","640","305","","","","","","","","","","","","","","","","","","","",""
"psychophysics","296","463463","0.0-18.0-0.17","6049d09a4abaf27d9bb325b7","609a8bf73b2ac84e2732f618","609d7ccda4b0761905050abd","null","","","","null","","","","key","16.685473684210784","640","305","","","","","","","","","","","","","","","","","","","",""
"psychophysics","297","463968","0.0-18.0-1.17","6049d09a4abaf27d9bb325b7","609a8bf73b2ac84e2732f618","609d7ccda4b0761905050abd","null","","","","null","","","","key","16.685655172414485","640","305","","","","","","","","","","","","","145","1","6","true","","","",""
"psychophysics","298","464143","0.0-18.0-2.17","6049d09a4abaf27d9bb325b7","609a8bf73b2ac84e2732f618","609d7ccda4b0761905050abd","161.16000013425946","","","","77","","","","key","16.691499999997905","640","305","","","","","","","","","","","","","","","","","","","",""
"psychophysics","299","464885","0.0-18.0-0.18","6049d09a4abaf27d9bb325b7","609a8bf73b2ac84e2732f618","609d7ccda4b0761905050abd","null","","","","null","","","","key","16.681860465115086","640","305","","","","","","","","","","","","","","","","","","","",""
"psychophysics","300","465389","0.0-18.0-1.18","6049d09a4abaf27d9bb325b7","609a8bf73b2ac84e2732f618","609d7ccda4b0761905050abd","null","","","","null","","","","key","16.687266666667224","640","305","","","","","","","","","","","","","145","-1","0","true","","","",""
"psychophysics","301","466016","0.0-18.0-2.18","6049d09a4abaf27d9bb325b7","609a8bf73b2ac84e2732f618","609d7ccda4b0761905050abd","621.71999970451","","","","77","","","","key","16.679777777778025","640","305","","","","","","","","","","","","","","","","","","","",""
"psychophysics","302","467048","0.0-18.0-0.19","6049d09a4abaf27d9bb325b7","609a8bf73b2ac84e2732f618","609d7ccda4b0761905050abd","null","","","","null","","","","key","16.682754098360434","640","305","","","","","","","","","","","","","","","","","","","",""
"psychophysics","303","467551","0.0-18.0-1.19","6049d09a4abaf27d9bb325b7","609a8bf73b2ac84e2732f618","609d7ccda4b0761905050abd","null","","","","null","","","","key","16.681931034483192","640","305","","","","","","","","","","","","","145","1","3","true","","","",""
"psychophysics","304","467859","0.0-18.0-2.19","6049d09a4abaf27d9bb325b7","609a8bf73b2ac84e2732f618","609d7ccda4b0761905050abd","300.2799996174872","","","","77","","","","key","16.689555555556176","640","305","","","","","","","","","","","","","","","","","","","",""
"psychophysics","305","468481","0.0-18.0-0.20","6049d09a4abaf27d9bb325b7","609a8bf73b2ac84e2732f618","609d7ccda4b0761905050abd","null","","","","null","","","","key","16.68205555555566","640","305","","","","","","","","","","","","","","","","","","","",""
"psychophysics","306","468985","0.0-18.0-1.20","6049d09a4abaf27d9bb325b7","609a8bf73b2ac84e2732f618","609d7ccda4b0761905050abd","null","","","","null","","","","key","16.68148275862191","640","305","","","","","","","","","","","","","145","1","5","true","","","",""
"psychophysics","307","469165","0.0-18.0-2.20","6049d09a4abaf27d9bb325b7","609a8bf73b2ac84e2732f618","609d7ccda4b0761905050abd","171.1750002577901","","","","77","","","","key","16.67970000000205","640","305","","","","","","","","","","","","","","","","","","","",""
"psychophysics","308","470433","0.0-18.0-0.21","6049d09a4abaf27d9bb325b7","609a8bf73b2ac84e2732f618","609d7ccda4b0761905050abd","null","","","","null","","","","key","16.68217333333334","640","305","","","","","","","","","","","","","","","","","","","",""
"psychophysics","309","470937","0.0-18.0-1.21","6049d09a4abaf27d9bb325b7","609a8bf73b2ac84e2732f618","609d7ccda4b0761905050abd","null","","","","null","","","","key","16.68148275862191","640","305","","","","","","","","","","","","","145","-1","2","true","","","",""
"psychophysics","310","471173","0.0-18.0-2.21","6049d09a4abaf27d9bb325b7","609a8bf73b2ac84e2732f618","609d7ccda4b0761905050abd","228.3899998292327","","","","77","","","","key","16.687615384616386","640","305","","","","","","","","","","","","","","","","","","","",""
"psychophysics","311","472142","0.0-18.0-0.22","6049d09a4abaf27d9bb325b7","609a8bf73b2ac84e2732f618","609d7ccda4b0761905050abd","null","","","","null","","","","key","16.682859649122978","640","305","","","","","","","","","","","","","","","","","","","",""
"psychophysics","312","472659","0.0-18.0-1.22","6049d09a4abaf27d9bb325b7","609a8bf73b2ac84e2732f618","609d7ccda4b0761905050abd","null","","","","null","","","","key","16.681766666665983","640","305","","","","","","","","","","","","","145","-1","4","true","","","",""
"psychophysics","313","472793","0.0-18.0-2.22","6049d09a4abaf27d9bb325b7","609a8bf73b2ac84e2732f618","609d7ccda4b0761905050abd","125.25499984622002","","","","77","","","","key","16.68214285713787","640","305","","","","","","","","","","","","","","","","","","","",""
"psychophysics","314","473952","0.0-18.0-0.23","6049d09a4abaf27d9bb325b7","609a8bf73b2ac84e2732f618","609d7ccda4b0761905050abd","null","","","","null","","","","key","16.682768115942515","640","305","","","","","","","","","","","","","","","","","","","",""
"psychophysics","315","474458","0.0-18.0-1.23","6049d09a4abaf27d9bb325b7","609a8bf73b2ac84e2732f618","609d7ccda4b0761905050abd","null","","","","null","","","","key","16.681689655173425","640","305","","","","","","","","","","","","","145","1","4","true","","","",""
"psychophysics","316","474609","0.0-18.0-2.23","6049d09a4abaf27d9bb325b7","609a8bf73b2ac84e2732f618","609d7ccda4b0761905050abd","143.1450000964105","","","","77","","","","key","16.702999999994063","640","305","","","","","","","","","","","","","","","","","","","",""
"psychophysics","317","475295","0.0-18.0-0.24","6049d09a4abaf27d9bb325b7","609a8bf73b2ac84e2732f618","609d7ccda4b0761905050abd","null","","","","null","","","","key","16.68365000000049","640","305","","","","","","","","","","","","","","","","","","","",""
"psychophysics","318","475800","0.0-18.0-1.24","6049d09a4abaf27d9bb325b7","609a8bf73b2ac84e2732f618","609d7ccda4b0761905050abd","null","","","","null","","","","key","16.68163333333408","640","305","","","","","","","","","","","","","145","1","3","true","","","",""
"psychophysics","319","479948","0.0-18.0-2.24","6049d09a4abaf27d9bb325b7","609a8bf73b2ac84e2732f618","609d7ccda4b0761905050abd","4142.340000253171","","","","77","","","","key","16.681874493927165","640","305","","","","","","","","","","","","","","","","","","","",""
"psychophysics","320","480644","0.0-18.0-0.25","6049d09a4abaf27d9bb325b7","609a8bf73b2ac84e2732f618","609d7ccda4b0761905050abd","null","","","","null","","","","key","16.685024390244152","640","305","","","","","","","","","","","","","","","","","","","",""
"psychophysics","321","481149","0.0-18.0-1.25","6049d09a4abaf27d9bb325b7","609a8bf73b2ac84e2732f618","609d7ccda4b0761905050abd","null","","","","null","","","","key","16.68231034482797","640","305","","","","","","","","","","","","","145","1","0","true","","","",""
"psychophysics","322","481195","0.0-18.0-2.25","6049d09a4abaf27d9bb325b7","609a8bf73b2ac84e2732f618","609d7ccda4b0761905050abd","37.96500014141202","","","","77","","","","key","16.742499999993015","640","305","","","","","","","","","","","","","","","","","","","",""
"psychophysics","323","482102","0.0-18.0-0.26","6049d09a4abaf27d9bb325b7","609a8bf73b2ac84e2732f618","609d7ccda4b0761905050abd","null","","","","null","","","","key","16.683886792453638","640","305","","","","","","","","","","","","","","","","","","","",""
"psychophysics","324","482606","0.0-18.0-1.26","6049d09a4abaf27d9bb325b7","609a8bf73b2ac84e2732f618","609d7ccda4b0761905050abd","null","","","","null","","","","key","16.686499999999068","640","305","","","","","","","","","","","","","145","-1","5","true","","","",""
"psychophysics","325","482766","0.0-18.0-2.26","6049d09a4abaf27d9bb325b7","609a8bf73b2ac84e2732f618","609d7ccda4b0761905050abd","155.51500022411346","","","","77","","","","key","16.68000000000029","640","305","","","","","","","","","","","","","","","","","","","",""
"psychophysics","326","483605","0.0-18.0-0.27","6049d09a4abaf27d9bb325b7","609a8bf73b2ac84e2732f618","609d7ccda4b0761905050abd","null","","","","null","","","","key","16.685408163265734","640","305","","","","","","","","","","","","","","","","","","","",""
"psychophysics","327","484113","0.0-18.0-1.27","6049d09a4abaf27d9bb325b7","609a8bf73b2ac84e2732f618","609d7ccda4b0761905050abd","null","","","","null","","","","key","16.681900000001768","640","305","","","","","","","","","","","","","145","1","6","true","","","",""
"psychophysics","328","484212","0.0-18.0-2.27","6049d09a4abaf27d9bb325b7","609a8bf73b2ac84e2732f618","609d7ccda4b0761905050abd","95.48499993979931","","","","77","","","","key","16.68319999999367","640","305","","","","","","","","","","","","","","","","","","","",""
"psychophysics","329","484939","0.0-18.0-0.28","6049d09a4abaf27d9bb325b7","609a8bf73b2ac84e2732f618","609d7ccda4b0761905050abd","null","","","","null","","","","key","16.681761904762382","640","305","","","","","","","","","","","","","","","","","","","",""
"psychophysics","330","485452","0.0-18.0-1.28","6049d09a4abaf27d9bb325b7","609a8bf73b2ac84e2732f618","609d7ccda4b0761905050abd","null","","","","null","","","","key","16.681400000001304","640","305","","","","","","","","","","","","","145","-1","6","true","","","",""
