"trial_type","trial_index","time_elapsed","internal_node_id","PROLIFIC_PID","STUDY_ID","SESSION_ID","rt","stimulus","button_pressed","success","key_press","responses","isData","view_history","response_type","avg_frame_time","center_x","center_y","isSC","stim_side","trial_luminance","step_size","nReversal","correct","prev_ans","isThreshold","SC_threshold","final_threshold","isLuminance","FF_luminance","luminance","stimSide","ISInt","isFF","question_order","isSPQ","isCAPS","isAQ"
"pavlovia","0","9","0.0-0.0","60578ad3a89be782a264f66a","609a8bf73b2ac84e2732f618","609d7d716857575a1ae486d6","","","","","","","","","","","","","","","","","","","","","","","","","","","","","","","",""
"html-button-response","1","20480","0.0-1.0","60578ad3a89be782a264f66a","609a8bf73b2ac84e2732f618","609d7d716857575a1ae486d6","20468.23499999999","<div style='background-color: white; width:60%; margin: auto; padding: 50px; text-align: justify; text-justify: inter-word; margin-bottom: 20px;'><h1 style='text-align: center;'>Consent Form</h1><p>Please read this consent form carefully before deciding whether you would like to participate in this study. You have to be 18 years old or older to participate to this study.</p><p style='text-decoration: underline;'>Participation is voluntary:</p><p>It is your choice whether or not to participate in this research. If you choose to participate, you may change your mind and leave the study at any time. Refusal to participate or stopping your participation will involve no penalty or loss of benefits to which you are otherwise entitled.</p><p style='text-decoration: underline;'>Purpose of the Study:</p><p>To understand the mechanisms underlying human perception.</p><p style='text-decoration: underline;'>What you will do in this study:</p><p>You will be presented with a series of visual images and then you will press buttons on the keyboard of your computer to respond to simple questions about the images (e.g. Were one or two images presented?). In addition, you will be asked to complete a questionnaire concerning your beliefs and everyday mental and perceptual experiences.'</p><p style='text-decoration: underline;'> Time Required:</p><p>The study will take 40 minutes to complete. </p><p style='text-decoration: underline;'>Risks:</p><p>There are no anticipated risks associated with participating in this study that are beyond those experienced in everyday life. </p><p style='text-decoration: underline;'>Benefits:</p><p>There are no benefits to you in participating in the study. However, this study may lead to a better understanding of how different kinds of visual information are used.</p><p style='text-decoration: underline;'>Compensation:</p><p>You will be paid US$6.6/hour. </p><p style='text-decoration: underline;'>Privacy and Confidentiality:</p><p>Your participation in this study will be anonymous. No personal information about your name or identity will be asked or recorded. This anonymous data will be stored for several years and may be used for a variety of research purposes. The overall results of the study may be published, or the data files may be shared with other researchers, but your identity will not be revealed in any way. The online services we are using for this study may temporarily store your data, but this data will be downloaded and then promptly deleted from those services.Your data will not be permanently associated with your name, IP address, or any other identifiable information (e.g., your information will only be connected to your payment, not to any of your responses), though they may be temporarily stored together before we download and separate them. Even so, no guarantee of internet survey security can be given because, although unlikely, transmissions can be intercepted and IP addresses can be identified. The anonymous data may be shared publicly (for example, in conjunction with a resulting academic publication).</p><p style='text-decoration: underline;'>Participation and Withdrawal:</p><p>Your participation in this study is completely voluntary. You may stop responding to the stimuli or stop answering questions if you so choose and without penalty by exiting the full screen mode, closing this tab of your browser or redirecting it to a different website.</p><p style='text-decoration: underline;'>Contact Info of the Researcher: </p><p>If you have questions about this study, or if you would like to talk to the research team, please contact David Melcher (david.melcher@nyu.edu, md5050@nyu.edu) at the Perception and Active Cognition Laboratory, New York University Abu Dhabi, Computational Research Building, Saadiyat Island, Abu Dhabi, UAE.This research has been reviewed by the New York University Abu Dhabi Institutional Review Board (NYUAD IRB). To contact about your rights in this research, for questions, suggestions, or complaints that are not addressed by the researchers, please email IRBnyuad@nyu.edu, or call the NYUAD IRB at +971 2 628 4313. </p></div>","0","","","","","","","","","","","","","","","","","","","","","","","","","","","","",""
"fullscreen","2","24496","0.0-2.0","60578ad3a89be782a264f66a","609a8bf73b2ac84e2732f618","609d7d716857575a1ae486d6","","","","true","","","","","","","","","","","","","","","","","","","","","","","","","","","",""
"html-keyboard-response","3","108633","0.0-3.0","60578ad3a89be782a264f66a","609a8bf73b2ac84e2732f618","609d7d716857575a1ae486d6","84135.64000000001","<p>Welcome !</p><p>READ CAREFULLY THE FOLLOWING INDICATIONS:</p><p>From this moment you have ~40 minutes to complete the experiment.</p><p>During the experiment you will be prompted to take several breaks. Each break should not last longer than 2-3 minutes.</p><p>Make sure that your computer is plugged in and it's not running on battery power, even if the battery is already fully charged.</p><p>Turn off your phone and music, make sure that you are in a quiet room and that you will not be distracted for the next hour.</p><p>Failure to comply with the instructions and indications provided during the experiment will most likely result in the rejection of your data.<p>Press the spacebar to start.</p>","","","32","","","","","","","","","","","","","","","","","","","","","","","","","","",""
"survey-html-form","4","115682","0.0-4.0","60578ad3a89be782a264f66a","609a8bf73b2ac84e2732f618","609d7d716857575a1ae486d6","7047.850000000006","","","","","{""age"":""27"",""sex"":""F""}","true","","","","","","","","","","","","","","","","","","","","","","","","",""
"instructions","5","166281","0.0-5.0","60578ad3a89be782a264f66a","609a8bf73b2ac84e2732f618","609d7d716857575a1ae486d6","50597.84000000001","","","","","","","[{""page_index"":0,""viewing_time"":13455.235},{""page_index"":1,""viewing_time"":32631.869999999995},{""page_index"":2,""viewing_time"":4510.330000000016}]","","","","","","","","","","","","","","","","","","","","","","","",""
"psychophysics","6","168229","0.0-6.0-0.0","60578ad3a89be782a264f66a","609a8bf73b2ac84e2732f618","609d7d716857575a1ae486d6","943.9100000000326","","","","39","","","","key","16.62600000000008","600","285","true","1","180","30","0","-1","","","","","","","","","","","","","",""
"psychophysics","7","169635","0.0-6.0-0.1","60578ad3a89be782a264f66a","609a8bf73b2ac84e2732f618","609d7d716857575a1ae486d6","401.570000000007","","","","37","","","","key","16.62600000000003","600","285","true","-1","180","30","0","-1","-1","","","","","","","","","","","","",""
"psychophysics","8","171092","0.0-6.0-0.2","60578ad3a89be782a264f66a","609a8bf73b2ac84e2732f618","609d7d716857575a1ae486d6","454.8099999999977","","","","37","","","","key","16.636337209302056","600","285","true","-1","150","30","0","-1","-1","","","","","","","","","","","","",""
"psychophysics","9","172553","0.0-6.0-0.3","60578ad3a89be782a264f66a","609a8bf73b2ac84e2732f618","609d7d716857575a1ae486d6","459.38000000003376","","","","39","","","","key","16.625999999999994","600","285","true","1","150","30","0","-1","-1","","","","","","","","","","","","",""
"psychophysics","10","174636","0.0-6.0-0.4","60578ad3a89be782a264f66a","609a8bf73b2ac84e2732f618","609d7d716857575a1ae486d6","1079.4599999999627","","","","39","","","","key","16.626000000000086","600","285","true","1","129","30","0","-1","-1","","","","","","","","","","","","",""
"psychophysics","11","176346","0.0-6.0-0.5","60578ad3a89be782a264f66a","609a8bf73b2ac84e2732f618","609d7d716857575a1ae486d6","708.4700000000303","","","","37","","","","key","16.626000000000133","600","285","true","1","129","24","1","1","-1","","","","","","","","","","","","",""
"psychophysics","12","177770","0.0-6.0-0.6","60578ad3a89be782a264f66a","609a8bf73b2ac84e2732f618","609d7d716857575a1ae486d6","421.6700000000128","","","","39","","","","key","16.625999999999905","600","285","true","1","153","24","1","-1","1","","","","","","","","","","","","",""
"psychophysics","13","179201","0.0-6.0-0.7","60578ad3a89be782a264f66a","609a8bf73b2ac84e2732f618","609d7d716857575a1ae486d6","428.5799999999581","","","","37","","","","key","16.625999999999905","600","285","true","-1","153","19.2","2","-1","-1","","","","","","","","","","","","",""
"psychophysics","14","180678","0.0-6.0-0.8","60578ad3a89be782a264f66a","609a8bf73b2ac84e2732f618","609d7d716857575a1ae486d6","474.4749999999767","","","","37","","","","key","16.636034090909313","600","285","true","-1","133.8","19.2","2","-1","-1","","","","","","","","","","","","",""
"psychophysics","15","182113","0.0-6.0-0.9","60578ad3a89be782a264f66a","609a8bf73b2ac84e2732f618","609d7d716857575a1ae486d6","433.6349999999802","","","","39","","","","key","16.625999999999905","600","285","true","1","133.8","19.2","2","-1","-1","","","","","","","","","","","","",""
"psychophysics","16","183628","0.0-6.0-0.10","60578ad3a89be782a264f66a","609a8bf73b2ac84e2732f618","609d7d716857575a1ae486d6","512.0849999999919","","","","39","","","","key","16.625999999999962","600","285","true","-1","129","15.36","3","1","-1","","","","","","","","","","","","",""
"psychophysics","17","185057","0.0-6.0-0.11","60578ad3a89be782a264f66a","609a8bf73b2ac84e2732f618","609d7d716857575a1ae486d6","426.63000000000466","","","","39","","","","key","16.626000000000246","600","285","true","1","144.36","15.36","3","-1","1","","","","","","","","","","","","",""
"psychophysics","18","186516","0.0-6.0-0.12","60578ad3a89be782a264f66a","609a8bf73b2ac84e2732f618","609d7d716857575a1ae486d6","455.4900000000198","","","","37","","","","key","16.625999999999994","600","285","true","-1","144.36","12.287999999999998","4","-1","-1","","","","","","","","","","","","",""
"psychophysics","19","188068","0.0-6.0-0.13","60578ad3a89be782a264f66a","609a8bf73b2ac84e2732f618","609d7d716857575a1ae486d6","550.4549999999872","","","","37","","","","key","16.626000000000044","600","285","true","-1","132.072","12.287999999999998","4","-1","-1","","","","","","","","","","","","",""
"psychophysics","20","189625","0.0-6.0-0.14","60578ad3a89be782a264f66a","609a8bf73b2ac84e2732f618","609d7d716857575a1ae486d6","554.0649999999732","","","","37","","","","key","16.62599999999993","600","285","true","1","132.072","9.8304","5","1","-1","","","","","","","","","","","","",""
"psychophysics","21","191038","0.0-6.0-0.15","60578ad3a89be782a264f66a","609a8bf73b2ac84e2732f618","609d7d716857575a1ae486d6","411.2600000000093","","","","37","","","","key","16.636642857142892","600","285","true","-1","141.9024","9.8304","5","-1","1","","","","","","","","","","","","",""
"psychophysics","22","192484","0.0-6.0-0.16","60578ad3a89be782a264f66a","609a8bf73b2ac84e2732f618","609d7d716857575a1ae486d6","443.6450000000186","","","","37","","","","key","16.62600000000012","600","285","true","-1","141.9024","7.864319999999999","6","-1","-1","","","","","","","","","","","","",""
"psychophysics","23","193804","0.0-6.0-0.17","60578ad3a89be782a264f66a","609a8bf73b2ac84e2732f618","609d7d716857575a1ae486d6","318.5099999999802","","","","37","","","","key","16.62600000000011","600","285","true","-1","134.03808","7.864319999999999","6","-1","-1","","","","","","","","","","","","",""
"psychophysics","24","195291","0.0-6.0-0.18","60578ad3a89be782a264f66a","609a8bf73b2ac84e2732f618","609d7d716857575a1ae486d6","485.5200000000186","","","","39","","","","key","16.626000000000204","600","285","true","1","134.03808","7.864319999999999","6","-1","-1","","","","","","","","","","","","",""
"psychophysics","25","196612","0.0-6.0-0.19","60578ad3a89be782a264f66a","609a8bf73b2ac84e2732f618","609d7d716857575a1ae486d6","319.2250000000349","","","","39","","","","key","16.625999999999973","600","285","true","-1","129","6.291456","7","1","-1","","","","","","","","","","","","",""
"psychophysics","26","197955","0.0-6.0-0.20","60578ad3a89be782a264f66a","609a8bf73b2ac84e2732f618","609d7d716857575a1ae486d6","339.40499999999884","","","","39","","","","key","16.62599999999984","600","285","true","1","135.291456","6.291456","7","-1","1","","","","","","","","","","","","",""
"psychophysics","27","199428","0.0-6.0-0.21","60578ad3a89be782a264f66a","609a8bf73b2ac84e2732f618","609d7d716857575a1ae486d6","471.08499999999185","","","","39","","","","key","16.625999999999994","600","285","true","1","135.291456","5.033164800000001","8","-1","-1","","","","","","","","","","","","",""
"psychophysics","28","200889","0.0-6.0-0.22","60578ad3a89be782a264f66a","609a8bf73b2ac84e2732f618","609d7d716857575a1ae486d6","460.1800000000221","","","","39","","","","key","16.636183908045954","600","285","true","-1","130.2582912","4.0265318400000005","9","1","-1","","","","","","","","","","","","",""
"psychophysics","29","202314","0.0-6.0-0.23","60578ad3a89be782a264f66a","609a8bf73b2ac84e2732f618","609d7d716857575a1ae486d6","422.88999999998487","","","","37","","","","key","16.626000000000246","600","285","true","-1","134.28482304","4.0265318400000005","9","-1","1","","","","","","","","","","","","",""
"psychophysics","30","204037","0.0-6.0-0.24","60578ad3a89be782a264f66a","609a8bf73b2ac84e2732f618","609d7d716857575a1ae486d6","721.6549999999988","","","","37","","","","key","16.626000000000026","600","285","true","-1","134.28482304","3.2212254720000004","10","-1","-1","","","","","","","","","","","","",""
"psychophysics","31","205420","0.0-6.0-0.25","60578ad3a89be782a264f66a","609a8bf73b2ac84e2732f618","609d7d716857575a1ae486d6","379.79999999998836","","","","37","","","","key","16.625999999999937","600","285","true","1","131.06359756799998","2.5769803776000004","11","1","-1","","","","","","","","","","","","",""
"psychophysics","32","206892","0.0-6.0-0.26","60578ad3a89be782a264f66a","609a8bf73b2ac84e2732f618","609d7d716857575a1ae486d6","470.60499999995227","","","","37","","","","key","16.625999999999994","600","285","true","-1","133.64057794559997","2.5769803776000004","11","-1","1","","","","","","","","","","","","",""
"psychophysics","33","208369","0.0-6.0-0.27","60578ad3a89be782a264f66a","609a8bf73b2ac84e2732f618","609d7d716857575a1ae486d6","475.23499999998603","","","","37","","","","key","16.626000000000204","600","285","true","-1","133.64057794559997","2.0615843020800004","12","-1","-1","","","","","","","","","","","","",""
"psychophysics","34","210075","0.0-6.0-0.28","60578ad3a89be782a264f66a","609a8bf73b2ac84e2732f618","609d7d716857575a1ae486d6","702.8550000000105","","","","39","","","","key","16.62599999999985","600","285","true","1","131.57899364351996","2.0615843020800004","12","-1","-1","","","","","","","","","","","","",""
"psychophysics","35","211539","0.0-6.0-0.29","60578ad3a89be782a264f66a","609a8bf73b2ac84e2732f618","609d7d716857575a1ae486d6","462.37000000002445","","","","37","","","","key","16.636229885057293","600","285","true","-1","131.57899364351996","2.0615843020800004","12","-1","-1","","","","","","","","","","","","",""
"psychophysics","36","213005","0.0-6.0-0.30","60578ad3a89be782a264f66a","609a8bf73b2ac84e2732f618","609d7d716857575a1ae486d6","464.4899999999907","","","","37","","","","key","16.625999999999994","600","285","true","-1","129.51740934143996","2.0615843020800004","12","-1","-1","","","","","","","","","","","","",""
"psychophysics","37","214473","0.0-6.0-0.31","60578ad3a89be782a264f66a","609a8bf73b2ac84e2732f618","609d7d716857575a1ae486d6","466.00499999997555","","","","39","","","","key","16.625999999999994","600","285","true","-1","129.51740934143996","1.6492674416640005","13","1","-1","","","","","","","","","","","","",""
"psychophysics","38","216052","0.0-6.0-0.32","60578ad3a89be782a264f66a","609a8bf73b2ac84e2732f618","609d7d716857575a1ae486d6","576.4450000000361","","","","39","","","","key","16.626000000000126","600","285","true","1","131.16667678310395","1.6492674416640005","13","-1","1","","","","","","","","","","","","",""
"psychophysics","39","217513","0.0-6.0-0.33","60578ad3a89be782a264f66a","609a8bf73b2ac84e2732f618","609d7d716857575a1ae486d6","458.6949999999779","","","","39","","","","key","16.625999999999994","600","285","true","1","131.16667678310395","1.3194139533312006","14","-1","-1","","","","","","","","","","","","",""
"psychophysics","40","218974","0.0-6.0-0.34","60578ad3a89be782a264f66a","609a8bf73b2ac84e2732f618","609d7d716857575a1ae486d6","458.38999999992666","","","","39","","","","key","16.625999999999994","600","285","true","1","129.84726282977275","1.3194139533312006","14","-1","-1","","","","","","","","","","","","",""
"psychophysics","41","220521","0.0-6.0-0.35","60578ad3a89be782a264f66a","609a8bf73b2ac84e2732f618","609d7d716857575a1ae486d6","544.9049999999988","","","","39","","","","key","16.63561956521754","600","285","true","-1","129.84726282977275","1.0555311626649604","15","1","-1","","","","","","","","","","","","",""
"psychophysics","42","221901","0.0-6.0-0.36","60578ad3a89be782a264f66a","609a8bf73b2ac84e2732f618","609d7d716857575a1ae486d6","377.95000000001164","","","","39","","","","key","16.625999999999937","600","285","true","1","130.9027939924377","1.0555311626649604","15","-1","1","","","","","","","","","","","","",""
"psychophysics","43","223428","0.0-6.0-0.37","60578ad3a89be782a264f66a","609a8bf73b2ac84e2732f618","609d7d716857575a1ae486d6","524.6750000000175","","","","39","","","","key","16.625999999999845","600","285","true","1","130.9027939924377","1","16","-1","-1","","","","","","","","","","","","",""
"psychophysics","44","224861","0.0-6.0-0.38","60578ad3a89be782a264f66a","609a8bf73b2ac84e2732f618","609d7d716857575a1ae486d6","431.5350000000035","","","","39","","","","key","16.626000000000246","600","285","true","1","129.9027939924377","1","16","-1","-1","","","","","","","","","","","","",""
"psychophysics","45","226323","0.0-6.0-0.39","60578ad3a89be782a264f66a","609a8bf73b2ac84e2732f618","609d7d716857575a1ae486d6","459.49500000002445","","","","39","","","","key","16.625999999999994","600","285","true","1","129.9027939924377","1","16","-1","-1","","","","","","","","","","","","",""
"html-keyboard-response","46","232184","0.0-7.0","60578ad3a89be782a264f66a","609a8bf73b2ac84e2732f618","609d7d716857575a1ae486d6","5860.5899999999965","<p>Well Done !</p><p>Prepare for a new block.</p><p>DON'T EXIT THE FULL SCREEN MODE</p><p>Press the Spacebar to start.</p>","","","32","","","","","","","","","","","","","","","true","130.94510764164156","","","","","","","","","","",""
"psychophysics","47","233543","0.0-8.0-0.0","60578ad3a89be782a264f66a","609a8bf73b2ac84e2732f618","609d7d716857575a1ae486d6","356.3650000000489","","","","37","","","","key","16.640123456790196","600","285","true","-1","180","30","0","-1","","","","","","","","","","","","","",""
"psychophysics","48","234881","0.0-8.0-0.1","60578ad3a89be782a264f66a","609a8bf73b2ac84e2732f618","609d7d716857575a1ae486d6","335.05000000001746","","","","39","","","","key","16.626000000000204","600","285","true","1","180","30","0","-1","-1","","","","","","","","","","","","",""
"psychophysics","49","236184","0.0-8.0-0.2","60578ad3a89be782a264f66a","609a8bf73b2ac84e2732f618","609d7d716857575a1ae486d6","300.59500000003027","","","","37","","","","key","16.625999999999873","600","285","true","-1","150","30","0","-1","-1","","","","","","","","","","","","",""
"psychophysics","50","237456","0.0-8.0-0.3","60578ad3a89be782a264f66a","609a8bf73b2ac84e2732f618","609d7d716857575a1ae486d6","270.44999999998254","","","","39","","","","key","16.625999999999767","600","285","true","1","150","30","0","-1","-1","","","","","","","","","","","","",""
"psychophysics","51","238858","0.0-8.0-0.4","60578ad3a89be782a264f66a","609a8bf73b2ac84e2732f618","609d7d716857575a1ae486d6","399.8649999999616","","","","37","","","","key","16.62600000000003","600","285","true","1","129","24","1","1","-1","","","","","","","","","","","","",""
"psychophysics","52","240185","0.0-8.0-0.5","60578ad3a89be782a264f66a","609a8bf73b2ac84e2732f618","609d7d716857575a1ae486d6","326.10999999998603","","","","39","","","","key","16.625999999999973","600","285","true","1","153","24","1","-1","1","","","","","","","","","","","","",""
"psychophysics","53","241555","0.0-8.0-0.6","60578ad3a89be782a264f66a","609a8bf73b2ac84e2732f618","609d7d716857575a1ae486d6","367.8649999999907","","","","39","","","","key","16.62600000000007","600","285","true","1","153","19.2","2","-1","-1","","","","","","","","","","","","",""
"psychophysics","54","242976","0.0-8.0-0.7","60578ad3a89be782a264f66a","609a8bf73b2ac84e2732f618","609d7d716857575a1ae486d6","418.36999999996624","","","","39","","","","key","16.636666666666446","600","285","true","1","133.8","19.2","2","-1","-1","","","","","","","","","","","","",""
"psychophysics","55","244263","0.0-8.0-0.8","60578ad3a89be782a264f66a","609a8bf73b2ac84e2732f618","609d7d716857575a1ae486d6","286.42500000001746","","","","37","","","","key","16.625999999999873","600","285","true","-1","133.8","19.2","2","-1","-1","","","","","","","","","","","","",""
"psychophysics","56","245771","0.0-8.0-0.9","60578ad3a89be782a264f66a","609a8bf73b2ac84e2732f618","609d7d716857575a1ae486d6","506.1949999999779","","","","37","","","","key","16.625999999999962","600","285","true","-1","129","19.2","2","-1","-1","","","","","","","","","","","","",""
"psychophysics","57","246991","0.0-8.0-0.10","60578ad3a89be782a264f66a","609a8bf73b2ac84e2732f618","609d7d716857575a1ae486d6","218.48499999998603","","","","39","","","","key","16.6259999999998","600","285","true","-1","129","15.36","3","1","-1","","","","","","","","","","","","",""
"psychophysics","58","248274","0.0-8.0-0.11","60578ad3a89be782a264f66a","609a8bf73b2ac84e2732f618","609d7d716857575a1ae486d6","280.570000000007","","","","39","","","","key","16.626000000000012","600","285","true","1","144.36","15.36","3","-1","1","","","","","","","","","","","","",""
"psychophysics","59","249591","0.0-8.0-0.12","60578ad3a89be782a264f66a","609a8bf73b2ac84e2732f618","609d7d716857575a1ae486d6","315.09499999997206","","","","37","","","","key","16.62600000000011","600","285","true","-1","144.36","12.287999999999998","4","-1","-1","","","","","","","","","","","","",""
"psychophysics","60","250985","0.0-8.0-0.13","60578ad3a89be782a264f66a","609a8bf73b2ac84e2732f618","609d7d716857575a1ae486d6","391.75","","","","37","","","","key","16.62600000000016","600","285","true","1","132.072","9.8304","5","1","-1","","","","","","","","","","","","",""
"psychophysics","61","252256","0.0-8.0-0.14","60578ad3a89be782a264f66a","609a8bf73b2ac84e2732f618","609d7d716857575a1ae486d6","267.2500000000291","","","","39","","","","key","16.626000000000012","600","285","true","1","141.9024","9.8304","5","-1","1","","","","","","","","","","","","",""
"psychophysics","62","253698","0.0-8.0-0.15","60578ad3a89be782a264f66a","609a8bf73b2ac84e2732f618","609d7d716857575a1ae486d6","439.5249999999942","","","","39","","","","key","16.636447058823506","600","285","true","1","141.9024","7.864319999999999","6","-1","-1","","","","","","","","","","","","",""
"psychophysics","63","255017","0.0-8.0-0.16","60578ad3a89be782a264f66a","609a8bf73b2ac84e2732f618","609d7d716857575a1ae486d6","317.40499999999884","","","","39","","","","key","16.625999999999973","600","285","true","1","134.03808","7.864319999999999","6","-1","-1","","","","","","","","","","","","",""
"psychophysics","64","256360","0.0-8.0-0.17","60578ad3a89be782a264f66a","609a8bf73b2ac84e2732f618","609d7d716857575a1ae486d6","341.62999999994645","","","","37","","","","key","16.625999999999973","600","285","true","-1","134.03808","7.864319999999999","6","-1","-1","","","","","","","","","","","","",""
"psychophysics","65","257751","0.0-8.0-0.18","60578ad3a89be782a264f66a","609a8bf73b2ac84e2732f618","609d7d716857575a1ae486d6","389.2400000000489","","","","39","","","","key","16.62599999999981","600","285","true","-1","129","6.291456","7","1","-1","","","","","","","","","","","","",""
"psychophysics","66","259031","0.0-8.0-0.19","60578ad3a89be782a264f66a","609a8bf73b2ac84e2732f618","609d7d716857575a1ae486d6","277.71000000002095","","","","37","","","","key","16.626000000000012","600","285","true","-1","135.291456","6.291456","7","-1","1","","","","","","","","","","","","",""
"psychophysics","67","260376","0.0-8.0-0.20","60578ad3a89be782a264f66a","609a8bf73b2ac84e2732f618","609d7d716857575a1ae486d6","342.2399999999325","","","","39","","","","key","16.626000000000204","600","285","true","1","135.291456","5.033164800000001","8","-1","-1","","","","","","","","","","","","",""
"psychophysics","68","261959","0.0-8.0-0.21","60578ad3a89be782a264f66a","609a8bf73b2ac84e2732f618","609d7d716857575a1ae486d6","581.7300000000396","","","","37","","","","key","16.625999999999816","600","285","true","1","130.2582912","4.0265318400000005","9","1","-1","","","","","","","","","","","","",""
"psychophysics","69","263187","0.0-8.0-0.22","60578ad3a89be782a264f66a","609a8bf73b2ac84e2732f618","609d7d716857575a1ae486d6","224.9650000000256","","","","37","","","","key","16.638164383561783","600","285","true","-1","134.28482304","4.0265318400000005","9","-1","1","","","","","","","","","","","","",""
"psychophysics","70","264471","0.0-8.0-0.23","60578ad3a89be782a264f66a","609a8bf73b2ac84e2732f618","609d7d716857575a1ae486d6","282.01499999995576","","","","39","","","","key","16.626000000000012","600","285","true","1","134.28482304","3.2212254720000004","10","-1","-1","","","","","","","","","","","","",""
"psychophysics","71","265729","0.0-8.0-0.24","60578ad3a89be782a264f66a","609a8bf73b2ac84e2732f618","609d7d716857575a1ae486d6","254.94500000000698","","","","37","","","","key","16.62599999999938","600","285","true","-1","131.06359756799998","3.2212254720000004","10","-1","-1","","","","","","","","","","","","",""
"psychophysics","72","266996","0.0-8.0-0.25","60578ad3a89be782a264f66a","609a8bf73b2ac84e2732f618","609d7d716857575a1ae486d6","265.5650000000023","","","","37","","","","key","16.626000000000154","600","285","true","-1","131.06359756799998","3.2212254720000004","10","-1","-1","","","","","","","","","","","","",""
"psychophysics","73","268328","0.0-8.0-0.26","60578ad3a89be782a264f66a","609a8bf73b2ac84e2732f618","609d7d716857575a1ae486d6","329.179999999993","","","","37","","","","key","16.626000000000342","600","285","true","-1","129","3.2212254720000004","10","-1","-1","","","","","","","","","","","","",""
"psychophysics","74","269522","0.0-8.0-0.27","60578ad3a89be782a264f66a","609a8bf73b2ac84e2732f618","609d7d716857575a1ae486d6","193.39000000001397","","","","37","","","","key","16.625999999999948","600","285","true","-1","129","3.2212254720000004","10","-1","-1","","","","","","","","","","","","",""
"psychophysics","75","270903","0.0-8.0-0.28","60578ad3a89be782a264f66a","609a8bf73b2ac84e2732f618","609d7d716857575a1ae486d6","378.3949999999604","","","","37","","","","key","16.626000000000648","600","285","true","1","129","2.5769803776000004","11","1","-1","","","","","","","","","","","","",""
"psychophysics","76","272260","0.0-8.0-0.29","60578ad3a89be782a264f66a","609a8bf73b2ac84e2732f618","609d7d716857575a1ae486d6","354.2249999999767","","","","37","","","","key","16.62600000000007","600","285","true","1","131.5769803776","2.5769803776000004","11","1","1","","","","","","","","","","","","",""
"psychophysics","77","273752","0.0-8.0-0.30","60578ad3a89be782a264f66a","609a8bf73b2ac84e2732f618","609d7d716857575a1ae486d6","489.83499999996275","","","","39","","","","key","16.63607954545428","600","285","true","1","134.1539607552","2.5769803776000004","11","-1","1","","","","","","","","","","","","",""
"psychophysics","78","274999","0.0-8.0-0.31","60578ad3a89be782a264f66a","609a8bf73b2ac84e2732f618","609d7d716857575a1ae486d6","245.2050000000163","","","","37","","","","key","16.626000000000303","600","285","true","-1","134.1539607552","2.0615843020800004","12","-1","-1","","","","","","","","","","","","",""
"psychophysics","79","276500","0.0-8.0-0.32","60578ad3a89be782a264f66a","609a8bf73b2ac84e2732f618","609d7d716857575a1ae486d6","498.82500000001164","","","","37","","","","key","16.626000000000285","600","285","true","1","132.09237645311998","1.6492674416640005","13","1","-1","","","","","","","","","","","","",""
"psychophysics","80","277992","0.0-8.0-0.33","60578ad3a89be782a264f66a","609a8bf73b2ac84e2732f618","609d7d716857575a1ae486d6","488.07500000006985","","","","37","","","","key","16.625999999999873","600","285","true","-1","133.74164389478398","1.6492674416640005","13","-1","1","","","","","","","","","","","","",""
"psychophysics","81","279482","0.0-8.0-0.34","60578ad3a89be782a264f66a","609a8bf73b2ac84e2732f618","609d7d716857575a1ae486d6","488.63999999995576","","","","37","","","","key","16.62600000000041","600","285","true","-1","133.74164389478398","1.3194139533312006","14","-1","-1","","","","","","","","","","","","",""
"psychophysics","82","280952","0.0-8.0-0.35","60578ad3a89be782a264f66a","609a8bf73b2ac84e2732f618","609d7d716857575a1ae486d6","467.10999999998603","","","","37","","","","key","16.625999999999994","600","285","true","-1","132.42222994145277","1.3194139533312006","14","-1","-1","","","","","","","","","","","","",""
"psychophysics","83","282411","0.0-8.0-0.36","60578ad3a89be782a264f66a","609a8bf73b2ac84e2732f618","609d7d716857575a1ae486d6","457.41499999997905","","","","37","","","","key","16.635321839080305","600","285","true","-1","132.42222994145277","1.3194139533312006","14","-1","-1","","","","","","","","","","","","",""
"psychophysics","84","283537","0.0-8.0-0.37","60578ad3a89be782a264f66a","609a8bf73b2ac84e2732f618","609d7d716857575a1ae486d6","124.27500000002328","","","","39","","","","key","16.626000000000584","600","285","true","1","131.10281598812156","1.3194139533312006","14","-1","-1","","","","","","","","","","","","",""
"psychophysics","85","285455","0.0-8.0-0.38","60578ad3a89be782a264f66a","609a8bf73b2ac84e2732f618","609d7d716857575a1ae486d6","917.015000000014","","","","37","","","","key","16.626000000000012","600","285","true","-1","131.10281598812156","1.3194139533312006","14","-1","-1","","","","","","","","","","","","",""
"psychophysics","86","286915","0.0-8.0-0.39","60578ad3a89be782a264f66a","609a8bf73b2ac84e2732f618","609d7d716857575a1ae486d6","456.7250000000349","","","","37","","","","key","16.625999999999994","600","285","true","1","129.78340203479036","1.0555311626649604","15","1","-1","","","","","","","","","","","","",""
"html-keyboard-response","87","298226","0.0-9.0","60578ad3a89be782a264f66a","609a8bf73b2ac84e2732f618","609d7d716857575a1ae486d6","11309.89499999996","<p>Well Done !</p><p>Prepare for a new block.</p><p>DON'T EXIT THE FULL SCREEN MODE</p><p>Press the Spacebar to start.</p>","","","32","","","","","","","","","","","","","","","true","131.62384383950845","","","","","","","","","","",""
"psychophysics","88","300724","0.0-10.0-0.0","60578ad3a89be782a264f66a","609a8bf73b2ac84e2732f618","609d7d716857575a1ae486d6","1494.7000000000116","","","","39","","","","key","16.74740268456384","600","285","true","1","180","30","0","-1","","","","","","","","","","","","","",""
"psychophysics","89","302178","0.0-10.0-0.1","60578ad3a89be782a264f66a","609a8bf73b2ac84e2732f618","609d7d716857575a1ae486d6","451.8400000000256","","","","37","","","","key","16.625999999999994","600","285","true","-1","180","30","0","-1","-1","","","","","","","","","","","","",""
"psychophysics","90","303612","0.0-10.0-0.2","60578ad3a89be782a264f66a","609a8bf73b2ac84e2732f618","609d7d716857575a1ae486d6","432.53999999997905","","","","37","","","","key","16.626000000000246","600","285","true","-1","150","30","0","-1","-1","","","","","","","","","","","","",""
"psychophysics","91","305019","0.0-10.0-0.3","60578ad3a89be782a264f66a","609a8bf73b2ac84e2732f618","609d7d716857575a1ae486d6","405.7600000000675","","","","39","","","","key","16.626000000000378","600","285","true","1","150","30","0","-1","-1","","","","","","","","","","","","",""
"psychophysics","92","306507","0.0-10.0-0.4","60578ad3a89be782a264f66a","609a8bf73b2ac84e2732f618","609d7d716857575a1ae486d6","487.1599999999744","","","","39","","","","key","16.625999999999873","600","285","true","-1","129","24","1","1","-1","","","","","","","","","","","","",""
"psychophysics","93","307937","0.0-10.0-0.5","60578ad3a89be782a264f66a","609a8bf73b2ac84e2732f618","609d7d716857575a1ae486d6","426.6600000000326","","","","37","","","","key","16.626000000000246","600","285","true","-1","153","24","1","-1","1","","","","","","","","","","","","",""
"psychophysics","94","309340","0.0-10.0-0.6","60578ad3a89be782a264f66a","609a8bf73b2ac84e2732f618","609d7d716857575a1ae486d6","401.11000000004424","","","","39","","","","key","16.63652380952373","600","285","true","1","153","19.2","2","-1","-1","","","","","","","","","","","","",""
"psychophysics","95","310723","0.0-10.0-0.7","60578ad3a89be782a264f66a","609a8bf73b2ac84e2732f618","609d7d716857575a1ae486d6","381.320000000007","","","","37","","","","key","16.625999999999937","600","285","true","-1","133.8","19.2","2","-1","-1","","","","","","","","","","","","",""
"psychophysics","96","312154","0.0-10.0-0.8","60578ad3a89be782a264f66a","609a8bf73b2ac84e2732f618","609d7d716857575a1ae486d6","427.49499999993714","","","","39","","","","key","16.62599999999956","600","285","true","1","133.8","19.2","2","-1","-1","","","","","","","","","","","","",""
"psychophysics","97","313636","0.0-10.0-0.9","60578ad3a89be782a264f66a","609a8bf73b2ac84e2732f618","609d7d716857575a1ae486d6","480.35999999998603","","","","39","","","","key","16.626000000000534","600","285","true","-1","129","15.36","3","1","-1","","","","","","","","","","","","",""
"psychophysics","98","314995","0.0-10.0-0.10","60578ad3a89be782a264f66a","609a8bf73b2ac84e2732f618","609d7d716857575a1ae486d6","356.820000000007","","","","39","","","","key","16.62600000000007","600","285","true","1","144.36","15.36","3","-1","1","","","","","","","","","","","","",""
"psychophysics","99","316443","0.0-10.0-0.11","60578ad3a89be782a264f66a","609a8bf73b2ac84e2732f618","609d7d716857575a1ae486d6","445.6450000000186","","","","37","","","","key","16.62600000000012","600","285","true","-1","144.36","12.287999999999998","4","-1","-1","","","","","","","","","","","","",""
"psychophysics","100","317809","0.0-10.0-0.12","60578ad3a89be782a264f66a","609a8bf73b2ac84e2732f618","609d7d716857575a1ae486d6","364.3299999999581","","","","39","","","","key","16.62600000000007","600","285","true","1","132.072","12.287999999999998","4","-1","-1","","","","","","","","","","","","",""
"psychophysics","101","319209","0.0-10.0-0.13","60578ad3a89be782a264f66a","609a8bf73b2ac84e2732f618","609d7d716857575a1ae486d6","397.67499999998836","","","","37","","","","key","16.636722891566244","600","285","true","-1","132.072","12.287999999999998","4","-1","-1","","","","","","","","","","","","",""
"psychophysics","102","320614","0.0-10.0-0.14","60578ad3a89be782a264f66a","609a8bf73b2ac84e2732f618","609d7d716857575a1ae486d6","401.95000000001164","","","","37","","","","key","16.626000000000378","600","285","true","-1","129","12.287999999999998","4","-1","-1","","","","","","","","","","","","",""
"psychophysics","103","321913","0.0-10.0-0.15","60578ad3a89be782a264f66a","609a8bf73b2ac84e2732f618","609d7d716857575a1ae486d6","297.5450000000419","","","","37","","","","key","16.625999999999873","600","285","true","-1","129","12.287999999999998","4","-1","-1","","","","","","","","","","","","",""
"psychophysics","104","323380","0.0-10.0-0.16","60578ad3a89be782a264f66a","609a8bf73b2ac84e2732f618","609d7d716857575a1ae486d6","465.1049999999814","","","","37","","","","key","16.625999999999994","600","285","true","-1","129","12.287999999999998","4","-1","-1","","","","","","","","","","","","",""
"psychophysics","105","324755","0.0-10.0-0.17","60578ad3a89be782a264f66a","609a8bf73b2ac84e2732f618","609d7d716857575a1ae486d6","373.7750000000233","","","","37","","","","key","16.626000000000648","600","285","true","-1","129","12.287999999999998","4","-1","-1","","","","","","","","","","","","",""
"psychophysics","106","326238","0.0-10.0-0.18","60578ad3a89be782a264f66a","609a8bf73b2ac84e2732f618","609d7d716857575a1ae486d6","481.375","","","","37","","","","key","16.625999999999873","600","285","true","-1","129","12.287999999999998","4","-1","-1","","","","","","","","","","","","",""
"psychophysics","107","327625","0.0-10.0-0.19","60578ad3a89be782a264f66a","609a8bf73b2ac84e2732f618","609d7d716857575a1ae486d6","385.0700000000652","","","","37","","","","key","16.625999999999937","600","285","true","1","129","9.8304","5","1","-1","","","","","","","","","","","","",""
"psychophysics","108","329139","0.0-10.0-0.20","60578ad3a89be782a264f66a","609a8bf73b2ac84e2732f618","609d7d716857575a1ae486d6","511.3150000000023","","","","37","","","","key","16.635877777778337","600","285","true","-1","138.8304","9.8304","5","-1","1","","","","","","","","","","","","",""
"psychophysics","109","330633","0.0-10.0-0.21","60578ad3a89be782a264f66a","609a8bf73b2ac84e2732f618","609d7d716857575a1ae486d6","492.320000000007","","","","39","","","","key","16.625999999999753","600","285","true","1","138.8304","7.864319999999999","6","-1","-1","","","","","","","","","","","","",""
"psychophysics","110","332060","0.0-10.0-0.22","60578ad3a89be782a264f66a","609a8bf73b2ac84e2732f618","609d7d716857575a1ae486d6","424.9300000000512","","","","39","","","","key","16.626000000000246","600","285","true","-1","130.96608","6.291456","7","1","-1","","","","","","","","","","","","",""
"psychophysics","111","333297","0.0-10.0-0.23","60578ad3a89be782a264f66a","609a8bf73b2ac84e2732f618","609d7d716857575a1ae486d6","235.4199999999837","","","","37","","","","key","16.626000000000452","600","285","true","-1","137.25753600000002","6.291456","7","-1","1","","","","","","","","","","","","",""
"psychophysics","112","334569","0.0-10.0-0.24","60578ad3a89be782a264f66a","609a8bf73b2ac84e2732f618","609d7d716857575a1ae486d6","269.6599999999744","","","","39","","","","key","16.626000000000012","600","285","true","1","137.25753600000002","5.033164800000001","8","-1","-1","","","","","","","","","","","","",""
"psychophysics","113","336465","0.0-10.0-0.25","60578ad3a89be782a264f66a","609a8bf73b2ac84e2732f618","609d7d716857575a1ae486d6","893.5400000000373","","","","37","","","","key","16.626000000000108","600","285","true","1","132.2243712","4.0265318400000005","9","1","-1","","","","","","","","","","","","",""
"psychophysics","114","337961","0.0-10.0-0.26","60578ad3a89be782a264f66a","609a8bf73b2ac84e2732f618","609d7d716857575a1ae486d6","492.9399999999441","","","","39","","","","key","16.625999999999753","600","285","true","1","136.25090304","4.0265318400000005","9","-1","1","","","","","","","","","","","","",""
"psychophysics","115","339377","0.0-10.0-0.27","60578ad3a89be782a264f66a","609a8bf73b2ac84e2732f618","609d7d716857575a1ae486d6","413.40499999996973","","","","37","","","","key","16.636380952381018","600","285","true","-1","136.25090304","3.2212254720000004","10","-1","-1","","","","","","","","","","","","",""
"psychophysics","116","340793","0.0-10.0-0.28","60578ad3a89be782a264f66a","609a8bf73b2ac84e2732f618","609d7d716857575a1ae486d6","413.75","","","","39","","","","key","16.626000000000378","600","285","true","1","133.029677568","3.2212254720000004","10","-1","-1","","","","","","","","","","","","",""
"psychophysics","117","342220","0.0-10.0-0.29","60578ad3a89be782a264f66a","609a8bf73b2ac84e2732f618","609d7d716857575a1ae486d6","425.15500000002794","","","","39","","","","key","16.626000000000246","600","285","true","1","133.029677568","3.2212254720000004","10","-1","-1","","","","","","","","","","","","",""
"psychophysics","118","343660","0.0-10.0-0.30","60578ad3a89be782a264f66a","609a8bf73b2ac84e2732f618","609d7d716857575a1ae486d6","437.02999999996973","","","","39","","","","key","16.62600000000012","600","285","true","1","129.808452096","3.2212254720000004","10","-1","-1","","","","","","","","","","","","",""
"psychophysics","119","345126","0.0-10.0-0.31","60578ad3a89be782a264f66a","609a8bf73b2ac84e2732f618","609d7d716857575a1ae486d6","464.32500000001164","","","","39","","","","key","16.625999999999994","600","285","true","-1","129.808452096","2.5769803776000004","11","1","-1","","","","","","","","","","","","",""
"psychophysics","120","346604","0.0-10.0-0.32","60578ad3a89be782a264f66a","609a8bf73b2ac84e2732f618","609d7d716857575a1ae486d6","475.50499999994645","","","","39","","","","key","16.625999999999873","600","285","true","1","132.3854324736","2.5769803776000004","11","-1","1","","","","","","","","","","","","",""
"psychophysics","121","348118","0.0-10.0-0.33","60578ad3a89be782a264f66a","609a8bf73b2ac84e2732f618","609d7d716857575a1ae486d6","512.804999999993","","","","39","","","","key","16.62599999999964","600","285","true","1","132.3854324736","2.0615843020800004","12","-1","-1","","","","","","","","","","","","",""
"psychophysics","122","349521","0.0-10.0-0.34","60578ad3a89be782a264f66a","609a8bf73b2ac84e2732f618","609d7d716857575a1ae486d6","401.51500000001397","","","","37","","","","key","16.636879518072693","600","285","true","1","130.32384817151998","1.6492674416640005","13","1","-1","","","","","","","","","","","","",""
"psychophysics","123","350948","0.0-10.0-0.35","60578ad3a89be782a264f66a","609a8bf73b2ac84e2732f618","609d7d716857575a1ae486d6","422.9750000000349","","","","37","","","","key","16.626000000000246","600","285","true","1","131.97311561318398","1.6492674416640005","13","1","1","","","","","","","","","","","","",""
"psychophysics","124","352449","0.0-10.0-0.36","60578ad3a89be782a264f66a","609a8bf73b2ac84e2732f618","609d7d716857575a1ae486d6","499.9349999999977","","","","39","","","","key","16.625999999999753","600","285","true","1","133.62238305484797","1.6492674416640005","13","-1","1","","","","","","","","","","","","",""
"psychophysics","125","353940","0.0-10.0-0.37","60578ad3a89be782a264f66a","609a8bf73b2ac84e2732f618","609d7d716857575a1ae486d6","488.570000000007","","","","39","","","","key","16.62600000000041","600","285","true","1","133.62238305484797","1.3194139533312006","14","-1","-1","","","","","","","","","","","","",""
"psychophysics","126","355330","0.0-10.0-0.38","60578ad3a89be782a264f66a","609a8bf73b2ac84e2732f618","609d7d716857575a1ae486d6","386.6849999999977","","","","37","","","","key","16.625999999999937","600","285","true","-1","132.30296910151677","1.3194139533312006","14","-1","-1","","","","","","","","","","","","",""
"psychophysics","127","356755","0.0-10.0-0.39","60578ad3a89be782a264f66a","609a8bf73b2ac84e2732f618","609d7d716857575a1ae486d6","423.0449999999837","","","","37","","","","key","16.626000000000246","600","285","true","-1","132.30296910151677","1.3194139533312006","14","-1","-1","","","","","","","","","","","","",""
"html-keyboard-response","128","383672","0.0-11.0","60578ad3a89be782a264f66a","609a8bf73b2ac84e2732f618","609d7d716857575a1ae486d6","26915.150000000023","<p>Well Done !</p><p>Prepare for a new block.</p><p>DON'T EXIT THE FULL SCREEN MODE</p><p>Press the Spacebar to start.</p>","","","32","","","","","","","","","","","","","","","true","132.62139797684225","","","","","","","","","","",""
"psychophysics","129","384943","0.0-12.0-0.0","60578ad3a89be782a264f66a","609a8bf73b2ac84e2732f618","609d7d716857575a1ae486d6","269.2250000000349","","","","39","","","","key","16.66707894736809","600","285","true","1","180","30","0","-1","","","","","","","","","","","","","",""
"psychophysics","130","386409","0.0-12.0-0.1","60578ad3a89be782a264f66a","609a8bf73b2ac84e2732f618","609d7d716857575a1ae486d6","463.70000000001164","","","","37","","","","key","16.625999999999873","600","285","true","-1","180","30","0","-1","-1","","","","","","","","","","","","",""
"psychophysics","131","387831","0.0-12.0-0.2","60578ad3a89be782a264f66a","609a8bf73b2ac84e2732f618","609d7d716857575a1ae486d6","419.9800000000396","","","","39","","","","key","16.625999999999685","600","285","true","1","150","30","0","-1","-1","","","","","","","","","","","","",""
"psychophysics","132","389223","0.0-12.0-0.3","60578ad3a89be782a264f66a","609a8bf73b2ac84e2732f618","609d7d716857575a1ae486d6","389.61999999993714","","","","37","","","","key","16.62600000000051","600","285","true","-1","150","30","0","-1","-1","","","","","","","","","","","","",""
"psychophysics","133","390786","0.0-12.0-0.4","60578ad3a89be782a264f66a","609a8bf73b2ac84e2732f618","609d7d716857575a1ae486d6","561.5350000000326","","","","37","","","","key","16.62599999999993","600","285","true","1","129","24","1","1","-1","","","","","","","","","","","","",""
"psychophysics","134","392207","0.0-12.0-0.5","60578ad3a89be782a264f66a","609a8bf73b2ac84e2732f618","609d7d716857575a1ae486d6","418.75500000000466","","","","39","","","","key","16.625999999999685","600","285","true","1","153","24","1","-1","1","","","","","","","","","","","","",""
"psychophysics","135","393614","0.0-12.0-0.6","60578ad3a89be782a264f66a","609a8bf73b2ac84e2732f618","609d7d716857575a1ae486d6","405.9300000000512","","","","37","","","","key","16.625999999999685","600","285","true","-1","153","19.2","2","-1","-1","","","","","","","","","","","","",""
"psychophysics","136","395031","0.0-12.0-0.7","60578ad3a89be782a264f66a","609a8bf73b2ac84e2732f618","609d7d716857575a1ae486d6","414.07499999995343","","","","39","","","","key","16.636535714286204","600","285","true","1","133.8","19.2","2","-1","-1","","","","","","","","","","","","",""
"psychophysics","137","396415","0.0-12.0-0.8","60578ad3a89be782a264f66a","609a8bf73b2ac84e2732f618","609d7d716857575a1ae486d6","382.38999999995576","","","","37","","","","key","16.625999999999937","600","285","true","-1","133.8","19.2","2","-1","-1","","","","","","","","","","","","",""
"psychophysics","138","397784","0.0-12.0-0.9","60578ad3a89be782a264f66a","609a8bf73b2ac84e2732f618","609d7d716857575a1ae486d6","366.8850000000093","","","","39","","","","key","16.625999999999937","600","285","true","-1","129","15.36","3","1","-1","","","","","","","","","","","","",""
"psychophysics","139","399207","0.0-12.0-0.10","60578ad3a89be782a264f66a","609a8bf73b2ac84e2732f618","609d7d716857575a1ae486d6","421.4800000000396","","","","37","","","","key","16.626000000000378","600","285","true","-1","144.36","15.36","3","-1","1","","","","","","","","","","","","",""
"psychophysics","140","400593","0.0-12.0-0.11","60578ad3a89be782a264f66a","609a8bf73b2ac84e2732f618","609d7d716857575a1ae486d6","384.804999999993","","","","39","","","","key","16.62599999999981","600","285","true","1","144.36","12.287999999999998","4","-1","-1","","","","","","","","","","","","",""
"psychophysics","141","402033","0.0-12.0-0.12","60578ad3a89be782a264f66a","609a8bf73b2ac84e2732f618","609d7d716857575a1ae486d6","437.2849999999744","","","","39","","","","key","16.626000000000246","600","285","true","1","132.072","12.287999999999998","4","-1","-1","","","","","","","","","","","","",""
"psychophysics","142","403463","0.0-12.0-0.13","60578ad3a89be782a264f66a","609a8bf73b2ac84e2732f618","609d7d716857575a1ae486d6","428.4100000000326","","","","39","","","","key","16.626000000000246","600","285","true","1","132.072","12.287999999999998","4","-1","-1","","","","","","","","","","","","",""
"psychophysics","143","404873","0.0-12.0-0.14","60578ad3a89be782a264f66a","609a8bf73b2ac84e2732f618","609d7d716857575a1ae486d6","408.41499999997905","","","","39","","","","key","16.63659523809509","600","285","true","-1","129","9.8304","5","1","-1","","","","","","","","","","","","",""
"psychophysics","144","406335","0.0-12.0-0.15","60578ad3a89be782a264f66a","609a8bf73b2ac84e2732f618","609d7d716857575a1ae486d6","459.00499999994645","","","","39","","","","key","16.625999999999994","600","285","true","1","138.8304","9.8304","5","-1","1","","","","","","","","","","","","",""
"psychophysics","145","407785","0.0-12.0-0.16","60578ad3a89be782a264f66a","609a8bf73b2ac84e2732f618","609d7d716857575a1ae486d6","447.5350000000326","","","","39","","","","key","16.625999999999443","600","285","true","1","138.8304","7.864319999999999","6","-1","-1","","","","","","","","","","","","",""
"psychophysics","146","409240","0.0-12.0-0.17","60578ad3a89be782a264f66a","609a8bf73b2ac84e2732f618","609d7d716857575a1ae486d6","453.38999999995576","","","","37","","","","key","16.625999999999994","600","285","true","1","130.96608","6.291456","7","1","-1","","","","","","","","","","","","",""
"psychophysics","147","410631","0.0-12.0-0.18","60578ad3a89be782a264f66a","609a8bf73b2ac84e2732f618","609d7d716857575a1ae486d6","389.5199999999604","","","","39","","","","key","16.625999999999937","600","285","true","1","137.25753600000002","6.291456","7","-1","1","","","","","","","","","","","","",""
"psychophysics","148","412051","0.0-12.0-0.19","60578ad3a89be782a264f66a","609a8bf73b2ac84e2732f618","609d7d716857575a1ae486d6","418.75","","","","39","","","","key","16.626000000000246","600","285","true","1","137.25753600000002","5.033164800000001","8","-1","-1","","","","","","","","","","","","",""
"psychophysics","149","413439","0.0-12.0-0.20","60578ad3a89be782a264f66a","609a8bf73b2ac84e2732f618","609d7d716857575a1ae486d6","386.2050000000163","","","","39","","","","key","16.625999999999937","600","285","true","1","132.2243712","5.033164800000001","8","-1","-1","","","","","","","","","","","","",""
"psychophysics","150","414905","0.0-12.0-0.21","60578ad3a89be782a264f66a","609a8bf73b2ac84e2732f618","609d7d716857575a1ae486d6","464.0100000000093","","","","39","","","","key","16.636183908045954","600","285","true","1","132.2243712","5.033164800000001","8","-1","-1","","","","","","","","","","","","",""
"psychophysics","151","416247","0.0-12.0-0.22","60578ad3a89be782a264f66a","609a8bf73b2ac84e2732f618","609d7d716857575a1ae486d6","339.3650000000489","","","","37","","","","key","16.626000000000204","600","285","true","-1","129","5.033164800000001","8","-1","-1","","","","","","","","","","","","",""
"psychophysics","152","417635","0.0-12.0-0.23","60578ad3a89be782a264f66a","609a8bf73b2ac84e2732f618","609d7d716857575a1ae486d6","385.3399999999674","","","","37","","","","key","16.62600000000051","600","285","true","-1","129","5.033164800000001","8","-1","-1","","","","","","","","","","","","",""
"psychophysics","153","418975","0.0-12.0-0.24","60578ad3a89be782a264f66a","609a8bf73b2ac84e2732f618","609d7d716857575a1ae486d6","337.429999999993","","","","37","","","","key","16.625999999999603","600","285","true","1","129","4.0265318400000005","9","1","-1","","","","","","","","","","","","",""
"psychophysics","154","420395","0.0-12.0-0.25","60578ad3a89be782a264f66a","609a8bf73b2ac84e2732f618","609d7d716857575a1ae486d6","418.16499999997905","","","","37","","","","key","16.62599999999956","600","285","true","-1","133.02653184","4.0265318400000005","9","-1","1","","","","","","","","","","","","",""
"psychophysics","155","421798","0.0-12.0-0.26","60578ad3a89be782a264f66a","609a8bf73b2ac84e2732f618","609d7d716857575a1ae486d6","401.7300000000396","","","","37","","","","key","16.62600000000051","600","285","true","-1","133.02653184","3.2212254720000004","10","-1","-1","","","","","","","","","","","","",""
"psychophysics","156","423162","0.0-12.0-0.27","60578ad3a89be782a264f66a","609a8bf73b2ac84e2732f618","609d7d716857575a1ae486d6","360.5099999999511","","","","37","","","","key","16.62600000000007","600","285","true","-1","129.805306368","3.2212254720000004","10","-1","-1","","","","","","","","","","","","",""
"psychophysics","157","424543","0.0-12.0-0.28","60578ad3a89be782a264f66a","609a8bf73b2ac84e2732f618","609d7d716857575a1ae486d6","379.554999999993","","","","37","","","","key","16.636878048780336","600","285","true","-1","129.805306368","3.2212254720000004","10","-1","-1","","","","","","","","","","","","",""
"psychophysics","158","425991","0.0-12.0-0.29","60578ad3a89be782a264f66a","609a8bf73b2ac84e2732f618","609d7d716857575a1ae486d6","445.0100000000093","","","","39","","","","key","16.62600000000012","600","285","true","-1","129","2.5769803776000004","11","1","-1","","","","","","","","","","","","",""
"psychophysics","159","427363","0.0-12.0-0.30","60578ad3a89be782a264f66a","609a8bf73b2ac84e2732f618","609d7d716857575a1ae486d6","369.7700000000186","","","","39","","","","key","16.625999999999937","600","285","true","-1","131.5769803776","2.5769803776000004","11","1","1","","","","","","","","","","","","",""
"psychophysics","160","428744","0.0-12.0-0.31","60578ad3a89be782a264f66a","609a8bf73b2ac84e2732f618","609d7d716857575a1ae486d6","379.49499999993714","","","","37","","","","key","16.625999999999937","600","285","true","-1","134.1539607552","2.5769803776000004","11","-1","1","","","","","","","","","","","","",""
"psychophysics","161","430146","0.0-12.0-0.32","60578ad3a89be782a264f66a","609a8bf73b2ac84e2732f618","609d7d716857575a1ae486d6","399.7699999999604","","","","37","","","","key","16.62599999999981","600","285","true","-1","134.1539607552","2.0615843020800004","12","-1","-1","","","","","","","","","","","","",""
"psychophysics","162","431495","0.0-12.0-0.33","60578ad3a89be782a264f66a","609a8bf73b2ac84e2732f618","609d7d716857575a1ae486d6","347.679999999993","","","","37","","","","key","16.626000000000204","600","285","true","-1","132.09237645311998","2.0615843020800004","12","-1","-1","","","","","","","","","","","","",""
"psychophysics","163","432855","0.0-12.0-0.34","60578ad3a89be782a264f66a","609a8bf73b2ac84e2732f618","609d7d716857575a1ae486d6","357.5999999999767","","","","39","","","","key","16.62600000000007","600","285","true","1","132.09237645311998","2.0615843020800004","12","-1","-1","","","","","","","","","","","","",""
"psychophysics","164","434353","0.0-12.0-0.35","60578ad3a89be782a264f66a","609a8bf73b2ac84e2732f618","609d7d716857575a1ae486d6","496.4899999999907","","","","39","","","","key","16.635988764044974","600","285","true","-1","130.03079215103998","1.6492674416640005","13","1","-1","","","","","","","","","","","","",""
"psychophysics","165","435831","0.0-12.0-0.36","60578ad3a89be782a264f66a","609a8bf73b2ac84e2732f618","609d7d716857575a1ae486d6","474.39000000001397","","","","39","","","","key","16.626000000000534","600","285","true","1","131.68005959270397","1.6492674416640005","13","-1","1","","","","","","","","","","","","",""
"psychophysics","166","437313","0.0-12.0-0.37","60578ad3a89be782a264f66a","609a8bf73b2ac84e2732f618","609d7d716857575a1ae486d6","480.8750000000582","","","","39","","","","key","16.625999999999873","600","285","true","1","131.68005959270397","1.3194139533312006","14","-1","-1","","","","","","","","","","","","",""
"psychophysics","167","438737","0.0-12.0-0.38","60578ad3a89be782a264f66a","609a8bf73b2ac84e2732f618","609d7d716857575a1ae486d6","420.9750000000349","","","","39","","","","key","16.626000000000246","600","285","true","-1","130.36064563937276","1.0555311626649604","15","1","-1","","","","","","","","","","","","",""
"psychophysics","168","440280","0.0-12.0-0.39","60578ad3a89be782a264f66a","609a8bf73b2ac84e2732f618","609d7d716857575a1ae486d6","541.4200000000419","","","","37","","","","key","16.626000000000044","600","285","true","1","131.4161768020377","1.0555311626649604","15","1","1","","","","","","","","","","","","",""
"html-keyboard-response","169","451246","0.0-13.0","60578ad3a89be782a264f66a","609a8bf73b2ac84e2732f618","609d7d716857575a1ae486d6","10964.740000000049","<p>Well Done !</p><p>Prepare for a new block.</p><p>DON'T EXIT THE FULL SCREEN MODE</p><p>Press the Spacebar to start.</p>","","","32","","","","","","","","","","","","","","","true","131.59340433253985","","","","","","","","","","",""
"html-keyboard-response","170","451349","0.0-14.0","60578ad3a89be782a264f66a","609a8bf73b2ac84e2732f618","609d7d716857575a1ae486d6","null","","","","null","","","","","","","","","","","","","","","","","131.69593844763304","true","135.39187689526608","","","","","","","",""
"instructions","171","493678","0.0-15.0","60578ad3a89be782a264f66a","609a8bf73b2ac84e2732f618","609d7d716857575a1ae486d6","42328.00500000012","","","","","","","[{""page_index"":0,""viewing_time"":20508.73999999999},{""page_index"":1,""viewing_time"":8674.174999999988},{""page_index"":0,""viewing_time"":6493.6700000001},{""page_index"":1,""viewing_time"":1318.2849999999162},{""page_index"":2,""viewing_time"":5332.740000000049}]","","","","","","","","","","","","","","","","","","","","","","","",""
"psychophysics","172","496989","0.0-16.0-0.0","60578ad3a89be782a264f66a","609a8bf73b2ac84e2732f618","609d7d716857575a1ae486d6","null","","","","null","","","","key","16.637512820512384","600","285","","","","","","","","","","","","","","","","","","","",""
"psychophysics","173","497494","0.0-16.0-1.0","60578ad3a89be782a264f66a","609a8bf73b2ac84e2732f618","609d7d716857575a1ae486d6","null","","","","null","","","","key","16.625999999999326","600","285","","","","","","","","","","","","","135","-1","0","false","","","",""
"psychophysics","174","498048","0.0-16.0-2.0","60578ad3a89be782a264f66a","609a8bf73b2ac84e2732f618","609d7d716857575a1ae486d6","550.195000000007","","","","90","","","","key","16.625999999999873","600","285","","","","","","","","","","","","","","","","","","","",""
"psychophysics","175","499356","0.0-16.0-0.1","60578ad3a89be782a264f66a","609a8bf73b2ac84e2732f618","609d7d716857575a1ae486d6","null","","","","null","","","","key","16.62600000000063","600","285","","","","","","","","","","","","","","","","","","","",""
"psychophysics","176","499864","0.0-16.0-1.1","60578ad3a89be782a264f66a","609a8bf73b2ac84e2732f618","609d7d716857575a1ae486d6","null","","","","null","","","","key","16.625999999998992","600","285","","","","","","","","","","","","","135","1","3","false","","","",""
"psychophysics","177","500496","0.0-16.0-2.1","60578ad3a89be782a264f66a","609a8bf73b2ac84e2732f618","609d7d716857575a1ae486d6","629.7150000000256","","","","90","","","","key","16.626000000000303","600","285","","","","","","","","","","","","","","","","","","","",""
"psychophysics","178","501898","0.0-16.0-0.2","60578ad3a89be782a264f66a","609a8bf73b2ac84e2732f618","609d7d716857575a1ae486d6","null","","","","null","","","","key","16.62600000000051","600","285","","","","","","","","","","","","","","","","","","","",""
"psychophysics","179","502400","0.0-16.0-1.2","60578ad3a89be782a264f66a","609a8bf73b2ac84e2732f618","609d7d716857575a1ae486d6","null","","","","null","","","","key","16.625999999998992","600","285","","","","","","","","","","","","","135","-1","2","false","","","",""
"psychophysics","180","503231","0.0-16.0-2.2","60578ad3a89be782a264f66a","609a8bf73b2ac84e2732f618","609d7d716857575a1ae486d6","829.0350000000908","","","","90","","","","key","19.396999999999977","600","285","","","","","","","","","","","","","","","","","","","",""
"psychophysics","181","503747","0.0-16.0-0.3","60578ad3a89be782a264f66a","609a8bf73b2ac84e2732f618","609d7d716857575a1ae486d6","null","","","","null","","","","key","16.625999999998992","600","285","","","","","","","","","","","","","","","","","","","",""
"psychophysics","182","504248","0.0-16.0-1.3","60578ad3a89be782a264f66a","609a8bf73b2ac84e2732f618","609d7d716857575a1ae486d6","null","","","","null","","","","key","16.625999999999685","600","285","","","","","","","","","","","","","135","1","4","false","","","",""
"psychophysics","183","504886","0.0-16.0-2.3","60578ad3a89be782a264f66a","609a8bf73b2ac84e2732f618","609d7d716857575a1ae486d6","634.9699999999721","","","","77","","","","key","16.626000000000303","600","285","","","","","","","","","","","","","","","","","","","",""
"psychophysics","184","505761","0.0-16.0-0.4","60578ad3a89be782a264f66a","609a8bf73b2ac84e2732f618","609d7d716857575a1ae486d6","null","","","","null","","","","key","16.626000000000484","600","285","","","","","","","","","","","","","","","","","","","",""
"psychophysics","185","506263","0.0-16.0-1.4","60578ad3a89be782a264f66a","609a8bf73b2ac84e2732f618","609d7d716857575a1ae486d6","null","","","","null","","","","key","16.626000000001333","600","285","","","","","","","","","","","","","135","1","5","false","","","",""
"psychophysics","186","506689","0.0-16.0-2.4","60578ad3a89be782a264f66a","609a8bf73b2ac84e2732f618","609d7d716857575a1ae486d6","423.9800000000396","","","","77","","","","key","16.625999999998992","600","285","","","","","","","","","","","","","","","","","","","",""
"psychophysics","187","507796","0.0-16.0-0.5","60578ad3a89be782a264f66a","609a8bf73b2ac84e2732f618","609d7d716857575a1ae486d6","null","","","","null","","","","key","16.626000000000754","600","285","","","","","","","","","","","","","","","","","","","",""
"psychophysics","188","508300","0.0-16.0-1.5","60578ad3a89be782a264f66a","609a8bf73b2ac84e2732f618","609d7d716857575a1ae486d6","null","","","","null","","","","key","16.625999999999326","600","285","","","","","","","","","","","","","135","-1","4","false","","","",""
"psychophysics","189","508985","0.0-16.0-2.5","60578ad3a89be782a264f66a","609a8bf73b2ac84e2732f618","609d7d716857575a1ae486d6","683.0249999999069","","","","90","","","","key","16.626000000000648","600","285","","","","","","","","","","","","","","","","","","","",""
"psychophysics","190","510163","0.0-16.0-0.6","60578ad3a89be782a264f66a","609a8bf73b2ac84e2732f618","609d7d716857575a1ae486d6","null","","","","null","","","","key","16.626000000000257","600","285","","","","","","","","","","","","","","","","","","","",""
"psychophysics","191","510666","0.0-16.0-1.6","60578ad3a89be782a264f66a","609a8bf73b2ac84e2732f618","609d7d716857575a1ae486d6","null","","","","null","","","","key","16.625999999998992","600","285","","","","","","","","","","","","","135","-1","6","false","","","",""
"psychophysics","192","511054","0.0-16.0-2.6","60578ad3a89be782a264f66a","609a8bf73b2ac84e2732f618","609d7d716857575a1ae486d6","385.74500000005355","","","","77","","","","key","16.625999999999873","600","285","","","","","","","","","","","","","","","","","","","",""
"psychophysics","193","511700","0.0-16.0-0.7","60578ad3a89be782a264f66a","609a8bf73b2ac84e2732f618","609d7d716857575a1ae486d6","null","","","","null","","","","key","16.626000000000012","600","285","","","","","","","","","","","","","","","","","","","",""
"psychophysics","194","512203","0.0-16.0-1.7","60578ad3a89be782a264f66a","609a8bf73b2ac84e2732f618","609d7d716857575a1ae486d6","null","","","","null","","","","key","16.625999999999326","600","285","","","","","","","","","","","","","135","-1","3","false","","","",""
"psychophysics","195","512830","0.0-16.0-2.7","60578ad3a89be782a264f66a","609a8bf73b2ac84e2732f618","609d7d716857575a1ae486d6","625.1650000000373","","","","90","","","","key","16.626000000000303","600","285","","","","","","","","","","","","","","","","","","","",""
"psychophysics","196","513759","0.0-16.0-0.8","60578ad3a89be782a264f66a","609a8bf73b2ac84e2732f618","609d7d716857575a1ae486d6","null","","","","null","","","","key","16.626000000000932","600","285","","","","","","","","","","","","","","","","","","","",""
"psychophysics","197","514260","0.0-16.0-1.8","60578ad3a89be782a264f66a","609a8bf73b2ac84e2732f618","609d7d716857575a1ae486d6","null","","","","null","","","","key","16.653172413792444","600","285","","","","","","","","","","","","","135","-1","5","false","","","",""
"psychophysics","198","514846","0.0-16.0-2.8","60578ad3a89be782a264f66a","609a8bf73b2ac84e2732f618","609d7d716857575a1ae486d6","583.9749999999767","","","","77","","","","key","16.626000000001273","600","285","","","","","","","","","","","","","","","","","","","",""
"psychophysics","199","515886","0.0-16.0-0.9","60578ad3a89be782a264f66a","609a8bf73b2ac84e2732f618","609d7d716857575a1ae486d6","null","","","","null","","","","key","16.625999999999618","600","285","","","","","","","","","","","","","","","","","","","",""
"psychophysics","200","516388","0.0-16.0-1.9","60578ad3a89be782a264f66a","609a8bf73b2ac84e2732f618","609d7d716857575a1ae486d6","null","","","","null","","","","key","16.626000000001333","600","285","","","","","","","","","","","","","135","1","2","false","","","",""
"psychophysics","201","516912","0.0-16.0-2.9","60578ad3a89be782a264f66a","609a8bf73b2ac84e2732f618","609d7d716857575a1ae486d6","521.8250000000116","","","","77","","","","key","16.625999999998992","600","285","","","","","","","","","","","","","","","","","","","",""
"psychophysics","202","517917","0.0-16.0-0.10","60578ad3a89be782a264f66a","609a8bf73b2ac84e2732f618","609d7d716857575a1ae486d6","null","","","","null","","","","key","16.625999999999962","600","285","","","","","","","","","","","","","","","","","","","",""
"psychophysics","203","518419","0.0-16.0-1.10","60578ad3a89be782a264f66a","609a8bf73b2ac84e2732f618","609d7d716857575a1ae486d6","null","","","","null","","","","key","16.625999999999326","600","285","","","","","","","","","","","","","135","1","0","false","","","",""
"psychophysics","204","519006","0.0-16.0-2.10","60578ad3a89be782a264f66a","609a8bf73b2ac84e2732f618","609d7d716857575a1ae486d6","584.7750000000233","","","","77","","","","key","16.626000000001273","600","285","","","","","","","","","","","","","","","","","","","",""
"psychophysics","205","520075","0.0-16.0-0.11","60578ad3a89be782a264f66a","609a8bf73b2ac84e2732f618","609d7d716857575a1ae486d6","null","","","","null","","","","key","16.625999999999294","600","285","","","","","","","","","","","","","","","","","","","",""
"psychophysics","206","520577","0.0-16.0-1.11","60578ad3a89be782a264f66a","609a8bf73b2ac84e2732f618","609d7d716857575a1ae486d6","null","","","","null","","","","key","16.625999999999326","600","285","","","","","","","","","","","","","135","1","6","false","","","",""
"psychophysics","207","521201","0.0-16.0-2.11","60578ad3a89be782a264f66a","609a8bf73b2ac84e2732f618","609d7d716857575a1ae486d6","621.4500000000698","","","","77","","","","key","16.62600000000061","600","285","","","","","","","","","","","","","","","","","","","",""
"psychophysics","208","522536","0.0-16.0-0.12","60578ad3a89be782a264f66a","609a8bf73b2ac84e2732f618","609d7d716857575a1ae486d6","null","","","","null","","","","key","16.625999999999475","600","285","","","","","","","","","","","","","","","","","","","",""
"psychophysics","209","523038","0.0-16.0-1.12","60578ad3a89be782a264f66a","609a8bf73b2ac84e2732f618","609d7d716857575a1ae486d6","null","","","","null","","","","key","16.625999999999326","600","285","","","","","","","","","","","","","135","1","6","false","","","",""
"psychophysics","210","523583","0.0-16.0-2.12","60578ad3a89be782a264f66a","609a8bf73b2ac84e2732f618","609d7d716857575a1ae486d6","541.984999999986","","","","77","","","","key","16.62599999999868","600","285","","","","","","","","","","","","","","","","","","","",""
"psychophysics","211","524702","0.0-16.0-0.13","60578ad3a89be782a264f66a","609a8bf73b2ac84e2732f618","609d7d716857575a1ae486d6","null","","","","null","","","","key","16.640716417909793","600","285","","","","","","","","","","","","","","","","","","","",""
"psychophysics","212","525204","0.0-16.0-1.13","60578ad3a89be782a264f66a","609a8bf73b2ac84e2732f618","609d7d716857575a1ae486d6","null","","","","null","","","","key","16.625999999999326","600","285","","","","","","","","","","","","","135","1","5","false","","","",""
"psychophysics","213","525704","0.0-16.0-2.13","60578ad3a89be782a264f66a","609a8bf73b2ac84e2732f618","609d7d716857575a1ae486d6","497.75","","","","77","","","","key","16.62600000000334","600","285","","","","","","","","","","","","","","","","","","","",""
"psychophysics","214","526700","0.0-16.0-0.14","60578ad3a89be782a264f66a","609a8bf73b2ac84e2732f618","609d7d716857575a1ae486d6","null","","","","null","","","","key","16.626000000000143","600","285","","","","","","","","","","","","","","","","","","","",""
"psychophysics","215","527204","0.0-16.0-1.14","60578ad3a89be782a264f66a","609a8bf73b2ac84e2732f618","609d7d716857575a1ae486d6","null","","","","null","","","","key","16.625999999999326","600","285","","","","","","","","","","","","","135","-1","3","false","","","",""
"psychophysics","216","527870","0.0-16.0-2.14","60578ad3a89be782a264f66a","609a8bf73b2ac84e2732f618","609d7d716857575a1ae486d6","664.2999999999302","","","","90","","","","key","16.626000000002723","600","285","","","","","","","","","","","","","","","","","","","",""
"psychophysics","217","528521","0.0-16.0-0.15","60578ad3a89be782a264f66a","609a8bf73b2ac84e2732f618","609d7d716857575a1ae486d6","null","","","","null","","","","key","16.626000000001543","600","285","","","","","","","","","","","","","","","","","","","",""
"psychophysics","218","529023","0.0-16.0-1.15","60578ad3a89be782a264f66a","609a8bf73b2ac84e2732f618","609d7d716857575a1ae486d6","null","","","","null","","","","key","16.626000000000932","600","285","","","","","","","","","","","","","135","-1","2","false","","","",""
"psychophysics","219","529591","0.0-16.0-2.15","60578ad3a89be782a264f66a","609a8bf73b2ac84e2732f618","609d7d716857575a1ae486d6","566.6449999999022","","","","77","","","","key","16.625999999998108","600","285","","","","","","","","","","","","","","","","","","","",""
"psychophysics","220","530549","0.0-16.0-0.16","60578ad3a89be782a264f66a","609a8bf73b2ac84e2732f618","609d7d716857575a1ae486d6","null","","","","null","","","","key","16.625999999999685","600","285","","","","","","","","","","","","","","","","","","","",""
"psychophysics","221","531050","0.0-16.0-1.16","60578ad3a89be782a264f66a","609a8bf73b2ac84e2732f618","609d7d716857575a1ae486d6","null","","","","null","","","","key","16.626000000000932","600","285","","","","","","","","","","","","","135","-1","0","false","","","",""
"psychophysics","222","531560","0.0-16.0-2.16","60578ad3a89be782a264f66a","609a8bf73b2ac84e2732f618","609d7d716857575a1ae486d6","507.60999999998603","","","","77","","","","key","16.625999999999326","600","285","","","","","","","","","","","","","","","","","","","",""
"psychophysics","223","533043","0.0-16.0-0.17","60578ad3a89be782a264f66a","609a8bf73b2ac84e2732f618","609d7d716857575a1ae486d6","null","","","","null","","","","key","16.625999999999873","600","285","","","","","","","","","","","","","","","","","","","",""
"psychophysics","224","533545","0.0-16.0-1.17","60578ad3a89be782a264f66a","609a8bf73b2ac84e2732f618","609d7d716857575a1ae486d6","null","","","","null","","","","key","16.626000000000932","600","285","","","","","","","","","","","","","135","-1","4","false","","","",""
"psychophysics","225","533960","0.0-16.0-2.17","60578ad3a89be782a264f66a","609a8bf73b2ac84e2732f618","609d7d716857575a1ae486d6","413.05000000004657","","","","77","","","","key","16.662249999998796","600","285","","","","","","","","","","","","","","","","","","","",""
"psychophysics","226","535138","0.0-16.0-0.18","60578ad3a89be782a264f66a","609a8bf73b2ac84e2732f618","609d7d716857575a1ae486d6","null","","","","null","","","","key","16.626000000000257","600","285","","","","","","","","","","","","","","","","","","","",""
"psychophysics","227","535640","0.0-16.0-1.18","60578ad3a89be782a264f66a","609a8bf73b2ac84e2732f618","609d7d716857575a1ae486d6","null","","","","null","","","","key","16.626000000000932","600","285","","","","","","","","","","","","","135","1","0","false","","","",""
"psychophysics","228","536242","0.0-16.0-2.18","60578ad3a89be782a264f66a","609a8bf73b2ac84e2732f618","609d7d716857575a1ae486d6","600.5400000000373","","","","77","","","","key","16.626000000000932","600","285","","","","","","","","","","","","","","","","","","","",""
"psychophysics","229","536991","0.0-16.0-0.19","60578ad3a89be782a264f66a","609a8bf73b2ac84e2732f618","609d7d716857575a1ae486d6","null","","","","null","","","","key","16.625999999999873","600","285","","","","","","","","","","","","","","","","","","","",""
"psychophysics","230","537495","0.0-16.0-1.19","60578ad3a89be782a264f66a","609a8bf73b2ac84e2732f618","609d7d716857575a1ae486d6","null","","","","null","","","","key","16.625999999999326","600","285","","","","","","","","","","","","","135","1","2","false","","","",""
"psychophysics","231","538158","0.0-16.0-2.19","60578ad3a89be782a264f66a","609a8bf73b2ac84e2732f618","609d7d716857575a1ae486d6","661.0350000000326","","","","77","","","","key","16.62599999999974","600","285","","","","","","","","","","","","","","","","","","","",""
"psychophysics","232","538680","0.0-16.0-0.20","60578ad3a89be782a264f66a","609a8bf73b2ac84e2732f618","609d7d716857575a1ae486d6","null","","","","null","","","","key","16.625999999997052","600","285","","","","","","","","","","","","","","","","","","","",""
"psychophysics","233","539181","0.0-16.0-1.20","60578ad3a89be782a264f66a","609a8bf73b2ac84e2732f618","609d7d716857575a1ae486d6","null","","","","null","","","","key","16.626000000000932","600","285","","","","","","","","","","","","","135","-1","6","false","","","",""
"psychophysics","234","539790","0.0-16.0-2.20","60578ad3a89be782a264f66a","609a8bf73b2ac84e2732f618","609d7d716857575a1ae486d6","606.8549999999814","","","","90","","","","key","16.626000000000932","600","285","","","","","","","","","","","","","","","","","","","",""
"psychophysics","235","540793","0.0-16.0-0.21","60578ad3a89be782a264f66a","609a8bf73b2ac84e2732f618","609d7d716857575a1ae486d6","null","","","","null","","","","key","16.625999999998992","600","285","","","","","","","","","","","","","","","","","","","",""
"psychophysics","236","541296","0.0-16.0-1.21","60578ad3a89be782a264f66a","609a8bf73b2ac84e2732f618","609d7d716857575a1ae486d6","null","","","","null","","","","key","16.625999999999326","600","285","","","","","","","","","","","","","135","-1","5","false","","","",""
"psychophysics","237","541944","0.0-16.0-2.21","60578ad3a89be782a264f66a","609a8bf73b2ac84e2732f618","609d7d716857575a1ae486d6","645.4799999999814","","","","77","","","","key","16.626000000001543","600","285","","","","","","","","","","","","","","","","","","","",""
"psychophysics","238","542852","0.0-16.0-0.22","60578ad3a89be782a264f66a","609a8bf73b2ac84e2732f618","609d7d716857575a1ae486d6","null","","","","null","","","","key","16.625999999999173","600","285","","","","","","","","","","","","","","","","","","","",""
"psychophysics","239","543354","0.0-16.0-1.22","60578ad3a89be782a264f66a","609a8bf73b2ac84e2732f618","609d7d716857575a1ae486d6","null","","","","null","","","","key","16.625999999997052","600","285","","","","","","","","","","","","","135","1","3","false","","","",""
"psychophysics","240","543960","0.0-16.0-2.22","60578ad3a89be782a264f66a","609a8bf73b2ac84e2732f618","609d7d716857575a1ae486d6","603.8249999999534","","","","77","","","","key","16.651857142855548","600","285","","","","","","","","","","","","","","","","","","","",""
"psychophysics","241","545192","0.0-16.0-0.23","60578ad3a89be782a264f66a","609a8bf73b2ac84e2732f618","609d7d716857575a1ae486d6","null","","","","null","","","","key","16.625999999999657","600","285","","","","","","","","","","","","","","","","","","","",""
"psychophysics","242","545696","0.0-16.0-1.23","60578ad3a89be782a264f66a","609a8bf73b2ac84e2732f618","609d7d716857575a1ae486d6","null","","","","null","","","","key","16.625999999999326","600","285","","","","","","","","","","","","","135","1","4","false","","","",""
"psychophysics","243","546142","0.0-16.0-2.23","60578ad3a89be782a264f66a","609a8bf73b2ac84e2732f618","609d7d716857575a1ae486d6","442.2249999999767","","","","77","","","","key","16.625999999998246","600","285","","","","","","","","","","","","","","","","","","","",""
"html-keyboard-response","244","548111","0.0-17.0","60578ad3a89be782a264f66a","609a8bf73b2ac84e2732f618","609d7d716857575a1ae486d6","1967.545000000042","<p>Well Done !</p><p>Training Complete. Press the spacebar to start.</p><p>DON'T EXIT THE FULL SCREEN MODE</p>","","","32","","","","","","","","","","","","","","","","","","","","","","","","","","",""
"psychophysics","245","551211","0.0-18.0-0.0","60578ad3a89be782a264f66a","609a8bf73b2ac84e2732f618","609d7d716857575a1ae486d6","null","","","","null","","","","key","16.625999999999873","600","285","","","","","","","","","","","","","","","","","","","",""
"psychophysics","246","551716","0.0-18.0-1.0","60578ad3a89be782a264f66a","609a8bf73b2ac84e2732f618","609d7d716857575a1ae486d6","null","","","","null","","","","key","16.625999999999326","600","285","","","","","","","","","","","","","135","-1","5","true","","","",""
"psychophysics","247","552239","0.0-18.0-2.0","60578ad3a89be782a264f66a","609a8bf73b2ac84e2732f618","609d7d716857575a1ae486d6","519.839999999851","","","","77","","","","key","16.62599999999868","600","285","","","","","","","","","","","","","","","","","","","",""
"psychophysics","248","552865","0.0-18.0-0.1","60578ad3a89be782a264f66a","609a8bf73b2ac84e2732f618","609d7d716857575a1ae486d6","null","","","","null","","","","key","16.626000000000303","600","285","","","","","","","","","","","","","","","","","","","",""
"psychophysics","249","553367","0.0-18.0-1.1","60578ad3a89be782a264f66a","609a8bf73b2ac84e2732f618","609d7d716857575a1ae486d6","null","","","","null","","","","key","16.625999999999326","600","285","","","","","","","","","","","","","135","1","3","true","","","",""
"psychophysics","250","553785","0.0-18.0-2.1","60578ad3a89be782a264f66a","609a8bf73b2ac84e2732f618","609d7d716857575a1ae486d6","416.80999999993946","","","","77","","","","key","16.625999999998992","600","285","","","","","","","","","","","","","","","","","","","",""
"psychophysics","251","554409","0.0-18.0-0.2","60578ad3a89be782a264f66a","609a8bf73b2ac84e2732f618","609d7d716857575a1ae486d6","null","","","","null","","","","key","16.65066666666664","600","285","","","","","","","","","","","","","","","","","","","",""
"psychophysics","252","554918","0.0-18.0-1.2","60578ad3a89be782a264f66a","609a8bf73b2ac84e2732f618","609d7d716857575a1ae486d6","null","","","","null","","","","key","16.626000000000932","600","285","","","","","","","","","","","","","135","-1","2","true","","","",""
"psychophysics","253","555302","0.0-18.0-2.2","60578ad3a89be782a264f66a","609a8bf73b2ac84e2732f618","609d7d716857575a1ae486d6","382.4749999999767","","","","90","","","","key","16.625999999999873","600","285","","","","","","","","","","","","","","","","","","","",""
"psychophysics","254","555898","0.0-18.0-0.3","60578ad3a89be782a264f66a","609a8bf73b2ac84e2732f618","609d7d716857575a1ae486d6","null","","","","null","","","","key","16.626000000000932","600","285","","","","","","","","","","","","","","","","","","","",""
"psychophysics","255","556401","0.0-18.0-1.3","60578ad3a89be782a264f66a","609a8bf73b2ac84e2732f618","609d7d716857575a1ae486d6","null","","","","null","","","","key","16.625999999999326","600","285","","","","","","","","","","","","","135","1","2","true","","","",""
"psychophysics","256","556729","0.0-18.0-2.3","60578ad3a89be782a264f66a","609a8bf73b2ac84e2732f618","609d7d716857575a1ae486d6","326.1450000000186","","","","90","","","","key","16.62600000000461","600","285","","","","","","","","","","","","","","","","","","","",""
"psychophysics","257","557934","0.0-18.0-0.4","60578ad3a89be782a264f66a","609a8bf73b2ac84e2732f618","609d7d716857575a1ae486d6","null","","","","null","","","","key","16.625999999999948","600","285","","","","","","","","","","","","","","","","","","","",""
"psychophysics","258","558436","0.0-18.0-1.4","60578ad3a89be782a264f66a","609a8bf73b2ac84e2732f618","609d7d716857575a1ae486d6","null","","","","null","","","","key","16.626000000000932","600","285","","","","","","","","","","","","","135","1","4","true","","","",""
"psychophysics","259","558663","0.0-18.0-2.4","60578ad3a89be782a264f66a","609a8bf73b2ac84e2732f618","609d7d716857575a1ae486d6","224.44999999995343","","","","77","","","","key","16.625999999998992","600","285","","","","","","","","","","","","","","","","","","","",""
"psychophysics","260","559823","0.0-18.0-0.5","60578ad3a89be782a264f66a","609a8bf73b2ac84e2732f618","609d7d716857575a1ae486d6","null","","","","null","","","","key","16.626000000000257","600","285","","","","","","","","","","","","","","","","","","","",""
"psychophysics","261","560327","0.0-18.0-1.5","60578ad3a89be782a264f66a","609a8bf73b2ac84e2732f618","609d7d716857575a1ae486d6","null","","","","null","","","","key","16.62600000000334","600","285","","","","","","","","","","","","","135","1","5","true","","","",""
"psychophysics","262","560715","0.0-18.0-2.5","60578ad3a89be782a264f66a","609a8bf73b2ac84e2732f618","609d7d716857575a1ae486d6","384.4099999999162","","","","77","","","","key","16.626000000001945","600","285","","","","","","","","","","","","","","","","","","","",""
"psychophysics","263","561381","0.0-18.0-0.6","60578ad3a89be782a264f66a","609a8bf73b2ac84e2732f618","609d7d716857575a1ae486d6","null","","","","null","","","","key","16.62599999999974","600","285","","","","","","","","","","","","","","","","","","","",""
"psychophysics","264","561883","0.0-18.0-1.6","60578ad3a89be782a264f66a","609a8bf73b2ac84e2732f618","609d7d716857575a1ae486d6","null","","","","null","","","","key","16.625999999999326","600","285","","","","","","","","","","","","","135","-1","0","true","","","",""
"psychophysics","265","562329","0.0-18.0-2.6","60578ad3a89be782a264f66a","609a8bf73b2ac84e2732f618","609d7d716857575a1ae486d6","443.3950000000186","","","","90","","","","key","16.625999999998246","600","285","","","","","","","","","","","","","","","","","","","",""
"psychophysics","266","563597","0.0-18.0-0.7","60578ad3a89be782a264f66a","609a8bf73b2ac84e2732f618","609d7d716857575a1ae486d6","null","","","","null","","","","key","16.62599999999938","600","285","","","","","","","","","","","","","","","","","","","",""
"psychophysics","267","564101","0.0-18.0-1.7","60578ad3a89be782a264f66a","609a8bf73b2ac84e2732f618","609d7d716857575a1ae486d6","null","","","","null","","","","key","16.656724137928464","600","285","","","","","","","","","","","","","135","-1","3","true","","","",""
"psychophysics","268","564543","0.0-18.0-2.7","60578ad3a89be782a264f66a","609a8bf73b2ac84e2732f618","609d7d716857575a1ae486d6","432.6700000000419","","","","77","","","","key","16.625999999998246","600","285","","","","","","","","","","","","","","","","","","","",""
"psychophysics","269","565743","0.0-18.0-0.8","60578ad3a89be782a264f66a","609a8bf73b2ac84e2732f618","609d7d716857575a1ae486d6","null","","","","null","","","","key","16.625999999999948","600","285","","","","","","","","","","","","","","","","","","","",""
"psychophysics","270","566248","0.0-18.0-1.8","60578ad3a89be782a264f66a","609a8bf73b2ac84e2732f618","609d7d716857575a1ae486d6","null","","","","null","","","","key","16.625999999999326","600","285","","","","","","","","","","","","","135","1","0","true","","","",""
"psychophysics","271","566771","0.0-18.0-2.8","60578ad3a89be782a264f66a","609a8bf73b2ac84e2732f618","609d7d716857575a1ae486d6","519.2750000000233","","","","77","","","","key","16.626000000002435","600","285","","","","","","","","","","","","","","","","","","","",""
"psychophysics","272","567979","0.0-18.0-0.9","60578ad3a89be782a264f66a","609a8bf73b2ac84e2732f618","609d7d716857575a1ae486d6","null","","","","null","","","","key","16.62600000000061","600","285","","","","","","","","","","","","","","","","","","","",""
"psychophysics","273","568481","0.0-18.0-1.9","60578ad3a89be782a264f66a","609a8bf73b2ac84e2732f618","609d7d716857575a1ae486d6","null","","","","null","","","","key","16.625999999999326","600","285","","","","","","","","","","","","","135","-1","6","true","","","",""
"psychophysics","274","568929","0.0-18.0-2.9","60578ad3a89be782a264f66a","609a8bf73b2ac84e2732f618","609d7d716857575a1ae486d6","446.24499999999534","","","","77","","","","key","16.626000000002723","600","285","","","","","","","","","","","","","","","","","","","",""
"psychophysics","275","570017","0.0-18.0-0.10","60578ad3a89be782a264f66a","609a8bf73b2ac84e2732f618","609d7d716857575a1ae486d6","null","","","","null","","","","key","16.626000000000204","600","285","","","","","","","","","","","","","","","","","","","",""
"psychophysics","276","570522","0.0-18.0-1.10","60578ad3a89be782a264f66a","609a8bf73b2ac84e2732f618","609d7d716857575a1ae486d6","null","","","","null","","","","key","16.625999999999326","600","285","","","","","","","","","","","","","135","-1","4","true","","","",""
"psychophysics","277","571001","0.0-18.0-2.10","60578ad3a89be782a264f66a","609a8bf73b2ac84e2732f618","609d7d716857575a1ae486d6","473.82500000006985","","","","77","","","","key","16.625999999997607","600","285","","","","","","","","","","","","","","","","","","","",""
"psychophysics","278","571951","0.0-18.0-0.11","60578ad3a89be782a264f66a","609a8bf73b2ac84e2732f618","609d7d716857575a1ae486d6","null","","","","null","","","","key","16.625999999999685","600","285","","","","","","","","","","","","","","","","","","","",""
"psychophysics","279","572453","0.0-18.0-1.11","60578ad3a89be782a264f66a","609a8bf73b2ac84e2732f618","609d7d716857575a1ae486d6","null","","","","null","","","","key","16.626000000000932","600","285","","","","","","","","","","","","","135","1","6","true","","","",""
"psychophysics","280","572943","0.0-18.0-2.11","60578ad3a89be782a264f66a","609a8bf73b2ac84e2732f618","609d7d716857575a1ae486d6","487.4300000000512","","","","77","","","","key","16.625999999997607","600","285","","","","","","","","","","","","","","","","","","","",""
"psychophysics","281","574036","0.0-18.0-0.12","60578ad3a89be782a264f66a","609a8bf73b2ac84e2732f618","609d7d716857575a1ae486d6","null","","","","null","","","","key","16.639630769230784","600","285","","","","","","","","","","","","","","","","","","","",""
"psychophysics","282","574539","0.0-18.0-1.12","60578ad3a89be782a264f66a","609a8bf73b2ac84e2732f618","609d7d716857575a1ae486d6","null","","","","null","","","","key","16.625999999999326","600","285","","","","","","","","","","","","","135","1","6","true","","","",""
"psychophysics","283","574931","0.0-18.0-2.12","60578ad3a89be782a264f66a","609a8bf73b2ac84e2732f618","609d7d716857575a1ae486d6","389.8450000000885","","","","77","","","","key","16.626000000001945","600","285","","","","","","","","","","","","","","","","","","","",""
"psychophysics","284","576020","0.0-18.0-0.13","60578ad3a89be782a264f66a","609a8bf73b2ac84e2732f618","609d7d716857575a1ae486d6","null","","","","null","","","","key","16.625999999998385","600","285","","","","","","","","","","","","","","","","","","","",""
"psychophysics","285","576524","0.0-18.0-1.13","60578ad3a89be782a264f66a","609a8bf73b2ac84e2732f618","609d7d716857575a1ae486d6","null","","","","null","","","","key","16.625999999999326","600","285","","","","","","","","","","","","","135","1","5","true","","","",""
"psychophysics","286","576928","0.0-18.0-2.13","60578ad3a89be782a264f66a","609a8bf73b2ac84e2732f618","609d7d716857575a1ae486d6","400.2950000000419","","","","77","","","","key","16.625999999998992","600","285","","","","","","","","","","","","","","","","","","","",""
"psychophysics","287","577579","0.0-18.0-0.14","60578ad3a89be782a264f66a","609a8bf73b2ac84e2732f618","609d7d716857575a1ae486d6","null","","","","null","","","","key","16.62599999999848","600","285","","","","","","","","","","","","","","","","","","","",""
"psychophysics","288","578080","0.0-18.0-1.14","60578ad3a89be782a264f66a","609a8bf73b2ac84e2732f618","609d7d716857575a1ae486d6","null","","","","null","","","","key","16.625999999999326","600","285","","","","","","","","","","","","","135","-1","3","true","","","",""
"psychophysics","289","578697","0.0-18.0-2.14","60578ad3a89be782a264f66a","609a8bf73b2ac84e2732f618","609d7d716857575a1ae486d6","613.5650000000605","","","","77","","","","key","16.626000000002225","600","285","","","","","","","","","","","","","","","","","","","",""
"psychophysics","290","579313","0.0-18.0-0.15","60578ad3a89be782a264f66a","609a8bf73b2ac84e2732f618","609d7d716857575a1ae486d6","null","","","","null","","","","key","16.626000000002225","600","285","","","","","","","","","","","","","","","","","","","",""
"psychophysics","291","579816","0.0-18.0-1.15","60578ad3a89be782a264f66a","609a8bf73b2ac84e2732f618","609d7d716857575a1ae486d6","null","","","","null","","","","key","16.625999999999326","600","285","","","","","","","","","","","","","135","-1","5","true","","","",""
"psychophysics","292","580239","0.0-18.0-2.15","60578ad3a89be782a264f66a","609a8bf73b2ac84e2732f618","609d7d716857575a1ae486d6","419.6799999999348","","","","77","","","","key","16.626000000000932","600","285","","","","","","","","","","","","","","","","","","","",""
"psychophysics","293","581023","0.0-18.0-0.16","60578ad3a89be782a264f66a","609a8bf73b2ac84e2732f618","609d7d716857575a1ae486d6","null","","","","null","","","","key","16.626000000001945","600","285","","","","","","","","","","","","","","","","","","","",""
"psychophysics","294","581524","0.0-18.0-1.16","60578ad3a89be782a264f66a","609a8bf73b2ac84e2732f618","609d7d716857575a1ae486d6","null","","","","null","","","","key","16.625999999999326","600","285","","","","","","","","","","","","","135","-1","2","true","","","",""
"psychophysics","295","581903","0.0-18.0-2.16","60578ad3a89be782a264f66a","609a8bf73b2ac84e2732f618","609d7d716857575a1ae486d6","376.66500000003725","","","","90","","","","key","16.625999999999873","600","285","","","","","","","","","","","","","","","","","","","",""
"psychophysics","296","582477","0.0-18.0-0.17","60578ad3a89be782a264f66a","609a8bf73b2ac84e2732f618","609d7d716857575a1ae486d6","null","","","","null","","","","key","16.625999999998108","600","285","","","","","","","","","","","","","","","","","","","",""
"psychophysics","297","582978","0.0-18.0-1.17","60578ad3a89be782a264f66a","609a8bf73b2ac84e2732f618","609d7d716857575a1ae486d6","null","","","","null","","","","key","16.625999999997052","600","285","","","","","","","","","","","","","135","-1","6","true","","","",""
"psychophysics","298","583535","0.0-18.0-2.17","60578ad3a89be782a264f66a","609a8bf73b2ac84e2732f618","609d7d716857575a1ae486d6","554.4499999999534","","","","77","","","","key","16.626000000000204","600","285","","","","","","","","","","","","","","","","","","","",""
"psychophysics","299","584491","0.0-18.0-0.18","60578ad3a89be782a264f66a","609a8bf73b2ac84e2732f618","609d7d716857575a1ae486d6","null","","","","null","","","","key","16.641596491228004","600","285","","","","","","","","","","","","","","","","","","","",""
"psychophysics","300","584994","0.0-18.0-1.18","60578ad3a89be782a264f66a","609a8bf73b2ac84e2732f618","609d7d716857575a1ae486d6","null","","","","null","","","","key","16.625999999999326","600","285","","","","","","","","","","","","","135","1","4","true","","","",""
"psychophysics","301","585459","0.0-18.0-2.18","60578ad3a89be782a264f66a","609a8bf73b2ac84e2732f618","609d7d716857575a1ae486d6","463.7249999998603","","","","77","","","","key","16.62600000000007","600","285","","","","","","","","","","","","","","","","","","","",""
"psychophysics","302","586604","0.0-18.0-0.19","60578ad3a89be782a264f66a","609a8bf73b2ac84e2732f618","609d7d716857575a1ae486d6","null","","","","null","","","","key","16.62599999999956","600","285","","","","","","","","","","","","","","","","","","","",""
"psychophysics","303","587105","0.0-18.0-1.19","60578ad3a89be782a264f66a","609a8bf73b2ac84e2732f618","609d7d716857575a1ae486d6","null","","","","null","","","","key","16.62600000000334","600","285","","","","","","","","","","","","","135","1","2","true","","","",""
"psychophysics","304","587543","0.0-18.0-2.19","60578ad3a89be782a264f66a","609a8bf73b2ac84e2732f618","609d7d716857575a1ae486d6","435.69999999995343","","","","90","","","","key","16.626000000000932","600","285","","","","","","","","","","","","","","","","","","","",""
"psychophysics","305","588609","0.0-18.0-0.20","60578ad3a89be782a264f66a","609a8bf73b2ac84e2732f618","609d7d716857575a1ae486d6","null","","","","null","","","","key","16.625999999999454","600","285","","","","","","","","","","","","","","","","","","","",""
"psychophysics","306","589111","0.0-18.0-1.20","60578ad3a89be782a264f66a","609a8bf73b2ac84e2732f618","609d7d716857575a1ae486d6","null","","","","null","","","","key","16.62600000000334","600","285","","","","","","","","","","","","","135","1","3","true","","","",""
"psychophysics","307","589450","0.0-18.0-2.20","60578ad3a89be782a264f66a","609a8bf73b2ac84e2732f618","609d7d716857575a1ae486d6","335.19000000006054","","","","77","","","","key","16.626000000000932","600","285","","","","","","","","","","","","","","","","","","","",""
"psychophysics","308","590920","0.0-18.0-0.21","60578ad3a89be782a264f66a","609a8bf73b2ac84e2732f618","609d7d716857575a1ae486d6","null","","","","null","","","","key","16.625999999999326","600","285","","","","","","","","","","","","","","","","","","","",""
"psychophysics","309","591422","0.0-18.0-1.21","60578ad3a89be782a264f66a","609a8bf73b2ac84e2732f618","609d7d716857575a1ae486d6","null","","","","null","","","","key","16.625999999999326","600","285","","","","","","","","","","","","","135","-1","4","true","","","",""
"psychophysics","310","593249","0.0-18.0-2.21","60578ad3a89be782a264f66a","609a8bf73b2ac84e2732f618","609d7d716857575a1ae486d6","1823.6449999999022","","","","90","","","","key","16.626000000000506","600","285","","","","","","","","","","","","","","","","","","","",""
"psychophysics","311","594727","0.0-18.0-0.22","60578ad3a89be782a264f66a","609a8bf73b2ac84e2732f618","609d7d716857575a1ae486d6","null","","","","null","","","","key","16.635034090908118","600","285","","","","","","","","","","","","","","","","","","","",""
"psychophysics","312","595230","0.0-18.0-1.22","60578ad3a89be782a264f66a","609a8bf73b2ac84e2732f618","609d7d716857575a1ae486d6","null","","","","null","","","","key","16.625999999999326","600","285","","","","","","","","","","","","","135","-1","0","true","","","",""
"psychophysics","313","595959","0.0-18.0-2.22","60578ad3a89be782a264f66a","609a8bf73b2ac84e2732f618","609d7d716857575a1ae486d6","725.1800000000512","","","","90","","","","key","16.625999999998765","600","285","","","","","","","","","","","","","","","","","","","",""
"psychophysics","314","596950","0.0-18.0-0.23","60578ad3a89be782a264f66a","609a8bf73b2ac84e2732f618","609d7d716857575a1ae486d6","null","","","","null","","","","key","16.626000000000143","600","285","","","","","","","","","","","","","","","","","","","",""
"psychophysics","315","597453","0.0-18.0-1.23","60578ad3a89be782a264f66a","609a8bf73b2ac84e2732f618","609d7d716857575a1ae486d6","null","","","","null","","","","key","16.625999999999326","600","285","","","","","","","","","","","","","135","1","0","true","","","",""
"psychophysics","316","597953","0.0-18.0-2.23","60578ad3a89be782a264f66a","609a8bf73b2ac84e2732f618","609d7d716857575a1ae486d6","498.01499999989755","","","","90","","","","key","16.625999999999326","600","285","","","","","","","","","","","","","","","","","","","",""
"psychophysics","317","599304","0.0-18.0-0.24","60578ad3a89be782a264f66a","609a8bf73b2ac84e2732f618","609d7d716857575a1ae486d6","null","","","","null","","","","key","16.625999999999475","600","285","","","","","","","","","","","","","","","","","","","",""
"psychophysics","318","599805","0.0-18.0-1.24","60578ad3a89be782a264f66a","609a8bf73b2ac84e2732f618","609d7d716857575a1ae486d6","null","","","","null","","","","key","16.625999999997052","600","285","","","","","","","","","","","","","135","1","2","true","","","",""
"psychophysics","319","600175","0.0-18.0-2.24","60578ad3a89be782a264f66a","609a8bf73b2ac84e2732f618","609d7d716857575a1ae486d6","367.55000000004657","","","","77","","","","key","16.62600000000315","600","285","","","","","","","","","","","","","","","","","","","",""
"psychophysics","320","600768","0.0-18.0-0.25","60578ad3a89be782a264f66a","609a8bf73b2ac84e2732f618","609d7d716857575a1ae486d6","null","","","","null","","","","key","16.626000000000932","600","285","","","","","","","","","","","","","","","","","","","",""
"psychophysics","321","601271","0.0-18.0-1.25","60578ad3a89be782a264f66a","609a8bf73b2ac84e2732f618","609d7d716857575a1ae486d6","null","","","","null","","","","key","16.62600000000334","600","285","","","","","","","","","","","","","135","-1","3","true","","","",""
"psychophysics","322","601866","0.0-18.0-2.25","60578ad3a89be782a264f66a","609a8bf73b2ac84e2732f618","609d7d716857575a1ae486d6","593.8199999999488","","","","77","","","","key","16.626000000000932","600","285","","","","","","","","","","","","","","","","","","","",""
"psychophysics","323","602872","0.0-18.0-0.26","60578ad3a89be782a264f66a","609a8bf73b2ac84e2732f618","609d7d716857575a1ae486d6","null","","","","null","","","","key","16.626000000000143","600","285","","","","","","","","","","","","","","","","","","","",""
"psychophysics","324","603376","0.0-18.0-1.26","60578ad3a89be782a264f66a","609a8bf73b2ac84e2732f618","609d7d716857575a1ae486d6","null","","","","null","","","","key","16.625999999999326","600","285","","","","","","","","","","","","","135","1","5","true","","","",""
"psychophysics","325","603702","0.0-18.0-2.26","60578ad3a89be782a264f66a","609a8bf73b2ac84e2732f618","609d7d716857575a1ae486d6","323.3949999999022","","","","77","","","","key","16.62599999999848","600","285","","","","","","","","","","","","","","","","","","","",""
"psychophysics","326","604491","0.0-18.0-0.27","60578ad3a89be782a264f66a","609a8bf73b2ac84e2732f618","609d7d716857575a1ae486d6","null","","","","null","","","","key","16.64741304347737","600","285","","","","","","","","","","","","","","","","","","","",""
"psychophysics","327","604993","0.0-18.0-1.27","60578ad3a89be782a264f66a","609a8bf73b2ac84e2732f618","609d7d716857575a1ae486d6","null","","","","null","","","","key","16.625999999997052","600","285","","","","","","","","","","","","","135","1","0","true","","","",""
"psychophysics","328","605713","0.0-18.0-2.27","60578ad3a89be782a264f66a","609a8bf73b2ac84e2732f618","609d7d716857575a1ae486d6","718.035000000149","","","","77","","","","key","16.626000000000378","600","285","","","","","","","","","","","","","","","","","","","",""
"psychophysics","329","606503","0.0-18.0-0.28","60578ad3a89be782a264f66a","609a8bf73b2ac84e2732f618","609d7d716857575a1ae486d6","null","","","","null","","","","key","16.626000000001945","600","285","","","","","","","","","","","","","","","","","","","",""
"psychophysics","330","607005","0.0-18.0-1.28","60578ad3a89be782a264f66a","609a8bf73b2ac84e2732f618","609d7d716857575a1ae486d6","null","","","","null","","","","key","16.626000000000932","600","285","","","","","","","","","","","","","135","-1","2","true","","","",""
