"trial_type","trial_index","time_elapsed","internal_node_id","PROLIFIC_PID","STUDY_ID","SESSION_ID","rt","stimulus","button_pressed","success","key_press","responses","isData","view_history","response_type","avg_frame_time","center_x","center_y","isSC","stim_side","trial_luminance","step_size","nReversal","correct","prev_ans","isThreshold","SC_threshold","final_threshold","isLuminance","FF_luminance","luminance","stimSide","ISInt","isFF","question_order","isSPQ","isCAPS","isAQ"
"pavlovia","0","11","0.0-0.0","607eaf87ac02229ef4fa8f4a","609a8bf73b2ac84e2732f618","609d7de981b3d32a838de49b","","","","","","","","","","","","","","","","","","","","","","","","","","","","","","","",""
"html-button-response","1","5848","0.0-1.0","607eaf87ac02229ef4fa8f4a","609a8bf73b2ac84e2732f618","609d7de981b3d32a838de49b","5833.155000000261","<div style='background-color: white; width:60%; margin: auto; padding: 50px; text-align: justify; text-justify: inter-word; margin-bottom: 20px;'><h1 style='text-align: center;'>Consent Form</h1><p>Please read this consent form carefully before deciding whether you would like to participate in this study. You have to be 18 years old or older to participate to this study.</p><p style='text-decoration: underline;'>Participation is voluntary:</p><p>It is your choice whether or not to participate in this research. If you choose to participate, you may change your mind and leave the study at any time. Refusal to participate or stopping your participation will involve no penalty or loss of benefits to which you are otherwise entitled.</p><p style='text-decoration: underline;'>Purpose of the Study:</p><p>To understand the mechanisms underlying human perception.</p><p style='text-decoration: underline;'>What you will do in this study:</p><p>You will be presented with a series of visual images and then you will press buttons on the keyboard of your computer to respond to simple questions about the images (e.g. Were one or two images presented?). In addition, you will be asked to complete a questionnaire concerning your beliefs and everyday mental and perceptual experiences.'</p><p style='text-decoration: underline;'> Time Required:</p><p>The study will take 40 minutes to complete. </p><p style='text-decoration: underline;'>Risks:</p><p>There are no anticipated risks associated with participating in this study that are beyond those experienced in everyday life. </p><p style='text-decoration: underline;'>Benefits:</p><p>There are no benefits to you in participating in the study. However, this study may lead to a better understanding of how different kinds of visual information are used.</p><p style='text-decoration: underline;'>Compensation:</p><p>You will be paid US$6.6/hour. </p><p style='text-decoration: underline;'>Privacy and Confidentiality:</p><p>Your participation in this study will be anonymous. No personal information about your name or identity will be asked or recorded. This anonymous data will be stored for several years and may be used for a variety of research purposes. The overall results of the study may be published, or the data files may be shared with other researchers, but your identity will not be revealed in any way. The online services we are using for this study may temporarily store your data, but this data will be downloaded and then promptly deleted from those services.Your data will not be permanently associated with your name, IP address, or any other identifiable information (e.g., your information will only be connected to your payment, not to any of your responses), though they may be temporarily stored together before we download and separate them. Even so, no guarantee of internet survey security can be given because, although unlikely, transmissions can be intercepted and IP addresses can be identified. The anonymous data may be shared publicly (for example, in conjunction with a resulting academic publication).</p><p style='text-decoration: underline;'>Participation and Withdrawal:</p><p>Your participation in this study is completely voluntary. You may stop responding to the stimuli or stop answering questions if you so choose and without penalty by exiting the full screen mode, closing this tab of your browser or redirecting it to a different website.</p><p style='text-decoration: underline;'>Contact Info of the Researcher: </p><p>If you have questions about this study, or if you would like to talk to the research team, please contact David Melcher (david.melcher@nyu.edu, md5050@nyu.edu) at the Perception and Active Cognition Laboratory, New York University Abu Dhabi, Computational Research Building, Saadiyat Island, Abu Dhabi, UAE.This research has been reviewed by the New York University Abu Dhabi Institutional Review Board (NYUAD IRB). To contact about your rights in this research, for questions, suggestions, or complaints that are not addressed by the researchers, please email IRBnyuad@nyu.edu, or call the NYUAD IRB at +971 2 628 4313. </p></div>","0","","","","","","","","","","","","","","","","","","","","","","","","","","","","",""
"fullscreen","2","8259","0.0-2.0","607eaf87ac02229ef4fa8f4a","609a8bf73b2ac84e2732f618","609d7de981b3d32a838de49b","","","","true","","","","","","","","","","","","","","","","","","","","","","","","","","","",""
"html-keyboard-response","3","33593","0.0-3.0","607eaf87ac02229ef4fa8f4a","609a8bf73b2ac84e2732f618","609d7de981b3d32a838de49b","25331.429999998363","<p>Welcome !</p><p>READ CAREFULLY THE FOLLOWING INDICATIONS:</p><p>From this moment you have ~40 minutes to complete the experiment.</p><p>During the experiment you will be prompted to take several breaks. Each break should not last longer than 2-3 minutes.</p><p>Make sure that your computer is plugged in and it's not running on battery power, even if the battery is already fully charged.</p><p>Turn off your phone and music, make sure that you are in a quiet room and that you will not be distracted for the next hour.</p><p>Failure to comply with the instructions and indications provided during the experiment will most likely result in the rejection of your data.<p>Press the spacebar to start.</p>","","","32","","","","","","","","","","","","","","","","","","","","","","","","","","",""
"survey-html-form","4","41696","0.0-4.0","607eaf87ac02229ef4fa8f4a","609a8bf73b2ac84e2732f618","609d7de981b3d32a838de49b","8099.190000000817","","","","","{""age"":""34"",""sex"":""F""}","true","","","","","","","","","","","","","","","","","","","","","","","","",""
"instructions","5","108339","0.0-5.0","607eaf87ac02229ef4fa8f4a","609a8bf73b2ac84e2732f618","609d7de981b3d32a838de49b","66641.70500000182","","","","","","","[{""page_index"":0,""viewing_time"":55790.82500000368},{""page_index"":1,""viewing_time"":8896.839999993972},{""page_index"":2,""viewing_time"":1953.1550000028801}]","","","","","","","","","","","","","","","","","","","","","","","",""
"psychophysics","6","123893","0.0-6.0-0.0","607eaf87ac02229ef4fa8f4a","609a8bf73b2ac84e2732f618","609d7de981b3d32a838de49b","14537.049999998999","","","","37","","","","key","16.6886186895811","960","484.5","true","1","180","30","0","1","","","","","","","","","","","","","",""
"psychophysics","7","129280","0.0-6.0-0.1","607eaf87ac02229ef4fa8f4a","609a8bf73b2ac84e2732f618","609d7de981b3d32a838de49b","4379.995000002964","","","","37","","","","key","16.653343653250772","960","484.5","true","1","210","30","0","1","1","","","","","","","","","","","","",""
"psychophysics","8","132574","0.0-6.0-0.2","607eaf87ac02229ef4fa8f4a","609a8bf73b2ac84e2732f618","609d7de981b3d32a838de49b","2281.445000000531","","","","37","","","","key","16.652832487309535","960","484.5","true","1","240","30","0","1","1","","","","","","","","","","","","",""
"psychophysics","9","134421","0.0-6.0-0.3","607eaf87ac02229ef4fa8f4a","609a8bf73b2ac84e2732f618","609d7de981b3d32a838de49b","834.195000003092","","","","37","","","","key","16.652163636363746","960","484.5","true","1","255","30","0","1","1","","","","","","","","","","","","",""
"psychophysics","10","136569","0.0-6.0-0.4","607eaf87ac02229ef4fa8f4a","609a8bf73b2ac84e2732f618","609d7de981b3d32a838de49b","1144.639999998617","","","","37","","","","key","16.653226562499867","960","484.5","true","-1","255","30","0","-1","1","","","","","","","","","","","","",""
"psychophysics","11","139903","0.0-6.0-0.5","607eaf87ac02229ef4fa8f4a","609a8bf73b2ac84e2732f618","609d7de981b3d32a838de49b","2329.409999998461","","","","37","","","","key","16.653105527638157","960","484.5","true","-1","225","24","1","-1","-1","","","","","","","","","","","","",""
"psychophysics","12","141417","0.0-6.0-0.6","607eaf87ac02229ef4fa8f4a","609a8bf73b2ac84e2732f618","609d7de981b3d32a838de49b","500.8000000016182","","","","37","","","","key","16.652633333333263","960","484.5","true","1","225","19.2","2","1","-1","","","","","","","","","","","","",""
"psychophysics","13","147828","0.0-6.0-0.7","607eaf87ac02229ef4fa8f4a","609a8bf73b2ac84e2732f618","609d7de981b3d32a838de49b","5374.289999999746","","","","39","","","","key","16.652773437499945","960","484.5","true","-1","244.2","19.2","2","1","1","","","","","","","","","","","","",""
"psychophysics","14","149444","0.0-6.0-0.8","607eaf87ac02229ef4fa8f4a","609a8bf73b2ac84e2732f618","609d7de981b3d32a838de49b","602.5999999983469","","","","39","","","","key","16.653020833333358","960","484.5","true","-1","255","19.2","2","1","1","","","","","","","","","","","","",""
"psychophysics","15","150857","0.0-6.0-0.9","607eaf87ac02229ef4fa8f4a","609a8bf73b2ac84e2732f618","609d7de981b3d32a838de49b","404.5049999986077","","","","39","","","","key","16.65527380952387","960","484.5","true","-1","255","19.2","2","1","1","","","","","","","","","","","","",""
"psychophysics","16","153189","0.0-6.0-0.10","607eaf87ac02229ef4fa8f4a","609a8bf73b2ac84e2732f618","609d7de981b3d32a838de49b","1326.3200000001234","","","","39","","","","key","16.65228776978421","960","484.5","true","-1","255","19.2","2","1","1","","","","","","","","","","","","",""
"psychophysics","17","155033","0.0-6.0-0.11","607eaf87ac02229ef4fa8f4a","609a8bf73b2ac84e2732f618","609d7de981b3d32a838de49b","828.6950000037905","","","","39","","","","key","16.652247706422028","960","484.5","true","-1","255","19.2","2","1","1","","","","","","","","","","","","",""
"psychophysics","18","156469","0.0-6.0-0.12","607eaf87ac02229ef4fa8f4a","609a8bf73b2ac84e2732f618","609d7de981b3d32a838de49b","431.0200000036275","","","","39","","","","key","16.651581395348753","960","484.5","true","-1","255","19.2","2","1","1","","","","","","","","","","","","",""
"psychophysics","19","157864","0.0-6.0-0.13","607eaf87ac02229ef4fa8f4a","609a8bf73b2ac84e2732f618","609d7de981b3d32a838de49b","381.67499999690335","","","","39","","","","key","16.652926829268036","960","484.5","true","1","255","19.2","2","-1","1","","","","","","","","","","","","",""
"psychophysics","20","159212","0.0-6.0-0.14","607eaf87ac02229ef4fa8f4a","609a8bf73b2ac84e2732f618","609d7de981b3d32a838de49b","335.3399999978137","","","","39","","","","key","16.65222500000018","960","484.5","true","1","235.8","15.36","3","-1","-1","","","","","","","","","","","","",""
"psychophysics","21","160636","0.0-6.0-0.15","607eaf87ac02229ef4fa8f4a","609a8bf73b2ac84e2732f618","609d7de981b3d32a838de49b","415.9349999972619","","","","39","","","","key","16.655129411764896","960","484.5","true","1","235.8","15.36","3","-1","-1","","","","","","","","","","","","",""
"psychophysics","22","162078","0.0-6.0-0.16","607eaf87ac02229ef4fa8f4a","609a8bf73b2ac84e2732f618","609d7de981b3d32a838de49b","431.27999999705935","","","","39","","","","key","16.651964705882538","960","484.5","true","1","220.44","15.36","3","-1","-1","","","","","","","","","","","","",""
"psychophysics","23","163433","0.0-6.0-0.17","607eaf87ac02229ef4fa8f4a","609a8bf73b2ac84e2732f618","609d7de981b3d32a838de49b","348.5450000007404","","","","39","","","","key","16.65355555555549","960","484.5","true","-1","220.44","12.287999999999998","4","1","-1","","","","","","","","","","","","",""
"psychophysics","24","164796","0.0-6.0-0.18","607eaf87ac02229ef4fa8f4a","609a8bf73b2ac84e2732f618","609d7de981b3d32a838de49b","358.8900000031572","","","","39","","","","key","16.651925925926065","960","484.5","true","-1","232.728","12.287999999999998","4","1","1","","","","","","","","","","","","",""
"psychophysics","25","166174","0.0-6.0-0.19","607eaf87ac02229ef4fa8f4a","609a8bf73b2ac84e2732f618","609d7de981b3d32a838de49b","373.1900000057067","","","","39","","","","key","16.65532098765439","960","484.5","true","1","245.01600000000002","12.287999999999998","4","-1","1","","","","","","","","","","","","",""
"psychophysics","26","167512","0.0-6.0-0.20","607eaf87ac02229ef4fa8f4a","609a8bf73b2ac84e2732f618","609d7de981b3d32a838de49b","332.89499999955297","","","","39","","","","key","16.65590000000011","960","484.5","true","1","245.01600000000002","9.8304","5","-1","-1","","","","","","","","","","","","",""
"psychophysics","27","168864","0.0-6.0-0.21","607eaf87ac02229ef4fa8f4a","609a8bf73b2ac84e2732f618","609d7de981b3d32a838de49b","343.1350000028033","","","","39","","","","key","16.65465000000004","960","484.5","true","1","235.18560000000002","9.8304","5","-1","-1","","","","","","","","","","","","",""
"psychophysics","28","170222","0.0-6.0-0.22","607eaf87ac02229ef4fa8f4a","609a8bf73b2ac84e2732f618","609d7de981b3d32a838de49b","346.8250000005355","","","","39","","","","key","16.65543749999997","960","484.5","true","1","235.18560000000002","9.8304","5","-1","-1","","","","","","","","","","","","",""
"psychophysics","29","171702","0.0-6.0-0.23","607eaf87ac02229ef4fa8f4a","609a8bf73b2ac84e2732f618","609d7de981b3d32a838de49b","475.1350000005914","","","","39","","","","key","16.651613636363354","960","484.5","true","-1","225.35520000000002","7.864319999999999","6","1","-1","","","","","","","","","","","","",""
"psychophysics","30","173045","0.0-6.0-0.24","607eaf87ac02229ef4fa8f4a","609a8bf73b2ac84e2732f618","609d7de981b3d32a838de49b","338.0800000013551","","","","39","","","","key","16.653337499999907","960","484.5","true","1","233.21952000000002","7.864319999999999","6","-1","1","","","","","","","","","","","","",""
"psychophysics","31","174421","0.0-6.0-0.25","607eaf87ac02229ef4fa8f4a","609a8bf73b2ac84e2732f618","609d7de981b3d32a838de49b","366.66500000137603","","","","39","","","","key","16.653634146341442","960","484.5","true","1","233.21952000000002","6.291456","7","-1","-1","","","","","","","","","","","","",""
"psychophysics","32","177740","0.0-6.0-0.26","607eaf87ac02229ef4fa8f4a","609a8bf73b2ac84e2732f618","609d7de981b3d32a838de49b","2313.784999998461","","","","39","","","","key","16.653500000000054","960","484.5","true","-1","226.928064","5.033164800000001","8","1","-1","","","","","","","","","","","","",""
"psychophysics","33","179122","0.0-6.0-0.27","607eaf87ac02229ef4fa8f4a","609a8bf73b2ac84e2732f618","609d7de981b3d32a838de49b","366.9799999988754","","","","39","","","","key","16.651268292682687","960","484.5","true","-1","231.96122880000001","5.033164800000001","8","1","1","","","","","","","","","","","","",""
"psychophysics","34","180485","0.0-6.0-0.28","607eaf87ac02229ef4fa8f4a","609a8bf73b2ac84e2732f618","609d7de981b3d32a838de49b","352.63499999564374","","","","39","","","","key","16.654209876543323","960","484.5","true","1","236.99439360000002","5.033164800000001","8","-1","1","","","","","","","","","","","","",""
"psychophysics","35","181862","0.0-6.0-0.29","607eaf87ac02229ef4fa8f4a","609a8bf73b2ac84e2732f618","609d7de981b3d32a838de49b","372.56499999784864","","","","39","","","","key","16.65338271604937","960","484.5","true","-1","236.99439360000002","4.0265318400000005","9","1","-1","","","","","","","","","","","","",""
"psychophysics","36","183234","0.0-6.0-0.30","607eaf87ac02229ef4fa8f4a","609a8bf73b2ac84e2732f618","609d7de981b3d32a838de49b","367.340000004333","","","","39","","","","key","16.650426829268195","960","484.5","true","-1","241.02092544","4.0265318400000005","9","1","1","","","","","","","","","","","","",""
"psychophysics","37","184496","0.0-6.0-0.31","607eaf87ac02229ef4fa8f4a","609a8bf73b2ac84e2732f618","609d7de981b3d32a838de49b","252.4150000026566","","","","39","","","","key","16.653386666666872","960","484.5","true","1","245.04745728","4.0265318400000005","9","-1","1","","","","","","","","","","","","",""
"psychophysics","38","185663","0.0-6.0-0.32","607eaf87ac02229ef4fa8f4a","609a8bf73b2ac84e2732f618","609d7de981b3d32a838de49b","162.4149999988731","","","","39","","","","key","16.656420289855145","960","484.5","true","1","245.04745728","3.2212254720000004","10","-1","-1","","","","","","","","","","","","",""
"psychophysics","39","187010","0.0-6.0-0.33","607eaf87ac02229ef4fa8f4a","609a8bf73b2ac84e2732f618","609d7de981b3d32a838de49b","342.57500000239816","","","","39","","","","key","16.653587499999777","960","484.5","true","1","241.826231808","3.2212254720000004","10","-1","-1","","","","","","","","","","","","",""
"psychophysics","40","188345","0.0-6.0-0.34","607eaf87ac02229ef4fa8f4a","609a8bf73b2ac84e2732f618","609d7de981b3d32a838de49b","330.35499999823514","","","","39","","","","key","16.65681012658199","960","484.5","true","-1","241.826231808","2.5769803776000004","11","1","-1","","","","","","","","","","","","",""
"psychophysics","41","189698","0.0-6.0-0.35","607eaf87ac02229ef4fa8f4a","609a8bf73b2ac84e2732f618","609d7de981b3d32a838de49b","341.2649999954738","","","","39","","","","key","16.651674999999887","960","484.5","true","-1","244.40321218559998","2.5769803776000004","11","1","1","","","","","","","","","","","","",""
"psychophysics","42","191074","0.0-6.0-0.36","607eaf87ac02229ef4fa8f4a","609a8bf73b2ac84e2732f618","609d7de981b3d32a838de49b","365.5700000017532","","","","39","","","","key","16.65367073170726","960","484.5","true","-1","246.98019256319998","2.5769803776000004","11","1","1","","","","","","","","","","","","",""
"psychophysics","43","192452","0.0-6.0-0.37","607eaf87ac02229ef4fa8f4a","609a8bf73b2ac84e2732f618","609d7de981b3d32a838de49b","370.44500000047265","","","","39","","","","key","16.86399999999994","960","484.5","true","-1","249.55717294079997","2.5769803776000004","11","1","1","","","","","","","","","","","","",""
"psychophysics","44","193817","0.0-6.0-0.38","607eaf87ac02229ef4fa8f4a","609a8bf73b2ac84e2732f618","609d7de981b3d32a838de49b","356.41999999643303","","","","39","","","","key","16.65351851851849","960","484.5","true","1","252.13415331839997","2.5769803776000004","11","-1","1","","","","","","","","","","","","",""
"psychophysics","45","195306","0.0-6.0-0.39","607eaf87ac02229ef4fa8f4a","609a8bf73b2ac84e2732f618","609d7de981b3d32a838de49b","480.87999999552267","","","","39","","","","key","16.652842696629246","960","484.5","true","-1","252.13415331839997","2.0615843020800004","12","1","-1","","","","","","","","","","","","",""
"html-keyboard-response","46","199890","0.0-7.0","607eaf87ac02229ef4fa8f4a","609a8bf73b2ac84e2732f618","609d7de981b3d32a838de49b","4580.784999998286","<p>Well Done !</p><p>Prepare for a new block.</p><p>DON'T EXIT THE FULL SCREEN MODE</p><p>Press the Spacebar to start.</p>","","","32","","","","","","","","","","","","","","","true","241.73831919615998","","","","","","","","","","",""
"psychophysics","47","203035","0.0-8.0-0.0","607eaf87ac02229ef4fa8f4a","609a8bf73b2ac84e2732f618","609d7de981b3d32a838de49b","2138.695000001462","","","","39","","","","key","16.74315425531909","960","484.5","true","-1","180","30","0","1","","","","","","","","","","","","","",""
"psychophysics","48","204427","0.0-8.0-0.1","607eaf87ac02229ef4fa8f4a","609a8bf73b2ac84e2732f618","609d7de981b3d32a838de49b","382.579999997688","","","","39","","","","key","16.656585365853616","960","484.5","true","-1","210","30","0","1","1","","","","","","","","","","","","",""
"psychophysics","49","205812","0.0-8.0-0.2","607eaf87ac02229ef4fa8f4a","609a8bf73b2ac84e2732f618","609d7de981b3d32a838de49b","379.91499999770895","","","","39","","","","key","16.653180722891303","960","484.5","true","-1","240","30","0","1","1","","","","","","","","","","","","",""
"psychophysics","50","207184","0.0-8.0-0.3","607eaf87ac02229ef4fa8f4a","609a8bf73b2ac84e2732f618","609d7de981b3d32a838de49b","367.6550000018324","","","","39","","","","key","16.652950617283896","960","484.5","true","-1","255","30","0","1","1","","","","","","","","","","","","",""
"psychophysics","51","208607","0.0-8.0-0.4","607eaf87ac02229ef4fa8f4a","609a8bf73b2ac84e2732f618","609d7de981b3d32a838de49b","413.71000000071945","","","","39","","","","key","16.655583333333198","960","484.5","true","-1","255","30","0","1","1","","","","","","","","","","","","",""
"psychophysics","52","209977","0.0-8.0-0.5","607eaf87ac02229ef4fa8f4a","609a8bf73b2ac84e2732f618","609d7de981b3d32a838de49b","364.5449999967241","","","","39","","","","key","16.6530121951222","960","484.5","true","-1","255","30","0","1","1","","","","","","","","","","","","",""
"psychophysics","53","211359","0.0-8.0-0.6","607eaf87ac02229ef4fa8f4a","609a8bf73b2ac84e2732f618","609d7de981b3d32a838de49b","370.4199999992852","","","","39","","","","key","16.650926829268517","960","484.5","true","1","255","30","0","-1","1","","","","","","","","","","","","",""
"psychophysics","54","212706","0.0-8.0-0.7","607eaf87ac02229ef4fa8f4a","609a8bf73b2ac84e2732f618","609d7de981b3d32a838de49b","343.50500000437023","","","","39","","","","key","16.654075000000013","960","484.5","true","1","225","24","1","-1","-1","","","","","","","","","","","","",""
"psychophysics","55","214070","0.0-8.0-0.8","607eaf87ac02229ef4fa8f4a","609a8bf73b2ac84e2732f618","609d7de981b3d32a838de49b","355.7100000034552","","","","39","","","","key","16.652487499999914","960","484.5","true","-1","225","19.2","2","1","-1","","","","","","","","","","","","",""
"psychophysics","56","215437","0.0-8.0-0.9","607eaf87ac02229ef4fa8f4a","609a8bf73b2ac84e2732f618","609d7de981b3d32a838de49b","361.4250000027823","","","","39","","","","key","16.653402439024365","960","484.5","true","1","244.2","19.2","2","-1","1","","","","","","","","","","","","",""
"psychophysics","57","216798","0.0-8.0-0.10","607eaf87ac02229ef4fa8f4a","609a8bf73b2ac84e2732f618","609d7de981b3d32a838de49b","356.8100000047707","","","","39","","","","key","16.652187499999854","960","484.5","true","1","244.2","15.36","3","-1","-1","","","","","","","","","","","","",""
"psychophysics","58","218139","0.0-8.0-0.11","607eaf87ac02229ef4fa8f4a","609a8bf73b2ac84e2732f618","609d7de981b3d32a838de49b","339.4200000038836","","","","39","","","","key","16.654325000000245","960","484.5","true","1","228.83999999999997","15.36","3","-1","-1","","","","","","","","","","","","",""
"psychophysics","59","219554","0.0-8.0-0.12","607eaf87ac02229ef4fa8f4a","609a8bf73b2ac84e2732f618","609d7de981b3d32a838de49b","404.0000000022701","","","","39","","","","key","16.65467857142877","960","484.5","true","-1","228.83999999999997","12.287999999999998","4","1","-1","","","","","","","","","","","","",""
"psychophysics","60","221019","0.0-8.0-0.13","607eaf87ac02229ef4fa8f4a","609a8bf73b2ac84e2732f618","609d7de981b3d32a838de49b","453.48999999987427","","","","39","","","","key","16.65309195402286","960","484.5","true","1","241.128","12.287999999999998","4","-1","1","","","","","","","","","","","","",""
"psychophysics","61","222455","0.0-8.0-0.14","607eaf87ac02229ef4fa8f4a","609a8bf73b2ac84e2732f618","609d7de981b3d32a838de49b","424.1200000033132","","","","39","","","","key","16.652035294117763","960","484.5","true","1","241.128","9.8304","5","-1","-1","","","","","","","","","","","","",""
"psychophysics","62","223894","0.0-8.0-0.15","607eaf87ac02229ef4fa8f4a","609a8bf73b2ac84e2732f618","609d7de981b3d32a838de49b","430.70499999885214","","","","39","","","","key","16.655199999999777","960","484.5","true","-1","231.2976","7.864319999999999","6","1","-1","","","","","","","","","","","","",""
"psychophysics","63","225268","0.0-8.0-0.16","607eaf87ac02229ef4fa8f4a","609a8bf73b2ac84e2732f618","609d7de981b3d32a838de49b","368.46999999397667","","","","39","","","","key","16.651987804877912","960","484.5","true","1","239.16191999999998","7.864319999999999","6","-1","1","","","","","","","","","","","","",""
"psychophysics","64","226708","0.0-8.0-0.17","607eaf87ac02229ef4fa8f4a","609a8bf73b2ac84e2732f618","609d7de981b3d32a838de49b","429.309999999532","","","","39","","","","key","17.25368674698774","960","484.5","true","1","239.16191999999998","6.291456","7","-1","-1","","","","","","","","","","","","",""
"psychophysics","65","228163","0.0-8.0-0.18","607eaf87ac02229ef4fa8f4a","609a8bf73b2ac84e2732f618","609d7de981b3d32a838de49b","452.7700000035111","","","","39","","","","key","16.652267441860477","960","484.5","true","1","232.87046399999997","6.291456","7","-1","-1","","","","","","","","","","","","",""
"psychophysics","66","229519","0.0-8.0-0.19","607eaf87ac02229ef4fa8f4a","609a8bf73b2ac84e2732f618","609d7de981b3d32a838de49b","340.9250000040629","","","","39","","","","key","16.654099999999744","960","484.5","true","-1","232.87046399999997","5.033164800000001","8","1","-1","","","","","","","","","","","","",""
"psychophysics","67","230907","0.0-8.0-0.20","607eaf87ac02229ef4fa8f4a","609a8bf73b2ac84e2732f618","609d7de981b3d32a838de49b","382.37999999546446","","","","39","","","","key","16.654710843373675","960","484.5","true","1","237.90362879999998","5.033164800000001","8","-1","1","","","","","","","","","","","","",""
"psychophysics","68","232296","0.0-8.0-0.21","607eaf87ac02229ef4fa8f4a","609a8bf73b2ac84e2732f618","609d7de981b3d32a838de49b","384.08499999786727","","","","39","","","","key","16.65557317073186","960","484.5","true","1","237.90362879999998","4.0265318400000005","9","-1","-1","","","","","","","","","","","","",""
"psychophysics","69","233704","0.0-8.0-0.22","607eaf87ac02229ef4fa8f4a","609a8bf73b2ac84e2732f618","609d7de981b3d32a838de49b","395.49499999702675","","","","39","","","","key","16.655373493976","960","484.5","true","1","233.87709696","4.0265318400000005","9","-1","-1","","","","","","","","","","","","",""
"psychophysics","70","235077","0.0-8.0-0.23","607eaf87ac02229ef4fa8f4a","609a8bf73b2ac84e2732f618","609d7de981b3d32a838de49b","367.79000000387896","","","","39","","","","key","16.652426829268425","960","484.5","true","-1","233.87709696","3.2212254720000004","10","1","-1","","","","","","","","","","","","",""
"psychophysics","71","236456","0.0-8.0-0.24","607eaf87ac02229ef4fa8f4a","609a8bf73b2ac84e2732f618","609d7de981b3d32a838de49b","369.65000000054715","","","","39","","","","key","16.654524390243928","960","484.5","true","1","237.09832243199997","3.2212254720000004","10","-1","1","","","","","","","","","","","","",""
"psychophysics","72","237851","0.0-8.0-0.25","607eaf87ac02229ef4fa8f4a","609a8bf73b2ac84e2732f618","609d7de981b3d32a838de49b","387.7749999955995","","","","39","","","","key","16.655301204819096","960","484.5","true","1","237.09832243199997","2.5769803776000004","11","-1","-1","","","","","","","","","","","","",""
"psychophysics","73","239246","0.0-8.0-0.26","607eaf87ac02229ef4fa8f4a","609a8bf73b2ac84e2732f618","609d7de981b3d32a838de49b","387.7250000005006","","","","39","","","","key","16.652158536585176","960","484.5","true","1","234.52134205439998","2.5769803776000004","11","-1","-1","","","","","","","","","","","","",""
"psychophysics","74","240585","0.0-8.0-0.27","607eaf87ac02229ef4fa8f4a","609a8bf73b2ac84e2732f618","609d7de981b3d32a838de49b","336.10500000213506","","","","39","","","","key","16.655125000000044","960","484.5","true","-1","234.52134205439998","2.0615843020800004","12","1","-1","","","","","","","","","","","","",""
"psychophysics","75","241977","0.0-8.0-0.28","607eaf87ac02229ef4fa8f4a","609a8bf73b2ac84e2732f618","609d7de981b3d32a838de49b","380.0499999997555","","","","39","","","","key","16.652353658536434","960","484.5","true","1","236.58292635648","2.0615843020800004","12","-1","1","","","","","","","","","","","","",""
"psychophysics","76","243352","0.0-8.0-0.29","607eaf87ac02229ef4fa8f4a","609a8bf73b2ac84e2732f618","609d7de981b3d32a838de49b","371.5650000012829","","","","39","","","","key","16.658743902439287","960","484.5","true","-1","236.58292635648","1.6492674416640005","13","1","-1","","","","","","","","","","","","",""
"psychophysics","77","244718","0.0-8.0-0.30","607eaf87ac02229ef4fa8f4a","609a8bf73b2ac84e2732f618","609d7de981b3d32a838de49b","356.3450000001467","","","","39","","","","key","16.65619753086422","960","484.5","true","-1","238.23219379814398","1.6492674416640005","13","1","1","","","","","","","","","","","","",""
"psychophysics","78","246097","0.0-8.0-0.31","607eaf87ac02229ef4fa8f4a","609a8bf73b2ac84e2732f618","609d7de981b3d32a838de49b","368.2100000005448","","","","39","","","","key","16.653682926829077","960","484.5","true","-1","239.88146123980798","1.6492674416640005","13","1","1","","","","","","","","","","","","",""
"psychophysics","79","247480","0.0-8.0-0.32","607eaf87ac02229ef4fa8f4a","609a8bf73b2ac84e2732f618","609d7de981b3d32a838de49b","379.3650000006892","","","","39","","","","key","16.86098765432123","960","484.5","true","1","241.53072868147197","1.6492674416640005","13","-1","1","","","","","","","","","","","","",""
"psychophysics","80","249026","0.0-8.0-0.33","607eaf87ac02229ef4fa8f4a","609a8bf73b2ac84e2732f618","609d7de981b3d32a838de49b","530.6800000034855","","","","39","","","","key","16.65360869565231","960","484.5","true","-1","241.53072868147197","1.3194139533312006","14","1","-1","","","","","","","","","","","","",""
"psychophysics","81","250171","0.0-8.0-0.34","607eaf87ac02229ef4fa8f4a","609a8bf73b2ac84e2732f618","609d7de981b3d32a838de49b","139.20499999949243","","","","39","","","","key","16.65243283582073","960","484.5","true","-1","242.85014263480318","1.3194139533312006","14","1","1","","","","","","","","","","","","",""
"psychophysics","82","251555","0.0-8.0-0.35","607eaf87ac02229ef4fa8f4a","609a8bf73b2ac84e2732f618","609d7de981b3d32a838de49b","378.75999999960186","","","","39","","","","key","16.651518072289168","960","484.5","true","-1","244.16955658813438","1.3194139533312006","14","1","1","","","","","","","","","","","","",""
"psychophysics","83","252720","0.0-8.0-0.36","607eaf87ac02229ef4fa8f4a","609a8bf73b2ac84e2732f618","609d7de981b3d32a838de49b","159.79499999957625","","","","39","","","","key","16.653029411764958","960","484.5","true","-1","245.4889705414656","1.3194139533312006","14","1","1","","","","","","","","","","","","",""
"psychophysics","84","254137","0.0-8.0-0.37","607eaf87ac02229ef4fa8f4a","609a8bf73b2ac84e2732f618","609d7de981b3d32a838de49b","412.4699999956647","","","","39","","","","key","16.652200000000065","960","484.5","true","1","246.8083844947968","1.3194139533312006","14","-1","1","","","","","","","","","","","","",""
"psychophysics","85","255586","0.0-8.0-0.38","607eaf87ac02229ef4fa8f4a","609a8bf73b2ac84e2732f618","609d7de981b3d32a838de49b","445.39000000077067","","","","39","","","","key","16.65291860465097","960","484.5","true","1","246.8083844947968","1.0555311626649604","15","-1","-1","","","","","","","","","","","","",""
"psychophysics","86","257005","0.0-8.0-0.39","607eaf87ac02229ef4fa8f4a","609a8bf73b2ac84e2732f618","609d7de981b3d32a838de49b","414.6099999998114","","","","39","","","","key","17.05953658536565","960","484.5","true","-1","245.75285333213185","1","16","1","-1","","","","","","","","","","","","",""
"html-keyboard-response","87","261357","0.0-9.0","607eaf87ac02229ef4fa8f4a","609a8bf73b2ac84e2732f618","609d7de981b3d32a838de49b","4349.310000005062","<p>Well Done !</p><p>Prepare for a new block.</p><p>DON'T EXIT THE FULL SCREEN MODE</p><p>Press the Spacebar to start.</p>","","","32","","","","","","","","","","","","","","","true","240.824017582719","","","","","","","","","","",""
"psychophysics","88","263216","0.0-10.0-0.0","607eaf87ac02229ef4fa8f4a","609a8bf73b2ac84e2732f618","609d7de981b3d32a838de49b","855.5949999936274","","","","39","","","","key","16.65545045045049","960","484.5","true","1","180","30","0","-1","","","","","","","","","","","","","",""
"psychophysics","89","264617","0.0-10.0-0.1","607eaf87ac02229ef4fa8f4a","609a8bf73b2ac84e2732f618","609d7de981b3d32a838de49b","397.7050000030431","","","","39","","","","key","16.65312048192739","960","484.5","true","1","180","30","0","-1","-1","","","","","","","","","","","","",""
"psychophysics","90","265978","0.0-10.0-0.2","607eaf87ac02229ef4fa8f4a","609a8bf73b2ac84e2732f618","609d7de981b3d32a838de49b","357.10000000108266","","","","39","","","","key","16.656543209876457","960","484.5","true","-1","150","24","1","1","-1","","","","","","","","","","","","",""
"psychophysics","91","267505","0.0-10.0-0.3","607eaf87ac02229ef4fa8f4a","609a8bf73b2ac84e2732f618","609d7de981b3d32a838de49b","519.9199999988195","","","","39","","","","key","16.65306666666616","960","484.5","true","-1","174","24","1","1","1","","","","","","","","","","","","",""
"psychophysics","92","269043","0.0-10.0-0.4","607eaf87ac02229ef4fa8f4a","609a8bf73b2ac84e2732f618","609d7de981b3d32a838de49b","532.8450000015437","","","","39","","","","key","16.652902173913468","960","484.5","true","-1","198","24","1","1","1","","","","","","","","","","","","",""
"psychophysics","93","270610","0.0-10.0-0.5","607eaf87ac02229ef4fa8f4a","609a8bf73b2ac84e2732f618","609d7de981b3d32a838de49b","563.5699999984354","","","","39","","","","key","16.652247311827796","960","484.5","true","1","222","24","1","-1","1","","","","","","","","","","","","",""
"psychophysics","94","272005","0.0-10.0-0.6","607eaf87ac02229ef4fa8f4a","609a8bf73b2ac84e2732f618","609d7de981b3d32a838de49b","389.26000000356","","","","39","","","","key","16.652518072289677","960","484.5","true","-1","222","19.2","2","1","-1","","","","","","","","","","","","",""
"psychophysics","95","273337","0.0-10.0-0.7","607eaf87ac02229ef4fa8f4a","609a8bf73b2ac84e2732f618","609d7de981b3d32a838de49b","326.1400000046706","","","","39","","","","key","16.65256962025335","960","484.5","true","1","241.2","19.2","2","-1","1","","","","","","","","","","","","",""
"psychophysics","96","274719","0.0-10.0-0.8","607eaf87ac02229ef4fa8f4a","609a8bf73b2ac84e2732f618","609d7de981b3d32a838de49b","375.3999999971711","","","","39","","","","key","16.652500000000057","960","484.5","true","1","241.2","15.36","3","-1","-1","","","","","","","","","","","","",""
"psychophysics","97","276065","0.0-10.0-0.9","607eaf87ac02229ef4fa8f4a","609a8bf73b2ac84e2732f618","609d7de981b3d32a838de49b","342.6350000008824","","","","39","","","","key","16.65181012658249","960","484.5","true","-1","225.83999999999997","12.287999999999998","4","1","-1","","","","","","","","","","","","",""
"psychophysics","98","277413","0.0-10.0-0.10","607eaf87ac02229ef4fa8f4a","609a8bf73b2ac84e2732f618","609d7de981b3d32a838de49b","341.30000000004657","","","","39","","","","key","16.65566250000047","960","484.5","true","-1","238.128","12.287999999999998","4","1","1","","","","","","","","","","","","",""
"psychophysics","99","278688","0.0-10.0-0.11","607eaf87ac02229ef4fa8f4a","609a8bf73b2ac84e2732f618","609d7de981b3d32a838de49b","269.4850000043516","","","","39","","","","key","16.653302631579113","960","484.5","true","-1","250.416","12.287999999999998","4","1","1","","","","","","","","","","","","",""
"psychophysics","100","279964","0.0-10.0-0.12","607eaf87ac02229ef4fa8f4a","609a8bf73b2ac84e2732f618","609d7de981b3d32a838de49b","268.8300000008894","","","","39","","","","key","16.651394736842025","960","484.5","true","-1","255","12.287999999999998","4","1","1","","","","","","","","","","","","",""
"psychophysics","101","281284","0.0-10.0-0.13","607eaf87ac02229ef4fa8f4a","609a8bf73b2ac84e2732f618","609d7de981b3d32a838de49b","317.3949999982142","","","","39","","","","key","16.654730769230998","960","484.5","true","-1","255","12.287999999999998","4","1","1","","","","","","","","","","","","",""
"psychophysics","102","282614","0.0-10.0-0.14","607eaf87ac02229ef4fa8f4a","609a8bf73b2ac84e2732f618","609d7de981b3d32a838de49b","321.5349999954924","","","","39","","","","key","16.65408860759506","960","484.5","true","1","255","12.287999999999998","4","-1","1","","","","","","","","","","","","",""
"psychophysics","103","283950","0.0-10.0-0.15","607eaf87ac02229ef4fa8f4a","609a8bf73b2ac84e2732f618","609d7de981b3d32a838de49b","331.0700000001816","","","","39","","","","key","16.653392405062768","960","484.5","true","1","242.712","9.8304","5","-1","-1","","","","","","","","","","","","",""
"psychophysics","104","285285","0.0-10.0-0.16","607eaf87ac02229ef4fa8f4a","609a8bf73b2ac84e2732f618","609d7de981b3d32a838de49b","328.27499999984866","","","","39","","","","key","16.656658227848702","960","484.5","true","-1","242.712","7.864319999999999","6","1","-1","","","","","","","","","","","","",""
"psychophysics","105","286757","0.0-10.0-0.17","607eaf87ac02229ef4fa8f4a","609a8bf73b2ac84e2732f618","609d7de981b3d32a838de49b","464.3149999974412","","","","39","","","","key","17.03922093023213","960","484.5","true","1","250.57631999999998","7.864319999999999","6","-1","1","","","","","","","","","","","","",""
"psychophysics","106","288244","0.0-10.0-0.18","607eaf87ac02229ef4fa8f4a","609a8bf73b2ac84e2732f618","609d7de981b3d32a838de49b","484.27000000083353","","","","39","","","","key","16.65589772727253","960","484.5","true","-1","250.57631999999998","6.291456","7","1","-1","","","","","","","","","","","","",""
"psychophysics","107","289625","0.0-10.0-0.19","607eaf87ac02229ef4fa8f4a","609a8bf73b2ac84e2732f618","609d7de981b3d32a838de49b","375.9399999980815","","","","39","","","","key","16.655365853658424","960","484.5","true","-1","255","6.291456","7","1","1","","","","","","","","","","","","",""
"psychophysics","108","291022","0.0-10.0-0.20","607eaf87ac02229ef4fa8f4a","609a8bf73b2ac84e2732f618","609d7de981b3d32a838de49b","391.61500000045635","","","","39","","","","key","16.653731707316716","960","484.5","true","1","255","6.291456","7","-1","1","","","","","","","","","","","","",""
"psychophysics","109","292463","0.0-10.0-0.21","607eaf87ac02229ef4fa8f4a","609a8bf73b2ac84e2732f618","609d7de981b3d32a838de49b","436.28500000340864","","","","39","","","","key","16.654953488372104","960","484.5","true","1","248.708544","5.033164800000001","8","-1","-1","","","","","","","","","","","","",""
"psychophysics","110","293823","0.0-10.0-0.22","607eaf87ac02229ef4fa8f4a","609a8bf73b2ac84e2732f618","609d7de981b3d32a838de49b","351.24000000359956","","","","39","","","","key","16.654283950617682","960","484.5","true","-1","248.708544","4.0265318400000005","9","1","-1","","","","","","","","","","","","",""
"psychophysics","111","295143","0.0-10.0-0.23","607eaf87ac02229ef4fa8f4a","609a8bf73b2ac84e2732f618","609d7de981b3d32a838de49b","315.86999999854015","","","","39","","","","key","16.65169230769224","960","484.5","true","-1","252.73507583999998","4.0265318400000005","9","1","1","","","","","","","","","","","","",""
"psychophysics","112","296473","0.0-10.0-0.24","607eaf87ac02229ef4fa8f4a","609a8bf73b2ac84e2732f618","609d7de981b3d32a838de49b","320.2450000026147","","","","39","","","","key","16.661164556962255","960","484.5","true","-1","255","4.0265318400000005","9","1","1","","","","","","","","","","","","",""
"psychophysics","113","297750","0.0-10.0-0.25","607eaf87ac02229ef4fa8f4a","609a8bf73b2ac84e2732f618","609d7de981b3d32a838de49b","265.3050000008079","","","","39","","","","key","16.87998648648657","960","484.5","true","-1","255","4.0265318400000005","9","1","1","","","","","","","","","","","","",""
"psychophysics","114","299123","0.0-10.0-0.26","607eaf87ac02229ef4fa8f4a","609a8bf73b2ac84e2732f618","609d7de981b3d32a838de49b","367.34500000602566","","","","39","","","","key","16.64625609756118","960","484.5","true","-1","255","4.0265318400000005","9","1","1","","","","","","","","","","","","",""
"psychophysics","115","300544","0.0-10.0-0.27","607eaf87ac02229ef4fa8f4a","609a8bf73b2ac84e2732f618","609d7de981b3d32a838de49b","409.3349999966449","","","","39","","","","key","16.65289285714278","960","484.5","true","1","255","4.0265318400000005","9","-1","1","","","","","","","","","","","","",""
"psychophysics","116","301899","0.0-10.0-0.28","607eaf87ac02229ef4fa8f4a","609a8bf73b2ac84e2732f618","609d7de981b3d32a838de49b","350.1749999995809","","","","39","","","","key","16.658555555555473","960","484.5","true","1","250.97346816","3.2212254720000004","10","-1","-1","","","","","","","","","","","","",""
"psychophysics","117","303312","0.0-10.0-0.29","607eaf87ac02229ef4fa8f4a","609a8bf73b2ac84e2732f618","609d7de981b3d32a838de49b","408.8950000004843","","","","39","","","","key","16.654614457831837","960","484.5","true","-1","250.97346816","2.5769803776000004","11","1","-1","","","","","","","","","","","","",""
"psychophysics","118","304609","0.0-10.0-0.30","607eaf87ac02229ef4fa8f4a","609a8bf73b2ac84e2732f618","609d7de981b3d32a838de49b","290.34999999566935","","","","39","","","","key","16.652155844156038","960","484.5","true","1","253.5504485376","2.5769803776000004","11","-1","1","","","","","","","","","","","","",""
"psychophysics","119","305917","0.0-10.0-0.31","607eaf87ac02229ef4fa8f4a","609a8bf73b2ac84e2732f618","609d7de981b3d32a838de49b","299.40499999793246","","","","39","","","","key","16.646307692307836","960","484.5","true","-1","253.5504485376","2.0615843020800004","12","1","-1","","","","","","","","","","","","",""
"psychophysics","120","307277","0.0-10.0-0.32","607eaf87ac02229ef4fa8f4a","609a8bf73b2ac84e2732f618","609d7de981b3d32a838de49b","350.5700000023353","","","","39","","","","key","16.65446913580232","960","484.5","true","-1","255","2.0615843020800004","12","1","1","","","","","","","","","","","","",""
"psychophysics","121","308589","0.0-10.0-0.33","607eaf87ac02229ef4fa8f4a","609a8bf73b2ac84e2732f618","609d7de981b3d32a838de49b","307.18999999953667","","","","39","","","","key","16.655896103895547","960","484.5","true","1","255","2.0615843020800004","12","-1","1","","","","","","","","","","","","",""
"psychophysics","122","309975","0.0-10.0-0.34","607eaf87ac02229ef4fa8f4a","609a8bf73b2ac84e2732f618","609d7de981b3d32a838de49b","379.4849999976577","","","","39","","","","key","16.655204819276907","960","484.5","true","1","252.93841569792","1.6492674416640005","13","-1","-1","","","","","","","","","","","","",""
"psychophysics","123","311395","0.0-10.0-0.35","607eaf87ac02229ef4fa8f4a","609a8bf73b2ac84e2732f618","609d7de981b3d32a838de49b","415.60500000196043","","","","39","","","","key","16.647738095238484","960","484.5","true","1","252.93841569792","1.6492674416640005","13","-1","-1","","","","","","","","","","","","",""
"psychophysics","124","312902","0.0-10.0-0.36","607eaf87ac02229ef4fa8f4a","609a8bf73b2ac84e2732f618","609d7de981b3d32a838de49b","498.96499999886146","","","","39","","","","key","16.65730337078652","960","484.5","true","1","251.289148256256","1.6492674416640005","13","-1","-1","","","","","","","","","","","","",""
"psychophysics","125","314393","0.0-10.0-0.37","607eaf87ac02229ef4fa8f4a","609a8bf73b2ac84e2732f618","609d7de981b3d32a838de49b","483.5749999983818","","","","39","","","","key","16.65516853932647","960","484.5","true","1","251.289148256256","1.6492674416640005","13","-1","-1","","","","","","","","","","","","",""
"psychophysics","126","315804","0.0-10.0-0.38","607eaf87ac02229ef4fa8f4a","609a8bf73b2ac84e2732f618","609d7de981b3d32a838de49b","402.41499999683583","","","","39","","","","key","16.65380952380933","960","484.5","true","1","249.639880814592","1.6492674416640005","13","-1","-1","","","","","","","","","","","","",""
"psychophysics","127","317370","0.0-10.0-0.39","607eaf87ac02229ef4fa8f4a","609a8bf73b2ac84e2732f618","609d7de981b3d32a838de49b","563.1499999944936","","","","39","","","","key","16.6517956989244","960","484.5","true","1","249.639880814592","1.6492674416640005","13","-1","-1","","","","","","","","","","","","",""
"html-keyboard-response","128","321142","0.0-11.0","607eaf87ac02229ef4fa8f4a","609a8bf73b2ac84e2732f618","609d7de981b3d32a838de49b","3769.784999996773","<p>Well Done !</p><p>Prepare for a new block.</p><p>DON'T EXIT THE FULL SCREEN MODE</p><p>Press the Spacebar to start.</p>","","","32","","","","","","","","","","","","","","","true","252.78551486218237","","","","","","","","","","",""
"psychophysics","129","323256","0.0-12.0-0.0","607eaf87ac02229ef4fa8f4a","609a8bf73b2ac84e2732f618","609d7de981b3d32a838de49b","1108.0449999935809","","","","39","","","","key","16.657523809523795","960","484.5","true","-1","180","30","0","1","","","","","","","","","","","","","",""
"psychophysics","130","324545","0.0-12.0-0.1","607eaf87ac02229ef4fa8f4a","609a8bf73b2ac84e2732f618","609d7de981b3d32a838de49b","282.695000001695","","","","39","","","","key","16.655961038961298","960","484.5","true","1","210","30","0","-1","1","","","","","","","","","","","","",""
"psychophysics","131","325857","0.0-12.0-0.2","607eaf87ac02229ef4fa8f4a","609a8bf73b2ac84e2732f618","609d7de981b3d32a838de49b","305.8500000042841","","","","39","","","","key","16.653987012987248","960","484.5","true","1","210","24","1","-1","-1","","","","","","","","","","","","",""
"psychophysics","132","327178","0.0-12.0-0.3","607eaf87ac02229ef4fa8f4a","609a8bf73b2ac84e2732f618","609d7de981b3d32a838de49b","316.12500000483124","","","","39","","","","key","16.645848101265788","960","484.5","true","-1","186","19.2","2","1","-1","","","","","","","","","","","","",""
"psychophysics","133","328661","0.0-12.0-0.4","607eaf87ac02229ef4fa8f4a","609a8bf73b2ac84e2732f618","609d7de981b3d32a838de49b","477.1850000033737","","","","39","","","","key","16.653522727272833","960","484.5","true","-1","205.2","19.2","2","1","1","","","","","","","","","","","","",""
"psychophysics","134","329790","0.0-12.0-0.5","607eaf87ac02229ef4fa8f4a","609a8bf73b2ac84e2732f618","609d7de981b3d32a838de49b","123.33000000216998","","","","39","","","","key","16.653343283581727","960","484.5","true","-1","224.39999999999998","19.2","2","1","1","","","","","","","","","","","","",""
"psychophysics","135","331071","0.0-12.0-0.6","607eaf87ac02229ef4fa8f4a","609a8bf73b2ac84e2732f618","609d7de981b3d32a838de49b","275.56499999627704","","","","39","","","","key","16.652653333332854","960","484.5","true","-1","243.59999999999997","19.2","2","1","1","","","","","","","","","","","","",""
"psychophysics","136","332371","0.0-12.0-0.7","607eaf87ac02229ef4fa8f4a","609a8bf73b2ac84e2732f618","609d7de981b3d32a838de49b","296.184999999241","","","","39","","","","key","16.652500000000238","960","484.5","true","1","255","19.2","2","-1","1","","","","","","","","","","","","",""
"psychophysics","137","333593","0.0-12.0-0.8","607eaf87ac02229ef4fa8f4a","609a8bf73b2ac84e2732f618","609d7de981b3d32a838de49b","217.57000000070548","","","","39","","","","key","16.65322222222231","960","484.5","true","-1","255","15.36","3","1","-1","","","","","","","","","","","","",""
"psychophysics","138","334736","0.0-12.0-0.9","607eaf87ac02229ef4fa8f4a","609a8bf73b2ac84e2732f618","609d7de981b3d32a838de49b","135.64000000042142","","","","39","","","","key","16.656985294117476","960","484.5","true","1","255","15.36","3","-1","1","","","","","","","","","","","","",""
"psychophysics","139","335918","0.0-12.0-0.10","607eaf87ac02229ef4fa8f4a","609a8bf73b2ac84e2732f618","609d7de981b3d32a838de49b","177.5850000049104","","","","39","","","","key","16.654085714286026","960","484.5","true","-1","239.64","12.287999999999998","4","1","-1","","","","","","","","","","","","",""
"psychophysics","140","337289","0.0-12.0-0.11","607eaf87ac02229ef4fa8f4a","609a8bf73b2ac84e2732f618","609d7de981b3d32a838de49b","366.9149999986985","","","","39","","","","key","16.653950617284323","960","484.5","true","1","251.928","12.287999999999998","4","-1","1","","","","","","","","","","","","",""
"psychophysics","141","338769","0.0-12.0-0.12","607eaf87ac02229ef4fa8f4a","609a8bf73b2ac84e2732f618","609d7de981b3d32a838de49b","475.5650000006426","","","","39","","","","key","16.652499999999815","960","484.5","true","-1","251.928","9.8304","5","1","-1","","","","","","","","","","","","",""
"psychophysics","142","340104","0.0-12.0-0.13","607eaf87ac02229ef4fa8f4a","609a8bf73b2ac84e2732f618","609d7de981b3d32a838de49b","327.04999999987194","","","","39","","","","key","16.65598734177257","960","484.5","true","-1","255","9.8304","5","1","1","","","","","","","","","","","","",""
"psychophysics","143","341350","0.0-12.0-0.14","607eaf87ac02229ef4fa8f4a","609a8bf73b2ac84e2732f618","609d7de981b3d32a838de49b","239.3900000024587","","","","39","","","","key","16.653648648648584","960","484.5","true","-1","255","9.8304","5","1","1","","","","","","","","","","","","",""
"psychophysics","144","342548","0.0-12.0-0.15","607eaf87ac02229ef4fa8f4a","609a8bf73b2ac84e2732f618","609d7de981b3d32a838de49b","193.38499999867054","","","","39","","","","key","16.653676056337517","960","484.5","true","1","255","9.8304","5","-1","1","","","","","","","","","","","","",""
"psychophysics","145","343831","0.0-12.0-0.16","607eaf87ac02229ef4fa8f4a","609a8bf73b2ac84e2732f618","609d7de981b3d32a838de49b","279.1450000004261","","","","39","","","","key","16.651802631579095","960","484.5","true","-1","245.1696","7.864319999999999","6","1","-1","","","","","","","","","","","","",""
"psychophysics","146","344930","0.0-12.0-0.17","607eaf87ac02229ef4fa8f4a","609a8bf73b2ac84e2732f618","609d7de981b3d32a838de49b","94.38499999669148","","","","39","","","","key","16.653584615383835","960","484.5","true","-1","253.03392","7.864319999999999","6","1","1","","","","","","","","","","","","",""
"psychophysics","147","346183","0.0-12.0-0.18","607eaf87ac02229ef4fa8f4a","609a8bf73b2ac84e2732f618","609d7de981b3d32a838de49b","247.89500000042608","","","","39","","","","key","16.65201351351366","960","484.5","true","1","255","7.864319999999999","6","-1","1","","","","","","","","","","","","",""
"psychophysics","148","347545","0.0-12.0-0.19","607eaf87ac02229ef4fa8f4a","609a8bf73b2ac84e2732f618","609d7de981b3d32a838de49b","352.1249999976135","","","","39","","","","key","16.65260493827202","960","484.5","true","-1","255","6.291456","7","1","-1","","","","","","","","","","","","",""
"psychophysics","149","349093","0.0-12.0-0.20","607eaf87ac02229ef4fa8f4a","609a8bf73b2ac84e2732f618","609d7de981b3d32a838de49b","543.8900000008289","","","","39","","","","key","16.653402173913175","960","484.5","true","1","255","6.291456","7","-1","1","","","","","","","","","","","","",""
"psychophysics","150","350448","0.0-12.0-0.21","607eaf87ac02229ef4fa8f4a","609a8bf73b2ac84e2732f618","609d7de981b3d32a838de49b","351.05500000645407","","","","39","","","","key","16.65521249999947","960","484.5","true","1","248.708544","5.033164800000001","8","-1","-1","","","","","","","","","","","","",""
"psychophysics","151","351708","0.0-12.0-0.22","607eaf87ac02229ef4fa8f4a","609a8bf73b2ac84e2732f618","609d7de981b3d32a838de49b","250","","","","39","","","","key","16.65772000000036","960","484.5","true","1","248.708544","5.033164800000001","8","-1","-1","","","","","","","","","","","","",""
"psychophysics","152","353122","0.0-12.0-0.23","607eaf87ac02229ef4fa8f4a","609a8bf73b2ac84e2732f618","609d7de981b3d32a838de49b","408.6800000004587","","","","39","","","","key","16.65648192771099","960","484.5","true","-1","243.67537919999998","4.0265318400000005","9","1","-1","","","","","","","","","","","","",""
"psychophysics","153","354503","0.0-12.0-0.24","607eaf87ac02229ef4fa8f4a","609a8bf73b2ac84e2732f618","609d7de981b3d32a838de49b","377.79500000033295","","","","39","","","","key","16.651108433735132","960","484.5","true","-1","247.70191103999997","4.0265318400000005","9","1","1","","","","","","","","","","","","",""
"psychophysics","154","355973","0.0-12.0-0.25","607eaf87ac02229ef4fa8f4a","609a8bf73b2ac84e2732f618","609d7de981b3d32a838de49b","467.4250000025495","","","","39","","","","key","16.653850574712752","960","484.5","true","-1","251.72844287999996","4.0265318400000005","9","1","1","","","","","","","","","","","","",""
"psychophysics","155","357351","0.0-12.0-0.26","607eaf87ac02229ef4fa8f4a","609a8bf73b2ac84e2732f618","609d7de981b3d32a838de49b","373.78000000171596","","","","39","","","","key","16.654135802468964","960","484.5","true","1","255","4.0265318400000005","9","-1","1","","","","","","","","","","","","",""
"psychophysics","156","358655","0.0-12.0-0.27","607eaf87ac02229ef4fa8f4a","609a8bf73b2ac84e2732f618","609d7de981b3d32a838de49b","298.30499999661697","","","","39","","","","key","16.64173076923068","960","484.5","true","1","255","3.2212254720000004","10","-1","-1","","","","","","","","","","","","",""
"psychophysics","157","360238","0.0-12.0-0.28","607eaf87ac02229ef4fa8f4a","609a8bf73b2ac84e2732f618","609d7de981b3d32a838de49b","575.539999998","","","","39","","","","key","16.652808510638312","960","484.5","true","-1","251.77877452799999","2.5769803776000004","11","1","-1","","","","","","","","","","","","",""
"psychophysics","158","361847","0.0-12.0-0.29","607eaf87ac02229ef4fa8f4a","609a8bf73b2ac84e2732f618","609d7de981b3d32a838de49b","597.1050000007381","","","","39","","","","key","16.654315789474026","960","484.5","true","1","254.35575490559998","2.5769803776000004","11","-1","1","","","","","","","","","","","","",""
"psychophysics","159","363195","0.0-12.0-0.30","607eaf87ac02229ef4fa8f4a","609a8bf73b2ac84e2732f618","609d7de981b3d32a838de49b","343.5650000028545","","","","39","","","","key","16.64832499999975","960","484.5","true","1","254.35575490559998","2.0615843020800004","12","-1","-1","","","","","","","","","","","","",""
"psychophysics","160","364484","0.0-12.0-0.31","607eaf87ac02229ef4fa8f4a","609a8bf73b2ac84e2732f618","609d7de981b3d32a838de49b","285.31500000099186","","","","39","","","","key","16.653376623376595","960","484.5","true","-1","252.29417060351997","1.6492674416640005","13","1","-1","","","","","","","","","","","","",""
"psychophysics","161","366029","0.0-12.0-0.32","607eaf87ac02229ef4fa8f4a","609a8bf73b2ac84e2732f618","609d7de981b3d32a838de49b","534.0149999974528","","","","39","","","","key","16.654130434782534","960","484.5","true","-1","253.94343804518397","1.6492674416640005","13","1","1","","","","","","","","","","","","",""
"psychophysics","162","367514","0.0-12.0-0.33","607eaf87ac02229ef4fa8f4a","609a8bf73b2ac84e2732f618","609d7de981b3d32a838de49b","480.1750000042375","","","","39","","","","key","16.65134090909057","960","484.5","true","1","255","1.6492674416640005","13","-1","1","","","","","","","","","","","","",""
"psychophysics","163","369143","0.0-12.0-0.34","607eaf87ac02229ef4fa8f4a","609a8bf73b2ac84e2732f618","609d7de981b3d32a838de49b","625.7100000002538","","","","39","","","","key","16.653762886598322","960","484.5","true","1","255","1.3194139533312006","14","-1","-1","","","","","","","","","","","","",""
"psychophysics","164","370728","0.0-12.0-0.35","607eaf87ac02229ef4fa8f4a","609a8bf73b2ac84e2732f618","609d7de981b3d32a838de49b","580.8099999994738","","","","39","","","","key","16.650712765957614","960","484.5","true","1","253.6805860466688","1.3194139533312006","14","-1","-1","","","","","","","","","","","","",""
"psychophysics","165","372010","0.0-12.0-0.36","607eaf87ac02229ef4fa8f4a","609a8bf73b2ac84e2732f618","609d7de981b3d32a838de49b","274.3950000003679","","","","39","","","","key","16.653605263157882","960","484.5","true","1","253.6805860466688","1.3194139533312006","14","-1","-1","","","","","","","","","","","","",""
"psychophysics","166","373472","0.0-12.0-0.37","607eaf87ac02229ef4fa8f4a","609a8bf73b2ac84e2732f618","609d7de981b3d32a838de49b","453.1700000006822","","","","39","","","","key","16.653069767441742","960","484.5","true","1","252.3611720933376","1.3194139533312006","14","-1","-1","","","","","","","","","","","","",""
"psychophysics","167","375370","0.0-12.0-0.38","607eaf87ac02229ef4fa8f4a","609a8bf73b2ac84e2732f618","609d7de981b3d32a838de49b","893.6049999974784","","","","39","","","","key","16.6524690265486","960","484.5","true","1","252.3611720933376","1.3194139533312006","14","-1","-1","","","","","","","","","","","","",""
"psychophysics","168","376817","0.0-12.0-0.39","607eaf87ac02229ef4fa8f4a","609a8bf73b2ac84e2732f618","609d7de981b3d32a838de49b","440.7649999993737","","","","39","","","","key","16.63995348837235","960","484.5","true","-1","251.04175814000638","1.0555311626649604","15","1","-1","","","","","","","","","","","","",""
"html-keyboard-response","169","379512","0.0-13.0","607eaf87ac02229ef4fa8f4a","609a8bf73b2ac84e2732f618","609d7de981b3d32a838de49b","2692.025000003923","<p>Well Done !</p><p>Prepare for a new block.</p><p>DON'T EXIT THE FULL SCREEN MODE</p><p>Press the Spacebar to start.</p>","","","32","","","","","","","","","","","","","","","true","253.4387740191949","","","","","","","","","","",""
"html-keyboard-response","170","379616","0.0-14.0","607eaf87ac02229ef4fa8f4a","609a8bf73b2ac84e2732f618","609d7de981b3d32a838de49b","null","","","","null","","","","","","","","","","","","","","","","","247.19665641506407","true","366.39331283012814","","","","","","","",""
"instructions","171","421547","0.0-15.0","607eaf87ac02229ef4fa8f4a","609a8bf73b2ac84e2732f618","609d7de981b3d32a838de49b","41928.67000000115","","","","","","","[{""page_index"":0,""viewing_time"":37170.67500000121},{""page_index"":1,""viewing_time"":2394.8400000008405},{""page_index"":2,""viewing_time"":2362.3549999974784}]","","","","","","","","","","","","","","","","","","","","","","","",""
"psychophysics","172","425018","0.0-16.0-0.0","607eaf87ac02229ef4fa8f4a","609a8bf73b2ac84e2732f618","609d7de981b3d32a838de49b","null","","","","null","","","","key","16.653795454545286","960","484.5","","","","","","","","","","","","","","","","","","","",""
"psychophysics","173","425528","0.0-16.0-1.0","607eaf87ac02229ef4fa8f4a","609a8bf73b2ac84e2732f618","609d7de981b3d32a838de49b","null","","","","null","","","","key","16.666666666666668","960","484.5","","","","","","","","","","","","","366","-1","5","false","","","",""
"psychophysics","174","426800","0.0-16.0-2.0","607eaf87ac02229ef4fa8f4a","609a8bf73b2ac84e2732f618","609d7de981b3d32a838de49b","1266.9850000020233","","","","90","","","","key","16.649706666666702","960","484.5","","","","","","","","","","","","","","","","","","","",""
"psychophysics","175","427795","0.0-16.0-0.1","607eaf87ac02229ef4fa8f4a","609a8bf73b2ac84e2732f618","609d7de981b3d32a838de49b","null","","","","null","","","","key","16.650762711864722","960","484.5","","","","","","","","","","","","","","","","","","","",""
"psychophysics","176","428300","0.0-16.0-1.1","607eaf87ac02229ef4fa8f4a","609a8bf73b2ac84e2732f618","609d7de981b3d32a838de49b","null","","","","null","","","","key","16.658896551724396","960","484.5","","","","","","","","","","","","","366","-1","4","false","","","",""
"psychophysics","177","429929","0.0-16.0-2.1","607eaf87ac02229ef4fa8f4a","609a8bf73b2ac84e2732f618","609d7de981b3d32a838de49b","1619.9450000058278","","","","90","","","","key","16.655804123710865","960","484.5","","","","","","","","","","","","","","","","","","","",""
"psychophysics","178","430628","0.0-16.0-0.2","607eaf87ac02229ef4fa8f4a","609a8bf73b2ac84e2732f618","609d7de981b3d32a838de49b","null","","","","null","","","","key","16.65719512194997","960","484.5","","","","","","","","","","","","","","","","","","","",""
"psychophysics","179","431132","0.0-16.0-1.2","607eaf87ac02229ef4fa8f4a","609a8bf73b2ac84e2732f618","609d7de981b3d32a838de49b","null","","","","null","","","","key","16.653310344827457","960","484.5","","","","","","","","","","","","","366","1","5","false","","","",""
"psychophysics","180","431264","0.0-16.0-2.2","607eaf87ac02229ef4fa8f4a","609a8bf73b2ac84e2732f618","609d7de981b3d32a838de49b","122.32999999832828","","","","77","","","","key","16.63157142856757","960","484.5","","","","","","","","","","","","","","","","","","","",""
"psychophysics","181","432255","0.0-16.0-0.3","607eaf87ac02229ef4fa8f4a","609a8bf73b2ac84e2732f618","609d7de981b3d32a838de49b","null","","","","null","","","","key","16.653644067796648","960","484.5","","","","","","","","","","","","","","","","","","","",""
"psychophysics","182","432763","0.0-16.0-1.3","607eaf87ac02229ef4fa8f4a","609a8bf73b2ac84e2732f618","609d7de981b3d32a838de49b","null","","","","null","","","","key","16.655068965516342","960","484.5","","","","","","","","","","","","","366","1","2","false","","","",""
"psychophysics","183","435336","0.0-16.0-2.3","607eaf87ac02229ef4fa8f4a","609a8bf73b2ac84e2732f618","609d7de981b3d32a838de49b","2563.045000002603","","","","90","","","","key","16.65317647058815","960","484.5","","","","","","","","","","","","","","","","","","","",""
"psychophysics","184","436168","0.0-16.0-0.4","607eaf87ac02229ef4fa8f4a","609a8bf73b2ac84e2732f618","609d7de981b3d32a838de49b","null","","","","null","","","","key","16.635860000000104","960","484.5","","","","","","","","","","","","","","","","","","","",""
"psychophysics","185","436674","0.0-16.0-1.4","607eaf87ac02229ef4fa8f4a","609a8bf73b2ac84e2732f618","609d7de981b3d32a838de49b","null","","","","null","","","","key","16.648413793103575","960","484.5","","","","","","","","","","","","","366","-1","2","false","","","",""
"psychophysics","186","436768","0.0-16.0-2.4","607eaf87ac02229ef4fa8f4a","609a8bf73b2ac84e2732f618","609d7de981b3d32a838de49b","90.67499999946449","","","","77","","","","key","16.600400000007358","960","484.5","","","","","","","","","","","","","","","","","","","",""
"psychophysics","187","438209","0.0-16.0-0.5","607eaf87ac02229ef4fa8f4a","609a8bf73b2ac84e2732f618","609d7de981b3d32a838de49b","null","","","","null","","","","key","16.65372941176448","960","484.5","","","","","","","","","","","","","","","","","","","",""
"psychophysics","188","438716","0.0-16.0-1.5","607eaf87ac02229ef4fa8f4a","609a8bf73b2ac84e2732f618","609d7de981b3d32a838de49b","null","","","","null","","","","key","16.662833333333644","960","484.5","","","","","","","","","","","","","366","1","0","false","","","",""
"psychophysics","189","438925","0.0-16.0-2.5","607eaf87ac02229ef4fa8f4a","609a8bf73b2ac84e2732f618","609d7de981b3d32a838de49b","203.56499999616062","","","","90","","","","key","16.632090909089047","960","484.5","","","","","","","","","","","","","","","","","","","",""
"psychophysics","190","439543","0.0-16.0-0.6","607eaf87ac02229ef4fa8f4a","609a8bf73b2ac84e2732f618","609d7de981b3d32a838de49b","null","","","","null","","","","key","16.6545833333334","960","484.5","","","","","","","","","","","","","","","","","","","",""
"psychophysics","191","440050","0.0-16.0-1.6","607eaf87ac02229ef4fa8f4a","609a8bf73b2ac84e2732f618","609d7de981b3d32a838de49b","null","","","","null","","","","key","16.663400000000063","960","484.5","","","","","","","","","","","","","366","1","4","false","","","",""
"psychophysics","192","443094","0.0-16.0-2.6","607eaf87ac02229ef4fa8f4a","609a8bf73b2ac84e2732f618","609d7de981b3d32a838de49b","3038.8549999988754","","","","90","","","","key","16.653254143646418","960","484.5","","","","","","","","","","","","","","","","","","","",""
"psychophysics","193","443787","0.0-16.0-0.7","607eaf87ac02229ef4fa8f4a","609a8bf73b2ac84e2732f618","609d7de981b3d32a838de49b","null","","","","null","","","","key","16.660512195120667","960","484.5","","","","","","","","","","","","","","","","","","","",""
"psychophysics","194","444297","0.0-16.0-1.7","607eaf87ac02229ef4fa8f4a","609a8bf73b2ac84e2732f618","609d7de981b3d32a838de49b","null","","","","null","","","","key","16.65753333333414","960","484.5","","","","","","","","","","","","","366","1","3","false","","","",""
"psychophysics","195","445298","0.0-16.0-2.7","607eaf87ac02229ef4fa8f4a","609a8bf73b2ac84e2732f618","609d7de981b3d32a838de49b","996.4000000036322","","","","90","","","","key","16.655016949152678","960","484.5","","","","","","","","","","","","","","","","","","","",""
"psychophysics","196","446000","0.0-16.0-0.8","607eaf87ac02229ef4fa8f4a","609a8bf73b2ac84e2732f618","609d7de981b3d32a838de49b","null","","","","null","","","","key","16.65509756097553","960","484.5","","","","","","","","","","","","","","","","","","","",""
"psychophysics","197","446507","0.0-16.0-1.8","607eaf87ac02229ef4fa8f4a","609a8bf73b2ac84e2732f618","609d7de981b3d32a838de49b","null","","","","null","","","","key","16.662413793102164","960","484.5","","","","","","","","","","","","","366","1","6","false","","","",""
"psychophysics","198","446547","0.0-16.0-2.8","607eaf87ac02229ef4fa8f4a","609a8bf73b2ac84e2732f618","609d7de981b3d32a838de49b","29.920000000856817","","","","77","","","","key","16.711000000010245","960","484.5","","","","","","","","","","","","","","","","","","","",""
"psychophysics","199","447496","0.0-16.0-0.9","607eaf87ac02229ef4fa8f4a","609a8bf73b2ac84e2732f618","609d7de981b3d32a838de49b","null","","","","null","","","","key","16.655642857142084","960","484.5","","","","","","","","","","","","","","","","","","","",""
"psychophysics","200","448000","0.0-16.0-1.9","607eaf87ac02229ef4fa8f4a","609a8bf73b2ac84e2732f618","609d7de981b3d32a838de49b","null","","","","null","","","","key","16.654999999999838","960","484.5","","","","","","","","","","","","","366","-1","0","false","","","",""
"psychophysics","201","448178","0.0-16.0-2.9","607eaf87ac02229ef4fa8f4a","609a8bf73b2ac84e2732f618","609d7de981b3d32a838de49b","165.7100000011269","","","","77","","","","key","16.675199999997858","960","484.5","","","","","","","","","","","","","","","","","","","",""
"psychophysics","202","448771","0.0-16.0-0.10","607eaf87ac02229ef4fa8f4a","609a8bf73b2ac84e2732f618","609d7de981b3d32a838de49b","null","","","","null","","","","key","16.655205882352995","960","484.5","","","","","","","","","","","","","","","","","","","",""
"psychophysics","203","449280","0.0-16.0-1.10","607eaf87ac02229ef4fa8f4a","609a8bf73b2ac84e2732f618","609d7de981b3d32a838de49b","null","","","","null","","","","key","16.65779999999989","960","484.5","","","","","","","","","","","","","366","-1","6","false","","","",""
"psychophysics","204","450493","0.0-16.0-2.10","607eaf87ac02229ef4fa8f4a","609a8bf73b2ac84e2732f618","609d7de981b3d32a838de49b","1209.6200000014505","","","","90","","","","key","16.652861111111836","960","484.5","","","","","","","","","","","","","","","","","","","",""
"psychophysics","205","451895","0.0-16.0-0.11","607eaf87ac02229ef4fa8f4a","609a8bf73b2ac84e2732f618","609d7de981b3d32a838de49b","null","","","","null","","","","key","16.654361445782847","960","484.5","","","","","","","","","","","","","","","","","","","",""
"psychophysics","206","452406","0.0-16.0-1.11","607eaf87ac02229ef4fa8f4a","609a8bf73b2ac84e2732f618","609d7de981b3d32a838de49b","null","","","","null","","","","key","16.64780000000028","960","484.5","","","","","","","","","","","","","366","-1","3","false","","","",""
"psychophysics","207","453560","0.0-16.0-2.11","607eaf87ac02229ef4fa8f4a","609a8bf73b2ac84e2732f618","609d7de981b3d32a838de49b","1149.649999999383","","","","90","","","","key","16.654132352941602","960","484.5","","","","","","","","","","","","","","","","","","","",""
"psychophysics","208","455038","0.0-16.0-0.12","607eaf87ac02229ef4fa8f4a","609a8bf73b2ac84e2732f618","609d7de981b3d32a838de49b","null","","","","null","","","","key","16.654215909090865","960","484.5","","","","","","","","","","","","","","","","","","","",""
"psychophysics","209","455542","0.0-16.0-1.12","607eaf87ac02229ef4fa8f4a","609a8bf73b2ac84e2732f618","609d7de981b3d32a838de49b","null","","","","null","","","","key","16.64731034482749","960","484.5","","","","","","","","","","","","","366","1","6","false","","","",""
"psychophysics","210","455775","0.0-16.0-2.12","607eaf87ac02229ef4fa8f4a","609a8bf73b2ac84e2732f618","609d7de981b3d32a838de49b","229.35499999584863","","","","77","","","","key","16.655538461538246","960","484.5","","","","","","","","","","","","","","","","","","","",""
"psychophysics","211","456400","0.0-16.0-0.13","607eaf87ac02229ef4fa8f4a","609a8bf73b2ac84e2732f618","609d7de981b3d32a838de49b","null","","","","null","","","","key","16.661138888889884","960","484.5","","","","","","","","","","","","","","","","","","","",""
"psychophysics","212","456905","0.0-16.0-1.13","607eaf87ac02229ef4fa8f4a","609a8bf73b2ac84e2732f618","609d7de981b3d32a838de49b","null","","","","null","","","","key","16.648933333333115","960","484.5","","","","","","","","","","","","","366","1","2","false","","","",""
"psychophysics","213","457386","0.0-16.0-2.13","607eaf87ac02229ef4fa8f4a","609a8bf73b2ac84e2732f618","609d7de981b3d32a838de49b","476.82999999960884","","","","77","","","","key","16.653678571427008","960","484.5","","","","","","","","","","","","","","","","","","","",""
"psychophysics","214","458152","0.0-16.0-0.14","607eaf87ac02229ef4fa8f4a","609a8bf73b2ac84e2732f618","609d7de981b3d32a838de49b","null","","","","null","","","","key","16.654133333334336","960","484.5","","","","","","","","","","","","","","","","","","","",""
"psychophysics","215","458657","0.0-16.0-1.14","607eaf87ac02229ef4fa8f4a","609a8bf73b2ac84e2732f618","609d7de981b3d32a838de49b","null","","","","null","","","","key","16.651517241380322","960","484.5","","","","","","","","","","","","","366","-1","3","false","","","",""
"psychophysics","216","458690","0.0-16.0-2.14","607eaf87ac02229ef4fa8f4a","609a8bf73b2ac84e2732f618","609d7de981b3d32a838de49b","27.200000004086178","","","","77","","","","key","16.635000000009313","960","484.5","","","","","","","","","","","","","","","","","","","",""
"psychophysics","217","460014","0.0-16.0-0.15","607eaf87ac02229ef4fa8f4a","609a8bf73b2ac84e2732f618","609d7de981b3d32a838de49b","null","","","","null","","","","key","16.65730769230793","960","484.5","","","","","","","","","","","","","","","","","","","",""
"psychophysics","218","460520","0.0-16.0-1.15","607eaf87ac02229ef4fa8f4a","609a8bf73b2ac84e2732f618","609d7de981b3d32a838de49b","null","","","","null","","","","key","16.653266666666603","960","484.5","","","","","","","","","","","","","366","-1","6","false","","","",""
"psychophysics","219","463644","0.0-16.0-2.15","607eaf87ac02229ef4fa8f4a","609a8bf73b2ac84e2732f618","609d7de981b3d32a838de49b","3119.5950000037556","","","","90","","","","key","16.653150537634275","960","484.5","","","","","","","","","","","","","","","","","","","",""
"psychophysics","220","464420","0.0-16.0-0.16","607eaf87ac02229ef4fa8f4a","609a8bf73b2ac84e2732f618","609d7de981b3d32a838de49b","null","","","","null","","","","key","16.652934782609403","960","484.5","","","","","","","","","","","","","","","","","","","",""
"psychophysics","221","464923","0.0-16.0-1.16","607eaf87ac02229ef4fa8f4a","609a8bf73b2ac84e2732f618","609d7de981b3d32a838de49b","null","","","","null","","","","key","16.65741379310353","960","484.5","","","","","","","","","","","","","366","-1","4","false","","","",""
"psychophysics","222","464997","0.0-16.0-2.16","607eaf87ac02229ef4fa8f4a","609a8bf73b2ac84e2732f618","609d7de981b3d32a838de49b","63.26499999704538","","","","77","","","","key","16.648749999993015","960","484.5","","","","","","","","","","","","","","","","","","","",""
"psychophysics","223","466262","0.0-16.0-0.17","607eaf87ac02229ef4fa8f4a","609a8bf73b2ac84e2732f618","609d7de981b3d32a838de49b","null","","","","null","","","","key","16.656213333332754","960","484.5","","","","","","","","","","","","","","","","","","","",""
"psychophysics","224","466766","0.0-16.0-1.17","607eaf87ac02229ef4fa8f4a","609a8bf73b2ac84e2732f618","609d7de981b3d32a838de49b","null","","","","null","","","","key","16.670827586207828","960","484.5","","","","","","","","","","","","","366","1","0","false","","","",""
"psychophysics","225","471832","0.0-16.0-2.17","607eaf87ac02229ef4fa8f4a","609a8bf73b2ac84e2732f618","609d7de981b3d32a838de49b","5062.409999998636","","","","90","","","","key","16.65330033003285","960","484.5","","","","","","","","","","","","","","","","","","","",""
"psychophysics","226","472423","0.0-16.0-0.18","607eaf87ac02229ef4fa8f4a","609a8bf73b2ac84e2732f618","609d7de981b3d32a838de49b","null","","","","null","","","","key","16.656885714285142","960","484.5","","","","","","","","","","","","","","","","","","","",""
"psychophysics","227","472930","0.0-16.0-1.18","607eaf87ac02229ef4fa8f4a","609a8bf73b2ac84e2732f618","609d7de981b3d32a838de49b","null","","","","null","","","","key","16.64631034482616","960","484.5","","","","","","","","","","","","","366","-1","0","false","","","",""
"psychophysics","228","473076","0.0-16.0-2.18","607eaf87ac02229ef4fa8f4a","609a8bf73b2ac84e2732f618","609d7de981b3d32a838de49b","117.13500000041677","","","","77","","","","key","16.647499999999127","960","484.5","","","","","","","","","","","","","","","","","","","",""
"psychophysics","229","474130","0.0-16.0-0.19","607eaf87ac02229ef4fa8f4a","609a8bf73b2ac84e2732f618","609d7de981b3d32a838de49b","null","","","","null","","","","key","16.652370967741703","960","484.5","","","","","","","","","","","","","","","","","","","",""
"psychophysics","230","474640","0.0-16.0-1.19","607eaf87ac02229ef4fa8f4a","609a8bf73b2ac84e2732f618","609d7de981b3d32a838de49b","null","","","","null","","","","key","16.664499999999922","960","484.5","","","","","","","","","","","","","366","-1","2","false","","","",""
"psychophysics","231","474697","0.0-16.0-2.19","607eaf87ac02229ef4fa8f4a","609a8bf73b2ac84e2732f618","609d7de981b3d32a838de49b","53.449999999429565","","","","77","","","","key","16.58300000001327","960","484.5","","","","","","","","","","","","","","","","","","","",""
"psychophysics","232","475687","0.0-16.0-0.20","607eaf87ac02229ef4fa8f4a","609a8bf73b2ac84e2732f618","609d7de981b3d32a838de49b","null","","","","null","","","","key","16.657966101695035","960","484.5","","","","","","","","","","","","","","","","","","","",""
"psychophysics","233","476192","0.0-16.0-1.20","607eaf87ac02229ef4fa8f4a","609a8bf73b2ac84e2732f618","609d7de981b3d32a838de49b","null","","","","null","","","","key","16.649551724137915","960","484.5","","","","","","","","","","","","","366","1","3","false","","","",""
"psychophysics","234","476343","0.0-16.0-2.20","607eaf87ac02229ef4fa8f4a","609a8bf73b2ac84e2732f618","609d7de981b3d32a838de49b","146.62500000122236","","","","77","","","","key","16.6661249999961","960","484.5","","","","","","","","","","","","","","","","","","","",""
"psychophysics","235","476925","0.0-16.0-0.21","607eaf87ac02229ef4fa8f4a","609a8bf73b2ac84e2732f618","609d7de981b3d32a838de49b","null","","","","null","","","","key","16.6547941176481","960","484.5","","","","","","","","","","","","","","","","","","","",""
"psychophysics","236","477429","0.0-16.0-1.21","607eaf87ac02229ef4fa8f4a","609a8bf73b2ac84e2732f618","609d7de981b3d32a838de49b","null","","","","null","","","","key","16.6640689655183","960","484.5","","","","","","","","","","","","","366","1","5","false","","","",""
"psychophysics","237","479541","0.0-16.0-2.21","607eaf87ac02229ef4fa8f4a","609a8bf73b2ac84e2732f618","609d7de981b3d32a838de49b","2101.0200000018813","","","","90","","","","key","16.653825396825265","960","484.5","","","","","","","","","","","","","","","","","","","",""
"psychophysics","238","480366","0.0-16.0-0.22","607eaf87ac02229ef4fa8f4a","609a8bf73b2ac84e2732f618","609d7de981b3d32a838de49b","null","","","","null","","","","key","16.65610204081583","960","484.5","","","","","","","","","","","","","","","","","","","",""
"psychophysics","239","480872","0.0-16.0-1.22","607eaf87ac02229ef4fa8f4a","609a8bf73b2ac84e2732f618","609d7de981b3d32a838de49b","null","","","","null","","","","key","16.64762068965376","960","484.5","","","","","","","","","","","","","366","1","4","false","","","",""
"psychophysics","240","483339","0.0-16.0-2.22","607eaf87ac02229ef4fa8f4a","609a8bf73b2ac84e2732f618","609d7de981b3d32a838de49b","2462.5949999972363","","","","90","","","","key","16.654204081632688","960","484.5","","","","","","","","","","","","","","","","","","","",""
"psychophysics","241","484613","0.0-16.0-0.23","607eaf87ac02229ef4fa8f4a","609a8bf73b2ac84e2732f618","609d7de981b3d32a838de49b","null","","","","null","","","","key","16.65418421052623","960","484.5","","","","","","","","","","","","","","","","","","","",""
"psychophysics","242","485119","0.0-16.0-1.23","607eaf87ac02229ef4fa8f4a","609a8bf73b2ac84e2732f618","609d7de981b3d32a838de49b","null","","","","null","","","","key","16.649896551724442","960","484.5","","","","","","","","","","","","","366","-1","5","false","","","",""
"psychophysics","243","485137","0.0-16.0-2.23","607eaf87ac02229ef4fa8f4a","609a8bf73b2ac84e2732f618","609d7de981b3d32a838de49b","14.299999995273538","","","","77","","","","key","NaN","960","484.5","","","","","","","","","","","","","","","","","","","",""
"html-keyboard-response","244","502213","0.0-17.0","607eaf87ac02229ef4fa8f4a","609a8bf73b2ac84e2732f618","609d7de981b3d32a838de49b","17074.16500000545","<p>Well Done !</p><p>Training Complete. Press the spacebar to start.</p><p>DON'T EXIT THE FULL SCREEN MODE</p>","","","32","","","","","","","","","","","","","","","","","","","","","","","","","","",""
"psychophysics","245","505415","0.0-18.0-0.0","607eaf87ac02229ef4fa8f4a","609a8bf73b2ac84e2732f618","609d7de981b3d32a838de49b","null","","","","null","","","","key","16.653069444443744","960","484.5","","","","","","","","","","","","","","","","","","","",""
"psychophysics","246","505922","0.0-18.0-1.0","607eaf87ac02229ef4fa8f4a","609a8bf73b2ac84e2732f618","609d7de981b3d32a838de49b","null","","","","null","","","","key","16.65010344827596","960","484.5","","","","","","","","","","","","","366","-1","3","true","","","",""
"psychophysics","247","509773","0.0-18.0-2.0","607eaf87ac02229ef4fa8f4a","609a8bf73b2ac84e2732f618","609d7de981b3d32a838de49b","3842.8899999998976","","","","90","","","","key","16.65302597402592","960","484.5","","","","","","","","","","","","","","","","","","","",""
"psychophysics","248","510630","0.0-18.0-0.1","607eaf87ac02229ef4fa8f4a","609a8bf73b2ac84e2732f618","609d7de981b3d32a838de49b","null","","","","null","","","","key","16.658619999999647","960","484.5","","","","","","","","","","","","","","","","","","","",""
"psychophysics","249","511141","0.0-18.0-1.1","607eaf87ac02229ef4fa8f4a","609a8bf73b2ac84e2732f618","609d7de981b3d32a838de49b","null","","","","null","","","","key","16.66440000000099","960","484.5","","","","","","","","","","","","","366","-1","6","true","","","",""
"psychophysics","250","513060","0.0-18.0-2.1","607eaf87ac02229ef4fa8f4a","609a8bf73b2ac84e2732f618","609d7de981b3d32a838de49b","1913.4500000000116","","","","90","","","","key","16.65191228070149","960","484.5","","","","","","","","","","","","","","","","","","","",""
"psychophysics","251","513772","0.0-18.0-0.2","607eaf87ac02229ef4fa8f4a","609a8bf73b2ac84e2732f618","609d7de981b3d32a838de49b","null","","","","null","","","","key","16.646380952380632","960","484.5","","","","","","","","","","","","","","","","","","","",""
"psychophysics","252","514276","0.0-18.0-1.2","607eaf87ac02229ef4fa8f4a","609a8bf73b2ac84e2732f618","609d7de981b3d32a838de49b","null","","","","null","","","","key","16.652448275863144","960","484.5","","","","","","","","","","","","","366","1","6","true","","","",""
"psychophysics","253","514294","0.0-18.0-2.2","607eaf87ac02229ef4fa8f4a","609a8bf73b2ac84e2732f618","609d7de981b3d32a838de49b","13.874999996914994","","","","77","","","","key","NaN","960","484.5","","","","","","","","","","","","","","","","","","","",""
"psychophysics","254","514948","0.0-18.0-0.3","607eaf87ac02229ef4fa8f4a","609a8bf73b2ac84e2732f618","609d7de981b3d32a838de49b","null","","","","null","","","","key","16.660315789473795","960","484.5","","","","","","","","","","","","","","","","","","","",""
"psychophysics","255","515454","0.0-18.0-1.3","607eaf87ac02229ef4fa8f4a","609a8bf73b2ac84e2732f618","609d7de981b3d32a838de49b","null","","","","null","","","","key","16.660799999998805","960","484.5","","","","","","","","","","","","","366","1","2","true","","","",""
"psychophysics","256","517995","0.0-18.0-2.3","607eaf87ac02229ef4fa8f4a","609a8bf73b2ac84e2732f618","609d7de981b3d32a838de49b","2535.9299999981886","","","","90","","","","key","16.764266666666373","960","484.5","","","","","","","","","","","","","","","","","","","",""
"psychophysics","257","519287","0.0-18.0-0.4","607eaf87ac02229ef4fa8f4a","609a8bf73b2ac84e2732f618","609d7de981b3d32a838de49b","null","","","","null","","","","key","16.6558831168827","960","484.5","","","","","","","","","","","","","","","","","","","",""
"psychophysics","258","519792","0.0-18.0-1.4","607eaf87ac02229ef4fa8f4a","609a8bf73b2ac84e2732f618","609d7de981b3d32a838de49b","null","","","","null","","","","key","16.654689655171563","960","484.5","","","","","","","","","","","","","366","-1","2","true","","","",""
"psychophysics","259","519907","0.0-18.0-2.4","607eaf87ac02229ef4fa8f4a","609a8bf73b2ac84e2732f618","609d7de981b3d32a838de49b","103.4799999979441","","","","77","","","","key","16.691166666666202","960","484.5","","","","","","","","","","","","","","","","","","","",""
"psychophysics","260","520958","0.0-18.0-0.5","607eaf87ac02229ef4fa8f4a","609a8bf73b2ac84e2732f618","609d7de981b3d32a838de49b","null","","","","null","","","","key","16.65738709677375","960","484.5","","","","","","","","","","","","","","","","","","","",""
"psychophysics","261","521467","0.0-18.0-1.5","607eaf87ac02229ef4fa8f4a","609a8bf73b2ac84e2732f618","609d7de981b3d32a838de49b","null","","","","null","","","","key","16.66076666666583","960","484.5","","","","","","","","","","","","","366","1","0","true","","","",""
"psychophysics","262","521598","0.0-18.0-2.5","607eaf87ac02229ef4fa8f4a","609a8bf73b2ac84e2732f618","609d7de981b3d32a838de49b","127.43500000215136","","","","77","","","","key","16.646142857140926","960","484.5","","","","","","","","","","","","","","","","","","","",""
"psychophysics","263","522242","0.0-18.0-0.6","607eaf87ac02229ef4fa8f4a","609a8bf73b2ac84e2732f618","609d7de981b3d32a838de49b","null","","","","null","","","","key","16.658378378378","960","484.5","","","","","","","","","","","","","","","","","","","",""
"psychophysics","264","522750","0.0-18.0-1.6","607eaf87ac02229ef4fa8f4a","609a8bf73b2ac84e2732f618","609d7de981b3d32a838de49b","null","","","","null","","","","key","16.652533333333363","960","484.5","","","","","","","","","","","","","366","1","3","true","","","",""
"psychophysics","265","522769","0.0-18.0-2.6","607eaf87ac02229ef4fa8f4a","609a8bf73b2ac84e2732f618","609d7de981b3d32a838de49b","13.310000002093147","","","","77","","","","key","NaN","960","484.5","","","","","","","","","","","","","","","","","","","",""
"psychophysics","266","523820","0.0-18.0-0.7","607eaf87ac02229ef4fa8f4a","609a8bf73b2ac84e2732f618","609d7de981b3d32a838de49b","null","","","","null","","","","key","16.653483870968735","960","484.5","","","","","","","","","","","","","","","","","","","",""
"psychophysics","267","524330","0.0-18.0-1.7","607eaf87ac02229ef4fa8f4a","609a8bf73b2ac84e2732f618","609d7de981b3d32a838de49b","null","","","","null","","","","key","16.652700000000188","960","484.5","","","","","","","","","","","","","366","1","4","true","","","",""
"psychophysics","268","526354","0.0-18.0-2.7","607eaf87ac02229ef4fa8f4a","609a8bf73b2ac84e2732f618","609d7de981b3d32a838de49b","2018.1699999957345","","","","90","","","","key","16.652957983192707","960","484.5","","","","","","","","","","","","","","","","","","","",""
"psychophysics","269","527096","0.0-18.0-0.8","607eaf87ac02229ef4fa8f4a","609a8bf73b2ac84e2732f618","609d7de981b3d32a838de49b","null","","","","null","","","","key","16.65422222222098","960","484.5","","","","","","","","","","","","","","","","","","","",""
"psychophysics","270","527602","0.0-18.0-1.8","607eaf87ac02229ef4fa8f4a","609a8bf73b2ac84e2732f618","609d7de981b3d32a838de49b","null","","","","null","","","","key","16.662413793102164","960","484.5","","","","","","","","","","","","","366","-1","0","true","","","",""
"psychophysics","271","527852","0.0-18.0-2.8","607eaf87ac02229ef4fa8f4a","609a8bf73b2ac84e2732f618","609d7de981b3d32a838de49b","236.79499999713153","","","","77","","","","key","16.648642857143255","960","484.5","","","","","","","","","","","","","","","","","","","",""
"psychophysics","272","529313","0.0-18.0-0.9","607eaf87ac02229ef4fa8f4a","609a8bf73b2ac84e2732f618","609d7de981b3d32a838de49b","null","","","","null","","","","key","16.656057471264923","960","484.5","","","","","","","","","","","","","","","","","","","",""
"psychophysics","273","529819","0.0-18.0-1.9","607eaf87ac02229ef4fa8f4a","609a8bf73b2ac84e2732f618","609d7de981b3d32a838de49b","null","","","","null","","","","key","16.656413793102196","960","484.5","","","","","","","","","","","","","366","-1","5","true","","","",""
"psychophysics","274","529965","0.0-18.0-2.9","607eaf87ac02229ef4fa8f4a","609a8bf73b2ac84e2732f618","609d7de981b3d32a838de49b","134.43500000005588","","","","77","","","","key","16.64962500000547","960","484.5","","","","","","","","","","","","","","","","","","","",""
"psychophysics","275","530840","0.0-18.0-0.10","607eaf87ac02229ef4fa8f4a","609a8bf73b2ac84e2732f618","609d7de981b3d32a838de49b","null","","","","null","","","","key","16.655960784314257","960","484.5","","","","","","","","","","","","","","","","","","","",""
"psychophysics","276","531345","0.0-18.0-1.10","607eaf87ac02229ef4fa8f4a","609a8bf73b2ac84e2732f618","609d7de981b3d32a838de49b","null","","","","null","","","","key","16.653566666669214","960","484.5","","","","","","","","","","","","","366","1","5","true","","","",""
"psychophysics","277","534396","0.0-18.0-2.10","607eaf87ac02229ef4fa8f4a","609a8bf73b2ac84e2732f618","609d7de981b3d32a838de49b","3047.1500000057276","","","","90","","","","key","16.653098901099227","960","484.5","","","","","","","","","","","","","","","","","","","",""
"psychophysics","278","535205","0.0-18.0-0.11","607eaf87ac02229ef4fa8f4a","609a8bf73b2ac84e2732f618","609d7de981b3d32a838de49b","null","","","","null","","","","key","16.657145833332226","960","484.5","","","","","","","","","","","","","","","","","","","",""
"psychophysics","279","535710","0.0-18.0-1.11","607eaf87ac02229ef4fa8f4a","609a8bf73b2ac84e2732f618","609d7de981b3d32a838de49b","null","","","","null","","","","key","16.655896551726418","960","484.5","","","","","","","","","","","","","366","-1","4","true","","","",""
"psychophysics","280","538450","0.0-18.0-2.11","607eaf87ac02229ef4fa8f4a","609a8bf73b2ac84e2732f618","609d7de981b3d32a838de49b","2731.5250000028173","","","","90","","","","key","16.75714814814848","960","484.5","","","","","","","","","","","","","","","","","","","",""
"psychophysics","281","539158","0.0-18.0-0.12","607eaf87ac02229ef4fa8f4a","609a8bf73b2ac84e2732f618","609d7de981b3d32a838de49b","null","","","","null","","","","key","16.652238095237408","960","484.5","","","","","","","","","","","","","","","","","","","",""
"psychophysics","282","539668","0.0-18.0-1.12","607eaf87ac02229ef4fa8f4a","609a8bf73b2ac84e2732f618","609d7de981b3d32a838de49b","null","","","","null","","","","key","16.654633333332217","960","484.5","","","","","","","","","","","","","366","-1","4","true","","","",""
"psychophysics","283","542101","0.0-18.0-2.12","607eaf87ac02229ef4fa8f4a","609a8bf73b2ac84e2732f618","609d7de981b3d32a838de49b","2429.759999999078","","","","90","","","","key","16.652503448275947","960","484.5","","","","","","","","","","","","","","","","","","","",""
"psychophysics","284","542900","0.0-18.0-0.13","607eaf87ac02229ef4fa8f4a","609a8bf73b2ac84e2732f618","609d7de981b3d32a838de49b","null","","","","null","","","","key","16.651446808510993","960","484.5","","","","","","","","","","","","","","","","","","","",""
"psychophysics","285","543404","0.0-18.0-1.13","607eaf87ac02229ef4fa8f4a","609a8bf73b2ac84e2732f618","609d7de981b3d32a838de49b","null","","","","null","","","","key","16.648620689653086","960","484.5","","","","","","","","","","","","","366","1","3","true","","","",""
"psychophysics","286","545982","0.0-18.0-2.13","607eaf87ac02229ef4fa8f4a","609a8bf73b2ac84e2732f618","609d7de981b3d32a838de49b","2573.949999998091","","","","90","","","","key","16.652883116883082","960","484.5","","","","","","","","","","","","","","","","","","","",""
"psychophysics","287","547262","0.0-18.0-0.14","607eaf87ac02229ef4fa8f4a","609a8bf73b2ac84e2732f618","609d7de981b3d32a838de49b","null","","","","null","","","","key","16.650947368421935","960","484.5","","","","","","","","","","","","","","","","","","","",""
"psychophysics","288","547768","0.0-18.0-1.14","607eaf87ac02229ef4fa8f4a","609a8bf73b2ac84e2732f618","609d7de981b3d32a838de49b","null","","","","null","","","","key","16.655068965516342","960","484.5","","","","","","","","","","","","","366","-1","2","true","","","",""
"psychophysics","289","550645","0.0-18.0-2.14","607eaf87ac02229ef4fa8f4a","609a8bf73b2ac84e2732f618","609d7de981b3d32a838de49b","2859.434999998426","","","","90","","","","key","16.65312209302359","960","484.5","","","","","","","","","","","","","","","","","","","",""
"psychophysics","290","551765","0.0-18.0-0.15","607eaf87ac02229ef4fa8f4a","609a8bf73b2ac84e2732f618","609d7de981b3d32a838de49b","null","","","","null","","","","key","16.649348484849643","960","484.5","","","","","","","","","","","","","","","","","","","",""
"psychophysics","291","552274","0.0-18.0-1.15","607eaf87ac02229ef4fa8f4a","609a8bf73b2ac84e2732f618","609d7de981b3d32a838de49b","null","","","","null","","","","key","16.650500000000466","960","484.5","","","","","","","","","","","","","366","1","2","true","","","",""
"psychophysics","292","553047","0.0-18.0-2.15","607eaf87ac02229ef4fa8f4a","609a8bf73b2ac84e2732f618","609d7de981b3d32a838de49b","768.2350000031292","","","","77","","","","key","18.276365853658675","960","484.5","","","","","","","","","","","","","","","","","","","",""
"psychophysics","293","554492","0.0-18.0-0.16","607eaf87ac02229ef4fa8f4a","609a8bf73b2ac84e2732f618","609d7de981b3d32a838de49b","null","","","","null","","","","key","16.65568604651124","960","484.5","","","","","","","","","","","","","","","","","","","",""
"psychophysics","294","555000","0.0-18.0-1.16","607eaf87ac02229ef4fa8f4a","609a8bf73b2ac84e2732f618","609d7de981b3d32a838de49b","null","","","","null","","","","key","16.652344827584376","960","484.5","","","","","","","","","","","","","366","-1","3","true","","","",""
"psychophysics","295","557099","0.0-18.0-2.16","607eaf87ac02229ef4fa8f4a","609a8bf73b2ac84e2732f618","609d7de981b3d32a838de49b","2082.95999999973","","","","90","","","","key","16.651895999999716","960","484.5","","","","","","","","","","","","","","","","","","","",""
"psychophysics","296","558544","0.0-18.0-0.17","607eaf87ac02229ef4fa8f4a","609a8bf73b2ac84e2732f618","609d7de981b3d32a838de49b","null","","","","null","","","","key","16.652965116279393","960","484.5","","","","","","","","","","","","","","","","","","","",""
"psychophysics","297","559055","0.0-18.0-1.17","607eaf87ac02229ef4fa8f4a","609a8bf73b2ac84e2732f618","609d7de981b3d32a838de49b","null","","","","null","","","","key","16.653266666666603","960","484.5","","","","","","","","","","","","","366","1","5","true","","","",""
"psychophysics","298","561837","0.0-18.0-2.17","607eaf87ac02229ef4fa8f4a","609a8bf73b2ac84e2732f618","609d7de981b3d32a838de49b","2778.8099999960978","","","","90","","","","key","16.651765060240784","960","484.5","","","","","","","","","","","","","","","","","","","",""
"psychophysics","299","562482","0.0-18.0-0.18","607eaf87ac02229ef4fa8f4a","609a8bf73b2ac84e2732f618","609d7de981b3d32a838de49b","null","","","","null","","","","key","16.652657894739317","960","484.5","","","","","","","","","","","","","","","","","","","",""
"psychophysics","300","562988","0.0-18.0-1.18","607eaf87ac02229ef4fa8f4a","609a8bf73b2ac84e2732f618","609d7de981b3d32a838de49b","null","","","","null","","","","key","16.64524137930832","960","484.5","","","","","","","","","","","","","366","1","6","true","","","",""
"psychophysics","301","563035","0.0-18.0-2.18","607eaf87ac02229ef4fa8f4a","609a8bf73b2ac84e2732f618","609d7de981b3d32a838de49b","34.2049999962328","","","","77","","","","key","16.70100000000093","960","484.5","","","","","","","","","","","","","","","","","","","",""
"psychophysics","302","564269","0.0-18.0-0.19","607eaf87ac02229ef4fa8f4a","609a8bf73b2ac84e2732f618","609d7de981b3d32a838de49b","null","","","","null","","","","key","16.651191780820476","960","484.5","","","","","","","","","","","","","","","","","","","",""
"psychophysics","303","564772","0.0-18.0-1.19","607eaf87ac02229ef4fa8f4a","609a8bf73b2ac84e2732f618","609d7de981b3d32a838de49b","null","","","","null","","","","key","16.65934482758367","960","484.5","","","","","","","","","","","","","366","1","0","true","","","",""
"psychophysics","304","564820","0.0-18.0-2.19","607eaf87ac02229ef4fa8f4a","609a8bf73b2ac84e2732f618","609d7de981b3d32a838de49b","34.83499999856576","","","","77","","","","key","16.650999999954365","960","484.5","","","","","","","","","","","","","","","","","","","",""
"psychophysics","305","565597","0.0-18.0-0.20","607eaf87ac02229ef4fa8f4a","609a8bf73b2ac84e2732f618","609d7de981b3d32a838de49b","null","","","","null","","","","key","16.6550000000001","960","484.5","","","","","","","","","","","","","","","","","","","",""
"psychophysics","306","566101","0.0-18.0-1.20","607eaf87ac02229ef4fa8f4a","609a8bf73b2ac84e2732f618","609d7de981b3d32a838de49b","null","","","","null","","","","key","16.654793103446316","960","484.5","","","","","","","","","","","","","366","-1","6","true","","","",""
"psychophysics","307","566118","0.0-18.0-2.20","607eaf87ac02229ef4fa8f4a","609a8bf73b2ac84e2732f618","609d7de981b3d32a838de49b","14.089999996940605","","","","77","","","","key","NaN","960","484.5","","","","","","","","","","","","","","","","","","","",""
"psychophysics","308","567412","0.0-18.0-0.21","607eaf87ac02229ef4fa8f4a","609a8bf73b2ac84e2732f618","609d7de981b3d32a838de49b","null","","","","null","","","","key","16.87303947368453","960","484.5","","","","","","","","","","","","","","","","","","","",""
"psychophysics","309","567916","0.0-18.0-1.21","607eaf87ac02229ef4fa8f4a","609a8bf73b2ac84e2732f618","609d7de981b3d32a838de49b","null","","","","null","","","","key","16.647448275860494","960","484.5","","","","","","","","","","","","","366","-1","0","true","","","",""
"psychophysics","310","570092","0.0-18.0-2.21","607eaf87ac02229ef4fa8f4a","609a8bf73b2ac84e2732f618","609d7de981b3d32a838de49b","2171.765000006417","","","","90","","","","key","16.654372093023177","960","484.5","","","","","","","","","","","","","","","","","","","",""
"psychophysics","311","571176","0.0-18.0-0.22","607eaf87ac02229ef4fa8f4a","609a8bf73b2ac84e2732f618","609d7de981b3d32a838de49b","null","","","","null","","","","key","16.65343076923074","960","484.5","","","","","","","","","","","","","","","","","","","",""
"psychophysics","312","571682","0.0-18.0-1.22","607eaf87ac02229ef4fa8f4a","609a8bf73b2ac84e2732f618","609d7de981b3d32a838de49b","null","","","","null","","","","key","16.65103448275878","960","484.5","","","","","","","","","","","","","366","-1","5","true","","","",""
"psychophysics","313","575339","0.0-18.0-2.22","607eaf87ac02229ef4fa8f4a","609a8bf73b2ac84e2732f618","609d7de981b3d32a838de49b","3643.724999994505","","","","77","","","","key","16.652880733944862","960","484.5","","","","","","","","","","","","","","","","","","","",""
"psychophysics","314","576375","0.0-18.0-0.23","607eaf87ac02229ef4fa8f4a","609a8bf73b2ac84e2732f618","609d7de981b3d32a838de49b","null","","","","null","","","","key","16.653580645161245","960","484.5","","","","","","","","","","","","","","","","","","","",""
"psychophysics","315","576889","0.0-18.0-1.23","607eaf87ac02229ef4fa8f4a","609a8bf73b2ac84e2732f618","609d7de981b3d32a838de49b","null","","","","null","","","","key","16.655933333331873","960","484.5","","","","","","","","","","","","","366","1","4","true","","","",""
"psychophysics","316","579531","0.0-18.0-2.23","607eaf87ac02229ef4fa8f4a","609a8bf73b2ac84e2732f618","609d7de981b3d32a838de49b","2635.155000003637","","","","90","","","","key","16.75980769230787","960","484.5","","","","","","","","","","","","","","","","","","","",""
"psychophysics","317","580476","0.0-18.0-0.24","607eaf87ac02229ef4fa8f4a","609a8bf73b2ac84e2732f618","609d7de981b3d32a838de49b","null","","","","null","","","","key","16.65519642857128","960","484.5","","","","","","","","","","","","","","","","","","","",""
"psychophysics","318","580985","0.0-18.0-1.24","607eaf87ac02229ef4fa8f4a","609a8bf73b2ac84e2732f618","609d7de981b3d32a838de49b","null","","","","null","","","","key","16.661533333333985","960","484.5","","","","","","","","","","","","","366","-1","6","true","","","",""
"psychophysics","319","583515","0.0-18.0-2.24","607eaf87ac02229ef4fa8f4a","609a8bf73b2ac84e2732f618","609d7de981b3d32a838de49b","2526.8550000037067","","","","90","","","","key","16.651726666666413","960","484.5","","","","","","","","","","","","","","","","","","","",""
"psychophysics","320","584689","0.0-18.0-0.25","607eaf87ac02229ef4fa8f4a","609a8bf73b2ac84e2732f618","609d7de981b3d32a838de49b","null","","","","null","","","","key","16.65180000000068","960","484.5","","","","","","","","","","","","","","","","","","","",""
"psychophysics","321","585199","0.0-18.0-1.25","607eaf87ac02229ef4fa8f4a","609a8bf73b2ac84e2732f618","609d7de981b3d32a838de49b","null","","","","null","","","","key","16.65469999999817","960","484.5","","","","","","","","","","","","","366","1","0","true","","","",""
"psychophysics","322","586795","0.0-18.0-2.25","607eaf87ac02229ef4fa8f4a","609a8bf73b2ac84e2732f618","609d7de981b3d32a838de49b","1592.6699999981793","","","","77","","","","key","16.652510638297983","960","484.5","","","","","","","","","","","","","","","","","","","",""
"psychophysics","323","588094","0.0-18.0-0.26","607eaf87ac02229ef4fa8f4a","609a8bf73b2ac84e2732f618","609d7de981b3d32a838de49b","null","","","","null","","","","key","16.652871794871782","960","484.5","","","","","","","","","","","","","","","","","","","",""
"psychophysics","324","588598","0.0-18.0-1.26","607eaf87ac02229ef4fa8f4a","609a8bf73b2ac84e2732f618","609d7de981b3d32a838de49b","null","","","","null","","","","key","16.65020689655272","960","484.5","","","","","","","","","","","","","366","1","6","true","","","",""
"psychophysics","325","590223","0.0-18.0-2.26","607eaf87ac02229ef4fa8f4a","609a8bf73b2ac84e2732f618","609d7de981b3d32a838de49b","1618.1649999998044","","","","77","","","","key","16.650406250000135","960","484.5","","","","","","","","","","","","","","","","","","","",""
"psychophysics","326","591393","0.0-18.0-0.27","607eaf87ac02229ef4fa8f4a","609a8bf73b2ac84e2732f618","609d7de981b3d32a838de49b","null","","","","null","","","","key","16.653971428572135","960","484.5","","","","","","","","","","","","","","","","","","","",""
"psychophysics","327","591899","0.0-18.0-1.27","607eaf87ac02229ef4fa8f4a","609a8bf73b2ac84e2732f618","609d7de981b3d32a838de49b","null","","","","null","","","","key","16.652586206898157","960","484.5","","","","","","","","","","","","","366","1","2","true","","","",""
"psychophysics","328","591927","0.0-18.0-2.27","607eaf87ac02229ef4fa8f4a","609a8bf73b2ac84e2732f618","609d7de981b3d32a838de49b","15.774999999790452","","","","77","","","","key","16.679999999934807","960","484.5","","","","","","","","","","","","","","","","","","","",""
