"trial_type","trial_index","time_elapsed","internal_node_id","PROLIFIC_PID","STUDY_ID","SESSION_ID","rt","stimulus","button_pressed","success","key_press","responses","isData","view_history","response_type","avg_frame_time","center_x","center_y","isSC","stim_side","trial_luminance","step_size","nReversal","correct","prev_ans","isThreshold","SC_threshold","final_threshold","isLuminance","FF_luminance","luminance","stimSide","ISInt","isFF","question_order","isSPQ","isCAPS","isAQ"
"pavlovia","0","25","0.0-0.0","5d51a96b5054110015905fd9","609a8bf73b2ac84e2732f618","609d7e9f91fc7be0896339ad","","","","","","","","","","","","","","","","","","","","","","","","","","","","","","","",""
"html-button-response","1","93477","0.0-1.0","5d51a96b5054110015905fd9","609a8bf73b2ac84e2732f618","609d7e9f91fc7be0896339ad","93443.69999994524","<div style='background-color: white; width:60%; margin: auto; padding: 50px; text-align: justify; text-justify: inter-word; margin-bottom: 20px;'><h1 style='text-align: center;'>Consent Form</h1><p>Please read this consent form carefully before deciding whether you would like to participate in this study. You have to be 18 years old or older to participate to this study.</p><p style='text-decoration: underline;'>Participation is voluntary:</p><p>It is your choice whether or not to participate in this research. If you choose to participate, you may change your mind and leave the study at any time. Refusal to participate or stopping your participation will involve no penalty or loss of benefits to which you are otherwise entitled.</p><p style='text-decoration: underline;'>Purpose of the Study:</p><p>To understand the mechanisms underlying human perception.</p><p style='text-decoration: underline;'>What you will do in this study:</p><p>You will be presented with a series of visual images and then you will press buttons on the keyboard of your computer to respond to simple questions about the images (e.g. Were one or two images presented?). In addition, you will be asked to complete a questionnaire concerning your beliefs and everyday mental and perceptual experiences.'</p><p style='text-decoration: underline;'> Time Required:</p><p>The study will take 40 minutes to complete. </p><p style='text-decoration: underline;'>Risks:</p><p>There are no anticipated risks associated with participating in this study that are beyond those experienced in everyday life. </p><p style='text-decoration: underline;'>Benefits:</p><p>There are no benefits to you in participating in the study. However, this study may lead to a better understanding of how different kinds of visual information are used.</p><p style='text-decoration: underline;'>Compensation:</p><p>You will be paid US$6.6/hour. </p><p style='text-decoration: underline;'>Privacy and Confidentiality:</p><p>Your participation in this study will be anonymous. No personal information about your name or identity will be asked or recorded. This anonymous data will be stored for several years and may be used for a variety of research purposes. The overall results of the study may be published, or the data files may be shared with other researchers, but your identity will not be revealed in any way. The online services we are using for this study may temporarily store your data, but this data will be downloaded and then promptly deleted from those services.Your data will not be permanently associated with your name, IP address, or any other identifiable information (e.g., your information will only be connected to your payment, not to any of your responses), though they may be temporarily stored together before we download and separate them. Even so, no guarantee of internet survey security can be given because, although unlikely, transmissions can be intercepted and IP addresses can be identified. The anonymous data may be shared publicly (for example, in conjunction with a resulting academic publication).</p><p style='text-decoration: underline;'>Participation and Withdrawal:</p><p>Your participation in this study is completely voluntary. You may stop responding to the stimuli or stop answering questions if you so choose and without penalty by exiting the full screen mode, closing this tab of your browser or redirecting it to a different website.</p><p style='text-decoration: underline;'>Contact Info of the Researcher: </p><p>If you have questions about this study, or if you would like to talk to the research team, please contact David Melcher (david.melcher@nyu.edu, md5050@nyu.edu) at the Perception and Active Cognition Laboratory, New York University Abu Dhabi, Computational Research Building, Saadiyat Island, Abu Dhabi, UAE.This research has been reviewed by the New York University Abu Dhabi Institutional Review Board (NYUAD IRB). To contact about your rights in this research, for questions, suggestions, or complaints that are not addressed by the researchers, please email IRBnyuad@nyu.edu, or call the NYUAD IRB at +971 2 628 4313. </p></div>","0","","","","","","","","","","","","","","","","","","","","","","","","","","","","",""
"fullscreen","2","104324","0.0-2.0","5d51a96b5054110015905fd9","609a8bf73b2ac84e2732f618","609d7e9f91fc7be0896339ad","","","","true","","","","","","","","","","","","","","","","","","","","","","","","","","","",""
"html-keyboard-response","3","136657","0.0-3.0","5d51a96b5054110015905fd9","609a8bf73b2ac84e2732f618","609d7e9f91fc7be0896339ad","32329.674999928102","<p>Welcome !</p><p>READ CAREFULLY THE FOLLOWING INDICATIONS:</p><p>From this moment you have ~40 minutes to complete the experiment.</p><p>During the experiment you will be prompted to take several breaks. Each break should not last longer than 2-3 minutes.</p><p>Make sure that your computer is plugged in and it's not running on battery power, even if the battery is already fully charged.</p><p>Turn off your phone and music, make sure that you are in a quiet room and that you will not be distracted for the next hour.</p><p>Failure to comply with the instructions and indications provided during the experiment will most likely result in the rejection of your data.<p>Press the spacebar to start.</p>","","","32","","","","","","","","","","","","","","","","","","","","","","","","","","",""
"survey-html-form","4","144353","0.0-4.0","5d51a96b5054110015905fd9","609a8bf73b2ac84e2732f618","609d7e9f91fc7be0896339ad","7691.325000021607","","","","","{""age"":""51"",""sex"":""m""}","true","","","","","","","","","","","","","","","","","","","","","","","","",""
"instructions","5","218709","0.0-5.0","5d51a96b5054110015905fd9","609a8bf73b2ac84e2732f618","609d7e9f91fc7be0896339ad","74354.18999998365","","","","","","","[{""page_index"":0,""viewing_time"":47031.885000062175},{""page_index"":1,""viewing_time"":20083.01499998197},{""page_index"":2,""viewing_time"":7238.185000023805}]","","","","","","","","","","","","","","","","","","","","","","","",""
"psychophysics","6","222369","0.0-6.0-0.0","5d51a96b5054110015905fd9","609a8bf73b2ac84e2732f618","609d7e9f91fc7be0896339ad","2642.050000024028","","","","37","","","","key","17.21419718309864","851.5","471","true","-1","180","30","0","-1","","","","","","","","","","","","","",""
"psychophysics","7","223951","0.0-6.0-0.1","5d51a96b5054110015905fd9","609a8bf73b2ac84e2732f618","609d7e9f91fc7be0896339ad","575.4050000105053","","","","39","","","","key","16.665670212766","851.5","471","true","1","180","30","0","-1","-1","","","","","","","","","","","","",""
"psychophysics","8","225054","0.0-6.0-0.2","5d51a96b5054110015905fd9","609a8bf73b2ac84e2732f618","609d7e9f91fc7be0896339ad","97.30999998282641","","","","37","","","","key","16.665492307692496","851.5","471","true","-1","150","30","0","-1","-1","","","","","","","","","","","","",""
"psychophysics","9","226117","0.0-6.0-0.3","5d51a96b5054110015905fd9","609a8bf73b2ac84e2732f618","609d7e9f91fc7be0896339ad","59.20000001788139","","","","37","","","","key","16.66612698412676","851.5","471","true","-1","150","30","0","-1","-1","","","","","","","","","","","","",""
"psychophysics","10","228477","0.0-6.0-0.4","5d51a96b5054110015905fd9","609a8bf73b2ac84e2732f618","609d7e9f91fc7be0896339ad","1353.3400000305846","","","","39","","","","key","16.66623571428562","851.5","471","true","-1","129","24","1","1","-1","","","","","","","","","","","","",""
"psychophysics","11","229559","0.0-6.0-0.5","5d51a96b5054110015905fd9","609a8bf73b2ac84e2732f618","609d7e9f91fc7be0896339ad","78.77999998163432","","","","39","","","","key","16.66751562499985","851.5","471","true","1","153","24","1","-1","1","","","","","","","","","","","","",""
"psychophysics","12","232573","0.0-6.0-0.6","5d51a96b5054110015905fd9","609a8bf73b2ac84e2732f618","609d7e9f91fc7be0896339ad","2010.8000000473112","","","","37","","","","key","16.665694444444508","851.5","471","true","-1","153","19.2","2","-1","-1","","","","","","","","","","","","",""
"psychophysics","13","234665","0.0-6.0-0.7","5d51a96b5054110015905fd9","609a8bf73b2ac84e2732f618","609d7e9f91fc7be0896339ad","1084.7549999598414","","","","37","","","","key","16.667177419354925","851.5","471","true","-1","133.8","19.2","2","-1","-1","","","","","","","","","","","","",""
"psychophysics","14","237550","0.0-6.0-0.8","5d51a96b5054110015905fd9","609a8bf73b2ac84e2732f618","609d7e9f91fc7be0896339ad","1880.5799999972805","","","","37","","","","key","16.761296511627904","851.5","471","true","-1","133.8","19.2","2","-1","-1","","","","","","","","","","","","",""
"psychophysics","15","239821","0.0-6.0-0.9","5d51a96b5054110015905fd9","609a8bf73b2ac84e2732f618","609d7e9f91fc7be0896339ad","1266.9899999164045","","","","37","","","","key","16.790194029850735","851.5","471","true","1","129","15.36","3","1","-1","","","","","","","","","","","","",""
"psychophysics","16","240990","0.0-6.0-0.10","5d51a96b5054110015905fd9","609a8bf73b2ac84e2732f618","609d7e9f91fc7be0896339ad","166.8949999148026","","","","37","","","","key","16.66655072463766","851.5","471","true","-1","144.36","15.36","3","-1","1","","","","","","","","","","","","",""
"psychophysics","17","242014","0.0-6.0-0.11","5d51a96b5054110015905fd9","609a8bf73b2ac84e2732f618","609d7e9f91fc7be0896339ad","18.6649999814108","","","","39","","","","key","16.66429508196717","851.5","471","true","1","144.36","12.287999999999998","4","-1","-1","","","","","","","","","","","","",""
"psychophysics","18","244694","0.0-6.0-0.12","5d51a96b5054110015905fd9","609a8bf73b2ac84e2732f618","609d7e9f91fc7be0896339ad","1675.6599999498576","","","","39","","","","key","16.666289308175934","851.5","471","true","-1","132.072","9.8304","5","1","-1","","","","","","","","","","","","",""
"psychophysics","19","245701","0.0-6.0-0.13","5d51a96b5054110015905fd9","609a8bf73b2ac84e2732f618","609d7e9f91fc7be0896339ad","5.890000029467046","","","","37","","","","key","16.66528333333311","851.5","471","true","-1","141.9024","9.8304","5","-1","1","","","","","","","","","","","","",""
"psychophysics","20","246975","0.0-6.0-0.14","5d51a96b5054110015905fd9","609a8bf73b2ac84e2732f618","609d7e9f91fc7be0896339ad","271.38000004924834","","","","39","","","","key","16.668106666666766","851.5","471","true","1","141.9024","7.864319999999999","6","-1","-1","","","","","","","","","","","","",""
"psychophysics","21","251687","0.0-6.0-0.15","5d51a96b5054110015905fd9","609a8bf73b2ac84e2732f618","609d7e9f91fc7be0896339ad","3704.6949999639764","","","","39","","","","key","16.725601423487547","851.5","471","true","-1","134.03808","6.291456","7","1","-1","","","","","","","","","","","","",""
"psychophysics","22","253433","0.0-6.0-0.16","5d51a96b5054110015905fd9","609a8bf73b2ac84e2732f618","609d7e9f91fc7be0896339ad","739.3849999643862","","","","39","","","","key","16.666759615384553","851.5","471","true","1","140.32953600000002","6.291456","7","-1","1","","","","","","","","","","","","",""
"psychophysics","23","255630","0.0-6.0-0.17","5d51a96b5054110015905fd9","609a8bf73b2ac84e2732f618","609d7e9f91fc7be0896339ad","1193.8300000037998","","","","39","","","","key","16.66590000000008","851.5","471","true","1","140.32953600000002","5.033164800000001","8","-1","-1","","","","","","","","","","","","",""
"psychophysics","24","257759","0.0-6.0-0.18","5d51a96b5054110015905fd9","609a8bf73b2ac84e2732f618","609d7e9f91fc7be0896339ad","1126.4000000664964","","","","39","","","","key","16.799746031746118","851.5","471","true","1","135.2963712","5.033164800000001","8","-1","-1","","","","","","","","","","","","",""
"psychophysics","25","259518","0.0-6.0-0.19","5d51a96b5054110015905fd9","609a8bf73b2ac84e2732f618","609d7e9f91fc7be0896339ad","751.6099999193102","","","","39","","","","key","16.666047619047596","851.5","471","true","-1","135.2963712","4.0265318400000005","9","1","-1","","","","","","","","","","","","",""
"psychophysics","26","261006","0.0-6.0-0.20","5d51a96b5054110015905fd9","609a8bf73b2ac84e2732f618","609d7e9f91fc7be0896339ad","482.9000000609085","","","","37","","","","key","16.85713793103444","851.5","471","true","-1","139.32290304","4.0265318400000005","9","-1","1","","","","","","","","","","","","",""
"psychophysics","27","263287","0.0-6.0-0.21","5d51a96b5054110015905fd9","609a8bf73b2ac84e2732f618","609d7e9f91fc7be0896339ad","1274.2250000592321","","","","37","","","","key","16.66545588235321","851.5","471","true","-1","139.32290304","3.2212254720000004","10","-1","-1","","","","","","","","","","","","",""
"psychophysics","28","264733","0.0-6.0-0.22","5d51a96b5054110015905fd9","609a8bf73b2ac84e2732f618","609d7e9f91fc7be0896339ad","442.1999999321997","","","","37","","","","key","16.861211764706326","851.5","471","true","-1","136.101677568","3.2212254720000004","10","-1","-1","","","","","","","","","","","","",""
"psychophysics","29","266359","0.0-6.0-0.23","5d51a96b5054110015905fd9","609a8bf73b2ac84e2732f618","609d7e9f91fc7be0896339ad","621.7499999329448","","","","39","","","","key","16.66708333333372","851.5","471","true","1","136.101677568","3.2212254720000004","10","-1","-1","","","","","","","","","","","","",""
"psychophysics","30","268383","0.0-6.0-0.24","5d51a96b5054110015905fd9","609a8bf73b2ac84e2732f618","609d7e9f91fc7be0896339ad","1017.1500000869855","","","","39","","","","key","16.66576033057876","851.5","471","true","1","132.880452096","3.2212254720000004","10","-1","-1","","","","","","","","","","","","",""
"psychophysics","31","270575","0.0-6.0-0.25","5d51a96b5054110015905fd9","609a8bf73b2ac84e2732f618","609d7e9f91fc7be0896339ad","1186.794999986887","","","","39","","","","key","16.66423846153865","851.5","471","true","1","132.880452096","3.2212254720000004","10","-1","-1","","","","","","","","","","","","",""
"psychophysics","32","273271","0.0-6.0-0.26","5d51a96b5054110015905fd9","609a8bf73b2ac84e2732f618","609d7e9f91fc7be0896339ad","1689.8349999682978","","","","39","","","","key","16.875842767295723","851.5","471","true","1","129.65922662399998","3.2212254720000004","10","-1","-1","","","","","","","","","","","","",""
"psychophysics","33","276430","0.0-6.0-0.27","5d51a96b5054110015905fd9","609a8bf73b2ac84e2732f618","609d7e9f91fc7be0896339ad","2146.7199999606237","","","","39","","","","key","16.6647513227512","851.5","471","true","-1","129.65922662399998","2.5769803776000004","11","1","-1","","","","","","","","","","","","",""
"psychophysics","34","278065","0.0-6.0-0.28","5d51a96b5054110015905fd9","609a8bf73b2ac84e2732f618","609d7e9f91fc7be0896339ad","632.880000048317","","","","39","","","","key","16.843926315789577","851.5","471","true","-1","132.23620700159998","2.5769803776000004","11","1","1","","","","","","","","","","","","",""
"psychophysics","35","280463","0.0-6.0-0.29","5d51a96b5054110015905fd9","609a8bf73b2ac84e2732f618","609d7e9f91fc7be0896339ad","1387.9650000017136","","","","39","","","","key","16.775978873239527","851.5","471","true","1","134.81318737919997","2.5769803776000004","11","-1","1","","","","","","","","","","","","",""
"psychophysics","36","282919","0.0-6.0-0.30","5d51a96b5054110015905fd9","609a8bf73b2ac84e2732f618","609d7e9f91fc7be0896339ad","1448.3750000363216","","","","39","","","","key","16.666482993197267","851.5","471","true","1","134.81318737919997","2.0615843020800004","12","-1","-1","","","","","","","","","","","","",""
"psychophysics","37","286950","0.0-6.0-0.31","5d51a96b5054110015905fd9","609a8bf73b2ac84e2732f618","609d7e9f91fc7be0896339ad","3025.38500004448","","","","39","","","","key","16.665327800830045","851.5","471","true","-1","132.75160307711997","1.6492674416640005","13","1","-1","","","","","","","","","","","","",""
"psychophysics","38","288750","0.0-6.0-0.32","5d51a96b5054110015905fd9","609a8bf73b2ac84e2732f618","609d7e9f91fc7be0896339ad","793.390000006184","","","","37","","","","key","16.666794392523446","851.5","471","true","1","134.40087051878396","1.6492674416640005","13","1","1","","","","","","","","","","","","",""
"psychophysics","39","291623","0.0-6.0-0.33","5d51a96b5054110015905fd9","609a8bf73b2ac84e2732f618","609d7e9f91fc7be0896339ad","1862.144999904558","","","","39","","","","key","16.6666140350876","851.5","471","true","1","136.05013796044796","1.6492674416640005","13","-1","1","","","","","","","","","","","","",""
"psychophysics","40","294367","0.0-6.0-0.34","5d51a96b5054110015905fd9","609a8bf73b2ac84e2732f618","609d7e9f91fc7be0896339ad","1721.514999982901","","","","39","","","","key","16.666408536585173","851.5","471","true","1","136.05013796044796","1.3194139533312006","14","-1","-1","","","","","","","","","","","","",""
"psychophysics","41","297312","0.0-6.0-0.35","5d51a96b5054110015905fd9","609a8bf73b2ac84e2732f618","609d7e9f91fc7be0896339ad","1932.0549999829382","","","","37","","","","key","16.665714285714287","851.5","471","true","1","134.73072400711675","1.0555311626649604","15","1","-1","","","","","","","","","","","","",""
"psychophysics","42","299822","0.0-6.0-0.36","5d51a96b5054110015905fd9","609a8bf73b2ac84e2732f618","609d7e9f91fc7be0896339ad","1503.1849999213591","","","","39","","","","key","16.663760000000085","851.5","471","true","1","135.7862551697817","1.0555311626649604","15","-1","1","","","","","","","","","","","","",""
"psychophysics","43","301433","0.0-6.0-0.37","5d51a96b5054110015905fd9","609a8bf73b2ac84e2732f618","609d7e9f91fc7be0896339ad","604.605000000447","","","","37","","","","key","16.666489583333412","851.5","471","true","-1","135.7862551697817","1","16","-1","-1","","","","","","","","","","","","",""
"psychophysics","44","304439","0.0-6.0-0.38","5d51a96b5054110015905fd9","609a8bf73b2ac84e2732f618","609d7e9f91fc7be0896339ad","1997.19499994535","","","","39","","","","key","16.6658379888268","851.5","471","true","-1","134.7862551697817","1","17","1","-1","","","","","","","","","","","","",""
"psychophysics","45","306023","0.0-6.0-0.39","5d51a96b5054110015905fd9","609a8bf73b2ac84e2732f618","609d7e9f91fc7be0896339ad","577.7399999788031","","","","39","","","","key","16.66561702127628","851.5","471","true","1","135.7862551697817","1","17","-1","1","","","","","","","","","","","","",""
"html-keyboard-response","46","311127","0.0-7.0","5d51a96b5054110015905fd9","609a8bf73b2ac84e2732f618","609d7e9f91fc7be0896339ad","5100.710000027902","<p>Well Done !</p><p>Prepare for a new block.</p><p>DON'T EXIT THE FULL SCREEN MODE</p><p>Press the Spacebar to start.</p>","","","32","","","","","","","","","","","","","","","true","134.01266542046955","","","","","","","","","","",""
"psychophysics","47","312751","0.0-8.0-0.0","5d51a96b5054110015905fd9","609a8bf73b2ac84e2732f618","609d7e9f91fc7be0896339ad","619.8449999792501","","","","37","","","","key","16.668234693877785","851.5","471","true","-1","180","30","0","-1","","","","","","","","","","","","","",""
"psychophysics","48","313799","0.0-8.0-0.1","5d51a96b5054110015905fd9","609a8bf73b2ac84e2732f618","609d7e9f91fc7be0896339ad","37.63999999500811","","","","37","","","","key","16.666338709677802","851.5","471","true","-1","180","30","0","-1","-1","","","","","","","","","","","","",""
"psychophysics","49","315655","0.0-8.0-0.2","5d51a96b5054110015905fd9","609a8bf73b2ac84e2732f618","609d7e9f91fc7be0896339ad","847.745000035502","","","","39","","","","key","16.666236363636035","851.5","471","true","1","150","30","0","-1","-1","","","","","","","","","","","","",""
"psychophysics","50","316791","0.0-8.0-0.3","5d51a96b5054110015905fd9","609a8bf73b2ac84e2732f618","609d7e9f91fc7be0896339ad","129.6899999724701","","","","37","","","","key","16.665074626865636","851.5","471","true","-1","150","30","0","-1","-1","","","","","","","","","","","","",""
"psychophysics","51","318983","0.0-8.0-0.4","5d51a96b5054110015905fd9","609a8bf73b2ac84e2732f618","609d7e9f91fc7be0896339ad","1187.9300000146031","","","","39","","","","key","16.666091603053225","851.5","471","true","1","129","30","0","-1","-1","","","","","","","","","","","","",""
"psychophysics","52","320455","0.0-8.0-0.5","5d51a96b5054110015905fd9","609a8bf73b2ac84e2732f618","609d7e9f91fc7be0896339ad","459.5050000352785","","","","37","","","","key","16.66599999999978","851.5","471","true","1","129","24","1","1","-1","","","","","","","","","","","","",""
"psychophysics","53","321839","0.0-8.0-0.6","5d51a96b5054110015905fd9","609a8bf73b2ac84e2732f618","609d7e9f91fc7be0896339ad","377.37500004004687","","","","39","","","","key","16.666317073170454","851.5","471","true","1","153","24","1","-1","1","","","","","","","","","","","","",""
"psychophysics","54","323551","0.0-8.0-0.7","5d51a96b5054110015905fd9","609a8bf73b2ac84e2732f618","609d7e9f91fc7be0896339ad","693.6899999855086","","","","39","","","","key","16.667999999999985","851.5","471","true","1","153","19.2","2","-1","-1","","","","","","","","","","","","",""
"psychophysics","55","324871","0.0-8.0-0.8","5d51a96b5054110015905fd9","609a8bf73b2ac84e2732f618","609d7e9f91fc7be0896339ad","309.2349999351427","","","","39","","","","key","16.666012820513107","851.5","471","true","1","133.8","19.2","2","-1","-1","","","","","","","","","","","","",""
"psychophysics","56","326959","0.0-8.0-0.9","5d51a96b5054110015905fd9","609a8bf73b2ac84e2732f618","609d7e9f91fc7be0896339ad","1080.6699999375269","","","","39","","","","key","16.6651612903229","851.5","471","true","1","133.8","19.2","2","-1","-1","","","","","","","","","","","","",""
"psychophysics","57","328344","0.0-8.0-0.10","5d51a96b5054110015905fd9","609a8bf73b2ac84e2732f618","609d7e9f91fc7be0896339ad","365.57500006165355","","","","37","","","","key","16.66521951219524","851.5","471","true","-1","129","19.2","2","-1","-1","","","","","","","","","","","","",""
"psychophysics","58","330383","0.0-8.0-0.11","5d51a96b5054110015905fd9","609a8bf73b2ac84e2732f618","609d7e9f91fc7be0896339ad","1027.5649999966845","","","","39","","","","key","16.665926229507857","851.5","471","true","-1","129","15.36","3","1","-1","","","","","","","","","","","","",""
"psychophysics","59","331671","0.0-8.0-0.12","5d51a96b5054110015905fd9","609a8bf73b2ac84e2732f618","609d7e9f91fc7be0896339ad","275.9650000371039","","","","39","","","","key","16.664302631579247","851.5","471","true","1","144.36","15.36","3","-1","1","","","","","","","","","","","","",""
"psychophysics","60","333128","0.0-8.0-0.13","5d51a96b5054110015905fd9","609a8bf73b2ac84e2732f618","609d7e9f91fc7be0896339ad","445.69500000216067","","","","39","","","","key","16.863364705882336","851.5","471","true","1","144.36","12.287999999999998","4","-1","-1","","","","","","","","","","","","",""
"psychophysics","61","334799","0.0-8.0-0.14","5d51a96b5054110015905fd9","609a8bf73b2ac84e2732f618","609d7e9f91fc7be0896339ad","665.9050000598654","","","","37","","","","key","16.664290000000037","851.5","471","true","-1","132.072","12.287999999999998","4","-1","-1","","","","","","","","","","","","",""
"psychophysics","62","336423","0.0-8.0-0.15","5d51a96b5054110015905fd9","609a8bf73b2ac84e2732f618","609d7e9f91fc7be0896339ad","618.3749999618158","","","","37","","","","key","16.666135416666293","851.5","471","true","1","132.072","9.8304","5","1","-1","","","","","","","","","","","","",""
"psychophysics","63","338313","0.0-8.0-0.16","5d51a96b5054110015905fd9","609a8bf73b2ac84e2732f618","609d7e9f91fc7be0896339ad","885.0249999668449","","","","37","","","","key","16.8167927927927","851.5","471","true","-1","141.9024","9.8304","5","-1","1","","","","","","","","","","","","",""
"psychophysics","64","339719","0.0-8.0-0.17","5d51a96b5054110015905fd9","609a8bf73b2ac84e2732f618","609d7e9f91fc7be0896339ad","400.77000006567687","","","","39","","","","key","16.66561904761918","851.5","471","true","1","141.9024","7.864319999999999","6","-1","-1","","","","","","","","","","","","",""
"psychophysics","65","341575","0.0-8.0-0.18","5d51a96b5054110015905fd9","609a8bf73b2ac84e2732f618","609d7e9f91fc7be0896339ad","850.7250000257045","","","","37","","","","key","16.66627272727254","851.5","471","true","-1","134.03808","7.864319999999999","6","-1","-1","","","","","","","","","","","","",""
"psychophysics","66","343623","0.0-8.0-0.19","5d51a96b5054110015905fd9","609a8bf73b2ac84e2732f618","609d7e9f91fc7be0896339ad","1043.2199999922886","","","","39","","","","key","16.666565573770463","851.5","471","true","-1","134.03808","6.291456","7","1","-1","","","","","","","","","","","","",""
"psychophysics","67","345167","0.0-8.0-0.20","5d51a96b5054110015905fd9","609a8bf73b2ac84e2732f618","609d7e9f91fc7be0896339ad","538.9899999136105","","","","39","","","","key","16.663750000000025","851.5","471","true","1","140.32953600000002","6.291456","7","-1","1","","","","","","","","","","","","",""
"psychophysics","68","346919","0.0-8.0-0.21","5d51a96b5054110015905fd9","609a8bf73b2ac84e2732f618","609d7e9f91fc7be0896339ad","746.9600000185892","","","","37","","","","key","16.666721153846503","851.5","471","true","-1","140.32953600000002","5.033164800000001","8","-1","-1","","","","","","","","","","","","",""
"psychophysics","69","348481","0.0-8.0-0.22","5d51a96b5054110015905fd9","609a8bf73b2ac84e2732f618","609d7e9f91fc7be0896339ad","558.3300000289455","","","","37","","","","key","16.66609677419402","851.5","471","true","-1","135.2963712","5.033164800000001","8","-1","-1","","","","","","","","","","","","",""
"psychophysics","70","350048","0.0-8.0-0.23","5d51a96b5054110015905fd9","609a8bf73b2ac84e2732f618","609d7e9f91fc7be0896339ad","561.2500000279397","","","","39","","","","key","16.666688172043408","851.5","471","true","1","135.2963712","5.033164800000001","8","-1","-1","","","","","","","","","","","","",""
"psychophysics","71","352335","0.0-8.0-0.24","5d51a96b5054110015905fd9","609a8bf73b2ac84e2732f618","609d7e9f91fc7be0896339ad","1281.6749999765307","","","","39","","","","key","16.665257352941435","851.5","471","true","1","130.2632064","5.033164800000001","8","-1","-1","","","","","","","","","","","","",""
"psychophysics","72","353729","0.0-8.0-0.25","5d51a96b5054110015905fd9","609a8bf73b2ac84e2732f618","609d7e9f91fc7be0896339ad","389.3450000323355","","","","39","","","","key","16.870888888888366","851.5","471","true","1","130.2632064","5.033164800000001","8","-1","-1","","","","","","","","","","","","",""
"psychophysics","73","355375","0.0-8.0-0.26","5d51a96b5054110015905fd9","609a8bf73b2ac84e2732f618","609d7e9f91fc7be0896339ad","637.4249999644235","","","","37","","","","key","16.665591836734723","851.5","471","true","-1","129","5.033164800000001","8","-1","-1","","","","","","","","","","","","",""
"psychophysics","74","356775","0.0-8.0-0.27","5d51a96b5054110015905fd9","609a8bf73b2ac84e2732f618","609d7e9f91fc7be0896339ad","393.2800000766292","","","","39","","","","key","16.666746987952116","851.5","471","true","1","129","5.033164800000001","8","-1","-1","","","","","","","","","","","","",""
"psychophysics","75","358439","0.0-8.0-0.28","5d51a96b5054110015905fd9","609a8bf73b2ac84e2732f618","609d7e9f91fc7be0896339ad","658.3499999251217","","","","39","","","","key","16.66548484848457","851.5","471","true","-1","129","4.0265318400000005","9","1","-1","","","","","","","","","","","","",""
"psychophysics","76","360929","0.0-8.0-0.29","5d51a96b5054110015905fd9","609a8bf73b2ac84e2732f618","609d7e9f91fc7be0896339ad","1483.5999999195337","","","","37","","","","key","16.666087837837875","851.5","471","true","-1","133.02653184","4.0265318400000005","9","-1","1","","","","","","","","","","","","",""
"psychophysics","77","362423","0.0-8.0-0.30","5d51a96b5054110015905fd9","609a8bf73b2ac84e2732f618","609d7e9f91fc7be0896339ad","490.6549999723211","","","","39","","","","key","16.664752808988116","851.5","471","true","1","133.02653184","3.2212254720000004","10","-1","-1","","","","","","","","","","","","",""
"psychophysics","78","364081","0.0-8.0-0.31","5d51a96b5054110015905fd9","609a8bf73b2ac84e2732f618","609d7e9f91fc7be0896339ad","651.7999999923632","","","","39","","","","key","16.66549494949515","851.5","471","true","-1","129.805306368","2.5769803776000004","11","1","-1","","","","","","","","","","","","",""
"psychophysics","79","366151","0.0-8.0-0.32","5d51a96b5054110015905fd9","609a8bf73b2ac84e2732f618","609d7e9f91fc7be0896339ad","1065.5300000216812","","","","39","","","","key","16.666121951219193","851.5","471","true","-1","132.3822867456","2.5769803776000004","11","1","1","","","","","","","","","","","","",""
"psychophysics","80","367631","0.0-8.0-0.33","5d51a96b5054110015905fd9","609a8bf73b2ac84e2732f618","609d7e9f91fc7be0896339ad","466.3949999958277","","","","39","","","","key","16.665988636363842","851.5","471","true","1","134.9592671232","2.5769803776000004","11","-1","1","","","","","","","","","","","","",""
"psychophysics","81","369919","0.0-8.0-0.34","5d51a96b5054110015905fd9","609a8bf73b2ac84e2732f618","609d7e9f91fc7be0896339ad","1284.5100000267848","","","","39","","","","key","16.66641176470576","851.5","471","true","-1","134.9592671232","2.0615843020800004","12","1","-1","","","","","","","","","","","","",""
"psychophysics","82","371383","0.0-8.0-0.35","5d51a96b5054110015905fd9","609a8bf73b2ac84e2732f618","609d7e9f91fc7be0896339ad","458.30499997828156","","","","37","","","","key","16.665804597701015","851.5","471","true","-1","137.02085142528","2.0615843020800004","12","-1","1","","","","","","","","","","","","",""
"psychophysics","83","374151","0.0-8.0-0.36","5d51a96b5054110015905fd9","609a8bf73b2ac84e2732f618","609d7e9f91fc7be0896339ad","1763.7899999972433","","","","37","","","","key","16.87071779141084","851.5","471","true","-1","137.02085142528","1.6492674416640005","13","-1","-1","","","","","","","","","","","","",""
"psychophysics","84","375351","0.0-8.0-0.37","5d51a96b5054110015905fd9","609a8bf73b2ac84e2732f618","609d7e9f91fc7be0896339ad","195.23499999195337","","","","37","","","","key","16.666380281690476","851.5","471","true","-1","135.371583983616","1.6492674416640005","13","-1","-1","","","","","","","","","","","","",""
"psychophysics","85","377199","0.0-8.0-0.38","5d51a96b5054110015905fd9","609a8bf73b2ac84e2732f618","609d7e9f91fc7be0896339ad","843.0649999063462","","","","39","","","","key","16.665763636363607","851.5","471","true","1","135.371583983616","1.6492674416640005","13","-1","-1","","","","","","","","","","","","",""
"psychophysics","86","379103","0.0-8.0-0.39","5d51a96b5054110015905fd9","609a8bf73b2ac84e2732f618","609d7e9f91fc7be0896339ad","899.1050000768155","","","","39","","","","key","16.814482142857223","851.5","471","true","1","133.722316541952","1.6492674416640005","13","-1","-1","","","","","","","","","","","","",""
"html-keyboard-response","87","382920","0.0-9.0","5d51a96b5054110015905fd9","609a8bf73b2ac84e2732f618","609d7e9f91fc7be0896339ad","3814.064999925904","<p>Well Done !</p><p>Prepare for a new block.</p><p>DON'T EXIT THE FULL SCREEN MODE</p><p>Press the Spacebar to start.</p>","","","32","","","","","","","","","","","","","","","true","132.92863898664956","","","","","","","","","","",""
"psychophysics","88","385223","0.0-10.0-0.0","5d51a96b5054110015905fd9","609a8bf73b2ac84e2732f618","609d7e9f91fc7be0896339ad","1296.4950000168756","","","","37","","","","key","16.6673623188403","851.5","471","true","-1","180","30","0","-1","","","","","","","","","","","","","",""
"psychophysics","89","386575","0.0-10.0-0.1","5d51a96b5054110015905fd9","609a8bf73b2ac84e2732f618","609d7e9f91fc7be0896339ad","338.3900000480935","","","","39","","","","key","16.66663750000007","851.5","471","true","1","180","30","0","-1","-1","","","","","","","","","","","","",""
"psychophysics","90","387951","0.0-10.0-0.2","5d51a96b5054110015905fd9","609a8bf73b2ac84e2732f618","609d7e9f91fc7be0896339ad","371.4750000508502","","","","37","","","","key","16.6664512195119","851.5","471","true","-1","150","30","0","-1","-1","","","","","","","","","","","","",""
"psychophysics","91","389431","0.0-10.0-0.3","5d51a96b5054110015905fd9","609a8bf73b2ac84e2732f618","609d7e9f91fc7be0896339ad","470.6000000005588","","","","37","","","","key","16.666056818181293","851.5","471","true","-1","150","30","0","-1","-1","","","","","","","","","","","","",""
"psychophysics","92","391471","0.0-10.0-0.4","5d51a96b5054110015905fd9","609a8bf73b2ac84e2732f618","609d7e9f91fc7be0896339ad","1027.654999983497","","","","37","","","","key","16.666107438016425","851.5","471","true","1","129","24","1","1","-1","","","","","","","","","","","","",""
"psychophysics","93","392839","0.0-10.0-0.5","5d51a96b5054110015905fd9","609a8bf73b2ac84e2732f618","609d7e9f91fc7be0896339ad","362.5049999682233","","","","37","","","","key","16.666790123456906","851.5","471","true","-1","153","24","1","-1","1","","","","","","","","","","","","",""
"psychophysics","94","394255","0.0-10.0-0.6","5d51a96b5054110015905fd9","609a8bf73b2ac84e2732f618","609d7e9f91fc7be0896339ad","411.4899999694899","","","","39","","","","key","16.664369047619402","851.5","471","true","1","153","19.2","2","-1","-1","","","","","","","","","","","","",""
"psychophysics","95","395666","0.0-10.0-0.7","5d51a96b5054110015905fd9","609a8bf73b2ac84e2732f618","609d7e9f91fc7be0896339ad","405.7899999897927","","","","39","","","","key","16.665321428571286","851.5","471","true","1","133.8","19.2","2","-1","-1","","","","","","","","","","","","",""
"psychophysics","96","397665","0.0-10.0-0.8","5d51a96b5054110015905fd9","609a8bf73b2ac84e2732f618","609d7e9f91fc7be0896339ad","989.475000067614","","","","39","","","","key","16.804737288135367","851.5","471","true","-1","133.8","15.36","3","1","-1","","","","","","","","","","","","",""
"psychophysics","97","398897","0.0-10.0-0.9","5d51a96b5054110015905fd9","609a8bf73b2ac84e2732f618","609d7e9f91fc7be0896339ad","227.18000004533678","","","","37","","","","key","16.663246575341887","851.5","471","true","-1","149.16000000000003","15.36","3","-1","1","","","","","","","","","","","","",""
"psychophysics","98","400486","0.0-10.0-0.10","5d51a96b5054110015905fd9","609a8bf73b2ac84e2732f618","609d7e9f91fc7be0896339ad","584.305000025779","","","","37","","","","key","16.66357446808499","851.5","471","true","-1","149.16000000000003","12.287999999999998","4","-1","-1","","","","","","","","","","","","",""
"psychophysics","99","402647","0.0-10.0-0.11","5d51a96b5054110015905fd9","609a8bf73b2ac84e2732f618","609d7e9f91fc7be0896339ad","1153.6049999995157","","","","37","","","","key","16.6670465116279","851.5","471","true","-1","136.872","12.287999999999998","4","-1","-1","","","","","","","","","","","","",""
"psychophysics","100","404297","0.0-10.0-0.12","5d51a96b5054110015905fd9","609a8bf73b2ac84e2732f618","609d7e9f91fc7be0896339ad","636.0250000143424","","","","37","","","","key","16.664948979591625","851.5","471","true","-1","136.872","12.287999999999998","4","-1","-1","","","","","","","","","","","","",""
"psychophysics","101","405815","0.0-10.0-0.13","5d51a96b5054110015905fd9","609a8bf73b2ac84e2732f618","609d7e9f91fc7be0896339ad","507.33000005129725","","","","37","","","","key","16.665988888889032","851.5","471","true","-1","129","12.287999999999998","4","-1","-1","","","","","","","","","","","","",""
"psychophysics","102","407751","0.0-10.0-0.14","5d51a96b5054110015905fd9","609a8bf73b2ac84e2732f618","609d7e9f91fc7be0896339ad","927.8299999423325","","","","37","","","","key","16.6662956521735","851.5","471","true","1","129","9.8304","5","1","-1","","","","","","","","","","","","",""
"psychophysics","103","409119","0.0-10.0-0.15","5d51a96b5054110015905fd9","609a8bf73b2ac84e2732f618","609d7e9f91fc7be0896339ad","359.88999996334314","","","","39","","","","key","16.665827160494196","851.5","471","true","1","138.8304","9.8304","5","-1","1","","","","","","","","","","","","",""
"psychophysics","104","411031","0.0-10.0-0.16","5d51a96b5054110015905fd9","609a8bf73b2ac84e2732f618","609d7e9f91fc7be0896339ad","904.3949999613687","","","","39","","","","key","16.66549122807051","851.5","471","true","1","138.8304","7.864319999999999","6","-1","-1","","","","","","","","","","","","",""
"psychophysics","105","412503","0.0-10.0-0.17","5d51a96b5054110015905fd9","609a8bf73b2ac84e2732f618","609d7e9f91fc7be0896339ad","460.0349999964237","","","","39","","","","key","16.665735632183843","851.5","471","true","1","130.96608","7.864319999999999","6","-1","-1","","","","","","","","","","","","",""
"psychophysics","106","415279","0.0-10.0-0.18","5d51a96b5054110015905fd9","609a8bf73b2ac84e2732f618","609d7e9f91fc7be0896339ad","1769.9899999424815","","","","39","","","","key","16.665789156626555","851.5","471","true","1","130.96608","7.864319999999999","6","-1","-1","","","","","","","","","","","","",""
"psychophysics","107","417279","0.0-10.0-0.19","5d51a96b5054110015905fd9","609a8bf73b2ac84e2732f618","609d7e9f91fc7be0896339ad","993.2400000980124","","","","37","","","","key","16.665285714285666","851.5","471","true","1","129","6.291456","7","1","-1","","","","","","","","","","","","",""
"psychophysics","108","418713","0.0-10.0-0.20","5d51a96b5054110015905fd9","609a8bf73b2ac84e2732f618","609d7e9f91fc7be0896339ad","428.7100000074133","","","","39","","","","key","16.666152941176723","851.5","471","true","1","135.291456","6.291456","7","-1","1","","","","","","","","","","","","",""
"psychophysics","109","420503","0.0-10.0-0.21","5d51a96b5054110015905fd9","609a8bf73b2ac84e2732f618","609d7e9f91fc7be0896339ad","785.4300000471994","","","","39","","","","key","16.666169811320767","851.5","471","true","-1","135.291456","5.033164800000001","8","1","-1","","","","","","","","","","","","",""
"psychophysics","110","421927","0.0-10.0-0.22","5d51a96b5054110015905fd9","609a8bf73b2ac84e2732f618","609d7e9f91fc7be0896339ad","418.0250000208616","","","","39","","","","key","16.86615476190456","851.5","471","true","1","140.32462080000002","5.033164800000001","8","-1","1","","","","","","","","","","","","",""
"psychophysics","111","423439","0.0-10.0-0.23","5d51a96b5054110015905fd9","609a8bf73b2ac84e2732f618","609d7e9f91fc7be0896339ad","505.73000009171665","","","","39","","","","key","16.66706741572975","851.5","471","true","1","140.32462080000002","4.0265318400000005","9","-1","-1","","","","","","","","","","","","",""
"psychophysics","112","425314","0.0-10.0-0.24","5d51a96b5054110015905fd9","609a8bf73b2ac84e2732f618","609d7e9f91fc7be0896339ad","869.5950000546873","","","","37","","","","key","16.670446428571136","851.5","471","true","-1","136.29808896000003","4.0265318400000005","9","-1","-1","","","","","","","","","","","","",""
"psychophysics","113","426799","0.0-10.0-0.25","5d51a96b5054110015905fd9","609a8bf73b2ac84e2732f618","609d7e9f91fc7be0896339ad","473.40999997686595","","","","39","","","","key","16.664977272727068","851.5","471","true","1","136.29808896000003","4.0265318400000005","9","-1","-1","","","","","","","","","","","","",""
"psychophysics","114","428995","0.0-10.0-0.26","5d51a96b5054110015905fd9","609a8bf73b2ac84e2732f618","609d7e9f91fc7be0896339ad","1184.8250000039116","","","","39","","","","key","16.665076923077084","851.5","471","true","-1","132.27155712000004","3.2212254720000004","10","1","-1","","","","","","","","","","","","",""
"psychophysics","115","430681","0.0-10.0-0.27","5d51a96b5054110015905fd9","609a8bf73b2ac84e2732f618","609d7e9f91fc7be0896339ad","678.3900000154972","","","","39","","","","key","16.66618811881163","851.5","471","true","1","135.49278259200003","3.2212254720000004","10","-1","1","","","","","","","","","","","","",""
"psychophysics","116","432183","0.0-10.0-0.28","5d51a96b5054110015905fd9","609a8bf73b2ac84e2732f618","609d7e9f91fc7be0896339ad","490.1949999621138","","","","39","","","","key","16.668247191011094","851.5","471","true","1","135.49278259200003","2.5769803776000004","11","-1","-1","","","","","","","","","","","","",""
"psychophysics","117","433647","0.0-10.0-0.29","5d51a96b5054110015905fd9","609a8bf73b2ac84e2732f618","609d7e9f91fc7be0896339ad","454.6249998966232","","","","37","","","","key","16.66552873563233","851.5","471","true","-1","132.91580221440003","2.5769803776000004","11","-1","-1","","","","","","","","","","","","",""
"psychophysics","118","435615","0.0-10.0-0.30","5d51a96b5054110015905fd9","609a8bf73b2ac84e2732f618","609d7e9f91fc7be0896339ad","960.4299999773502","","","","37","","","","key","16.66414529914544","851.5","471","true","-1","132.91580221440003","2.5769803776000004","11","-1","-1","","","","","","","","","","","","",""
"psychophysics","119","437303","0.0-10.0-0.31","5d51a96b5054110015905fd9","609a8bf73b2ac84e2732f618","609d7e9f91fc7be0896339ad","677.1650000009686","","","","39","","","","key","16.66606000000029","851.5","471","true","-1","130.33882183680004","2.0615843020800004","12","1","-1","","","","","","","","","","","","",""
"psychophysics","120","438895","0.0-10.0-0.32","5d51a96b5054110015905fd9","609a8bf73b2ac84e2732f618","609d7e9f91fc7be0896339ad","585.9600000549108","","","","39","","","","key","16.666084210526222","851.5","471","true","1","132.40040613888004","2.0615843020800004","12","-1","1","","","","","","","","","","","","",""
"psychophysics","121","440751","0.0-10.0-0.33","5d51a96b5054110015905fd9","609a8bf73b2ac84e2732f618","609d7e9f91fc7be0896339ad","846.0999999660999","","","","37","","","","key","16.666300000000046","851.5","471","true","-1","132.40040613888004","1.6492674416640005","13","-1","-1","","","","","","","","","","","","",""
"psychophysics","122","442623","0.0-10.0-0.34","5d51a96b5054110015905fd9","609a8bf73b2ac84e2732f618","609d7e9f91fc7be0896339ad","868.04500001017","","","","39","","","","key","16.6659459459458","851.5","471","true","-1","130.75113869721605","1.3194139533312006","14","1","-1","","","","","","","","","","","","",""
"psychophysics","123","443999","0.0-10.0-0.35","5d51a96b5054110015905fd9","609a8bf73b2ac84e2732f618","609d7e9f91fc7be0896339ad","368.1750000687316","","","","39","","","","key","16.666524390243534","851.5","471","true","-1","132.07055265054726","1.3194139533312006","14","1","1","","","","","","","","","","","","",""
"psychophysics","124","445680","0.0-10.0-0.36","5d51a96b5054110015905fd9","609a8bf73b2ac84e2732f618","609d7e9f91fc7be0896339ad","672.9150000028312","","","","37","","","","key","16.66576000000001","851.5","471","true","-1","133.38996660387846","1.3194139533312006","14","-1","1","","","","","","","","","","","","",""
"psychophysics","125","447135","0.0-10.0-0.37","5d51a96b5054110015905fd9","609a8bf73b2ac84e2732f618","609d7e9f91fc7be0896339ad","442.685000016354","","","","37","","","","key","16.665360465116507","851.5","471","true","1","133.38996660387846","1.0555311626649604","15","1","-1","","","","","","","","","","","","",""
"psychophysics","126","449639","0.0-10.0-0.38","5d51a96b5054110015905fd9","609a8bf73b2ac84e2732f618","609d7e9f91fc7be0896339ad","1496.75000004936","","","","39","","","","key","16.66506040268445","851.5","471","true","1","134.4454977665434","1.0555311626649604","15","-1","1","","","","","","","","","","","","",""
"psychophysics","127","451048","0.0-10.0-0.39","5d51a96b5054110015905fd9","609a8bf73b2ac84e2732f618","609d7e9f91fc7be0896339ad","393.35999998729676","","","","39","","","","key","16.666392857143016","851.5","471","true","1","134.4454977665434","1","16","-1","-1","","","","","","","","","","","","",""
"html-keyboard-response","128","454010","0.0-11.0","5d51a96b5054110015905fd9","609a8bf73b2ac84e2732f618","609d7e9f91fc7be0896339ad","2958.7199999950826","<p>Well Done !</p><p>Prepare for a new block.</p><p>DON'T EXIT THE FULL SCREEN MODE</p><p>Press the Spacebar to start.</p>","","","32","","","","","","","","","","","","","","","true","133.26793799306452","","","","","","","","","","",""
"psychophysics","129","455503","0.0-12.0-0.0","5d51a96b5054110015905fd9","609a8bf73b2ac84e2732f618","609d7e9f91fc7be0896339ad","485.6050000526011","","","","37","","","","key","16.666674157303728","851.5","471","true","-1","180","30","0","-1","","","","","","","","","","","","","",""
"psychophysics","130","456871","0.0-12.0-0.1","5d51a96b5054110015905fd9","609a8bf73b2ac84e2732f618","609d7e9f91fc7be0896339ad","363.8649999629706","","","","37","","","","key","16.665197530864123","851.5","471","true","-1","180","30","0","-1","-1","","","","","","","","","","","","",""
"psychophysics","131","458176","0.0-12.0-0.2","5d51a96b5054110015905fd9","609a8bf73b2ac84e2732f618","609d7e9f91fc7be0896339ad","300.73999997694045","","","","37","","","","key","16.668064935064827","851.5","471","true","-1","150","30","0","-1","-1","","","","","","","","","","","","",""
"psychophysics","132","459551","0.0-12.0-0.3","5d51a96b5054110015905fd9","609a8bf73b2ac84e2732f618","609d7e9f91fc7be0896339ad","370.5000000772998","","","","39","","","","key","16.666707317072973","851.5","471","true","1","150","30","0","-1","-1","","","","","","","","","","","","",""
"psychophysics","133","461839","0.0-12.0-0.4","5d51a96b5054110015905fd9","609a8bf73b2ac84e2732f618","609d7e9f91fc7be0896339ad","1284.6450000070035","","","","39","","","","key","16.66613970588215","851.5","471","true","1","129","30","0","-1","-1","","","","","","","","","","","","",""
"psychophysics","134","463271","0.0-12.0-0.5","5d51a96b5054110015905fd9","609a8bf73b2ac84e2732f618","609d7e9f91fc7be0896339ad","427.17999999877065","","","","39","","","","key","16.666482352941323","851.5","471","true","1","129","30","0","-1","-1","","","","","","","","","","","","",""
"psychophysics","135","465007","0.0-12.0-0.6","5d51a96b5054110015905fd9","609a8bf73b2ac84e2732f618","609d7e9f91fc7be0896339ad","731.5650000236928","","","","39","","","","key","16.66651456310692","851.5","471","true","-1","129","24","1","1","-1","","","","","","","","","","","","",""
"psychophysics","136","466487","0.0-12.0-0.7","5d51a96b5054110015905fd9","609a8bf73b2ac84e2732f618","609d7e9f91fc7be0896339ad","473.4300000127405","","","","39","","","","key","16.665852272727616","851.5","471","true","1","153","24","1","-1","1","","","","","","","","","","","","",""
"psychophysics","137","467919","0.0-12.0-0.8","5d51a96b5054110015905fd9","609a8bf73b2ac84e2732f618","609d7e9f91fc7be0896339ad","427.7199999196455","","","","39","","","","key","16.667188235294237","851.5","471","true","1","153","19.2","2","-1","-1","","","","","","","","","","","","",""
"psychophysics","138","469287","0.0-12.0-0.9","5d51a96b5054110015905fd9","609a8bf73b2ac84e2732f618","609d7e9f91fc7be0896339ad","363.15500002820045","","","","37","","","","key","16.66644444444395","851.5","471","true","-1","133.8","19.2","2","-1","-1","","","","","","","","","","","","",""
"psychophysics","139","470919","0.0-12.0-0.10","5d51a96b5054110015905fd9","609a8bf73b2ac84e2732f618","609d7e9f91fc7be0896339ad","628.7699999520555","","","","37","","","","key","16.665649484535777","851.5","471","true","1","133.8","15.36","3","1","-1","","","","","","","","","","","","",""
"psychophysics","140","472288","0.0-12.0-0.11","5d51a96b5054110015905fd9","609a8bf73b2ac84e2732f618","609d7e9f91fc7be0896339ad","363.7800000142306","","","","39","","","","key","16.665679012346196","851.5","471","true","1","149.16000000000003","15.36","3","-1","1","","","","","","","","","","","","",""
"psychophysics","141","473680","0.0-12.0-0.12","5d51a96b5054110015905fd9","609a8bf73b2ac84e2732f618","609d7e9f91fc7be0896339ad","388.0949999438599","","","","37","","","","key","16.665698795181036","851.5","471","true","-1","149.16000000000003","12.287999999999998","4","-1","-1","","","","","","","","","","","","",""
"psychophysics","142","474879","0.0-12.0-0.13","5d51a96b5054110015905fd9","609a8bf73b2ac84e2732f618","609d7e9f91fc7be0896339ad","193.71000002138317","","","","37","","","","key","16.664450704225857","851.5","471","true","-1","136.872","12.287999999999998","4","-1","-1","","","","","","","","","","","","",""
"psychophysics","143","476312","0.0-12.0-0.14","5d51a96b5054110015905fd9","609a8bf73b2ac84e2732f618","609d7e9f91fc7be0896339ad","429.65999990701675","","","","39","","","","key","16.665976470588323","851.5","471","true","1","136.872","12.287999999999998","4","-1","-1","","","","","","","","","","","","",""
"psychophysics","144","479223","0.0-12.0-0.15","5d51a96b5054110015905fd9","609a8bf73b2ac84e2732f618","609d7e9f91fc7be0896339ad","1906.0549999121577","","","","37","","","","key","16.666046242774705","851.5","471","true","-1","129","12.287999999999998","4","-1","-1","","","","","","","","","","","","",""
"psychophysics","145","480639","0.0-12.0-0.16","5d51a96b5054110015905fd9","609a8bf73b2ac84e2732f618","609d7e9f91fc7be0896339ad","409.7100000362843","","","","37","","","","key","16.666226190476056","851.5","471","true","1","129","9.8304","5","1","-1","","","","","","","","","","","","",""
"psychophysics","146","481992","0.0-12.0-0.17","5d51a96b5054110015905fd9","609a8bf73b2ac84e2732f618","609d7e9f91fc7be0896339ad","347.6599999703467","","","","37","","","","key","16.666125000000466","851.5","471","true","-1","138.8304","9.8304","5","-1","1","","","","","","","","","","","","",""
"psychophysics","147","483345","0.0-12.0-0.18","5d51a96b5054110015905fd9","609a8bf73b2ac84e2732f618","609d7e9f91fc7be0896339ad","349.3200000375509","","","","39","","","","key","16.66727160493826","851.5","471","true","1","138.8304","7.864319999999999","6","-1","-1","","","","","","","","","","","","",""
"psychophysics","148","484807","0.0-12.0-0.19","5d51a96b5054110015905fd9","609a8bf73b2ac84e2732f618","609d7e9f91fc7be0896339ad","457.2600000537932","","","","39","","","","key","16.665790697674776","851.5","471","true","-1","130.96608","6.291456","7","1","-1","","","","","","","","","","","","",""
"psychophysics","149","486199","0.0-12.0-0.20","5d51a96b5054110015905fd9","609a8bf73b2ac84e2732f618","609d7e9f91fc7be0896339ad","386.8149999761954","","","","37","","","","key","16.66661445783165","851.5","471","true","-1","137.25753600000002","6.291456","7","-1","1","","","","","","","","","","","","",""
"psychophysics","150","487951","0.0-12.0-0.21","5d51a96b5054110015905fd9","609a8bf73b2ac84e2732f618","609d7e9f91fc7be0896339ad","742.9550000233576","","","","39","","","","key","16.66646153846131","851.5","471","true","1","137.25753600000002","5.033164800000001","8","-1","-1","","","","","","","","","","","","",""
"psychophysics","151","489367","0.0-12.0-0.22","5d51a96b5054110015905fd9","609a8bf73b2ac84e2732f618","609d7e9f91fc7be0896339ad","409.0449999785051","","","","39","","","","key","16.665345238095533","851.5","471","true","1","132.2243712","5.033164800000001","8","-1","-1","","","","","","","","","","","","",""
"psychophysics","152","490761","0.0-12.0-0.23","5d51a96b5054110015905fd9","609a8bf73b2ac84e2732f618","609d7e9f91fc7be0896339ad","386.5999999688938","","","","37","","","","key","16.665421686746765","851.5","471","true","-1","132.2243712","5.033164800000001","8","-1","-1","","","","","","","","","","","","",""
"psychophysics","153","492103","0.0-12.0-0.24","5d51a96b5054110015905fd9","609a8bf73b2ac84e2732f618","609d7e9f91fc7be0896339ad","337.60999992955476","","","","37","","","","key","16.663784810126746","851.5","471","true","1","129","4.0265318400000005","9","1","-1","","","","","","","","","","","","",""
"psychophysics","154","494751","0.0-12.0-0.25","5d51a96b5054110015905fd9","609a8bf73b2ac84e2732f618","609d7e9f91fc7be0896339ad","1644.3450000369921","","","","39","","","","key","16.666727848101225","851.5","471","true","-1","133.02653184","4.0265318400000005","9","1","1","","","","","","","","","","","","",""
"psychophysics","155","495935","0.0-12.0-0.26","5d51a96b5054110015905fd9","609a8bf73b2ac84e2732f618","609d7e9f91fc7be0896339ad","177.09499993361533","","","","39","","","","key","16.665485714285335","851.5","471","true","1","137.05306367999998","4.0265318400000005","9","-1","1","","","","","","","","","","","","",""
"psychophysics","156","498295","0.0-12.0-0.27","5d51a96b5054110015905fd9","609a8bf73b2ac84e2732f618","609d7e9f91fc7be0896339ad","1353.5999999148771","","","","39","","","","key","16.665680851064067","851.5","471","true","1","137.05306367999998","3.2212254720000004","10","-1","-1","","","","","","","","","","","","",""
"psychophysics","157","500545","0.0-12.0-0.28","5d51a96b5054110015905fd9","609a8bf73b2ac84e2732f618","609d7e9f91fc7be0896339ad","1236.9299998972565","","","","39","","","","key","16.666380597014804","851.5","471","true","-1","133.83183820799997","2.5769803776000004","11","1","-1","","","","","","","","","","","","",""
"psychophysics","158","501823","0.0-12.0-0.29","5d51a96b5054110015905fd9","609a8bf73b2ac84e2732f618","609d7e9f91fc7be0896339ad","271.5199999511242","","","","39","","","","key","16.666000000000157","851.5","471","true","1","136.40881858559996","2.5769803776000004","11","-1","1","","","","","","","","","","","","",""
"psychophysics","159","503303","0.0-12.0-0.30","5d51a96b5054110015905fd9","609a8bf73b2ac84e2732f618","609d7e9f91fc7be0896339ad","471.5050000231713","","","","39","","","","key","16.665625000000134","851.5","471","true","1","136.40881858559996","2.0615843020800004","12","-1","-1","","","","","","","","","","","","",""
"psychophysics","160","505287","0.0-12.0-0.31","5d51a96b5054110015905fd9","609a8bf73b2ac84e2732f618","609d7e9f91fc7be0896339ad","979.0349999675527","","","","37","","","","key","16.66578813559293","851.5","471","true","1","134.34723428351995","1.6492674416640005","13","1","-1","","","","","","","","","","","","",""
"psychophysics","161","506535","0.0-12.0-0.32","5d51a96b5054110015905fd9","609a8bf73b2ac84e2732f618","609d7e9f91fc7be0896339ad","243.97499999031425","","","","39","","","","key","16.665283783784172","851.5","471","true","1","135.99650172518395","1.6492674416640005","13","-1","1","","","","","","","","","","","","",""
"psychophysics","162","507887","0.0-12.0-0.33","5d51a96b5054110015905fd9","609a8bf73b2ac84e2732f618","609d7e9f91fc7be0896339ad","345.50499997567385","","","","37","","","","key","16.66505000000034","851.5","471","true","1","135.99650172518395","1.3194139533312006","14","1","-1","","","","","","","","","","","","",""
"psychophysics","163","509177","0.0-12.0-0.34","5d51a96b5054110015905fd9","609a8bf73b2ac84e2732f618","609d7e9f91fc7be0896339ad","285.03999998793006","","","","37","","","","key","16.6690259740254","851.5","471","true","-1","137.31591567851515","1.3194139533312006","14","-1","1","","","","","","","","","","","","",""
"psychophysics","164","510454","0.0-12.0-0.35","5d51a96b5054110015905fd9","609a8bf73b2ac84e2732f618","609d7e9f91fc7be0896339ad","264.08999995328486","","","","37","","","","key","16.664919999999306","851.5","471","true","-1","137.31591567851515","1.0555311626649604","15","-1","-1","","","","","","","","","","","","",""
"psychophysics","165","512455","0.0-12.0-0.36","5d51a96b5054110015905fd9","609a8bf73b2ac84e2732f618","609d7e9f91fc7be0896339ad","985.0300000980496","","","","37","","","","key","16.666092436974907","851.5","471","true","-1","136.2603845158502","1.0555311626649604","15","-1","-1","","","","","","","","","","","","",""
"psychophysics","166","513511","0.0-12.0-0.37","5d51a96b5054110015905fd9","609a8bf73b2ac84e2732f618","609d7e9f91fc7be0896339ad","51.500000059604645","","","","37","","","","key","16.666634920634337","851.5","471","true","-1","136.2603845158502","1.0555311626649604","15","-1","-1","","","","","","","","","","","","",""
"psychophysics","167","515319","0.0-12.0-0.38","5d51a96b5054110015905fd9","609a8bf73b2ac84e2732f618","609d7e9f91fc7be0896339ad","796.3500000769272","","","","39","","","","key","16.666112149533028","851.5","471","true","-1","135.20485335318526","1","16","1","-1","","","","","","","","","","","","",""
"psychophysics","168","516494","0.0-12.0-0.39","5d51a96b5054110015905fd9","609a8bf73b2ac84e2732f618","609d7e9f91fc7be0896339ad","170.42999994009733","","","","37","","","","key","16.665471428571202","851.5","471","true","-1","136.20485335318526","1","16","-1","1","","","","","","","","","","","","",""
"html-keyboard-response","169","519693","0.0-13.0","5d51a96b5054110015905fd9","609a8bf73b2ac84e2732f618","609d7e9f91fc7be0896339ad","3194.969999953173","<p>Well Done !</p><p>Prepare for a new block.</p><p>DON'T EXIT THE FULL SCREEN MODE</p><p>Press the Spacebar to start.</p>","","","32","","","","","","","","","","","","","","","true","135.91231196054594","","","","","","","","","","",""
"html-keyboard-response","170","519804","0.0-14.0","5d51a96b5054110015905fd9","609a8bf73b2ac84e2732f618","609d7e9f91fc7be0896339ad","null","","","","null","","","","","","","","","","","","","","","","","134.03038859018238","true","140.06077718036477","","","","","","","",""
"instructions","171","566791","0.0-15.0","5d51a96b5054110015905fd9","609a8bf73b2ac84e2732f618","609d7e9f91fc7be0896339ad","46984.23499998171","","","","","","","[{""page_index"":0,""viewing_time"":33906.19999996852},{""page_index"":1,""viewing_time"":3553.27999999281},{""page_index"":2,""viewing_time"":9523.445000057109}]","","","","","","","","","","","","","","","","","","","","","","","",""
"psychophysics","172","569876","0.0-16.0-0.0","5d51a96b5054110015905fd9","609a8bf73b2ac84e2732f618","609d7e9f91fc7be0896339ad","null","","","","null","","","","key","16.668843749999724","851.5","471","","","","","","","","","","","","","","","","","","","",""
"psychophysics","173","570382","0.0-16.0-1.0","5d51a96b5054110015905fd9","609a8bf73b2ac84e2732f618","609d7e9f91fc7be0896339ad","null","","","","null","","","","key","16.662724137932447","851.5","471","","","","","","","","","","","","","140","-1","5","false","","","",""
"psychophysics","174","572624","0.0-16.0-2.0","5d51a96b5054110015905fd9","609a8bf73b2ac84e2732f618","609d7e9f91fc7be0896339ad","2238.6849999893457","","","","90","","","","key","16.66708208955199","851.5","471","","","","","","","","","","","","","","","","","","","",""
"psychophysics","175","573566","0.0-16.0-0.1","5d51a96b5054110015905fd9","609a8bf73b2ac84e2732f618","609d7e9f91fc7be0896339ad","null","","","","null","","","","key","16.66756363636391","851.5","471","","","","","","","","","","","","","","","","","","","",""
"psychophysics","176","574072","0.0-16.0-1.1","5d51a96b5054110015905fd9","609a8bf73b2ac84e2732f618","609d7e9f91fc7be0896339ad","null","","","","null","","","","key","16.67379310344956","851.5","471","","","","","","","","","","","","","140","-1","6","false","","","",""
"psychophysics","177","578319","0.0-16.0-2.1","5d51a96b5054110015905fd9","609a8bf73b2ac84e2732f618","609d7e9f91fc7be0896339ad","4229.969999985769","","","","90","","","","key","16.666669291338707","851.5","471","","","","","","","","","","","","","","","","","","","",""
"psychophysics","178","579455","0.0-16.0-0.2","5d51a96b5054110015905fd9","609a8bf73b2ac84e2732f618","609d7e9f91fc7be0896339ad","null","","","","null","","","","key","16.66579104477623","851.5","471","","","","","","","","","","","","","","","","","","","",""
"psychophysics","179","579960","0.0-16.0-1.2","5d51a96b5054110015905fd9","609a8bf73b2ac84e2732f618","609d7e9f91fc7be0896339ad","null","","","","null","","","","key","16.66610000000025","851.5","471","","","","","","","","","","","","","140","1","4","false","","","",""
"psychophysics","180","580454","0.0-16.0-2.2","5d51a96b5054110015905fd9","609a8bf73b2ac84e2732f618","609d7e9f91fc7be0896339ad","490.9500000067055","","","","77","","","","key","16.66832142857103","851.5","471","","","","","","","","","","","","","","","","","","","",""
"psychophysics","181","581781","0.0-16.0-0.3","5d51a96b5054110015905fd9","609a8bf73b2ac84e2732f618","609d7e9f91fc7be0896339ad","null","","","","null","","","","key","16.667886075949816","851.5","471","","","","","","","","","","","","","","","","","","","",""
"psychophysics","182","582286","0.0-16.0-1.3","5d51a96b5054110015905fd9","609a8bf73b2ac84e2732f618","609d7e9f91fc7be0896339ad","null","","","","null","","","","key","16.665206896550632","851.5","471","","","","","","","","","","","","","140","-1","4","false","","","",""
"psychophysics","183","583408","0.0-16.0-2.3","5d51a96b5054110015905fd9","609a8bf73b2ac84e2732f618","609d7e9f91fc7be0896339ad","1115.2049999218434","","","","77","","","","key","16.666029850747297","851.5","471","","","","","","","","","","","","","","","","","","","",""
"psychophysics","184","584395","0.0-16.0-0.4","5d51a96b5054110015905fd9","609a8bf73b2ac84e2732f618","609d7e9f91fc7be0896339ad","null","","","","null","","","","key","16.6650517241375","851.5","471","","","","","","","","","","","","","","","","","","","",""
"psychophysics","185","584898","0.0-16.0-1.4","5d51a96b5054110015905fd9","609a8bf73b2ac84e2732f618","609d7e9f91fc7be0896339ad","null","","","","null","","","","key","16.664931034480606","851.5","471","","","","","","","","","","","","","140","1","3","false","","","",""
"psychophysics","186","586414","0.0-16.0-2.4","5d51a96b5054110015905fd9","609a8bf73b2ac84e2732f618","609d7e9f91fc7be0896339ad","1512.4650000361726","","","","77","","","","key","16.66586666666618","851.5","471","","","","","","","","","","","","","","","","","","","",""
"psychophysics","187","587860","0.0-16.0-0.5","5d51a96b5054110015905fd9","609a8bf73b2ac84e2732f618","609d7e9f91fc7be0896339ad","null","","","","null","","","","key","16.66580232558095","851.5","471","","","","","","","","","","","","","","","","","","","",""
"psychophysics","188","588365","0.0-16.0-1.5","5d51a96b5054110015905fd9","609a8bf73b2ac84e2732f618","609d7e9f91fc7be0896339ad","null","","","","null","","","","key","16.66641379310348","851.5","471","","","","","","","","","","","","","140","-1","3","false","","","",""
"psychophysics","189","588608","0.0-16.0-2.5","5d51a96b5054110015905fd9","609a8bf73b2ac84e2732f618","609d7e9f91fc7be0896339ad","240.17500004265457","","","","90","","","","key","16.66471428571302","851.5","471","","","","","","","","","","","","","","","","","","","",""
"psychophysics","190","589181","0.0-16.0-0.6","5d51a96b5054110015905fd9","609a8bf73b2ac84e2732f618","609d7e9f91fc7be0896339ad","null","","","","null","","","","key","16.66530303030176","851.5","471","","","","","","","","","","","","","","","","","","","",""
"psychophysics","191","589686","0.0-16.0-1.6","5d51a96b5054110015905fd9","609a8bf73b2ac84e2732f618","609d7e9f91fc7be0896339ad","null","","","","null","","","","key","16.668310344829386","851.5","471","","","","","","","","","","","","","140","-1","2","false","","","",""
"psychophysics","192","590134","0.0-16.0-2.6","5d51a96b5054110015905fd9","609a8bf73b2ac84e2732f618","609d7e9f91fc7be0896339ad","443.0949999950826","","","","90","","","","key","16.66707692307402","851.5","471","","","","","","","","","","","","","","","","","","","",""
"psychophysics","193","591380","0.0-16.0-0.7","5d51a96b5054110015905fd9","609a8bf73b2ac84e2732f618","609d7e9f91fc7be0896339ad","null","","","","null","","","","key","16.66625675675774","851.5","471","","","","","","","","","","","","","","","","","","","",""
"psychophysics","194","591884","0.0-16.0-1.7","5d51a96b5054110015905fd9","609a8bf73b2ac84e2732f618","609d7e9f91fc7be0896339ad","null","","","","null","","","","key","16.666620689657","851.5","471","","","","","","","","","","","","","140","-1","0","false","","","",""
"psychophysics","195","592167","0.0-16.0-2.7","5d51a96b5054110015905fd9","609a8bf73b2ac84e2732f618","609d7e9f91fc7be0896339ad","279.5649999752641","","","","90","","","","key","16.667249999998603","851.5","471","","","","","","","","","","","","","","","","","","","",""
"psychophysics","196","592998","0.0-16.0-0.8","5d51a96b5054110015905fd9","609a8bf73b2ac84e2732f618","609d7e9f91fc7be0896339ad","null","","","","null","","","","key","16.666571428571658","851.5","471","","","","","","","","","","","","","","","","","","","",""
"psychophysics","197","593501","0.0-16.0-1.8","5d51a96b5054110015905fd9","609a8bf73b2ac84e2732f618","609d7e9f91fc7be0896339ad","null","","","","null","","","","key","16.667758620689334","851.5","471","","","","","","","","","","","","","140","1","0","false","","","",""
"psychophysics","198","594262","0.0-16.0-2.8","5d51a96b5054110015905fd9","609a8bf73b2ac84e2732f618","609d7e9f91fc7be0896339ad","758.5299999918789","","","","77","","","","key","16.66591111111144","851.5","471","","","","","","","","","","","","","","","","","","","",""
"psychophysics","199","595436","0.0-16.0-0.9","5d51a96b5054110015905fd9","609a8bf73b2ac84e2732f618","609d7e9f91fc7be0896339ad","null","","","","null","","","","key","16.6660144927547","851.5","471","","","","","","","","","","","","","","","","","","","",""
"psychophysics","200","595939","0.0-16.0-1.9","5d51a96b5054110015905fd9","609a8bf73b2ac84e2732f618","609d7e9f91fc7be0896339ad","null","","","","null","","","","key","16.666066666665333","851.5","471","","","","","","","","","","","","","140","1","5","false","","","",""
"psychophysics","201","596327","0.0-16.0-2.9","5d51a96b5054110015905fd9","609a8bf73b2ac84e2732f618","609d7e9f91fc7be0896339ad","383.67000001017004","","","","77","","","","key","16.666454545455053","851.5","471","","","","","","","","","","","","","","","","","","","",""
"psychophysics","202","597453","0.0-16.0-0.10","5d51a96b5054110015905fd9","609a8bf73b2ac84e2732f618","609d7e9f91fc7be0896339ad","null","","","","null","","","","key","16.6657727272726","851.5","471","","","","","","","","","","","","","","","","","","","",""
"psychophysics","203","597957","0.0-16.0-1.10","5d51a96b5054110015905fd9","609a8bf73b2ac84e2732f618","609d7e9f91fc7be0896339ad","null","","","","null","","","","key","16.667299999999038","851.5","471","","","","","","","","","","","","","140","1","2","false","","","",""
"psychophysics","204","598278","0.0-16.0-2.10","5d51a96b5054110015905fd9","609a8bf73b2ac84e2732f618","609d7e9f91fc7be0896339ad","317.5000000046566","","","","77","","","","key","16.667277777780935","851.5","471","","","","","","","","","","","","","","","","","","","",""
"psychophysics","205","599186","0.0-16.0-0.11","5d51a96b5054110015905fd9","609a8bf73b2ac84e2732f618","609d7e9f91fc7be0896339ad","null","","","","null","","","","key","16.665150943396718","851.5","471","","","","","","","","","","","","","","","","","","","",""
"psychophysics","206","599689","0.0-16.0-1.11","5d51a96b5054110015905fd9","609a8bf73b2ac84e2732f618","609d7e9f91fc7be0896339ad","null","","","","null","","","","key","16.667900000000373","851.5","471","","","","","","","","","","","","","140","1","6","false","","","",""
"psychophysics","207","599919","0.0-16.0-2.11","5d51a96b5054110015905fd9","609a8bf73b2ac84e2732f618","609d7e9f91fc7be0896339ad","225.17500002868474","","","","77","","","","key","16.666333333336905","851.5","471","","","","","","","","","","","","","","","","","","","",""
"psychophysics","208","600881","0.0-16.0-0.12","5d51a96b5054110015905fd9","609a8bf73b2ac84e2732f618","609d7e9f91fc7be0896339ad","null","","","","null","","","","key","16.665456140350567","851.5","471","","","","","","","","","","","","","","","","","","","",""
"psychophysics","209","601385","0.0-16.0-1.12","5d51a96b5054110015905fd9","609a8bf73b2ac84e2732f618","609d7e9f91fc7be0896339ad","null","","","","null","","","","key","16.66468965517084","851.5","471","","","","","","","","","","","","","140","-1","5","false","","","",""
"psychophysics","210","601966","0.0-16.0-2.12","5d51a96b5054110015905fd9","609a8bf73b2ac84e2732f618","609d7e9f91fc7be0896339ad","578.2449999824166","","","","77","","","","key","16.6657941176467","851.5","471","","","","","","","","","","","","","","","","","","","",""
"psychophysics","211","603171","0.0-16.0-0.13","5d51a96b5054110015905fd9","609a8bf73b2ac84e2732f618","609d7e9f91fc7be0896339ad","null","","","","null","","","","key","16.666436619718862","851.5","471","","","","","","","","","","","","","","","","","","","",""
"psychophysics","212","603676","0.0-16.0-1.13","5d51a96b5054110015905fd9","609a8bf73b2ac84e2732f618","609d7e9f91fc7be0896339ad","null","","","","null","","","","key","16.534133333332527","851.5","471","","","","","","","","","","","","","140","1","0","false","","","",""
"psychophysics","213","604159","0.0-16.0-2.13","5d51a96b5054110015905fd9","609a8bf73b2ac84e2732f618","609d7e9f91fc7be0896339ad","479.0300000458956","","","","77","","","","key","16.66425000000163","851.5","471","","","","","","","","","","","","","","","","","","","",""
"psychophysics","214","605222","0.0-16.0-0.14","5d51a96b5054110015905fd9","609a8bf73b2ac84e2732f618","609d7e9f91fc7be0896339ad","null","","","","null","","","","key","16.66535483870933","851.5","471","","","","","","","","","","","","","","","","","","","",""
"psychophysics","215","605726","0.0-16.0-1.14","5d51a96b5054110015905fd9","609a8bf73b2ac84e2732f618","609d7e9f91fc7be0896339ad","null","","","","null","","","","key","16.66633333333302","851.5","471","","","","","","","","","","","","","140","1","2","false","","","",""
"psychophysics","216","606550","0.0-16.0-2.14","5d51a96b5054110015905fd9","609a8bf73b2ac84e2732f618","609d7e9f91fc7be0896339ad","821.3349999859929","","","","77","","","","key","16.666833333333972","851.5","471","","","","","","","","","","","","","","","","","","","",""
"psychophysics","217","607140","0.0-16.0-0.15","5d51a96b5054110015905fd9","609a8bf73b2ac84e2732f618","609d7e9f91fc7be0896339ad","null","","","","null","","","","key","16.6639142857166","851.5","471","","","","","","","","","","","","","","","","","","","",""
"psychophysics","218","607643","0.0-16.0-1.15","5d51a96b5054110015905fd9","609a8bf73b2ac84e2732f618","609d7e9f91fc7be0896339ad","null","","","","null","","","","key","16.662965517242213","851.5","471","","","","","","","","","","","","","140","-1","3","false","","","",""
"psychophysics","219","608086","0.0-16.0-2.15","5d51a96b5054110015905fd9","609a8bf73b2ac84e2732f618","609d7e9f91fc7be0896339ad","438.98500001523644","","","","90","","","","key","16.667039999999105","851.5","471","","","","","","","","","","","","","","","","","","","",""
"psychophysics","220","609515","0.0-16.0-0.16","5d51a96b5054110015905fd9","609a8bf73b2ac84e2732f618","609d7e9f91fc7be0896339ad","null","","","","null","","","","key","16.666435294117615","851.5","471","","","","","","","","","","","","","","","","","","","",""
"psychophysics","221","610019","0.0-16.0-1.16","5d51a96b5054110015905fd9","609a8bf73b2ac84e2732f618","609d7e9f91fc7be0896339ad","null","","","","null","","","","key","16.664034482762055","851.5","471","","","","","","","","","","","","","140","1","6","false","","","",""
"psychophysics","222","610615","0.0-16.0-2.16","5d51a96b5054110015905fd9","609a8bf73b2ac84e2732f618","609d7e9f91fc7be0896339ad","589.4049999769777","","","","77","","","","key","16.667342857141712","851.5","471","","","","","","","","","","","","","","","","","","","",""
"psychophysics","223","611703","0.0-16.0-0.17","5d51a96b5054110015905fd9","609a8bf73b2ac84e2732f618","609d7e9f91fc7be0896339ad","null","","","","null","","","","key","16.665312500001164","851.5","471","","","","","","","","","","","","","","","","","","","",""
"psychophysics","224","612207","0.0-16.0-1.17","5d51a96b5054110015905fd9","609a8bf73b2ac84e2732f618","609d7e9f91fc7be0896339ad","null","","","","null","","","","key","16.667233333333083","851.5","471","","","","","","","","","","","","","140","1","4","false","","","",""
"psychophysics","225","612382","0.0-16.0-2.17","5d51a96b5054110015905fd9","609a8bf73b2ac84e2732f618","609d7e9f91fc7be0896339ad","171.06500000227243","","","","77","","","","key","16.663777777769912","851.5","471","","","","","","","","","","","","","","","","","","","",""
"psychophysics","226","613496","0.0-16.0-0.18","5d51a96b5054110015905fd9","609a8bf73b2ac84e2732f618","609d7e9f91fc7be0896339ad","null","","","","null","","","","key","16.666712121212516","851.5","471","","","","","","","","","","","","","","","","","","","",""
"psychophysics","227","614000","0.0-16.0-1.18","5d51a96b5054110015905fd9","609a8bf73b2ac84e2732f618","609d7e9f91fc7be0896339ad","null","","","","null","","","","key","16.666068965516953","851.5","471","","","","","","","","","","","","","140","-1","2","false","","","",""
"psychophysics","228","614246","0.0-16.0-2.18","5d51a96b5054110015905fd9","609a8bf73b2ac84e2732f618","609d7e9f91fc7be0896339ad","243.1750000687316","","","","90","","","","key","16.663928571431565","851.5","471","","","","","","","","","","","","","","","","","","","",""
"psychophysics","229","614908","0.0-16.0-0.19","5d51a96b5054110015905fd9","609a8bf73b2ac84e2732f618","609d7e9f91fc7be0896339ad","null","","","","null","","","","key","16.665564102562477","851.5","471","","","","","","","","","","","","","","","","","","","",""
"psychophysics","230","615411","0.0-16.0-1.19","5d51a96b5054110015905fd9","609a8bf73b2ac84e2732f618","609d7e9f91fc7be0896339ad","null","","","","null","","","","key","16.66862068965164","851.5","471","","","","","","","","","","","","","140","-1","4","false","","","",""
"psychophysics","231","615934","0.0-16.0-2.19","5d51a96b5054110015905fd9","609a8bf73b2ac84e2732f618","609d7e9f91fc7be0896339ad","520.1099999248981","","","","77","","","","key","16.666033333330414","851.5","471","","","","","","","","","","","","","","","","","","","",""
"psychophysics","232","617256","0.0-16.0-0.20","5d51a96b5054110015905fd9","609a8bf73b2ac84e2732f618","609d7e9f91fc7be0896339ad","null","","","","null","","","","key","16.666189873417178","851.5","471","","","","","","","","","","","","","","","","","","","",""
"psychophysics","233","617759","0.0-16.0-1.20","5d51a96b5054110015905fd9","609a8bf73b2ac84e2732f618","609d7e9f91fc7be0896339ad","null","","","","null","","","","key","16.66848275862265","851.5","471","","","","","","","","","","","","","140","-1","6","false","","","",""
"psychophysics","234","618182","0.0-16.0-2.20","5d51a96b5054110015905fd9","609a8bf73b2ac84e2732f618","609d7e9f91fc7be0896339ad","419.2200000397861","","","","77","","","","key","16.670875000001008","851.5","471","","","","","","","","","","","","","","","","","","","",""
"psychophysics","235","618793","0.0-16.0-0.21","5d51a96b5054110015905fd9","609a8bf73b2ac84e2732f618","609d7e9f91fc7be0896339ad","null","","","","null","","","","key","16.66563888888858","851.5","471","","","","","","","","","","","","","","","","","","","",""
"psychophysics","236","619296","0.0-16.0-1.21","5d51a96b5054110015905fd9","609a8bf73b2ac84e2732f618","609d7e9f91fc7be0896339ad","null","","","","null","","","","key","16.66686206896677","851.5","471","","","","","","","","","","","","","140","-1","0","false","","","",""
"psychophysics","237","619975","0.0-16.0-2.21","5d51a96b5054110015905fd9","609a8bf73b2ac84e2732f618","609d7e9f91fc7be0896339ad","675.1200000289828","","","","77","","","","key","16.664449999999487","851.5","471","","","","","","","","","","","","","","","","","","","",""
"psychophysics","238","621005","0.0-16.0-0.22","5d51a96b5054110015905fd9","609a8bf73b2ac84e2732f618","609d7e9f91fc7be0896339ad","null","","","","null","","","","key","16.66598333333192","851.5","471","","","","","","","","","","","","","","","","","","","",""
"psychophysics","239","621509","0.0-16.0-1.22","5d51a96b5054110015905fd9","609a8bf73b2ac84e2732f618","609d7e9f91fc7be0896339ad","null","","","","null","","","","key","16.66626666666707","851.5","471","","","","","","","","","","","","","140","1","5","false","","","",""
"psychophysics","240","622208","0.0-16.0-2.22","5d51a96b5054110015905fd9","609a8bf73b2ac84e2732f618","609d7e9f91fc7be0896339ad","695.5099999904633","","","","77","","","","key","16.667219512195825","851.5","471","","","","","","","","","","","","","","","","","","","",""
"psychophysics","241","623685","0.0-16.0-0.23","5d51a96b5054110015905fd9","609a8bf73b2ac84e2732f618","609d7e9f91fc7be0896339ad","null","","","","null","","","","key","16.666551724137825","851.5","471","","","","","","","","","","","","","","","","","","","",""
"psychophysics","242","624189","0.0-16.0-1.23","5d51a96b5054110015905fd9","609a8bf73b2ac84e2732f618","609d7e9f91fc7be0896339ad","null","","","","null","","","","key","16.665166666665268","851.5","471","","","","","","","","","","","","","140","1","3","false","","","",""
"psychophysics","243","625366","0.0-16.0-2.23","5d51a96b5054110015905fd9","609a8bf73b2ac84e2732f618","609d7e9f91fc7be0896339ad","1173.2499999925494","","","","77","","","","key","16.66621739130494","851.5","471","","","","","","","","","","","","","","","","","","","",""
"html-keyboard-response","244","631242","0.0-17.0","5d51a96b5054110015905fd9","609a8bf73b2ac84e2732f618","609d7e9f91fc7be0896339ad","5871.139999944717","<p>Well Done !</p><p>Training Complete. Press the spacebar to start.</p><p>DON'T EXIT THE FULL SCREEN MODE</p>","","","32","","","","","","","","","","","","","","","","","","","","","","","","","","",""
"psychophysics","245","634493","0.0-18.0-0.0","5d51a96b5054110015905fd9","609a8bf73b2ac84e2732f618","609d7e9f91fc7be0896339ad","null","","","","null","","","","key","16.66724324324231","851.5","471","","","","","","","","","","","","","","","","","","","",""
"psychophysics","246","635000","0.0-18.0-1.0","5d51a96b5054110015905fd9","609a8bf73b2ac84e2732f618","609d7e9f91fc7be0896339ad","null","","","","null","","","","key","16.666758620690008","851.5","471","","","","","","","","","","","","","140","-1","6","true","","","",""
"psychophysics","247","637544","0.0-18.0-2.0","5d51a96b5054110015905fd9","609a8bf73b2ac84e2732f618","609d7e9f91fc7be0896339ad","2540.5349999200553","","","","77","","","","key","16.666177631579462","851.5","471","","","","","","","","","","","","","","","","","","","",""
"psychophysics","248","638573","0.0-18.0-0.1","5d51a96b5054110015905fd9","609a8bf73b2ac84e2732f618","609d7e9f91fc7be0896339ad","null","","","","null","","","","key","16.667081967211846","851.5","471","","","","","","","","","","","","","","","","","","","",""
"psychophysics","249","639080","0.0-18.0-1.1","5d51a96b5054110015905fd9","609a8bf73b2ac84e2732f618","609d7e9f91fc7be0896339ad","null","","","","null","","","","key","16.666931034483273","851.5","471","","","","","","","","","","","","","140","1","6","true","","","",""
"psychophysics","250","639351","0.0-18.0-2.1","5d51a96b5054110015905fd9","609a8bf73b2ac84e2732f618","609d7e9f91fc7be0896339ad","267.9299999726936","","","","77","","","","key","16.664866666666544","851.5","471","","","","","","","","","","","","","","","","","","","",""
"psychophysics","251","639954","0.0-18.0-0.2","5d51a96b5054110015905fd9","609a8bf73b2ac84e2732f618","609d7e9f91fc7be0896339ad","null","","","","null","","","","key","16.66608571428473","851.5","471","","","","","","","","","","","","","","","","","","","",""
"psychophysics","252","640458","0.0-18.0-1.2","5d51a96b5054110015905fd9","609a8bf73b2ac84e2732f618","609d7e9f91fc7be0896339ad","null","","","","null","","","","key","16.6661666666662","851.5","471","","","","","","","","","","","","","140","-1","2","true","","","",""
"psychophysics","253","640727","0.0-18.0-2.2","5d51a96b5054110015905fd9","609a8bf73b2ac84e2732f618","609d7e9f91fc7be0896339ad","265.91499999631196","","","","90","","","","key","16.66553333333383","851.5","471","","","","","","","","","","","","","","","","","","","",""
"psychophysics","254","641294","0.0-18.0-0.3","5d51a96b5054110015905fd9","609a8bf73b2ac84e2732f618","609d7e9f91fc7be0896339ad","null","","","","null","","","","key","16.66566666666503","851.5","471","","","","","","","","","","","","","","","","","","","",""
"psychophysics","255","641798","0.0-18.0-1.3","5d51a96b5054110015905fd9","609a8bf73b2ac84e2732f618","609d7e9f91fc7be0896339ad","null","","","","null","","","","key","16.667724137929074","851.5","471","","","","","","","","","","","","","140","-1","0","true","","","",""
"psychophysics","256","642103","0.0-18.0-2.3","5d51a96b5054110015905fd9","609a8bf73b2ac84e2732f618","609d7e9f91fc7be0896339ad","300.9700000984594","","","","90","","","","key","16.667764705886572","851.5","471","","","","","","","","","","","","","","","","","","","",""
"psychophysics","257","642611","0.0-18.0-0.4","5d51a96b5054110015905fd9","609a8bf73b2ac84e2732f618","609d7e9f91fc7be0896339ad","null","","","","null","","","","key","16.666300000001986","851.5","471","","","","","","","","","","","","","","","","","","","",""
"psychophysics","258","643114","0.0-18.0-1.4","5d51a96b5054110015905fd9","609a8bf73b2ac84e2732f618","609d7e9f91fc7be0896339ad","null","","","","null","","","","key","16.666068965516953","851.5","471","","","","","","","","","","","","","140","1","3","true","","","",""
"psychophysics","259","643183","0.0-18.0-2.4","5d51a96b5054110015905fd9","609a8bf73b2ac84e2732f618","609d7e9f91fc7be0896339ad","66.00999995134771","","","","77","","","","key","16.663000000019867","851.5","471","","","","","","","","","","","","","","","","","","","",""
"psychophysics","260","644188","0.0-18.0-0.5","5d51a96b5054110015905fd9","609a8bf73b2ac84e2732f618","609d7e9f91fc7be0896339ad","null","","","","null","","","","key","16.66633898305107","851.5","471","","","","","","","","","","","","","","","","","","","",""
"psychophysics","261","644691","0.0-18.0-1.5","5d51a96b5054110015905fd9","609a8bf73b2ac84e2732f618","609d7e9f91fc7be0896339ad","null","","","","null","","","","key","16.666466666664927","851.5","471","","","","","","","","","","","","","140","-1","5","true","","","",""
"psychophysics","262","644855","0.0-18.0-2.5","5d51a96b5054110015905fd9","609a8bf73b2ac84e2732f618","609d7e9f91fc7be0896339ad","161.01999999955297","","","","77","","","","key","16.66150000000198","851.5","471","","","","","","","","","","","","","","","","","","","",""
"psychophysics","263","645655","0.0-18.0-0.6","5d51a96b5054110015905fd9","609a8bf73b2ac84e2732f618","609d7e9f91fc7be0896339ad","null","","","","null","","","","key","16.665446808512144","851.5","471","","","","","","","","","","","","","","","","","","","",""
"psychophysics","264","646159","0.0-18.0-1.6","5d51a96b5054110015905fd9","609a8bf73b2ac84e2732f618","609d7e9f91fc7be0896339ad","null","","","","null","","","","key","16.664833333331625","851.5","471","","","","","","","","","","","","","140","-1","3","true","","","",""
"psychophysics","265","646608","0.0-18.0-2.6","5d51a96b5054110015905fd9","609a8bf73b2ac84e2732f618","609d7e9f91fc7be0896339ad","445.0100000249222","","","","77","","","","key","16.66719230769041","851.5","471","","","","","","","","","","","","","","","","","","","",""
"psychophysics","266","647891","0.0-18.0-0.7","5d51a96b5054110015905fd9","609a8bf73b2ac84e2732f618","609d7e9f91fc7be0896339ad","null","","","","null","","","","key","16.666250000000122","851.5","471","","","","","","","","","","","","","","","","","","","",""
"psychophysics","267","648395","0.0-18.0-1.7","5d51a96b5054110015905fd9","609a8bf73b2ac84e2732f618","609d7e9f91fc7be0896339ad","null","","","","null","","","","key","16.66386206896478","851.5","471","","","","","","","","","","","","","140","1","2","true","","","",""
"psychophysics","268","648519","0.0-18.0-2.7","5d51a96b5054110015905fd9","609a8bf73b2ac84e2732f618","609d7e9f91fc7be0896339ad","120.66499993670732","","","","77","","","","key","16.66316666667505","851.5","471","","","","","","","","","","","","","","","","","","","",""
"psychophysics","269","649476","0.0-18.0-0.8","5d51a96b5054110015905fd9","609a8bf73b2ac84e2732f618","609d7e9f91fc7be0896339ad","null","","","","null","","","","key","16.66645614035109","851.5","471","","","","","","","","","","","","","","","","","","","",""
"psychophysics","270","649980","0.0-18.0-1.8","5d51a96b5054110015905fd9","609a8bf73b2ac84e2732f618","609d7e9f91fc7be0896339ad","null","","","","null","","","","key","16.66620689654996","851.5","471","","","","","","","","","","","","","140","1","0","true","","","",""
"psychophysics","271","650159","0.0-18.0-2.8","5d51a96b5054110015905fd9","609a8bf73b2ac84e2732f618","609d7e9f91fc7be0896339ad","176.5899999300018","","","","77","","","","key","16.664000000001398","851.5","471","","","","","","","","","","","","","","","","","","","",""
"psychophysics","272","651118","0.0-18.0-0.9","5d51a96b5054110015905fd9","609a8bf73b2ac84e2732f618","609d7e9f91fc7be0896339ad","null","","","","null","","","","key","16.665196428572276","851.5","471","","","","","","","","","","","","","","","","","","","",""
"psychophysics","273","651622","0.0-18.0-1.9","5d51a96b5054110015905fd9","609a8bf73b2ac84e2732f618","609d7e9f91fc7be0896339ad","null","","","","null","","","","key","16.66569999999677","851.5","471","","","","","","","","","","","","","140","1","5","true","","","",""
"psychophysics","274","651759","0.0-18.0-2.9","5d51a96b5054110015905fd9","609a8bf73b2ac84e2732f618","609d7e9f91fc7be0896339ad","133.03999998606741","","","","77","","","","key","16.67685714285887","851.5","471","","","","","","","","","","","","","","","","","","","",""
"psychophysics","275","652846","0.0-18.0-0.10","5d51a96b5054110015905fd9","609a8bf73b2ac84e2732f618","609d7e9f91fc7be0896339ad","null","","","","null","","","","key","16.6651562499992","851.5","471","","","","","","","","","","","","","","","","","","","",""
"psychophysics","276","653350","0.0-18.0-1.10","5d51a96b5054110015905fd9","609a8bf73b2ac84e2732f618","609d7e9f91fc7be0896339ad","null","","","","null","","","","key","16.664413793104828","851.5","471","","","","","","","","","","","","","140","1","4","true","","","",""
"psychophysics","277","653559","0.0-18.0-2.10","5d51a96b5054110015905fd9","609a8bf73b2ac84e2732f618","609d7e9f91fc7be0896339ad","206.11999998800457","","","","77","","","","key","16.66858333332736","851.5","471","","","","","","","","","","","","","","","","","","","",""
"psychophysics","278","654524","0.0-18.0-0.11","5d51a96b5054110015905fd9","609a8bf73b2ac84e2732f618","609d7e9f91fc7be0896339ad","null","","","","null","","","","key","16.665649122807704","851.5","471","","","","","","","","","","","","","","","","","","","",""
"psychophysics","279","655028","0.0-18.0-1.11","5d51a96b5054110015905fd9","609a8bf73b2ac84e2732f618","609d7e9f91fc7be0896339ad","null","","","","null","","","","key","16.66651724138024","851.5","471","","","","","","","","","","","","","140","-1","4","true","","","",""
"psychophysics","280","655679","0.0-18.0-2.11","5d51a96b5054110015905fd9","609a8bf73b2ac84e2732f618","609d7e9f91fc7be0896339ad","647.069999948144","","","","77","","","","key","16.66707894736656","851.5","471","","","","","","","","","","","","","","","","","","","",""
"psychophysics","281","657161","0.0-18.0-0.12","5d51a96b5054110015905fd9","609a8bf73b2ac84e2732f618","609d7e9f91fc7be0896339ad","null","","","","null","","","","key","16.666227272726246","851.5","471","","","","","","","","","","","","","","","","","","","",""
"psychophysics","282","657666","0.0-18.0-1.12","5d51a96b5054110015905fd9","609a8bf73b2ac84e2732f618","609d7e9f91fc7be0896339ad","null","","","","null","","","","key","16.666758620690008","851.5","471","","","","","","","","","","","","","140","1","2","true","","","",""
"psychophysics","283","658111","0.0-18.0-2.12","5d51a96b5054110015905fd9","609a8bf73b2ac84e2732f618","609d7e9f91fc7be0896339ad","440.790000022389","","","","90","","","","key","16.666576923077137","851.5","471","","","","","","","","","","","","","","","","","","","",""
"psychophysics","284","659168","0.0-18.0-0.13","5d51a96b5054110015905fd9","609a8bf73b2ac84e2732f618","609d7e9f91fc7be0896339ad","null","","","","null","","","","key","16.66614516128996","851.5","471","","","","","","","","","","","","","","","","","","","",""
"psychophysics","285","659673","0.0-18.0-1.13","5d51a96b5054110015905fd9","609a8bf73b2ac84e2732f618","609d7e9f91fc7be0896339ad","null","","","","null","","","","key","16.668166666664185","851.5","471","","","","","","","","","","","","","140","1","0","true","","","",""
"psychophysics","286","659911","0.0-18.0-2.13","5d51a96b5054110015905fd9","609a8bf73b2ac84e2732f618","609d7e9f91fc7be0896339ad","234.22000010032207","","","","77","","","","key","16.66715384615012","851.5","471","","","","","","","","","","","","","","","","","","","",""
"psychophysics","287","660798","0.0-18.0-0.14","5d51a96b5054110015905fd9","609a8bf73b2ac84e2732f618","609d7e9f91fc7be0896339ad","null","","","","null","","","","key","16.6663461538466","851.5","471","","","","","","","","","","","","","","","","","","","",""
"psychophysics","288","661302","0.0-18.0-1.14","5d51a96b5054110015905fd9","609a8bf73b2ac84e2732f618","609d7e9f91fc7be0896339ad","null","","","","null","","","","key","16.666896551723013","851.5","471","","","","","","","","","","","","","140","1","3","true","","","",""
"psychophysics","289","661391","0.0-18.0-2.14","5d51a96b5054110015905fd9","609a8bf73b2ac84e2732f618","609d7e9f91fc7be0896339ad","79.21999995596707","","","","77","","","","key","16.675799999991433","851.5","471","","","","","","","","","","","","","","","","","","","",""
"psychophysics","290","662544","0.0-18.0-0.15","5d51a96b5054110015905fd9","609a8bf73b2ac84e2732f618","609d7e9f91fc7be0896339ad","null","","","","null","","","","key","16.666338235293924","851.5","471","","","","","","","","","","","","","","","","","","","",""
"psychophysics","291","663054","0.0-18.0-1.15","5d51a96b5054110015905fd9","609a8bf73b2ac84e2732f618","609d7e9f91fc7be0896339ad","null","","","","null","","","","key","16.666655172413247","851.5","471","","","","","","","","","","","","","140","-1","2","true","","","",""
"psychophysics","292","663279","0.0-18.0-2.15","5d51a96b5054110015905fd9","609a8bf73b2ac84e2732f618","609d7e9f91fc7be0896339ad","219.0849999897182","","","","90","","","","key","16.66253846153939","851.5","471","","","","","","","","","","","","","","","","","","","",""
"psychophysics","293","663989","0.0-18.0-0.16","5d51a96b5054110015905fd9","609a8bf73b2ac84e2732f618","609d7e9f91fc7be0896339ad","null","","","","null","","","","key","16.6657142857134","851.5","471","","","","","","","","","","","","","","","","","","","",""
"psychophysics","294","664494","0.0-18.0-1.16","5d51a96b5054110015905fd9","609a8bf73b2ac84e2732f618","609d7e9f91fc7be0896339ad","null","","","","null","","","","key","16.667689655172833","851.5","471","","","","","","","","","","","","","140","-1","3","true","","","",""
"psychophysics","295","664679","0.0-18.0-2.16","5d51a96b5054110015905fd9","609a8bf73b2ac84e2732f618","609d7e9f91fc7be0896339ad","181.0350000159815","","","","90","","","","key","16.668999999994412","851.5","471","","","","","","","","","","","","","","","","","","","",""
"psychophysics","296","665582","0.0-18.0-0.17","5d51a96b5054110015905fd9","609a8bf73b2ac84e2732f618","609d7e9f91fc7be0896339ad","null","","","","null","","","","key","16.66652830188681","851.5","471","","","","","","","","","","","","","","","","","","","",""
"psychophysics","297","666087","0.0-18.0-1.17","5d51a96b5054110015905fd9","609a8bf73b2ac84e2732f618","609d7e9f91fc7be0896339ad","null","","","","null","","","","key","16.659896551727734","851.5","471","","","","","","","","","","","","","140","1","6","true","","","",""
"psychophysics","298","666287","0.0-18.0-2.17","5d51a96b5054110015905fd9","609a8bf73b2ac84e2732f618","609d7e9f91fc7be0896339ad","184.71999990288168","","","","77","","","","key","16.657272727271035","851.5","471","","","","","","","","","","","","","","","","","","","",""
"psychophysics","299","667454","0.0-18.0-0.18","5d51a96b5054110015905fd9","609a8bf73b2ac84e2732f618","609d7e9f91fc7be0896339ad","null","","","","null","","","","key","16.666710144927915","851.5","471","","","","","","","","","","","","","","","","","","","",""
"psychophysics","300","667962","0.0-18.0-1.18","5d51a96b5054110015905fd9","609a8bf73b2ac84e2732f618","609d7e9f91fc7be0896339ad","null","","","","null","","","","key","16.66636666666794","851.5","471","","","","","","","","","","","","","140","1","4","true","","","",""
"psychophysics","301","668111","0.0-18.0-2.18","5d51a96b5054110015905fd9","609a8bf73b2ac84e2732f618","609d7e9f91fc7be0896339ad","144.80500004719943","","","","77","","","","key","16.670249999995576","851.5","471","","","","","","","","","","","","","","","","","","","",""
"psychophysics","302","669187","0.0-18.0-0.19","5d51a96b5054110015905fd9","609a8bf73b2ac84e2732f618","609d7e9f91fc7be0896339ad","null","","","","null","","","","key","16.666222222223286","851.5","471","","","","","","","","","","","","","","","","","","","",""
"psychophysics","303","669700","0.0-18.0-1.19","5d51a96b5054110015905fd9","609a8bf73b2ac84e2732f618","609d7e9f91fc7be0896339ad","null","","","","null","","","","key","16.665133333334232","851.5","471","","","","","","","","","","","","","140","-1","4","true","","","",""
"psychophysics","304","670151","0.0-18.0-2.19","5d51a96b5054110015905fd9","609a8bf73b2ac84e2732f618","609d7e9f91fc7be0896339ad","448.66500003263354","","","","77","","","","key","16.663115384612375","851.5","471","","","","","","","","","","","","","","","","","","","",""
"psychophysics","305","671289","0.0-18.0-0.20","5d51a96b5054110015905fd9","609a8bf73b2ac84e2732f618","609d7e9f91fc7be0896339ad","null","","","","null","","","","key","16.666117647058428","851.5","471","","","","","","","","","","","","","","","","","","","",""
"psychophysics","306","671796","0.0-18.0-1.20","5d51a96b5054110015905fd9","609a8bf73b2ac84e2732f618","609d7e9f91fc7be0896339ad","null","","","","null","","","","key","16.663758620688018","851.5","471","","","","","","","","","","","","","140","1","5","true","","","",""
"psychophysics","307","671911","0.0-18.0-2.20","5d51a96b5054110015905fd9","609a8bf73b2ac84e2732f618","609d7e9f91fc7be0896339ad","111.38000001665205","","","","77","","","","key","16.66433333333892","851.5","471","","","","","","","","","","","","","","","","","","","",""
"psychophysics","308","672418","0.0-18.0-0.21","5d51a96b5054110015905fd9","609a8bf73b2ac84e2732f618","609d7e9f91fc7be0896339ad","null","","","","null","","","","key","16.66703448275602","851.5","471","","","","","","","","","","","","","","","","","","","",""
"psychophysics","309","672922","0.0-18.0-1.21","5d51a96b5054110015905fd9","609a8bf73b2ac84e2732f618","609d7e9f91fc7be0896339ad","null","","","","null","","","","key","16.66589999999851","851.5","471","","","","","","","","","","","","","140","-1","5","true","","","",""
"psychophysics","310","673040","0.0-18.0-2.21","5d51a96b5054110015905fd9","609a8bf73b2ac84e2732f618","609d7e9f91fc7be0896339ad","114.6849999204278","","","","77","","","","key","16.67233333333085","851.5","471","","","","","","","","","","","","","","","","","","","",""
"psychophysics","311","673771","0.0-18.0-0.22","5d51a96b5054110015905fd9","609a8bf73b2ac84e2732f618","609d7e9f91fc7be0896339ad","null","","","","null","","","","key","16.6665000000004","851.5","471","","","","","","","","","","","","","","","","","","","",""
"psychophysics","312","674287","0.0-18.0-1.22","5d51a96b5054110015905fd9","609a8bf73b2ac84e2732f618","609d7e9f91fc7be0896339ad","null","","","","null","","","","key","16.6661666666662","851.5","471","","","","","","","","","","","","","140","-1","6","true","","","",""
"psychophysics","313","674367","0.0-18.0-2.22","5d51a96b5054110015905fd9","609a8bf73b2ac84e2732f618","609d7e9f91fc7be0896339ad","74.239999987185","","","","77","","","","key","16.690499999996973","851.5","471","","","","","","","","","","","","","","","","","","","",""
"psychophysics","314","675504","0.0-18.0-0.23","5d51a96b5054110015905fd9","609a8bf73b2ac84e2732f618","609d7e9f91fc7be0896339ad","null","","","","null","","","","key","16.665358208955627","851.5","471","","","","","","","","","","","","","","","","","","","",""
"psychophysics","315","676016","0.0-18.0-1.23","5d51a96b5054110015905fd9","609a8bf73b2ac84e2732f618","609d7e9f91fc7be0896339ad","null","","","","null","","","","key","16.665933333333427","851.5","471","","","","","","","","","","","","","140","-1","0","true","","","",""
"psychophysics","316","676231","0.0-18.0-2.23","5d51a96b5054110015905fd9","609a8bf73b2ac84e2732f618","609d7e9f91fc7be0896339ad","211.3050000043586","","","","90","","","","key","16.666750000003958","851.5","471","","","","","","","","","","","","","","","","","","","",""
"psychophysics","317","677182","0.0-18.0-0.24","5d51a96b5054110015905fd9","609a8bf73b2ac84e2732f618","609d7e9f91fc7be0896339ad","null","","","","null","","","","key","16.66726785714231","851.5","471","","","","","","","","","","","","","","","","","","","",""
"psychophysics","318","677687","0.0-18.0-1.24","5d51a96b5054110015905fd9","609a8bf73b2ac84e2732f618","609d7e9f91fc7be0896339ad","null","","","","null","","","","key","16.66644827586374","851.5","471","","","","","","","","","","","","","140","-1","5","true","","","",""
"psychophysics","319","678399","0.0-18.0-2.24","5d51a96b5054110015905fd9","609a8bf73b2ac84e2732f618","609d7e9f91fc7be0896339ad","705.6800000136718","","","","77","","","","key","16.6665000000004","851.5","471","","","","","","","","","","","","","","","","","","","",""
"psychophysics","320","679537","0.0-18.0-0.25","5d51a96b5054110015905fd9","609a8bf73b2ac84e2732f618","609d7e9f91fc7be0896339ad","null","","","","null","","","","key","16.667000000000193","851.5","471","","","","","","","","","","","","","","","","","","","",""
"psychophysics","321","680042","0.0-18.0-1.25","5d51a96b5054110015905fd9","609a8bf73b2ac84e2732f618","609d7e9f91fc7be0896339ad","null","","","","null","","","","key","16.666300000001986","851.5","471","","","","","","","","","","","","","140","1","2","true","","","",""
"psychophysics","322","680263","0.0-18.0-2.25","5d51a96b5054110015905fd9","609a8bf73b2ac84e2732f618","609d7e9f91fc7be0896339ad","217.17000007629395","","","","90","","","","key","16.66491666667086","851.5","471","","","","","","","","","","","","","","","","","","","",""
"psychophysics","323","681321","0.0-18.0-0.26","5d51a96b5054110015905fd9","609a8bf73b2ac84e2732f618","609d7e9f91fc7be0896339ad","null","","","","null","","","","key","16.66430645161158","851.5","471","","","","","","","","","","","","","","","","","","","",""
"psychophysics","324","681834","0.0-18.0-1.26","5d51a96b5054110015905fd9","609a8bf73b2ac84e2732f618","609d7e9f91fc7be0896339ad","null","","","","null","","","","key","16.66633333333302","851.5","471","","","","","","","","","","","","","140","1","3","true","","","",""
"psychophysics","325","682103","0.0-18.0-2.26","5d51a96b5054110015905fd9","609a8bf73b2ac84e2732f618","609d7e9f91fc7be0896339ad","265.9849999472499","","","","90","","","","key","16.66813333333315","851.5","471","","","","","","","","","","","","","","","","","","","",""
"psychophysics","326","682713","0.0-18.0-0.27","5d51a96b5054110015905fd9","609a8bf73b2ac84e2732f618","609d7e9f91fc7be0896339ad","null","","","","null","","","","key","16.66655555555351","851.5","471","","","","","","","","","","","","","","","","","","","",""
"psychophysics","327","683220","0.0-18.0-1.27","5d51a96b5054110015905fd9","609a8bf73b2ac84e2732f618","609d7e9f91fc7be0896339ad","null","","","","null","","","","key","16.665310344827393","851.5","471","","","","","","","","","","","","","140","1","6","true","","","",""
