"trial_type","trial_index","time_elapsed","internal_node_id","PROLIFIC_PID","STUDY_ID","SESSION_ID","rt","stimulus","button_pressed","success","key_press","responses","isData","view_history","response_type","avg_frame_time","center_x","center_y","isSC","stim_side","trial_luminance","step_size","nReversal","correct","prev_ans","isThreshold","SC_threshold","final_threshold","isLuminance","FF_luminance","luminance","stimSide","ISInt","isFF","question_order","isSPQ","isCAPS","isAQ"
"pavlovia","0","6","0.0-0.0","609ae2994317d68738facfc1","609a8bf73b2ac84e2732f618","609d76e27105857c9c6856db","","","","","","","","","","","","","","","","","","","","","","","","","","","","","","","",""
"html-button-response","1","54501","0.0-1.0","609ae2994317d68738facfc1","609a8bf73b2ac84e2732f618","609d76e27105857c9c6856db","54503.264999999374","<div style='background-color: white; width:60%; margin: auto; padding: 50px; text-align: justify; text-justify: inter-word; margin-bottom: 20px;'><h1 style='text-align: center;'>Consent Form</h1><p>Please read this consent form carefully before deciding whether you would like to participate in this study. You have to be 18 years old or older to participate to this study.</p><p style='text-decoration: underline;'>Participation is voluntary:</p><p>It is your choice whether or not to participate in this research. If you choose to participate, you may change your mind and leave the study at any time. Refusal to participate or stopping your participation will involve no penalty or loss of benefits to which you are otherwise entitled.</p><p style='text-decoration: underline;'>Purpose of the Study:</p><p>To understand the mechanisms underlying human perception.</p><p style='text-decoration: underline;'>What you will do in this study:</p><p>You will be presented with a series of visual images and then you will press buttons on the keyboard of your computer to respond to simple questions about the images (e.g. Were one or two images presented?). In addition, you will be asked to complete a questionnaire concerning your beliefs and everyday mental and perceptual experiences.'</p><p style='text-decoration: underline;'> Time Required:</p><p>The study will take 40 minutes to complete. </p><p style='text-decoration: underline;'>Risks:</p><p>There are no anticipated risks associated with participating in this study that are beyond those experienced in everyday life. </p><p style='text-decoration: underline;'>Benefits:</p><p>There are no benefits to you in participating in the study. However, this study may lead to a better understanding of how different kinds of visual information are used.</p><p style='text-decoration: underline;'>Compensation:</p><p>You will be paid US$6.6/hour. </p><p style='text-decoration: underline;'>Privacy and Confidentiality:</p><p>Your participation in this study will be anonymous. No personal information about your name or identity will be asked or recorded. This anonymous data will be stored for several years and may be used for a variety of research purposes. The overall results of the study may be published, or the data files may be shared with other researchers, but your identity will not be revealed in any way. The online services we are using for this study may temporarily store your data, but this data will be downloaded and then promptly deleted from those services.Your data will not be permanently associated with your name, IP address, or any other identifiable information (e.g., your information will only be connected to your payment, not to any of your responses), though they may be temporarily stored together before we download and separate them. Even so, no guarantee of internet survey security can be given because, although unlikely, transmissions can be intercepted and IP addresses can be identified. The anonymous data may be shared publicly (for example, in conjunction with a resulting academic publication).</p><p style='text-decoration: underline;'>Participation and Withdrawal:</p><p>Your participation in this study is completely voluntary. You may stop responding to the stimuli or stop answering questions if you so choose and without penalty by exiting the full screen mode, closing this tab of your browser or redirecting it to a different website.</p><p style='text-decoration: underline;'>Contact Info of the Researcher: </p><p>If you have questions about this study, or if you would like to talk to the research team, please contact David Melcher (david.melcher@nyu.edu, md5050@nyu.edu) at the Perception and Active Cognition Laboratory, New York University Abu Dhabi, Computational Research Building, Saadiyat Island, Abu Dhabi, UAE.This research has been reviewed by the New York University Abu Dhabi Institutional Review Board (NYUAD IRB). To contact about your rights in this research, for questions, suggestions, or complaints that are not addressed by the researchers, please email IRBnyuad@nyu.edu, or call the NYUAD IRB at +971 2 628 4313. </p></div>","0","","","","","","","","","","","","","","","","","","","","","","","","","","","","",""
"fullscreen","2","59381","0.0-2.0","609ae2994317d68738facfc1","609a8bf73b2ac84e2732f618","609d76e27105857c9c6856db","","","","true","","","","","","","","","","","","","","","","","","","","","","","","","","","",""
"html-keyboard-response","3","102901","0.0-3.0","609ae2994317d68738facfc1","609a8bf73b2ac84e2732f618","609d76e27105857c9c6856db","43507.480000000214","<p>Welcome !</p><p>READ CAREFULLY THE FOLLOWING INDICATIONS:</p><p>From this moment you have ~40 minutes to complete the experiment.</p><p>During the experiment you will be prompted to take several breaks. Each break should not last longer than 2-3 minutes.</p><p>Make sure that your computer is plugged in and it's not running on battery power, even if the battery is already fully charged.</p><p>Turn off your phone and music, make sure that you are in a quiet room and that you will not be distracted for the next hour.</p><p>Failure to comply with the instructions and indications provided during the experiment will most likely result in the rejection of your data.<p>Press the spacebar to start.</p>","","","32","","","","","","","","","","","","","","","","","","","","","","","","","","",""
"survey-html-form","4","112912","0.0-4.0","609ae2994317d68738facfc1","609a8bf73b2ac84e2732f618","609d76e27105857c9c6856db","10006.949999999051","","","","","{""age"":""21"",""sex"":""M""}","true","","","","","","","","","","","","","","","","","","","","","","","","",""
"instructions","5","193998","0.0-5.0","609ae2994317d68738facfc1","609a8bf73b2ac84e2732f618","609d76e27105857c9c6856db","81084.19000000141","","","","","","","[{""page_index"":0,""viewing_time"":55856.424999999945},{""page_index"":1,""viewing_time"":17482.085000001476},{""page_index"":2,""viewing_time"":7745.064999999129}]","","","","","","","","","","","","","","","","","","","","","","","",""
"psychophysics","6","196892","0.0-6.0-0.0","609ae2994317d68738facfc1","609a8bf73b2ac84e2732f618","609d76e27105857c9c6856db","1886.6500000003725","","","","37","","","","key","17.060035502958456","683","328.5","true","-1","180","30","0","-1","","","","","","","","","","","","","",""
"psychophysics","7","198453","0.0-6.0-0.1","609ae2994317d68738facfc1","609a8bf73b2ac84e2732f618","609d76e27105857c9c6856db","555.1850000011036","","","","39","","","","key","16.665290322580677","683","328.5","true","1","180","30","0","-1","-1","","","","","","","","","","","","",""
"psychophysics","8","199583","0.0-6.0-0.2","609ae2994317d68738facfc1","609a8bf73b2ac84e2732f618","609d76e27105857c9c6856db","126.96500000127708","","","","37","","","","key","16.665358208955194","683","328.5","true","-1","150","30","0","-1","-1","","","","","","","","","","","","",""
"psychophysics","9","200716","0.0-6.0-0.3","609ae2994317d68738facfc1","609a8bf73b2ac84e2732f618","609d76e27105857c9c6856db","128.69999999931315","","","","39","","","","key","16.667567164178873","683","328.5","true","1","150","30","0","-1","-1","","","","","","","","","","","","",""
"psychophysics","10","203515","0.0-6.0-0.4","609ae2994317d68738facfc1","609a8bf73b2ac84e2732f618","609d76e27105857c9c6856db","1794.61000000083","","","","37","","","","key","16.66564071856294","683","328.5","true","-1","129","30","0","-1","-1","","","","","","","","","","","","",""
"psychophysics","11","207548","0.0-6.0-0.5","609ae2994317d68738facfc1","609a8bf73b2ac84e2732f618","609d76e27105857c9c6856db","3030.48500000115","","","","37","","","","key","16.665336099585023","683","328.5","true","-1","129","30","0","-1","-1","","","","","","","","","","","","",""
"psychophysics","12","209787","0.0-6.0-0.6","609ae2994317d68738facfc1","609a8bf73b2ac84e2732f618","609d76e27105857c9c6856db","1236.230000000418","","","","39","","","","key","16.665270676691726","683","328.5","true","-1","129","24","1","1","-1","","","","","","","","","","","","",""
"psychophysics","13","211478","0.0-6.0-0.7","609ae2994317d68738facfc1","609a8bf73b2ac84e2732f618","609d76e27105857c9c6856db","686.4600000008068","","","","39","","","","key","16.665349999999744","683","328.5","true","1","153","24","1","-1","1","","","","","","","","","","","","",""
"psychophysics","14","213121","0.0-6.0-0.8","609ae2994317d68738facfc1","609a8bf73b2ac84e2732f618","609d76e27105857c9c6856db","639.4099999997416","","","","37","","","","key","16.665408163265223","683","328.5","true","-1","153","19.2","2","-1","-1","","","","","","","","","","","","",""
"psychophysics","15","214690","0.0-6.0-0.9","609ae2994317d68738facfc1","609a8bf73b2ac84e2732f618","609d76e27105857c9c6856db","567.2599999997765","","","","37","","","","key","16.66533333333322","683","328.5","true","-1","133.8","19.2","2","-1","-1","","","","","","","","","","","","",""
"psychophysics","16","216498","0.0-6.0-0.10","609ae2994317d68738facfc1","609a8bf73b2ac84e2732f618","609d76e27105857c9c6856db","804.8199999993958","","","","39","","","","key","16.665166666666565","683","328.5","true","1","133.8","19.2","2","-1","-1","","","","","","","","","","","","",""
"psychophysics","17","218439","0.0-6.0-0.11","609ae2994317d68738facfc1","609a8bf73b2ac84e2732f618","609d76e27105857c9c6856db","936.4399999994785","","","","37","","","","key","16.66535652173916","683","328.5","true","-1","129","19.2","2","-1","-1","","","","","","","","","","","","",""
"psychophysics","18","220200","0.0-6.0-0.12","609ae2994317d68738facfc1","609a8bf73b2ac84e2732f618","609d76e27105857c9c6856db","753.9099999994505","","","","39","","","","key","16.665447619047647","683","328.5","true","1","129","19.2","2","-1","-1","","","","","","","","","","","","",""
"psychophysics","19","221982","0.0-6.0-0.13","609ae2994317d68738facfc1","609a8bf73b2ac84e2732f618","609d76e27105857c9c6856db","777.6300000005285","","","","37","","","","key","16.665452830188684","683","328.5","true","1","129","15.36","3","1","-1","","","","","","","","","","","","",""
"psychophysics","20","223732","0.0-6.0-0.14","609ae2994317d68738facfc1","609a8bf73b2ac84e2732f618","609d76e27105857c9c6856db","746.5699999993085","","","","39","","","","key","16.665336538461606","683","328.5","true","1","144.36","15.36","3","-1","1","","","","","","","","","","","","",""
"psychophysics","21","225628","0.0-6.0-0.15","609ae2994317d68738facfc1","609a8bf73b2ac84e2732f618","609d76e27105857c9c6856db","893.8099999995902","","","","37","","","","key","16.6651592920354","683","328.5","true","-1","144.36","12.287999999999998","4","-1","-1","","","","","","","","","","","","",""
"psychophysics","22","227446","0.0-6.0-0.16","609ae2994317d68738facfc1","609a8bf73b2ac84e2732f618","609d76e27105857c9c6856db","813.8650000001071","","","","39","","","","key","16.66534259259249","683","328.5","true","1","132.072","12.287999999999998","4","-1","-1","","","","","","","","","","","","",""
"psychophysics","23","229183","0.0-6.0-0.17","609ae2994317d68738facfc1","609a8bf73b2ac84e2732f618","609d76e27105857c9c6856db","733.3549999984971","","","","37","","","","key","16.665398058252357","683","328.5","true","-1","132.072","12.287999999999998","4","-1","-1","","","","","","","","","","","","",""
"psychophysics","24","231439","0.0-6.0-0.18","609ae2994317d68738facfc1","609a8bf73b2ac84e2732f618","609d76e27105857c9c6856db","1252.3350000010396","","","","37","","","","key","16.665447761194127","683","328.5","true","1","129","9.8304","5","1","-1","","","","","","","","","","","","",""
"psychophysics","25","233110","0.0-6.0-0.19","609ae2994317d68738facfc1","609a8bf73b2ac84e2732f618","609d76e27105857c9c6856db","668.0400000004738","","","","39","","","","key","16.665101010100727","683","328.5","true","1","138.8304","9.8304","5","-1","1","","","","","","","","","","","","",""
"psychophysics","26","234728","0.0-6.0-0.20","609ae2994317d68738facfc1","609a8bf73b2ac84e2732f618","609d76e27105857c9c6856db","614.4349999995029","","","","37","","","","key","16.66531958762879","683","328.5","true","-1","138.8304","7.864319999999999","6","-1","-1","","","","","","","","","","","","",""
"psychophysics","27","236486","0.0-6.0-0.21","609ae2994317d68738facfc1","609a8bf73b2ac84e2732f618","609d76e27105857c9c6856db","753.3100000000559","","","","37","","","","key","16.665663461538387","683","328.5","true","-1","130.96608","7.864319999999999","6","-1","-1","","","","","","","","","","","","",""
"psychophysics","28","238532","0.0-6.0-0.22","609ae2994317d68738facfc1","609a8bf73b2ac84e2732f618","609d76e27105857c9c6856db","1043.0400000004738","","","","39","","","","key","16.665352459016475","683","328.5","true","1","130.96608","7.864319999999999","6","-1","-1","","","","","","","","","","","","",""
"psychophysics","29","240746","0.0-6.0-0.23","609ae2994317d68738facfc1","609a8bf73b2ac84e2732f618","609d76e27105857c9c6856db","1211.1000000004424","","","","39","","","","key","16.665287878787872","683","328.5","true","1","129","7.864319999999999","6","-1","-1","","","","","","","","","","","","",""
"psychophysics","30","245638","0.0-6.0-0.24","609ae2994317d68738facfc1","609a8bf73b2ac84e2732f618","609d76e27105857c9c6856db","3887.015000000247","","","","37","","","","key","16.665390410958885","683","328.5","true","-1","129","7.864319999999999","6","-1","-1","","","","","","","","","","","","",""
"psychophysics","31","247710","0.0-6.0-0.25","609ae2994317d68738facfc1","609a8bf73b2ac84e2732f618","609d76e27105857c9c6856db","1066.6450000007753","","","","39","","","","key","16.665483870967893","683","328.5","true","1","129","7.864319999999999","6","-1","-1","","","","","","","","","","","","",""
"psychophysics","32","249838","0.0-6.0-0.26","609ae2994317d68738facfc1","609a8bf73b2ac84e2732f618","609d76e27105857c9c6856db","1125.5499999988533","","","","37","","","","key","16.6651984126982","683","328.5","true","-1","129","7.864319999999999","6","-1","-1","","","","","","","","","","","","",""
"psychophysics","33","253119","0.0-6.0-0.27","609ae2994317d68738facfc1","609a8bf73b2ac84e2732f618","609d76e27105857c9c6856db","2273.0150000006543","","","","39","","","","key","16.665505102040882","683","328.5","true","1","129","7.864319999999999","6","-1","-1","","","","","","","","","","","","",""
"psychophysics","34","257118","0.0-6.0-0.28","609ae2994317d68738facfc1","609a8bf73b2ac84e2732f618","609d76e27105857c9c6856db","2991.710000000254","","","","39","","","","key","16.66533472803341","683","328.5","true","1","129","7.864319999999999","6","-1","-1","","","","","","","","","","","","",""
"psychophysics","35","259055","0.0-6.0-0.29","609ae2994317d68738facfc1","609a8bf73b2ac84e2732f618","609d76e27105857c9c6856db","933.5600000013364","","","","37","","","","key","16.66535652173916","683","328.5","true","1","129","6.291456","7","1","-1","","","","","","","","","","","","",""
"psychophysics","36","268191","0.0-6.0-0.30","609ae2994317d68738facfc1","609a8bf73b2ac84e2732f618","609d76e27105857c9c6856db","8130.825000000186","","","","39","","","","key","16.665418647166355","683","328.5","true","1","135.291456","6.291456","7","-1","1","","","","","","","","","","","","",""
"psychophysics","37","271149","0.0-6.0-0.31","609ae2994317d68738facfc1","609a8bf73b2ac84e2732f618","609d76e27105857c9c6856db","1954.7600000005332","","","","39","","","","key","16.665084745762883","683","328.5","true","-1","135.291456","5.033164800000001","8","1","-1","","","","","","","","","","","","",""
"psychophysics","38","272598","0.0-6.0-0.32","609ae2994317d68738facfc1","609a8bf73b2ac84e2732f618","609d76e27105857c9c6856db","446.2700000003679","","","","37","","","","key","16.665302325581568","683","328.5","true","-1","140.32462080000002","5.033164800000001","8","-1","1","","","","","","","","","","","","",""
"psychophysics","39","274193","0.0-6.0-0.33","609ae2994317d68738facfc1","609a8bf73b2ac84e2732f618","609d76e27105857c9c6856db","591.8099999998813","","","","39","","","","key","16.665284210526213","683","328.5","true","1","140.32462080000002","4.0265318400000005","9","-1","-1","","","","","","","","","","","","",""
"psychophysics","40","275694","0.0-6.0-0.34","609ae2994317d68738facfc1","609a8bf73b2ac84e2732f618","609d76e27105857c9c6856db","498.89000000077067","","","","39","","","","key","16.66534831460691","683","328.5","true","1","136.29808896000003","4.0265318400000005","9","-1","-1","","","","","","","","","","","","",""
"psychophysics","41","277182","0.0-6.0-0.35","609ae2994317d68738facfc1","609a8bf73b2ac84e2732f618","609d76e27105857c9c6856db","486.02000000030966","","","","37","","","","key","16.665488636363907","683","328.5","true","-1","136.29808896000003","4.0265318400000005","9","-1","-1","","","","","","","","","","","","",""
"psychophysics","42","278628","0.0-6.0-0.36","609ae2994317d68738facfc1","609a8bf73b2ac84e2732f618","609d76e27105857c9c6856db","444.1950000000652","","","","37","","","","key","16.665674418604222","683","328.5","true","-1","132.27155712000004","4.0265318400000005","9","-1","-1","","","","","","","","","","","","",""
"psychophysics","43","280136","0.0-6.0-0.37","609ae2994317d68738facfc1","609a8bf73b2ac84e2732f618","609d76e27105857c9c6856db","503.8550000008545","","","","39","","","","key","16.663460674157413","683","328.5","true","1","132.27155712000004","4.0265318400000005","9","-1","-1","","","","","","","","","","","","",""
"psychophysics","44","281603","0.0-6.0-0.38","609ae2994317d68738facfc1","609a8bf73b2ac84e2732f618","609d76e27105857c9c6856db","461.12499999976717","","","","39","","","","key","16.665379310344566","683","328.5","true","-1","129","3.2212254720000004","10","1","-1","","","","","","","","","","","","",""
"psychophysics","45","284129","0.0-6.0-0.39","609ae2994317d68738facfc1","609a8bf73b2ac84e2732f618","609d76e27105857c9c6856db","1520.8649999985937","","","","39","","","","key","16.665258278145874","683","328.5","true","-1","132.22122547200001","3.2212254720000004","10","1","1","","","","","","","","","","","","",""
"html-keyboard-response","46","289848","0.0-7.0","609ae2994317d68738facfc1","609a8bf73b2ac84e2732f618","609d76e27105857c9c6856db","5730.330000000307","<p>Well Done !</p><p>Prepare for a new block.</p><p>DON'T EXIT THE FULL SCREEN MODE</p><p>Press the Spacebar to start.</p>","","","32","","","","","","","","","","","","","","","true","132.97284474880004","","","","","","","","","","",""
"psychophysics","47","292151","0.0-8.0-0.0","609ae2994317d68738facfc1","609a8bf73b2ac84e2732f618","609d76e27105857c9c6856db","1300.1999999997206","","","","37","","","","key","16.66776086956531","683","328.5","true","-1","180","30","0","-1","","","","","","","","","","","","","",""
"psychophysics","48","293568","0.0-8.0-0.1","609ae2994317d68738facfc1","609a8bf73b2ac84e2732f618","609d76e27105857c9c6856db","412.77500000066357","","","","37","","","","key","16.6652619047624","683","328.5","true","-1","180","30","0","-1","-1","","","","","","","","","","","","",""
"psychophysics","49","295111","0.0-8.0-0.2","609ae2994317d68738facfc1","609a8bf73b2ac84e2732f618","609d76e27105857c9c6856db","540.910000001546","","","","37","","","","key","16.66672826086996","683","328.5","true","-1","150","30","0","-1","-1","","","","","","","","","","","","",""
"psychophysics","50","296794","0.0-8.0-0.3","609ae2994317d68738facfc1","609a8bf73b2ac84e2732f618","609d76e27105857c9c6856db","679.8049999997602","","","","37","","","","key","16.665410000000264","683","328.5","true","-1","150","30","0","-1","-1","","","","","","","","","","","","",""
"psychophysics","51","298565","0.0-8.0-0.4","609ae2994317d68738facfc1","609a8bf73b2ac84e2732f618","609d76e27105857c9c6856db","766.5150000011781","","","","39","","","","key","16.665333333333756","683","328.5","true","1","129","30","0","-1","-1","","","","","","","","","","","","",""
"psychophysics","52","300123","0.0-8.0-0.5","609ae2994317d68738facfc1","609a8bf73b2ac84e2732f618","609d76e27105857c9c6856db","553.7300000014366","","","","37","","","","key","16.66534782608695","683","328.5","true","-1","129","30","0","-1","-1","","","","","","","","","","","","",""
"psychophysics","53","302045","0.0-8.0-0.6","609ae2994317d68738facfc1","609a8bf73b2ac84e2732f618","609d76e27105857c9c6856db","919.6599999995669","","","","39","","","","key","16.66526086956526","683","328.5","true","-1","129","24","1","1","-1","","","","","","","","","","","","",""
"psychophysics","54","303843","0.0-8.0-0.7","609ae2994317d68738facfc1","609a8bf73b2ac84e2732f618","609d76e27105857c9c6856db","794.1300000002375","","","","37","","","","key","16.66538317757006","683","328.5","true","1","153","24","1","1","1","","","","","","","","","","","","",""
"psychophysics","55","305526","0.0-8.0-0.8","609ae2994317d68738facfc1","609a8bf73b2ac84e2732f618","609d76e27105857c9c6856db","680.4099999989849","","","","37","","","","key","16.665380000000006","683","328.5","true","1","177","24","1","1","1","","","","","","","","","","","","",""
"psychophysics","56","307090","0.0-8.0-0.9","609ae2994317d68738facfc1","609a8bf73b2ac84e2732f618","609d76e27105857c9c6856db","559.5199999988545","","","","39","","","","key","16.665456521739227","683","328.5","true","1","201","24","1","-1","1","","","","","","","","","","","","",""
"psychophysics","57","308934","0.0-8.0-0.10","609ae2994317d68738facfc1","609a8bf73b2ac84e2732f618","609d76e27105857c9c6856db","842.1500000004307","","","","39","","","","key","16.665327272727154","683","328.5","true","1","201","19.2","2","-1","-1","","","","","","","","","","","","",""
"psychophysics","58","311048","0.0-8.0-0.11","609ae2994317d68738facfc1","609a8bf73b2ac84e2732f618","609d76e27105857c9c6856db","1112.069999999192","","","","39","","","","key","16.665436507936285","683","328.5","true","1","181.8","19.2","2","-1","-1","","","","","","","","","","","","",""
"psychophysics","59","312749","0.0-8.0-0.12","609ae2994317d68738facfc1","609a8bf73b2ac84e2732f618","609d76e27105857c9c6856db","697.3350000007777","","","","39","","","","key","16.665138613861423","683","328.5","true","1","181.8","19.2","2","-1","-1","","","","","","","","","","","","",""
"psychophysics","60","315345","0.0-8.0-0.13","609ae2994317d68738facfc1","609a8bf73b2ac84e2732f618","609d76e27105857c9c6856db","1592.6249999993015","","","","39","","","","key","16.665296774193823","683","328.5","true","1","162.60000000000002","19.2","2","-1","-1","","","","","","","","","","","","",""
"psychophysics","61","316855","0.0-8.0-0.14","609ae2994317d68738facfc1","609a8bf73b2ac84e2732f618","609d76e27105857c9c6856db","507.42999999964377","","","","37","","","","key","16.66511235955064","683","328.5","true","-1","162.60000000000002","19.2","2","-1","-1","","","","","","","","","","","","",""
"psychophysics","62","318624","0.0-8.0-0.15","609ae2994317d68738facfc1","609a8bf73b2ac84e2732f618","609d76e27105857c9c6856db","765.8399999999674","","","","39","","","","key","16.665424528301646","683","328.5","true","1","143.40000000000003","19.2","2","-1","-1","","","","","","","","","","","","",""
"psychophysics","63","320367","0.0-8.0-0.16","609ae2994317d68738facfc1","609a8bf73b2ac84e2732f618","609d76e27105857c9c6856db","738.2449999986566","","","","37","","","","key","16.66543689320368","683","328.5","true","-1","143.40000000000003","19.2","2","-1","-1","","","","","","","","","","","","",""
"psychophysics","64","322777","0.0-8.0-0.17","609ae2994317d68738facfc1","609a8bf73b2ac84e2732f618","609d76e27105857c9c6856db","1405.829999999667","","","","39","","","","key","16.665340277777837","683","328.5","true","-1","129","15.36","3","1","-1","","","","","","","","","","","","",""
"psychophysics","65","324396","0.0-8.0-0.18","609ae2994317d68738facfc1","609a8bf73b2ac84e2732f618","609d76e27105857c9c6856db","615.8200000008801","","","","39","","","","key","16.66557291666686","683","328.5","true","1","144.36","15.36","3","-1","1","","","","","","","","","","","","",""
"psychophysics","66","325843","0.0-8.0-0.19","609ae2994317d68738facfc1","609a8bf73b2ac84e2732f618","609d76e27105857c9c6856db","444.15499999921303","","","","37","","","","key","16.665290697674717","683","328.5","true","-1","144.36","12.287999999999998","4","-1","-1","","","","","","","","","","","","",""
"psychophysics","67","327924","0.0-8.0-0.20","609ae2994317d68738facfc1","609a8bf73b2ac84e2732f618","609d76e27105857c9c6856db","1076.3150000002352","","","","37","","","","key","16.66531451612912","683","328.5","true","1","132.072","9.8304","5","1","-1","","","","","","","","","","","","",""
"psychophysics","68","329782","0.0-8.0-0.21","609ae2994317d68738facfc1","609a8bf73b2ac84e2732f618","609d76e27105857c9c6856db","853.3549999992829","","","","37","","","","key","16.665445454545658","683","328.5","true","-1","141.9024","9.8304","5","-1","1","","","","","","","","","","","","",""
"psychophysics","69","331400","0.0-8.0-0.22","609ae2994317d68738facfc1","609a8bf73b2ac84e2732f618","609d76e27105857c9c6856db","614.7999999994063","","","","39","","","","key","16.665343750000222","683","328.5","true","1","141.9024","7.864319999999999","6","-1","-1","","","","","","","","","","","","",""
"psychophysics","70","333114","0.0-8.0-0.23","609ae2994317d68738facfc1","609a8bf73b2ac84e2732f618","609d76e27105857c9c6856db","709.9300000009243","","","","39","","","","key","16.66523529411757","683","328.5","true","1","134.03808","7.864319999999999","6","-1","-1","","","","","","","","","","","","",""
"psychophysics","71","334782","0.0-8.0-0.24","609ae2994317d68738facfc1","609a8bf73b2ac84e2732f618","609d76e27105857c9c6856db","665.7150000010151","","","","37","","","","key","16.66535353535349","683","328.5","true","-1","134.03808","7.864319999999999","6","-1","-1","","","","","","","","","","","","",""
"psychophysics","72","336398","0.0-8.0-0.25","609ae2994317d68738facfc1","609a8bf73b2ac84e2732f618","609d76e27105857c9c6856db","613.0199999988545","","","","39","","","","key","16.66538541666705","683","328.5","true","1","129","7.864319999999999","6","-1","-1","","","","","","","","","","","","",""
"psychophysics","73","339003","0.0-8.0-0.26","609ae2994317d68738facfc1","609a8bf73b2ac84e2732f618","609d76e27105857c9c6856db","1597.8899999991409","","","","39","","","","key","16.665316129032327","683","328.5","true","1","129","7.864319999999999","6","-1","-1","","","","","","","","","","","","",""
"psychophysics","74","341143","0.0-8.0-0.27","609ae2994317d68738facfc1","609a8bf73b2ac84e2732f618","609d76e27105857c9c6856db","1136.239999999816","","","","39","","","","key","16.665359375000207","683","328.5","true","-1","129","6.291456","7","1","-1","","","","","","","","","","","","",""
"psychophysics","75","342605","0.0-8.0-0.28","609ae2994317d68738facfc1","609a8bf73b2ac84e2732f618","609d76e27105857c9c6856db","457.77500000078","","","","37","","","","key","16.665356321839063","683","328.5","true","-1","135.291456","6.291456","7","-1","1","","","","","","","","","","","","",""
"psychophysics","76","344243","0.0-8.0-0.29","609ae2994317d68738facfc1","609a8bf73b2ac84e2732f618","609d76e27105857c9c6856db","634.1400000001304","","","","37","","","","key","16.665340206185572","683","328.5","true","-1","135.291456","5.033164800000001","8","-1","-1","","","","","","","","","","","","",""
"psychophysics","77","345872","0.0-8.0-0.30","609ae2994317d68738facfc1","609a8bf73b2ac84e2732f618","609d76e27105857c9c6856db","625.5849999997881","","","","39","","","","key","16.665412371133854","683","328.5","true","-1","130.2582912","4.0265318400000005","9","1","-1","","","","","","","","","","","","",""
"psychophysics","78","347496","0.0-8.0-0.31","609ae2994317d68738facfc1","609a8bf73b2ac84e2732f618","609d76e27105857c9c6856db","620.320000000007","","","","37","","","","key","16.665229166666297","683","328.5","true","-1","134.28482304","4.0265318400000005","9","-1","1","","","","","","","","","","","","",""
"psychophysics","79","349058","0.0-8.0-0.32","609ae2994317d68738facfc1","609a8bf73b2ac84e2732f618","609d76e27105857c9c6856db","559.8099999988335","","","","39","","","","key","16.666698924730838","683","328.5","true","1","134.28482304","3.2212254720000004","10","-1","-1","","","","","","","","","","","","",""
"psychophysics","80","350573","0.0-8.0-0.33","609ae2994317d68738facfc1","609a8bf73b2ac84e2732f618","609d76e27105857c9c6856db","495.41499999939697","","","","39","","","","key","16.66544943820264","683","328.5","true","1","131.06359756799998","3.2212254720000004","10","-1","-1","","","","","","","","","","","","",""
"psychophysics","81","352246","0.0-8.0-0.34","609ae2994317d68738facfc1","609a8bf73b2ac84e2732f618","609d76e27105857c9c6856db","669.4549999992596","","","","39","","","","key","16.665414141414622","683","328.5","true","-1","131.06359756799998","2.5769803776000004","11","1","-1","","","","","","","","","","","","",""
"psychophysics","82","353828","0.0-8.0-0.35","609ae2994317d68738facfc1","609a8bf73b2ac84e2732f618","609d76e27105857c9c6856db","578.390000000596","","","","39","","","","key","16.665276595744913","683","328.5","true","1","133.64057794559997","2.5769803776000004","11","-1","1","","","","","","","","","","","","",""
"psychophysics","83","355285","0.0-8.0-0.36","609ae2994317d68738facfc1","609a8bf73b2ac84e2732f618","609d76e27105857c9c6856db","454.06999999977415","","","","37","","","","key","16.665321839080143","683","328.5","true","-1","133.64057794559997","2.0615843020800004","12","-1","-1","","","","","","","","","","","","",""
"psychophysics","84","357492","0.0-8.0-0.37","609ae2994317d68738facfc1","609a8bf73b2ac84e2732f618","609d76e27105857c9c6856db","1204.5099999996019","","","","37","","","","key","16.66535877862604","683","328.5","true","-1","131.57899364351996","2.0615843020800004","12","-1","-1","","","","","","","","","","","","",""
"psychophysics","85","359262","0.0-8.0-0.38","609ae2994317d68738facfc1","609a8bf73b2ac84e2732f618","609d76e27105857c9c6856db","766.475000000326","","","","37","","","","key","16.66544761904737","683","328.5","true","1","131.57899364351996","1.6492674416640005","13","1","-1","","","","","","","","","","","","",""
"psychophysics","86","360651","0.0-8.0-0.39","609ae2994317d68738facfc1","609a8bf73b2ac84e2732f618","609d76e27105857c9c6856db","384.5550000005751","","","","39","","","","key","16.66525301204837","683","328.5","true","1","133.22826108518396","1.6492674416640005","13","-1","1","","","","","","","","","","","","",""
"html-keyboard-response","87","433006","0.0-9.0","609ae2994317d68738facfc1","609a8bf73b2ac84e2732f618","609d76e27105857c9c6856db","72364.8749999993","<p>Well Done !</p><p>Prepare for a new block.</p><p>DON'T EXIT THE FULL SCREEN MODE</p><p>Press the Spacebar to start.</p>","","","32","","","","","","","","","","","","","","","true","132.14702991196157","","","","","","","","","","",""
"psychophysics","88","435159","0.0-10.0-0.0","609ae2994317d68738facfc1","609a8bf73b2ac84e2732f618","609d76e27105857c9c6856db","1148.1849999999977","","","","39","","","","key","16.679093023255835","683","328.5","true","1","180","30","0","-1","","","","","","","","","","","","","",""
"psychophysics","89","436569","0.0-10.0-0.1","609ae2994317d68738facfc1","609a8bf73b2ac84e2732f618","609d76e27105857c9c6856db","405.62999999930616","","","","39","","","","key","16.665404761905112","683","328.5","true","1","180","30","0","-1","-1","","","","","","","","","","","","",""
"psychophysics","90","438093","0.0-10.0-0.2","609ae2994317d68738facfc1","609a8bf73b2ac84e2732f618","609d76e27105857c9c6856db","520.8800000000629","","","","39","","","","key","16.665200000000187","683","328.5","true","1","150","30","0","-1","-1","","","","","","","","","","","","",""
"psychophysics","91","439474","0.0-10.0-0.3","609ae2994317d68738facfc1","609a8bf73b2ac84e2732f618","609d76e27105857c9c6856db","378.3700000003446","","","","37","","","","key","16.665475609756314","683","328.5","true","-1","150","30","0","-1","-1","","","","","","","","","","","","",""
"psychophysics","92","440908","0.0-10.0-0.4","609ae2994317d68738facfc1","609a8bf73b2ac84e2732f618","609d76e27105857c9c6856db","429.3199999993085","","","","37","","","","key","16.66543529411805","683","328.5","true","1","129","24","1","1","-1","","","","","","","","","","","","",""
"psychophysics","93","442474","0.0-10.0-0.5","609ae2994317d68738facfc1","609a8bf73b2ac84e2732f618","609d76e27105857c9c6856db","562.619999998773","","","","37","","","","key","16.665290322580365","683","328.5","true","-1","153","24","1","-1","1","","","","","","","","","","","","",""
"psychophysics","94","444177","0.0-10.0-0.6","609ae2994317d68738facfc1","609a8bf73b2ac84e2732f618","609d76e27105857c9c6856db","699.590000000142","","","","37","","","","key","16.665217821781944","683","328.5","true","-1","153","19.2","2","-1","-1","","","","","","","","","","","","",""
"psychophysics","95","445607","0.0-10.0-0.7","609ae2994317d68738facfc1","609a8bf73b2ac84e2732f618","609d76e27105857c9c6856db","426.53999999858206","","","","39","","","","key","16.66530588235268","683","328.5","true","1","133.8","19.2","2","-1","-1","","","","","","","","","","","","",""
"psychophysics","96","446981","0.0-10.0-0.8","609ae2994317d68738facfc1","609a8bf73b2ac84e2732f618","609d76e27105857c9c6856db","370.8300000016461","","","","37","","","","key","16.66535802469172","683","328.5","true","-1","133.8","19.2","2","-1","-1","","","","","","","","","","","","",""
"psychophysics","97","448494","0.0-10.0-0.9","609ae2994317d68738facfc1","609a8bf73b2ac84e2732f618","609d76e27105857c9c6856db","510.0800000000163","","","","39","","","","key","16.6653111111114","683","328.5","true","-1","129","15.36","3","1","-1","","","","","","","","","","","","",""
"psychophysics","98","449799","0.0-10.0-0.10","609ae2994317d68738facfc1","609a8bf73b2ac84e2732f618","609d76e27105857c9c6856db","301.2699999999022","","","","37","","","","key","16.66530769230807","683","328.5","true","-1","144.36","15.36","3","-1","1","","","","","","","","","","","","",""
"psychophysics","99","451201","0.0-10.0-0.11","609ae2994317d68738facfc1","609a8bf73b2ac84e2732f618","609d76e27105857c9c6856db","397.6599999986938","","","","37","","","","key","16.66461445783133","683","328.5","true","-1","144.36","12.287999999999998","4","-1","-1","","","","","","","","","","","","",""
"psychophysics","100","452874","0.0-10.0-0.12","609ae2994317d68738facfc1","609a8bf73b2ac84e2732f618","609d76e27105857c9c6856db","670.5499999988824","","","","37","","","","key","16.66527272727237","683","328.5","true","1","132.072","9.8304","5","1","-1","","","","","","","","","","","","",""
"psychophysics","101","454349","0.0-10.0-0.13","609ae2994317d68738facfc1","609a8bf73b2ac84e2732f618","609d76e27105857c9c6856db","471.125","","","","39","","","","key","16.665488636363246","683","328.5","true","1","141.9024","9.8304","5","-1","1","","","","","","","","","","","","",""
"psychophysics","102","455891","0.0-10.0-0.14","609ae2994317d68738facfc1","609a8bf73b2ac84e2732f618","609d76e27105857c9c6856db","538.6299999990733","","","","39","","","","key","16.66559340659296","683","328.5","true","1","141.9024","7.864319999999999","6","-1","-1","","","","","","","","","","","","",""
"psychophysics","103","457371","0.0-10.0-0.15","609ae2994317d68738facfc1","609a8bf73b2ac84e2732f618","609d76e27105857c9c6856db","475.96499999967637","","","","37","","","","key","16.66529545454515","683","328.5","true","-1","134.03808","7.864319999999999","6","-1","-1","","","","","","","","","","","","",""
"psychophysics","104","458751","0.0-10.0-0.16","609ae2994317d68738facfc1","609a8bf73b2ac84e2732f618","609d76e27105857c9c6856db","377.21500000043306","","","","37","","","","key","16.666182926829006","683","328.5","true","-1","134.03808","7.864319999999999","6","-1","-1","","","","","","","","","","","","",""
"psychophysics","105","460177","0.0-10.0-0.17","609ae2994317d68738facfc1","609a8bf73b2ac84e2732f618","609d76e27105857c9c6856db","423.93999999877997","","","","37","","","","key","16.665333333333063","683","328.5","true","1","129","6.291456","7","1","-1","","","","","","","","","","","","",""
"psychophysics","106","461591","0.0-10.0-0.18","609ae2994317d68738facfc1","609a8bf73b2ac84e2732f618","609d76e27105857c9c6856db","411.45999999932246","","","","37","","","","key","16.66394047619057","683","328.5","true","-1","135.291456","6.291456","7","-1","1","","","","","","","","","","","","",""
"psychophysics","107","463045","0.0-10.0-0.19","609ae2994317d68738facfc1","609a8bf73b2ac84e2732f618","609d76e27105857c9c6856db","452.04999999987194","","","","37","","","","key","16.6656744186049","683","328.5","true","-1","135.291456","5.033164800000001","8","-1","-1","","","","","","","","","","","","",""
"psychophysics","108","464798","0.0-10.0-0.20","609ae2994317d68738facfc1","609a8bf73b2ac84e2732f618","609d76e27105857c9c6856db","750.2999999996973","","","","39","","","","key","16.665209523809608","683","328.5","true","-1","130.2582912","4.0265318400000005","9","1","-1","","","","","","","","","","","","",""
"psychophysics","109","466203","0.0-10.0-0.21","609ae2994317d68738facfc1","609a8bf73b2ac84e2732f618","609d76e27105857c9c6856db","400.454999999085","","","","37","","","","key","16.665493975903317","683","328.5","true","-1","134.28482304","4.0265318400000005","9","-1","1","","","","","","","","","","","","",""
"psychophysics","110","467601","0.0-10.0-0.22","609ae2994317d68738facfc1","609a8bf73b2ac84e2732f618","609d76e27105857c9c6856db","395.0650000005844","","","","39","","","","key","16.66538554216884","683","328.5","true","1","134.28482304","3.2212254720000004","10","-1","-1","","","","","","","","","","","","",""
"psychophysics","111","468952","0.0-10.0-0.23","609ae2994317d68738facfc1","609a8bf73b2ac84e2732f618","609d76e27105857c9c6856db","349.57500000018626","","","","39","","","","key","16.665062500000204","683","328.5","true","1","131.06359756799998","3.2212254720000004","10","-1","-1","","","","","","","","","","","","",""
"psychophysics","112","470440","0.0-10.0-0.24","609ae2994317d68738facfc1","609a8bf73b2ac84e2732f618","609d76e27105857c9c6856db","485.86500000051456","","","","39","","","","key","16.665477272727664","683","328.5","true","1","131.06359756799998","3.2212254720000004","10","-1","-1","","","","","","","","","","","","",""
"psychophysics","113","472313","0.0-10.0-0.25","609ae2994317d68738facfc1","609a8bf73b2ac84e2732f618","609d76e27105857c9c6856db","868.2450000014505","","","","37","","","","key","16.665414414414194","683","328.5","true","1","129","2.5769803776000004","11","1","-1","","","","","","","","","","","","",""
"psychophysics","114","473852","0.0-10.0-0.26","609ae2994317d68738facfc1","609a8bf73b2ac84e2732f618","609d76e27105857c9c6856db","535.6549999996787","","","","39","","","","key","16.665293478260814","683","328.5","true","1","131.5769803776","2.5769803776000004","11","-1","1","","","","","","","","","","","","",""
"psychophysics","115","475337","0.0-10.0-0.27","609ae2994317d68738facfc1","609a8bf73b2ac84e2732f618","609d76e27105857c9c6856db","482.8550000002142","","","","37","","","","key","16.66529545454515","683","328.5","true","1","131.5769803776","2.0615843020800004","12","1","-1","","","","","","","","","","","","",""
"psychophysics","116","476827","0.0-10.0-0.28","609ae2994317d68738facfc1","609a8bf73b2ac84e2732f618","609d76e27105857c9c6856db","486.79000000085216","","","","37","","","","key","16.66520454545455","683","328.5","true","-1","133.63856467968","2.0615843020800004","12","-1","1","","","","","","","","","","","","",""
"psychophysics","117","478200","0.0-10.0-0.29","609ae2994317d68738facfc1","609a8bf73b2ac84e2732f618","609d76e27105857c9c6856db","367.7200000002049","","","","37","","","","key","16.665353658536688","683","328.5","true","-1","133.63856467968","1.6492674416640005","13","-1","-1","","","","","","","","","","","","",""
"psychophysics","118","479634","0.0-10.0-0.30","609ae2994317d68738facfc1","609a8bf73b2ac84e2732f618","609d76e27105857c9c6856db","431.5299999997951","","","","39","","","","key","16.665282352941166","683","328.5","true","1","131.989297238016","1.6492674416640005","13","-1","-1","","","","","","","","","","","","",""
"psychophysics","119","481675","0.0-10.0-0.31","609ae2994317d68738facfc1","609a8bf73b2ac84e2732f618","609d76e27105857c9c6856db","1035.6299999984913","","","","37","","","","key","16.665371900826525","683","328.5","true","-1","131.989297238016","1.6492674416640005","13","-1","-1","","","","","","","","","","","","",""
"psychophysics","120","483564","0.0-10.0-0.32","609ae2994317d68738facfc1","609a8bf73b2ac84e2732f618","609d76e27105857c9c6856db","885.9199999988195","","","","39","","","","key","16.665362831858292","683","328.5","true","-1","130.340029796352","1.3194139533312006","14","1","-1","","","","","","","","","","","","",""
"psychophysics","121","485299","0.0-10.0-0.33","609ae2994317d68738facfc1","609a8bf73b2ac84e2732f618","609d76e27105857c9c6856db","731.9549999992596","","","","37","","","","key","16.665475728155286","683","328.5","true","1","131.65944374968322","1.3194139533312006","14","1","1","","","","","","","","","","","","",""
"psychophysics","122","486967","0.0-10.0-0.34","609ae2994317d68738facfc1","609a8bf73b2ac84e2732f618","609d76e27105857c9c6856db","665.4550000003073","","","","37","","","","key","16.665252525252384","683","328.5","true","1","132.97885770301443","1.3194139533312006","14","1","1","","","","","","","","","","","","",""
"psychophysics","123","488584","0.0-10.0-0.35","609ae2994317d68738facfc1","609a8bf73b2ac84e2732f618","609d76e27105857c9c6856db","614.439999999362","","","","37","","","","key","16.665333333333667","683","328.5","true","-1","134.29827165634563","1.3194139533312006","14","-1","1","","","","","","","","","","","","",""
"psychophysics","124","489951","0.0-10.0-0.36","609ae2994317d68738facfc1","609a8bf73b2ac84e2732f618","609d76e27105857c9c6856db","364.4249999997555","","","","39","","","","key","16.664160493826696","683","328.5","true","1","134.29827165634563","1.0555311626649604","15","-1","-1","","","","","","","","","","","","",""
"psychophysics","125","491566","0.0-10.0-0.37","609ae2994317d68738facfc1","609a8bf73b2ac84e2732f618","609d76e27105857c9c6856db","611.2049999992014","","","","37","","","","key","16.665541666667195","683","328.5","true","-1","133.24274049368069","1.0555311626649604","15","-1","-1","","","","","","","","","","","","",""
"psychophysics","126","493077","0.0-10.0-0.38","609ae2994317d68738facfc1","609a8bf73b2ac84e2732f618","609d76e27105857c9c6856db","495.33999999944353","","","","39","","","","key","16.665235955056243","683","328.5","true","-1","133.24274049368069","1","16","1","-1","","","","","","","","","","","","",""
"psychophysics","127","494593","0.0-10.0-0.39","609ae2994317d68738facfc1","609a8bf73b2ac84e2732f618","609d76e27105857c9c6856db","514.4049999999115","","","","39","","","","key","16.665388888888344","683","328.5","true","1","134.24274049368069","1","16","-1","1","","","","","","","","","","","","",""
"html-keyboard-response","128","508586","0.0-11.0","609ae2994317d68738facfc1","609a8bf73b2ac84e2732f618","609d76e27105857c9c6856db","13991.18499999895","<p>Well Done !</p><p>Prepare for a new block.</p><p>DON'T EXIT THE FULL SCREEN MODE</p><p>Press the Spacebar to start.</p>","","","32","","","","","","","","","","","","","","","true","132.51418537555833","","","","","","","","","","",""
"psychophysics","129","510475","0.0-12.0-0.0","609ae2994317d68738facfc1","609a8bf73b2ac84e2732f618","609d76e27105857c9c6856db","880.6700000005076","","","","37","","","","key","16.668716814159314","683","328.5","true","-1","180","30","0","-1","","","","","","","","","","","","","",""
"psychophysics","130","511967","0.0-12.0-0.1","609ae2994317d68738facfc1","609a8bf73b2ac84e2732f618","609d76e27105857c9c6856db","489.39000000065425","","","","37","","","","key","16.66530681818205","683","328.5","true","-1","180","30","0","-1","-1","","","","","","","","","","","","",""
"psychophysics","131","513870","0.0-12.0-0.2","609ae2994317d68738facfc1","609a8bf73b2ac84e2732f618","609d76e27105857c9c6856db","901.3900000009453","","","","37","","","","key","16.665362831858292","683","328.5","true","-1","150","30","0","-1","-1","","","","","","","","","","","","",""
"psychophysics","132","515475","0.0-12.0-0.3","609ae2994317d68738facfc1","609a8bf73b2ac84e2732f618","609d76e27105857c9c6856db","602.2450000000536","","","","37","","","","key","16.66479166666674","683","328.5","true","-1","150","30","0","-1","-1","","","","","","","","","","","","",""
"psychophysics","133","516858","0.0-12.0-0.4","609ae2994317d68738facfc1","609a8bf73b2ac84e2732f618","609d76e27105857c9c6856db","380.47000000003027","","","","39","","","","key","16.664975609755988","683","328.5","true","-1","129","24","1","1","-1","","","","","","","","","","","","",""
"psychophysics","134","518459","0.0-12.0-0.5","609ae2994317d68738facfc1","609a8bf73b2ac84e2732f618","609d76e27105857c9c6856db","597.289999999688","","","","39","","","","key","16.665463157894557","683","328.5","true","1","153","24","1","-1","1","","","","","","","","","","","","",""
"psychophysics","135","520042","0.0-12.0-0.6","609ae2994317d68738facfc1","609a8bf73b2ac84e2732f618","609d76e27105857c9c6856db","579.3800000010524","","","","37","","","","key","16.66564893617017","683","328.5","true","-1","153","19.2","2","-1","-1","","","","","","","","","","","","",""
"psychophysics","136","521597","0.0-12.0-0.7","609ae2994317d68738facfc1","609a8bf73b2ac84e2732f618","609d76e27105857c9c6856db","551.2500000003492","","","","37","","","","key","16.66533695652122","683","328.5","true","-1","133.8","19.2","2","-1","-1","","","","","","","","","","","","",""
"psychophysics","137","523141","0.0-12.0-0.8","609ae2994317d68738facfc1","609a8bf73b2ac84e2732f618","609d76e27105857c9c6856db","540.0049999989569","","","","37","","","","key","16.665456521738594","683","328.5","true","-1","133.8","19.2","2","-1","-1","","","","","","","","","","","","",""
"psychophysics","138","525117","0.0-12.0-0.9","609ae2994317d68738facfc1","609a8bf73b2ac84e2732f618","609d76e27105857c9c6856db","974.2950000000419","","","","39","","","","key","16.665358974358554","683","328.5","true","1","129","19.2","2","-1","-1","","","","","","","","","","","","",""
"psychophysics","139","526901","0.0-12.0-0.10","609ae2994317d68738facfc1","609a8bf73b2ac84e2732f618","609d76e27105857c9c6856db","781.580000000773","","","","39","","","","key","16.665320754716753","683","328.5","true","1","129","19.2","2","-1","-1","","","","","","","","","","","","",""
"psychophysics","140","528676","0.0-12.0-0.11","609ae2994317d68738facfc1","609a8bf73b2ac84e2732f618","609d76e27105857c9c6856db","771.4400000004098","","","","39","","","","key","16.665490566037885","683","328.5","true","1","129","19.2","2","-1","-1","","","","","","","","","","","","",""
"psychophysics","141","530546","0.0-12.0-0.12","609ae2994317d68738facfc1","609a8bf73b2ac84e2732f618","609d76e27105857c9c6856db","867.2800000003772","","","","39","","","","key","16.665522522522714","683","328.5","true","-1","129","15.36","3","1","-1","","","","","","","","","","","","",""
"psychophysics","142","532311","0.0-12.0-0.13","609ae2994317d68738facfc1","609a8bf73b2ac84e2732f618","609d76e27105857c9c6856db","761.3799999998882","","","","37","","","","key","16.665371428571998","683","328.5","true","-1","144.36","15.36","3","-1","1","","","","","","","","","","","","",""
"psychophysics","143","533779","0.0-12.0-0.14","609ae2994317d68738facfc1","609a8bf73b2ac84e2732f618","609d76e27105857c9c6856db","465.1999999987893","","","","39","","","","key","16.66549425287274","683","328.5","true","1","144.36","12.287999999999998","4","-1","-1","","","","","","","","","","","","",""
"psychophysics","144","535353","0.0-12.0-0.15","609ae2994317d68738facfc1","609a8bf73b2ac84e2732f618","609d76e27105857c9c6856db","570.5849999994971","","","","39","","","","key","16.66520430107591","683","328.5","true","1","132.072","12.287999999999998","4","-1","-1","","","","","","","","","","","","",""
"psychophysics","145","537106","0.0-12.0-0.16","609ae2994317d68738facfc1","609a8bf73b2ac84e2732f618","609d76e27105857c9c6856db","750.359999999986","","","","37","","","","key","16.66536190476202","683","328.5","true","1","132.072","9.8304","5","1","-1","","","","","","","","","","","","",""
"psychophysics","146","538598","0.0-12.0-0.17","609ae2994317d68738facfc1","609a8bf73b2ac84e2732f618","609d76e27105857c9c6856db","487.6500000009546","","","","37","","","","key","16.66530681818205","683","328.5","true","-1","141.9024","9.8304","5","-1","1","","","","","","","","","","","","",""
"psychophysics","147","540124","0.0-12.0-0.18","609ae2994317d68738facfc1","609a8bf73b2ac84e2732f618","609d76e27105857c9c6856db","521.9400000005262","","","","37","","","","key","16.665450549450355","683","328.5","true","-1","141.9024","7.864319999999999","6","-1","-1","","","","","","","","","","","","",""
"psychophysics","148","541522","0.0-12.0-0.19","609ae2994317d68738facfc1","609a8bf73b2ac84e2732f618","609d76e27105857c9c6856db","396.04499999945983","","","","39","","","","key","16.665433734940105","683","328.5","true","1","134.03808","7.864319999999999","6","-1","-1","","","","","","","","","","","","",""
"psychophysics","149","542861","0.0-12.0-0.20","609ae2994317d68738facfc1","609a8bf73b2ac84e2732f618","609d76e27105857c9c6856db","336.16500000061933","","","","39","","","","key","16.665455696202486","683","328.5","true","1","134.03808","7.864319999999999","6","-1","-1","","","","","","","","","","","","",""
"psychophysics","150","544526","0.0-12.0-0.21","609ae2994317d68738facfc1","609a8bf73b2ac84e2732f618","609d76e27105857c9c6856db","662.3149999995949","","","","37","","","","key","16.66547474747458","683","328.5","true","1","129","6.291456","7","1","-1","","","","","","","","","","","","",""
"psychophysics","151","545915","0.0-12.0-0.22","609ae2994317d68738facfc1","609a8bf73b2ac84e2732f618","609d76e27105857c9c6856db","385.5550000007497","","","","39","","","","key","16.665329268293046","683","328.5","true","1","135.291456","6.291456","7","-1","1","","","","","","","","","","","","",""
"psychophysics","152","547181","0.0-12.0-0.23","609ae2994317d68738facfc1","609a8bf73b2ac84e2732f618","609d76e27105857c9c6856db","262.4699999996228","","","","37","","","","key","16.664986666666035","683","328.5","true","-1","135.291456","5.033164800000001","8","-1","-1","","","","","","","","","","","","",""
"psychophysics","153","548590","0.0-12.0-0.24","609ae2994317d68738facfc1","609a8bf73b2ac84e2732f618","609d76e27105857c9c6856db","406.8750000006985","","","","39","","","","key","16.6653095238102","683","328.5","true","-1","130.2582912","4.0265318400000005","9","1","-1","","","","","","","","","","","","",""
"psychophysics","154","550038","0.0-12.0-0.25","609ae2994317d68738facfc1","609a8bf73b2ac84e2732f618","609d76e27105857c9c6856db","444.21999999939","","","","39","","","","key","16.665418604651446","683","328.5","true","1","134.28482304","4.0265318400000005","9","-1","1","","","","","","","","","","","","",""
"psychophysics","155","551344","0.0-12.0-0.26","609ae2994317d68738facfc1","609a8bf73b2ac84e2732f618","609d76e27105857c9c6856db","304.66999999957625","","","","37","","","","key","16.665402597403034","683","328.5","true","-1","134.28482304","3.2212254720000004","10","-1","-1","","","","","","","","","","","","",""
"psychophysics","156","552672","0.0-12.0-0.27","609ae2994317d68738facfc1","609a8bf73b2ac84e2732f618","609d76e27105857c9c6856db","324.36500000045635","","","","39","","","","key","16.665341772152335","683","328.5","true","-1","131.06359756799998","2.5769803776000004","11","1","-1","","","","","","","","","","","","",""
"psychophysics","157","554497","0.0-12.0-0.28","609ae2994317d68738facfc1","609a8bf73b2ac84e2732f618","609d76e27105857c9c6856db","822.3950000010664","","","","39","","","","key","16.66542592592628","683","328.5","true","1","133.64057794559997","2.5769803776000004","11","-1","1","","","","","","","","","","","","",""
"psychophysics","158","555920","0.0-12.0-0.29","609ae2994317d68738facfc1","609a8bf73b2ac84e2732f618","609d76e27105857c9c6856db","418.78000000177417","","","","39","","","","key","16.665482352941076","683","328.5","true","1","133.64057794559997","2.0615843020800004","12","-1","-1","","","","","","","","","","","","",""
"psychophysics","159","557341","0.0-12.0-0.30","609ae2994317d68738facfc1","609a8bf73b2ac84e2732f618","609d76e27105857c9c6856db","416.71000000135973","","","","39","","","","key","16.66516666666749","683","328.5","true","1","131.57899364351996","2.0615843020800004","12","-1","-1","","","","","","","","","","","","",""
"psychophysics","160","558810","0.0-12.0-0.31","609ae2994317d68738facfc1","609a8bf73b2ac84e2732f618","609d76e27105857c9c6856db","467.2949999986449","","","","37","","","","key","16.66548275862066","683","328.5","true","1","131.57899364351996","1.6492674416640005","13","1","-1","","","","","","","","","","","","",""
"psychophysics","161","560136","0.0-12.0-0.32","609ae2994317d68738facfc1","609a8bf73b2ac84e2732f618","609d76e27105857c9c6856db","323.37000000011176","","","","39","","","","key","16.665443037974036","683","328.5","true","1","133.22826108518396","1.6492674416640005","13","-1","1","","","","","","","","","","","","",""
"psychophysics","162","561770","0.0-12.0-0.33","609ae2994317d68738facfc1","609a8bf73b2ac84e2732f618","609d76e27105857c9c6856db","630.9000000000233","","","","39","","","","key","16.66532989690733","683","328.5","true","1","133.22826108518396","1.3194139533312006","14","-1","-1","","","","","","","","","","","","",""
"psychophysics","163","563036","0.0-12.0-0.34","609ae2994317d68738facfc1","609a8bf73b2ac84e2732f618","609d76e27105857c9c6856db","261.9800000011455","","","","37","","","","key","16.66511999999949","683","328.5","true","-1","131.90884713185275","1.3194139533312006","14","-1","-1","","","","","","","","","","","","",""
"psychophysics","164","565900","0.0-12.0-0.35","609ae2994317d68738facfc1","609a8bf73b2ac84e2732f618","609d76e27105857c9c6856db","1859.5550000009825","","","","37","","","","key","16.665417647059076","683","328.5","true","-1","131.90884713185275","1.3194139533312006","14","-1","-1","","","","","","","","","","","","",""
"psychophysics","165","568468","0.0-12.0-0.36","609ae2994317d68738facfc1","609a8bf73b2ac84e2732f618","609d76e27105857c9c6856db","1564.3000000000466","","","","37","","","","key","16.66498051948056","683","328.5","true","-1","130.58943317852155","1.3194139533312006","14","-1","-1","","","","","","","","","","","","",""
"psychophysics","166","571874","0.0-12.0-0.37","609ae2994317d68738facfc1","609a8bf73b2ac84e2732f618","609d76e27105857c9c6856db","2403.029999999446","","","","37","","","","key","16.66527586206943","683","328.5","true","1","130.58943317852155","1.0555311626649604","15","1","-1","","","","","","","","","","","","",""
"psychophysics","167","573654","0.0-12.0-0.38","609ae2994317d68738facfc1","609a8bf73b2ac84e2732f618","609d76e27105857c9c6856db","776.3950000007171","","","","37","","","","key","16.66534905660379","683","328.5","true","-1","131.6449643411865","1.0555311626649604","15","-1","1","","","","","","","","","","","","",""
"psychophysics","168","575980","0.0-12.0-0.39","609ae2994317d68738facfc1","609a8bf73b2ac84e2732f618","609d76e27105857c9c6856db","1322.97999999905","","","","39","","","","key","16.66536231884021","683","328.5","true","1","131.6449643411865","1","16","-1","-1","","","","","","","","","","","","",""
"html-keyboard-response","169","586670","0.0-13.0","609ae2994317d68738facfc1","609a8bf73b2ac84e2732f618","609d76e27105857c9c6856db","10686.880000001169","<p>Well Done !</p><p>Prepare for a new block.</p><p>DON'T EXIT THE FULL SCREEN MODE</p><p>Press the Spacebar to start.</p>","","","32","","","","","","","","","","","","","","","true","132.3210265533153","","","","","","","","","","",""
"html-keyboard-response","170","586778","0.0-14.0","609ae2994317d68738facfc1","609a8bf73b2ac84e2732f618","609d76e27105857c9c6856db","null","","","","null","","","","","","","","","","","","","","","","","132.4887716474088","true","136.97754329481762","","","","","","","",""
"instructions","171","637685","0.0-15.0","609ae2994317d68738facfc1","609a8bf73b2ac84e2732f618","609d76e27105857c9c6856db","50904.795000000275","","","","","","","[{""page_index"":0,""viewing_time"":39422.88499999989},{""page_index"":1,""viewing_time"":2580.6100000009174},{""page_index"":2,""viewing_time"":8900.69000000041}]","","","","","","","","","","","","","","","","","","","","","","","",""
"psychophysics","172","640977","0.0-16.0-0.0","609ae2994317d68738facfc1","609a8bf73b2ac84e2732f618","609d76e27105857c9c6856db","null","","","","null","","","","key","16.66540789473679","683","328.5","","","","","","","","","","","","","","","","","","","",""
"psychophysics","173","641481","0.0-16.0-1.0","609ae2994317d68738facfc1","609a8bf73b2ac84e2732f618","609d76e27105857c9c6856db","null","","","","null","","","","key","16.67710000000273","683","328.5","","","","","","","","","","","","","137","-1","3","false","","","",""
"psychophysics","174","645775","0.0-16.0-2.0","609ae2994317d68738facfc1","609a8bf73b2ac84e2732f618","609d76e27105857c9c6856db","4291.020000000484","","","","90","","","","key","16.665359375000207","683","328.5","","","","","","","","","","","","","","","","","","","",""
"psychophysics","175","646389","0.0-16.0-0.1","609ae2994317d68738facfc1","609a8bf73b2ac84e2732f618","609d76e27105857c9c6856db","null","","","","null","","","","key","16.665888888890752","683","328.5","","","","","","","","","","","","","","","","","","","",""
"psychophysics","176","646891","0.0-16.0-1.1","609ae2994317d68738facfc1","609a8bf73b2ac84e2732f618","609d76e27105857c9c6856db","null","","","","null","","","","key","16.66541379310014","683","328.5","","","","","","","","","","","","","137","-1","5","false","","","",""
"psychophysics","177","647681","0.0-16.0-2.1","609ae2994317d68738facfc1","609a8bf73b2ac84e2732f618","609d76e27105857c9c6856db","786.2199999999721","","","","90","","","","key","16.665382978724356","683","328.5","","","","","","","","","","","","","","","","","","","",""
"psychophysics","178","648427","0.0-16.0-0.2","609ae2994317d68738facfc1","609a8bf73b2ac84e2732f618","609d76e27105857c9c6856db","null","","","","null","","","","key","16.665090909090146","683","328.5","","","","","","","","","","","","","","","","","","","",""
"psychophysics","179","648932","0.0-16.0-1.2","609ae2994317d68738facfc1","609a8bf73b2ac84e2732f618","609d76e27105857c9c6856db","null","","","","null","","","","key","16.665793103446926","683","328.5","","","","","","","","","","","","","137","-1","2","false","","","",""
"psychophysics","180","649454","0.0-16.0-2.2","609ae2994317d68738facfc1","609a8bf73b2ac84e2732f618","609d76e27105857c9c6856db","518.0849999996135","","","","90","","","","key","16.665666666669615","683","328.5","","","","","","","","","","","","","","","","","","","",""
"psychophysics","181","650844","0.0-16.0-0.3","609ae2994317d68738facfc1","609a8bf73b2ac84e2732f618","609d76e27105857c9c6856db","null","","","","null","","","","key","16.66420481927659","683","328.5","","","","","","","","","","","","","","","","","","","",""
"psychophysics","182","651348","0.0-16.0-1.3","609ae2994317d68738facfc1","609a8bf73b2ac84e2732f618","609d76e27105857c9c6856db","null","","","","null","","","","key","16.6647931034476","683","328.5","","","","","","","","","","","","","137","-1","6","false","","","",""
"psychophysics","183","651832","0.0-16.0-2.3","609ae2994317d68738facfc1","609a8bf73b2ac84e2732f618","609d76e27105857c9c6856db","481.73499999940395","","","","90","","","","key","16.66475000000043","683","328.5","","","","","","","","","","","","","","","","","","","",""
"psychophysics","184","652425","0.0-16.0-0.4","609ae2994317d68738facfc1","609a8bf73b2ac84e2732f618","609d76e27105857c9c6856db","null","","","","null","","","","key","16.665147058823255","683","328.5","","","","","","","","","","","","","","","","","","","",""
"psychophysics","185","652927","0.0-16.0-1.4","609ae2994317d68738facfc1","609a8bf73b2ac84e2732f618","609d76e27105857c9c6856db","null","","","","null","","","","key","16.66590000000239","683","328.5","","","","","","","","","","","","","137","1","0","false","","","",""
"psychophysics","186","655113","0.0-16.0-2.4","609ae2994317d68738facfc1","609a8bf73b2ac84e2732f618","609d76e27105857c9c6856db","2173.989999999292","","","","90","","","","key","16.665323076922842","683","328.5","","","","","","","","","","","","","","","","","","","",""
"psychophysics","187","655958","0.0-16.0-0.5","609ae2994317d68738facfc1","609a8bf73b2ac84e2732f618","609d76e27105857c9c6856db","null","","","","null","","","","key","16.665326530612738","683","328.5","","","","","","","","","","","","","","","","","","","",""
"psychophysics","188","656463","0.0-16.0-1.5","609ae2994317d68738facfc1","609a8bf73b2ac84e2732f618","609d76e27105857c9c6856db","null","","","","null","","","","key","16.665499999998914","683","328.5","","","","","","","","","","","","","137","1","5","false","","","",""
"psychophysics","189","657383","0.0-16.0-2.5","609ae2994317d68738facfc1","609a8bf73b2ac84e2732f618","609d76e27105857c9c6856db","917.559999999823","","","","90","","","","key","16.665425925925202","683","328.5","","","","","","","","","","","","","","","","","","","",""
"psychophysics","190","658281","0.0-16.0-0.6","609ae2994317d68738facfc1","609a8bf73b2ac84e2732f618","609d76e27105857c9c6856db","null","","","","null","","","","key","16.665433962264906","683","328.5","","","","","","","","","","","","","","","","","","","",""
"psychophysics","191","658784","0.0-16.0-1.6","609ae2994317d68738facfc1","609a8bf73b2ac84e2732f618","609d76e27105857c9c6856db","null","","","","null","","","","key","16.665896551723687","683","328.5","","","","","","","","","","","","","137","1","3","false","","","",""
"psychophysics","192","659355","0.0-16.0-2.6","609ae2994317d68738facfc1","609a8bf73b2ac84e2732f618","609d76e27105857c9c6856db","559.7849999994505","","","","90","","","","key","16.66557575757333","683","328.5","","","","","","","","","","","","","","","","","","","",""
"psychophysics","193","659955","0.0-16.0-0.7","609ae2994317d68738facfc1","609a8bf73b2ac84e2732f618","609d76e27105857c9c6856db","null","","","","null","","","","key","16.665314285716573","683","328.5","","","","","","","","","","","","","","","","","","","",""
"psychophysics","194","660457","0.0-16.0-1.7","609ae2994317d68738facfc1","609a8bf73b2ac84e2732f618","609d76e27105857c9c6856db","null","","","","null","","","","key","16.66568965517418","683","328.5","","","","","","","","","","","","","137","1","6","false","","","",""
"psychophysics","195","661273","0.0-16.0-2.7","609ae2994317d68738facfc1","609a8bf73b2ac84e2732f618","609d76e27105857c9c6856db","812.2449999991804","","","","77","","","","key","16.665312499998738","683","328.5","","","","","","","","","","","","","","","","","","","",""
"psychophysics","196","662209","0.0-16.0-0.8","609ae2994317d68738facfc1","609a8bf73b2ac84e2732f618","609d76e27105857c9c6856db","null","","","","null","","","","key","16.665035714287246","683","328.5","","","","","","","","","","","","","","","","","","","",""
"psychophysics","197","662714","0.0-16.0-1.8","609ae2994317d68738facfc1","609a8bf73b2ac84e2732f618","609d76e27105857c9c6856db","null","","","","null","","","","key","16.665448275864414","683","328.5","","","","","","","","","","","","","137","1","2","false","","","",""
"psychophysics","198","663229","0.0-16.0-2.8","609ae2994317d68738facfc1","609a8bf73b2ac84e2732f618","609d76e27105857c9c6856db","510.544999999227","","","","77","","","","key","16.664633333333768","683","328.5","","","","","","","","","","","","","","","","","","","",""
"psychophysics","199","664689","0.0-16.0-0.9","609ae2994317d68738facfc1","609a8bf73b2ac84e2732f618","609d76e27105857c9c6856db","null","","","","null","","","","key","16.665499999998733","683","328.5","","","","","","","","","","","","","","","","","","","",""
"psychophysics","200","665192","0.0-16.0-1.9","609ae2994317d68738facfc1","609a8bf73b2ac84e2732f618","609d76e27105857c9c6856db","null","","","","null","","","","key","16.665275862071148","683","328.5","","","","","","","","","","","","","137","1","4","false","","","",""
"psychophysics","201","666163","0.0-16.0-2.9","609ae2994317d68738facfc1","609a8bf73b2ac84e2732f618","609d76e27105857c9c6856db","967.7950000005076","","","","90","","","","key","16.665568965517288","683","328.5","","","","","","","","","","","","","","","","","","","",""
"psychophysics","202","667330","0.0-16.0-0.10","609ae2994317d68738facfc1","609a8bf73b2ac84e2732f618","609d76e27105857c9c6856db","null","","","","null","","","","key","16.665376811593678","683","328.5","","","","","","","","","","","","","","","","","","","",""
"psychophysics","203","667832","0.0-16.0-1.10","609ae2994317d68738facfc1","609a8bf73b2ac84e2732f618","609d76e27105857c9c6856db","null","","","","null","","","","key","16.66513793103413","683","328.5","","","","","","","","","","","","","137","-1","0","false","","","",""
"psychophysics","204","668663","0.0-16.0-2.10","609ae2994317d68738facfc1","609a8bf73b2ac84e2732f618","609d76e27105857c9c6856db","827.5499999999302","","","","90","","","","key","16.66499999999924","683","328.5","","","","","","","","","","","","","","","","","","","",""
"psychophysics","205","669204","0.0-16.0-0.11","609ae2994317d68738facfc1","609a8bf73b2ac84e2732f618","609d76e27105857c9c6856db","null","","","","null","","","","key","16.66522580645077","683","328.5","","","","","","","","","","","","","","","","","","","",""
"psychophysics","206","669708","0.0-16.0-1.11","609ae2994317d68738facfc1","609a8bf73b2ac84e2732f618","609d76e27105857c9c6856db","null","","","","null","","","","key","16.6654482758604","683","328.5","","","","","","","","","","","","","137","-1","4","false","","","",""
"psychophysics","207","670307","0.0-16.0-2.11","609ae2994317d68738facfc1","609a8bf73b2ac84e2732f618","609d76e27105857c9c6856db","595.1899999999441","","","","90","","","","key","16.665171428573583","683","328.5","","","","","","","","","","","","","","","","","","","",""
"psychophysics","208","671356","0.0-16.0-0.12","609ae2994317d68738facfc1","609a8bf73b2ac84e2732f618","609d76e27105857c9c6856db","null","","","","null","","","","key","16.665177419355455","683","328.5","","","","","","","","","","","","","","","","","","","",""
"psychophysics","209","671859","0.0-16.0-1.12","609ae2994317d68738facfc1","609a8bf73b2ac84e2732f618","609d76e27105857c9c6856db","null","","","","null","","","","key","16.665133333334232","683","328.5","","","","","","","","","","","","","137","-1","2","false","","","",""
"psychophysics","210","672879","0.0-16.0-2.12","609ae2994317d68738facfc1","609a8bf73b2ac84e2732f618","609d76e27105857c9c6856db","1016.6950000001816","","","","90","","","","key","16.665200000000187","683","328.5","","","","","","","","","","","","","","","","","","","",""
"psychophysics","211","673881","0.0-16.0-0.13","609ae2994317d68738facfc1","609a8bf73b2ac84e2732f618","609d76e27105857c9c6856db","null","","","","null","","","","key","16.66555932203458","683","328.5","","","","","","","","","","","","","","","","","","","",""
"psychophysics","212","674384","0.0-16.0-1.13","609ae2994317d68738facfc1","609a8bf73b2ac84e2732f618","609d76e27105857c9c6856db","null","","","","null","","","","key","16.665517241380915","683","328.5","","","","","","","","","","","","","137","-1","5","false","","","",""
"psychophysics","213","678016","0.0-16.0-2.13","609ae2994317d68738facfc1","609a8bf73b2ac84e2732f618","609d76e27105857c9c6856db","3620.2499999998836","","","","90","","","","key","16.665451612903453","683","328.5","","","","","","","","","","","","","","","","","","","",""
"psychophysics","214","679375","0.0-16.0-0.14","609ae2994317d68738facfc1","609a8bf73b2ac84e2732f618","609d76e27105857c9c6856db","null","","","","null","","","","key","16.665481481482676","683","328.5","","","","","","","","","","","","","","","","","","","",""
"psychophysics","215","679880","0.0-16.0-1.14","609ae2994317d68738facfc1","609a8bf73b2ac84e2732f618","609d76e27105857c9c6856db","null","","","","null","","","","key","16.6654482758604","683","328.5","","","","","","","","","","","","","137","1","6","false","","","",""
"psychophysics","216","680779","0.0-16.0-2.14","609ae2994317d68738facfc1","609a8bf73b2ac84e2732f618","609d76e27105857c9c6856db","895.4250000005122","","","","77","","","","key","16.665490566036787","683","328.5","","","","","","","","","","","","","","","","","","","",""
"psychophysics","217","682252","0.0-16.0-0.15","609ae2994317d68738facfc1","609a8bf73b2ac84e2732f618","609d76e27105857c9c6856db","null","","","","null","","","","key","16.66558620689608","683","328.5","","","","","","","","","","","","","","","","","","","",""
"psychophysics","218","682756","0.0-16.0-1.15","609ae2994317d68738facfc1","609a8bf73b2ac84e2732f618","609d76e27105857c9c6856db","null","","","","null","","","","key","16.665206896550632","683","328.5","","","","","","","","","","","","","137","-1","0","false","","","",""
"psychophysics","219","683605","0.0-16.0-2.15","609ae2994317d68738facfc1","609a8bf73b2ac84e2732f618","609d76e27105857c9c6856db","838.1549999995623","","","","90","","","","key","16.665579999999608","683","328.5","","","","","","","","","","","","","","","","","","","",""
"psychophysics","220","684833","0.0-16.0-0.16","609ae2994317d68738facfc1","609a8bf73b2ac84e2732f618","609d76e27105857c9c6856db","null","","","","null","","","","key","16.665438356163452","683","328.5","","","","","","","","","","","","","","","","","","","",""
"psychophysics","221","685335","0.0-16.0-1.16","609ae2994317d68738facfc1","609a8bf73b2ac84e2732f618","609d76e27105857c9c6856db","null","","","","null","","","","key","16.665068965517627","683","328.5","","","","","","","","","","","","","137","-1","6","false","","","",""
"psychophysics","222","685802","0.0-16.0-2.16","609ae2994317d68738facfc1","609a8bf73b2ac84e2732f618","609d76e27105857c9c6856db","464.62499999871943","","","","77","","","","key","16.66533333333468","683","328.5","","","","","","","","","","","","","","","","","","","",""
"psychophysics","223","686408","0.0-16.0-0.17","609ae2994317d68738facfc1","609a8bf73b2ac84e2732f618","609d76e27105857c9c6856db","null","","","","null","","","","key","16.665527777778657","683","328.5","","","","","","","","","","","","","","","","","","","",""
"psychophysics","224","686913","0.0-16.0-1.17","609ae2994317d68738facfc1","609a8bf73b2ac84e2732f618","609d76e27105857c9c6856db","null","","","","null","","","","key","16.665517241380915","683","328.5","","","","","","","","","","","","","137","1","3","false","","","",""
"psychophysics","225","687434","0.0-16.0-2.17","609ae2994317d68738facfc1","609a8bf73b2ac84e2732f618","609d76e27105857c9c6856db","518.7199999999721","","","","77","","","","key","16.665133333334232","683","328.5","","","","","","","","","","","","","","","","","","","",""
"psychophysics","226","688338","0.0-16.0-0.18","609ae2994317d68738facfc1","609a8bf73b2ac84e2732f618","609d76e27105857c9c6856db","null","","","","null","","","","key","16.66554716981306","683","328.5","","","","","","","","","","","","","","","","","","","",""
"psychophysics","227","688840","0.0-16.0-1.18","609ae2994317d68738facfc1","609a8bf73b2ac84e2732f618","609d76e27105857c9c6856db","null","","","","null","","","","key","16.665275862071148","683","328.5","","","","","","","","","","","","","137","1","5","false","","","",""
"psychophysics","228","689168","0.0-16.0-2.18","609ae2994317d68738facfc1","609a8bf73b2ac84e2732f618","609d76e27105857c9c6856db","324.08000000030734","","","","77","","","","key","16.665157894732577","683","328.5","","","","","","","","","","","","","","","","","","","",""
"psychophysics","229","690094","0.0-16.0-0.19","609ae2994317d68738facfc1","609a8bf73b2ac84e2732f618","609d76e27105857c9c6856db","null","","","","null","","","","key","16.665563636362045","683","328.5","","","","","","","","","","","","","","","","","","","",""
"psychophysics","230","690598","0.0-16.0-1.19","609ae2994317d68738facfc1","609a8bf73b2ac84e2732f618","609d76e27105857c9c6856db","null","","","","null","","","","key","16.6647241379311","683","328.5","","","","","","","","","","","","","137","1","2","false","","","",""
"psychophysics","231","691028","0.0-16.0-2.19","609ae2994317d68738facfc1","609a8bf73b2ac84e2732f618","609d76e27105857c9c6856db","426.2799999996787","","","","77","","","","key","16.665279999999328","683","328.5","","","","","","","","","","","","","","","","","","","",""
"psychophysics","232","692240","0.0-16.0-0.20","609ae2994317d68738facfc1","609a8bf73b2ac84e2732f618","609d76e27105857c9c6856db","null","","","","null","","","","key","16.665183098591587","683","328.5","","","","","","","","","","","","","","","","","","","",""
"psychophysics","233","692743","0.0-16.0-1.20","609ae2994317d68738facfc1","609a8bf73b2ac84e2732f618","609d76e27105857c9c6856db","null","","","","null","","","","key","16.66496666666741","683","328.5","","","","","","","","","","","","","137","1","0","false","","","",""
"psychophysics","234","693147","0.0-16.0-2.20","609ae2994317d68738facfc1","609a8bf73b2ac84e2732f618","609d76e27105857c9c6856db","392.82500000076834","","","","77","","","","key","16.66669565217023","683","328.5","","","","","","","","","","","","","","","","","","","",""
"psychophysics","235","693705","0.0-16.0-0.21","609ae2994317d68738facfc1","609a8bf73b2ac84e2732f618","609d76e27105857c9c6856db","null","","","","null","","","","key","16.66534374999901","683","328.5","","","","","","","","","","","","","","","","","","","",""
"psychophysics","236","694207","0.0-16.0-1.21","609ae2994317d68738facfc1","609a8bf73b2ac84e2732f618","609d76e27105857c9c6856db","null","","","","null","","","","key","16.66427586206781","683","328.5","","","","","","","","","","","","","137","1","4","false","","","",""
"psychophysics","237","694794","0.0-16.0-2.21","609ae2994317d68738facfc1","609a8bf73b2ac84e2732f618","609d76e27105857c9c6856db","585.440000000759","","","","77","","","","key","16.66577142856882","683","328.5","","","","","","","","","","","","","","","","","","","",""
"psychophysics","238","695878","0.0-16.0-0.22","609ae2994317d68738facfc1","609a8bf73b2ac84e2732f618","609d76e27105857c9c6856db","null","","","","null","","","","key","16.66521874999853","683","328.5","","","","","","","","","","","","","","","","","","","",""
"psychophysics","239","696382","0.0-16.0-1.22","609ae2994317d68738facfc1","609a8bf73b2ac84e2732f618","609d76e27105857c9c6856db","null","","","","null","","","","key","16.665034482757367","683","328.5","","","","","","","","","","","","","137","-1","4","false","","","",""
"psychophysics","240","696828","0.0-16.0-2.22","609ae2994317d68738facfc1","609a8bf73b2ac84e2732f618","609d76e27105857c9c6856db","438.46999999915715","","","","77","","","","key","16.665384615386408","683","328.5","","","","","","","","","","","","","","","","","","","",""
"psychophysics","241","697771","0.0-16.0-0.23","609ae2994317d68738facfc1","609a8bf73b2ac84e2732f618","609d76e27105857c9c6856db","null","","","","null","","","","key","16.665163636364213","683","328.5","","","","","","","","","","","","","","","","","","","",""
"psychophysics","242","698274","0.0-16.0-1.23","609ae2994317d68738facfc1","609a8bf73b2ac84e2732f618","609d76e27105857c9c6856db","null","","","","null","","","","key","16.665033333333366","683","328.5","","","","","","","","","","","","","137","-1","3","false","","","",""
"psychophysics","243","698794","0.0-16.0-2.23","609ae2994317d68738facfc1","609a8bf73b2ac84e2732f618","609d76e27105857c9c6856db","517.1250000002328","","","","77","","","","key","16.665299999997174","683","328.5","","","","","","","","","","","","","","","","","","","",""
"html-keyboard-response","244","704025","0.0-17.0","609ae2994317d68738facfc1","609a8bf73b2ac84e2732f618","609d76e27105857c9c6856db","5229.644999999437","<p>Well Done !</p><p>Training Complete. Press the spacebar to start.</p><p>DON'T EXIT THE FULL SCREEN MODE</p>","","","32","","","","","","","","","","","","","","","","","","","","","","","","","","",""
"psychophysics","245","707477","0.0-18.0-0.0","609ae2994317d68738facfc1","609a8bf73b2ac84e2732f618","609d76e27105857c9c6856db","null","","","","null","","","","key","16.666068965518292","683","328.5","","","","","","","","","","","","","","","","","","","",""
"psychophysics","246","707981","0.0-18.0-1.0","609ae2994317d68738facfc1","609a8bf73b2ac84e2732f618","609d76e27105857c9c6856db","null","","","","null","","","","key","16.665275862067134","683","328.5","","","","","","","","","","","","","137","-1","2","true","","","",""
"psychophysics","247","709134","0.0-18.0-2.0","609ae2994317d68738facfc1","609a8bf73b2ac84e2732f618","609d76e27105857c9c6856db","1149.949999999022","","","","90","","","","key","16.665441176470587","683","328.5","","","","","","","","","","","","","","","","","","","",""
"psychophysics","248","710274","0.0-18.0-0.1","609ae2994317d68738facfc1","609a8bf73b2ac84e2732f618","609d76e27105857c9c6856db","null","","","","null","","","","key","16.665382352941805","683","328.5","","","","","","","","","","","","","","","","","","","",""
"psychophysics","249","710777","0.0-18.0-1.1","609ae2994317d68738facfc1","609a8bf73b2ac84e2732f618","609d76e27105857c9c6856db","null","","","","null","","","","key","16.66586206896343","683","328.5","","","","","","","","","","","","","137","-1","0","true","","","",""
"psychophysics","250","711247","0.0-18.0-2.1","609ae2994317d68738facfc1","609a8bf73b2ac84e2732f618","609d76e27105857c9c6856db","466.40000000118744","","","","77","","","","key","16.66574074074419","683","328.5","","","","","","","","","","","","","","","","","","","",""
"psychophysics","251","711887","0.0-18.0-0.2","609ae2994317d68738facfc1","609a8bf73b2ac84e2732f618","609d76e27105857c9c6856db","null","","","","null","","","","key","16.66529729729833","683","328.5","","","","","","","","","","","","","","","","","","","",""
"psychophysics","252","712389","0.0-18.0-1.2","609ae2994317d68738facfc1","609a8bf73b2ac84e2732f618","609d76e27105857c9c6856db","null","","","","null","","","","key","16.66568965517418","683","328.5","","","","","","","","","","","","","137","1","5","true","","","",""
"psychophysics","253","712783","0.0-18.0-2.2","609ae2994317d68738facfc1","609a8bf73b2ac84e2732f618","609d76e27105857c9c6856db","385.52499999967404","","","","77","","","","key","16.665652173910413","683","328.5","","","","","","","","","","","","","","","","","","","",""
"psychophysics","254","714227","0.0-18.0-0.3","609ae2994317d68738facfc1","609a8bf73b2ac84e2732f618","609d76e27105857c9c6856db","null","","","","null","","","","key","16.665023255814408","683","328.5","","","","","","","","","","","","","","","","","","","",""
"psychophysics","255","714730","0.0-18.0-1.3","609ae2994317d68738facfc1","609a8bf73b2ac84e2732f618","609d76e27105857c9c6856db","null","","","","null","","","","key","16.665275862071148","683","328.5","","","","","","","","","","","","","137","-1","4","true","","","",""
"psychophysics","256","715076","0.0-18.0-2.3","609ae2994317d68738facfc1","609a8bf73b2ac84e2732f618","609d76e27105857c9c6856db","342.27499999897555","","","","77","","","","key","16.664999999996507","683","328.5","","","","","","","","","","","","","","","","","","","",""
"psychophysics","257","716106","0.0-18.0-0.4","609ae2994317d68738facfc1","609a8bf73b2ac84e2732f618","609d76e27105857c9c6856db","null","","","","null","","","","key","16.665377049180144","683","328.5","","","","","","","","","","","","","","","","","","","",""
"psychophysics","258","716610","0.0-18.0-1.4","609ae2994317d68738facfc1","609a8bf73b2ac84e2732f618","609d76e27105857c9c6856db","null","","","","null","","","","key","16.665344827587653","683","328.5","","","","","","","","","","","","","137","1","2","true","","","",""
"psychophysics","259","717558","0.0-18.0-2.4","609ae2994317d68738facfc1","609a8bf73b2ac84e2732f618","609d76e27105857c9c6856db","944.8049999991199","","","","90","","","","key","16.665428571430052","683","328.5","","","","","","","","","","","","","","","","","","","",""
"psychophysics","260","719048","0.0-18.0-0.5","609ae2994317d68738facfc1","609a8bf73b2ac84e2732f618","609d76e27105857c9c6856db","null","","","","null","","","","key","16.66535227272702","683","328.5","","","","","","","","","","","","","","","","","","","",""
"psychophysics","261","719550","0.0-18.0-1.5","609ae2994317d68738facfc1","609a8bf73b2ac84e2732f618","609d76e27105857c9c6856db","null","","","","null","","","","key","16.6654482758604","683","328.5","","","","","","","","","","","","","137","-1","3","true","","","",""
"psychophysics","262","720240","0.0-18.0-2.5","609ae2994317d68738facfc1","609a8bf73b2ac84e2732f618","609d76e27105857c9c6856db","676.6649999989895","","","","90","","","","key","16.665780487805378","683","328.5","","","","","","","","","","","","","","","","","","","",""
"psychophysics","263","721372","0.0-18.0-0.6","609ae2994317d68738facfc1","609a8bf73b2ac84e2732f618","609d76e27105857c9c6856db","null","","","","null","","","","key","16.665515151515137","683","328.5","","","","","","","","","","","","","","","","","","","",""
"psychophysics","264","721875","0.0-18.0-1.6","609ae2994317d68738facfc1","609a8bf73b2ac84e2732f618","609d76e27105857c9c6856db","null","","","","null","","","","key","16.665799999997642","683","328.5","","","","","","","","","","","","","137","1","6","true","","","",""
"psychophysics","265","722245","0.0-18.0-2.6","609ae2994317d68738facfc1","609a8bf73b2ac84e2732f618","609d76e27105857c9c6856db","367.1899999990128","","","","77","","","","key","16.665857142857497","683","328.5","","","","","","","","","","","","","","","","","","","",""
"psychophysics","266","723235","0.0-18.0-0.7","609ae2994317d68738facfc1","609a8bf73b2ac84e2732f618","609d76e27105857c9c6856db","null","","","","null","","","","key","16.665379310345905","683","328.5","","","","","","","","","","","","","","","","","","","",""
"psychophysics","267","723739","0.0-18.0-1.7","609ae2994317d68738facfc1","609a8bf73b2ac84e2732f618","609d76e27105857c9c6856db","null","","","","null","","","","key","16.66503448276138","683","328.5","","","","","","","","","","","","","137","1","3","true","","","",""
"psychophysics","268","724164","0.0-18.0-2.7","609ae2994317d68738facfc1","609a8bf73b2ac84e2732f618","609d76e27105857c9c6856db","413.7449999997625","","","","77","","","","key","16.665520000001415","683","328.5","","","","","","","","","","","","","","","","","","","",""
"psychophysics","269","724925","0.0-18.0-0.8","609ae2994317d68738facfc1","609a8bf73b2ac84e2732f618","609d76e27105857c9c6856db","null","","","","null","","","","key","16.665511111110554","683","328.5","","","","","","","","","","","","","","","","","","","",""
"psychophysics","270","725429","0.0-18.0-1.8","609ae2994317d68738facfc1","609a8bf73b2ac84e2732f618","609d76e27105857c9c6856db","null","","","","null","","","","key","16.6647931034476","683","328.5","","","","","","","","","","","","","137","-1","6","true","","","",""
"psychophysics","271","725765","0.0-18.0-2.8","609ae2994317d68738facfc1","609a8bf73b2ac84e2732f618","609d76e27105857c9c6856db","332.58000000030734","","","","77","","","","key","16.665210526320152","683","328.5","","","","","","","","","","","","","","","","","","","",""
"psychophysics","272","726880","0.0-18.0-0.9","609ae2994317d68738facfc1","609a8bf73b2ac84e2732f618","609d76e27105857c9c6856db","null","","","","null","","","","key","16.665575757575095","683","328.5","","","","","","","","","","","","","","","","","","","",""
"psychophysics","273","727383","0.0-18.0-1.9","609ae2994317d68738facfc1","609a8bf73b2ac84e2732f618","609d76e27105857c9c6856db","null","","","","null","","","","key","16.665965517244206","683","328.5","","","","","","","","","","","","","137","1","0","true","","","",""
"psychophysics","274","727588","0.0-18.0-2.9","609ae2994317d68738facfc1","609a8bf73b2ac84e2732f618","609d76e27105857c9c6856db","202.12499999976717","","","","77","","","","key","16.66718181818512","683","328.5","","","","","","","","","","","","","","","","","","","",""
"psychophysics","275","728924","0.0-18.0-0.10","609ae2994317d68738facfc1","609a8bf73b2ac84e2732f618","609d76e27105857c9c6856db","null","","","","null","","","","key","16.665387499998907","683","328.5","","","","","","","","","","","","","","","","","","","",""
"psychophysics","276","729428","0.0-18.0-1.10","609ae2994317d68738facfc1","609a8bf73b2ac84e2732f618","609d76e27105857c9c6856db","null","","","","null","","","","key","16.665344827583638","683","328.5","","","","","","","","","","","","","137","-1","5","true","","","",""
"psychophysics","277","729877","0.0-18.0-2.10","609ae2994317d68738facfc1","609a8bf73b2ac84e2732f618","609d76e27105857c9c6856db","446.6400000001304","","","","77","","","","key","16.665500000002794","683","328.5","","","","","","","","","","","","","","","","","","","",""
"psychophysics","278","730859","0.0-18.0-0.11","609ae2994317d68738facfc1","609a8bf73b2ac84e2732f618","609d76e27105857c9c6856db","null","","","","null","","","","key","16.665396551724026","683","328.5","","","","","","","","","","","","","","","","","","","",""
"psychophysics","279","731361","0.0-18.0-1.11","609ae2994317d68738facfc1","609a8bf73b2ac84e2732f618","609d76e27105857c9c6856db","null","","","","null","","","","key","16.665275862071148","683","328.5","","","","","","","","","","","","","137","1","4","true","","","",""
"psychophysics","280","731612","0.0-18.0-2.11","609ae2994317d68738facfc1","609a8bf73b2ac84e2732f618","609d76e27105857c9c6856db","247.9700000003213","","","","77","","","","key","16.665428571427974","683","328.5","","","","","","","","","","","","","","","","","","","",""
"psychophysics","281","732821","0.0-18.0-0.12","609ae2994317d68738facfc1","609a8bf73b2ac84e2732f618","609d76e27105857c9c6856db","null","","","","null","","","","key","16.665577464789468","683","328.5","","","","","","","","","","","","","","","","","","","",""
"psychophysics","282","733324","0.0-18.0-1.12","609ae2994317d68738facfc1","609a8bf73b2ac84e2732f618","609d76e27105857c9c6856db","null","","","","null","","","","key","16.66546666666788","683","328.5","","","","","","","","","","","","","137","1","6","true","","","",""
"psychophysics","283","733553","0.0-18.0-2.12","609ae2994317d68738facfc1","609a8bf73b2ac84e2732f618","609d76e27105857c9c6856db","219.51000000082422","","","","77","","","","key","16.664749999996275","683","328.5","","","","","","","","","","","","","","","","","","","",""
"psychophysics","284","734400","0.0-18.0-0.13","609ae2994317d68738facfc1","609a8bf73b2ac84e2732f618","609d76e27105857c9c6856db","null","","","","null","","","","key","16.66561999999918","683","328.5","","","","","","","","","","","","","","","","","","","",""
"psychophysics","285","734903","0.0-18.0-1.13","609ae2994317d68738facfc1","609a8bf73b2ac84e2732f618","609d76e27105857c9c6856db","null","","","","null","","","","key","16.66586206896343","683","328.5","","","","","","","","","","","","","137","1","0","true","","","",""
"psychophysics","286","735249","0.0-18.0-2.13","609ae2994317d68738facfc1","609a8bf73b2ac84e2732f618","609d76e27105857c9c6856db","342.3900000016438","","","","77","","","","key","16.664199999999255","683","328.5","","","","","","","","","","","","","","","","","","","",""
"psychophysics","287","736702","0.0-18.0-0.14","609ae2994317d68738facfc1","609a8bf73b2ac84e2732f618","609d76e27105857c9c6856db","null","","","","null","","","","key","16.665465116278853","683","328.5","","","","","","","","","","","","","","","","","","","",""
"psychophysics","288","737204","0.0-18.0-1.14","609ae2994317d68738facfc1","609a8bf73b2ac84e2732f618","609d76e27105857c9c6856db","null","","","","null","","","","key","16.66437931034457","683","328.5","","","","","","","","","","","","","137","-1","0","true","","","",""
"psychophysics","289","737864","0.0-18.0-2.14","609ae2994317d68738facfc1","609a8bf73b2ac84e2732f618","609d76e27105857c9c6856db","642.8799999994226","","","","90","","","","key","16.665282051281956","683","328.5","","","","","","","","","","","","","","","","","","","",""
"psychophysics","290","738987","0.0-18.0-0.15","609ae2994317d68738facfc1","609a8bf73b2ac84e2732f618","609d76e27105857c9c6856db","null","","","","null","","","","key","16.66534848484761","683","328.5","","","","","","","","","","","","","","","","","","","",""
"psychophysics","291","739491","0.0-18.0-1.15","609ae2994317d68738facfc1","609a8bf73b2ac84e2732f618","609d76e27105857c9c6856db","null","","","","null","","","","key","16.66469999999972","683","328.5","","","","","","","","","","","","","137","1","3","true","","","",""
"psychophysics","292","739699","0.0-18.0-2.15","609ae2994317d68738facfc1","609a8bf73b2ac84e2732f618","609d76e27105857c9c6856db","204.88500000094064","","","","77","","","","key","16.66481818181505","683","328.5","","","","","","","","","","","","","","","","","","","",""
"psychophysics","293","741001","0.0-18.0-0.16","609ae2994317d68738facfc1","609a8bf73b2ac84e2732f618","609d76e27105857c9c6856db","null","","","","null","","","","key","16.665311688312343","683","328.5","","","","","","","","","","","","","","","","","","","",""
"psychophysics","294","741504","0.0-18.0-1.16","609ae2994317d68738facfc1","609a8bf73b2ac84e2732f618","609d76e27105857c9c6856db","null","","","","null","","","","key","16.66513793103413","683","328.5","","","","","","","","","","","","","137","1","5","true","","","",""
"psychophysics","295","741820","0.0-18.0-2.16","609ae2994317d68738facfc1","609a8bf73b2ac84e2732f618","609d76e27105857c9c6856db","307.5950000002049","","","","77","","","","key","16.665611111112714","683","328.5","","","","","","","","","","","","","","","","","","","",""
"psychophysics","296","743116","0.0-18.0-0.17","609ae2994317d68738facfc1","609a8bf73b2ac84e2732f618","609d76e27105857c9c6856db","null","","","","null","","","","key","16.665324675324435","683","328.5","","","","","","","","","","","","","","","","","","","",""
"psychophysics","297","743618","0.0-18.0-1.17","609ae2994317d68738facfc1","609a8bf73b2ac84e2732f618","609d76e27105857c9c6856db","null","","","","null","","","","key","16.66548275862066","683","328.5","","","","","","","","","","","","","137","-1","3","true","","","",""
"psychophysics","298","743965","0.0-18.0-2.17","609ae2994317d68738facfc1","609a8bf73b2ac84e2732f618","609d76e27105857c9c6856db","342.1450000004843","","","","77","","","","key","16.664650000003167","683","328.5","","","","","","","","","","","","","","","","","","","",""
"psychophysics","299","744664","0.0-18.0-0.18","609ae2994317d68738facfc1","609a8bf73b2ac84e2732f618","609d76e27105857c9c6856db","null","","","","null","","","","key","16.66517073170725","683","328.5","","","","","","","","","","","","","","","","","","","",""
"psychophysics","300","745166","0.0-18.0-1.18","609ae2994317d68738facfc1","609a8bf73b2ac84e2732f618","609d76e27105857c9c6856db","null","","","","null","","","","key","16.665172413794387","683","328.5","","","","","","","","","","","","","137","-1","6","true","","","",""
"psychophysics","301","745454","0.0-18.0-2.18","609ae2994317d68738facfc1","609a8bf73b2ac84e2732f618","609d76e27105857c9c6856db","283.86999999929685","","","","77","","","","key","16.665562499998487","683","328.5","","","","","","","","","","","","","","","","","","","",""
"psychophysics","302","746064","0.0-18.0-0.19","609ae2994317d68738facfc1","609a8bf73b2ac84e2732f618","609d76e27105857c9c6856db","null","","","","null","","","","key","16.6651388888907","683","328.5","","","","","","","","","","","","","","","","","","","",""
"psychophysics","303","746567","0.0-18.0-1.19","609ae2994317d68738facfc1","609a8bf73b2ac84e2732f618","609d76e27105857c9c6856db","null","","","","null","","","","key","16.665206896550632","683","328.5","","","","","","","","","","","","","137","-1","5","true","","","",""
"psychophysics","304","746973","0.0-18.0-2.19","609ae2994317d68738facfc1","609a8bf73b2ac84e2732f618","609d76e27105857c9c6856db","393.6250000005821","","","","77","","","","key","16.66608333333473","683","328.5","","","","","","","","","","","","","","","","","","","",""
"psychophysics","305","748288","0.0-18.0-0.20","609ae2994317d68738facfc1","609a8bf73b2ac84e2732f618","609d76e27105857c9c6856db","null","","","","null","","","","key","16.66551282051324","683","328.5","","","","","","","","","","","","","","","","","","","",""
"psychophysics","306","748791","0.0-18.0-1.20","609ae2994317d68738facfc1","609a8bf73b2ac84e2732f618","609d76e27105857c9c6856db","null","","","","null","","","","key","16.66510344827387","683","328.5","","","","","","","","","","","","","137","1","2","true","","","",""
"psychophysics","307","749959","0.0-18.0-2.20","609ae2994317d68738facfc1","609a8bf73b2ac84e2732f618","609d76e27105857c9c6856db","1164.8200000000652","","","","77","","","","key","16.665318840579804","683","328.5","","","","","","","","","","","","","","","","","","","",""
"psychophysics","308","751040","0.0-18.0-0.21","609ae2994317d68738facfc1","609a8bf73b2ac84e2732f618","609d76e27105857c9c6856db","null","","","","null","","","","key","16.665312500001164","683","328.5","","","","","","","","","","","","","","","","","","","",""
"psychophysics","309","751543","0.0-18.0-1.21","609ae2994317d68738facfc1","609a8bf73b2ac84e2732f618","609d76e27105857c9c6856db","null","","","","null","","","","key","16.66555172413716","683","328.5","","","","","","","","","","","","","137","-1","4","true","","","",""
"psychophysics","310","751882","0.0-18.0-2.21","609ae2994317d68738facfc1","609a8bf73b2ac84e2732f618","609d76e27105857c9c6856db","326.9749999999767","","","","77","","","","key","16.666052631580417","683","328.5","","","","","","","","","","","","","","","","","","","",""
"psychophysics","311","752451","0.0-18.0-0.22","609ae2994317d68738facfc1","609a8bf73b2ac84e2732f618","609d76e27105857c9c6856db","null","","","","null","","","","key","16.66530303030176","683","328.5","","","","","","","","","","","","","","","","","","","",""
"psychophysics","312","752954","0.0-18.0-1.22","609ae2994317d68738facfc1","609a8bf73b2ac84e2732f618","609d76e27105857c9c6856db","null","","","","null","","","","key","16.665333333335973","683","328.5","","","","","","","","","","","","","137","-1","2","true","","","",""
"psychophysics","313","753337","0.0-18.0-2.22","609ae2994317d68738facfc1","609a8bf73b2ac84e2732f618","609d76e27105857c9c6856db","379.06500000099186","","","","90","","","","key","16.664863636362664","683","328.5","","","","","","","","","","","","","","","","","","","",""
"psychophysics","314","754520","0.0-18.0-0.23","609ae2994317d68738facfc1","609a8bf73b2ac84e2732f618","609d76e27105857c9c6856db","null","","","","null","","","","key","16.665428571427974","683","328.5","","","","","","","","","","","","","","","","","","","",""
"psychophysics","315","755024","0.0-18.0-1.23","609ae2994317d68738facfc1","609a8bf73b2ac84e2732f618","609d76e27105857c9c6856db","null","","","","null","","","","key","16.66558620689742","683","328.5","","","","","","","","","","","","","137","1","4","true","","","",""
"psychophysics","316","755340","0.0-18.0-2.23","609ae2994317d68738facfc1","609a8bf73b2ac84e2732f618","609d76e27105857c9c6856db","313.26500000071246","","","","77","","","","key","16.664055555554416","683","328.5","","","","","","","","","","","","","","","","","","","",""
"psychophysics","317","756137","0.0-18.0-0.24","609ae2994317d68738facfc1","609a8bf73b2ac84e2732f618","609d76e27105857c9c6856db","null","","","","null","","","","key","16.665574468085246","683","328.5","","","","","","","","","","","","","","","","","","","",""
"psychophysics","318","756641","0.0-18.0-1.24","609ae2994317d68738facfc1","609a8bf73b2ac84e2732f618","609d76e27105857c9c6856db","null","","","","null","","","","key","16.66541379310014","683","328.5","","","","","","","","","","","","","137","1","5","true","","","",""
"psychophysics","319","756987","0.0-18.0-2.24","609ae2994317d68738facfc1","609a8bf73b2ac84e2732f618","609d76e27105857c9c6856db","342.3800000001211","","","","77","","","","key","16.665894736842205","683","328.5","","","","","","","","","","","","","","","","","","","",""
"psychophysics","320","758030","0.0-18.0-0.25","609ae2994317d68738facfc1","609a8bf73b2ac84e2732f618","609d76e27105857c9c6856db","null","","","","null","","","","key","16.665177419355455","683","328.5","","","","","","","","","","","","","","","","","","","",""
"psychophysics","321","758533","0.0-18.0-1.25","609ae2994317d68738facfc1","609a8bf73b2ac84e2732f618","609d76e27105857c9c6856db","null","","","","null","","","","key","16.665310344827393","683","328.5","","","","","","","","","","","","","137","1","4","true","","","",""
"psychophysics","322","758939","0.0-18.0-2.25","609ae2994317d68738facfc1","609a8bf73b2ac84e2732f618","609d76e27105857c9c6856db","401.24499999918044","","","","77","","","","key","16.665333333333063","683","328.5","","","","","","","","","","","","","","","","","","","",""
"psychophysics","323","760287","0.0-18.0-0.26","609ae2994317d68738facfc1","609a8bf73b2ac84e2732f618","609d76e27105857c9c6856db","null","","","","null","","","","key","16.665287499999977","683","328.5","","","","","","","","","","","","","","","","","","","",""
"psychophysics","324","760788","0.0-18.0-1.26","609ae2994317d68738facfc1","609a8bf73b2ac84e2732f618","609d76e27105857c9c6856db","null","","","","null","","","","key","16.66462068965434","683","328.5","","","","","","","","","","","","","137","1","0","true","","","",""
"psychophysics","325","761395","0.0-18.0-2.26","609ae2994317d68738facfc1","609a8bf73b2ac84e2732f618","609d76e27105857c9c6856db","604.0749999992549","","","","77","","","","key","16.665599999999227","683","328.5","","","","","","","","","","","","","","","","","","","",""
"psychophysics","326","762873","0.0-18.0-0.27","609ae2994317d68738facfc1","609a8bf73b2ac84e2732f618","609d76e27105857c9c6856db","null","","","","null","","","","key","16.66570454545515","683","328.5","","","","","","","","","","","","","","","","","","","",""
"psychophysics","327","763376","0.0-18.0-1.27","609ae2994317d68738facfc1","609a8bf73b2ac84e2732f618","609d76e27105857c9c6856db","null","","","","null","","","","key","16.664551724137834","683","328.5","","","","","","","","","","","","","137","1","6","true","","","",""
"psychophysics","328","763829","0.0-18.0-2.27","609ae2994317d68738facfc1","609a8bf73b2ac84e2732f618","609d76e27105857c9c6856db","446.96999999904074","","","","77","","","","key","16.66534615384612","683","328.5","","","","","","","","","","","","","","","","","","","",""
"psychophysics","329","764871","0.0-18.0-0.28","609ae2994317d68738facfc1","609a8bf73b2ac84e2732f618","609d76e27105857c9c6856db","null","","","","null","","","","key","16.665806451613353","683","328.5","","","","","","","","","","","","","","","","","","","",""
