"trial_type","trial_index","time_elapsed","internal_node_id","PROLIFIC_PID","STUDY_ID","SESSION_ID","rt","stimulus","button_pressed","success","key_press","responses","isData","view_history","response_type","avg_frame_time","center_x","center_y","isSC","stim_side","trial_luminance","step_size","nReversal","correct","prev_ans","isThreshold","SC_threshold","final_threshold","isLuminance","FF_luminance","luminance","stimSide","ISInt","isFF","question_order","isSPQ","isCAPS","isAQ"
"pavlovia","0","3","0.0-0.0","604bd4be02a18bed5762f304","609a8bf73b2ac84e2732f618","609d7bf4a4b0761905050ab4","","","","","","","","","","","","","","","","","","","","","","","","","","","","","","","",""
"html-button-response","1","177278","0.0-1.0","604bd4be02a18bed5762f304","609a8bf73b2ac84e2732f618","609d7bf4a4b0761905050ab4","177272.5550001487","<div style='background-color: white; width:60%; margin: auto; padding: 50px; text-align: justify; text-justify: inter-word; margin-bottom: 20px;'><h1 style='text-align: center;'>Consent Form</h1><p>Please read this consent form carefully before deciding whether you would like to participate in this study. You have to be 18 years old or older to participate to this study.</p><p style='text-decoration: underline;'>Participation is voluntary:</p><p>It is your choice whether or not to participate in this research. If you choose to participate, you may change your mind and leave the study at any time. Refusal to participate or stopping your participation will involve no penalty or loss of benefits to which you are otherwise entitled.</p><p style='text-decoration: underline;'>Purpose of the Study:</p><p>To understand the mechanisms underlying human perception.</p><p style='text-decoration: underline;'>What you will do in this study:</p><p>You will be presented with a series of visual images and then you will press buttons on the keyboard of your computer to respond to simple questions about the images (e.g. Were one or two images presented?). In addition, you will be asked to complete a questionnaire concerning your beliefs and everyday mental and perceptual experiences.'</p><p style='text-decoration: underline;'> Time Required:</p><p>The study will take 40 minutes to complete. </p><p style='text-decoration: underline;'>Risks:</p><p>There are no anticipated risks associated with participating in this study that are beyond those experienced in everyday life. </p><p style='text-decoration: underline;'>Benefits:</p><p>There are no benefits to you in participating in the study. However, this study may lead to a better understanding of how different kinds of visual information are used.</p><p style='text-decoration: underline;'>Compensation:</p><p>You will be paid US$6.6/hour. </p><p style='text-decoration: underline;'>Privacy and Confidentiality:</p><p>Your participation in this study will be anonymous. No personal information about your name or identity will be asked or recorded. This anonymous data will be stored for several years and may be used for a variety of research purposes. The overall results of the study may be published, or the data files may be shared with other researchers, but your identity will not be revealed in any way. The online services we are using for this study may temporarily store your data, but this data will be downloaded and then promptly deleted from those services.Your data will not be permanently associated with your name, IP address, or any other identifiable information (e.g., your information will only be connected to your payment, not to any of your responses), though they may be temporarily stored together before we download and separate them. Even so, no guarantee of internet survey security can be given because, although unlikely, transmissions can be intercepted and IP addresses can be identified. The anonymous data may be shared publicly (for example, in conjunction with a resulting academic publication).</p><p style='text-decoration: underline;'>Participation and Withdrawal:</p><p>Your participation in this study is completely voluntary. You may stop responding to the stimuli or stop answering questions if you so choose and without penalty by exiting the full screen mode, closing this tab of your browser or redirecting it to a different website.</p><p style='text-decoration: underline;'>Contact Info of the Researcher: </p><p>If you have questions about this study, or if you would like to talk to the research team, please contact David Melcher (david.melcher@nyu.edu, md5050@nyu.edu) at the Perception and Active Cognition Laboratory, New York University Abu Dhabi, Computational Research Building, Saadiyat Island, Abu Dhabi, UAE.This research has been reviewed by the New York University Abu Dhabi Institutional Review Board (NYUAD IRB). To contact about your rights in this research, for questions, suggestions, or complaints that are not addressed by the researchers, please email IRBnyuad@nyu.edu, or call the NYUAD IRB at +971 2 628 4313. </p></div>","0","","","","","","","","","","","","","","","","","","","","","","","","","","","","",""
"fullscreen","2","180310","0.0-2.0","604bd4be02a18bed5762f304","609a8bf73b2ac84e2732f618","609d7bf4a4b0761905050ab4","","","","true","","","","","","","","","","","","","","","","","","","","","","","","","","","",""
"html-keyboard-response","3","199642","0.0-3.0","604bd4be02a18bed5762f304","609a8bf73b2ac84e2732f618","609d7bf4a4b0761905050ab4","19330.79000003636","<p>Welcome !</p><p>READ CAREFULLY THE FOLLOWING INDICATIONS:</p><p>From this moment you have ~40 minutes to complete the experiment.</p><p>During the experiment you will be prompted to take several breaks. Each break should not last longer than 2-3 minutes.</p><p>Make sure that your computer is plugged in and it's not running on battery power, even if the battery is already fully charged.</p><p>Turn off your phone and music, make sure that you are in a quiet room and that you will not be distracted for the next hour.</p><p>Failure to comply with the instructions and indications provided during the experiment will most likely result in the rejection of your data.<p>Press the spacebar to start.</p>","","","32","","","","","","","","","","","","","","","","","","","","","","","","","","",""
"survey-html-form","4","207340","0.0-4.0","604bd4be02a18bed5762f304","609a8bf73b2ac84e2732f618","609d7bf4a4b0761905050ab4","7696.260000113398","","","","","{""age"":""20"",""sex"":""F""}","true","","","","","","","","","","","","","","","","","","","","","","","","",""
"instructions","5","256354","0.0-5.0","604bd4be02a18bed5762f304","609a8bf73b2ac84e2732f618","609d7bf4a4b0761905050ab4","49014.65500006452","","","","","","","[{""page_index"":0,""viewing_time"":17595.750000327826},{""page_index"":1,""viewing_time"":23567.87999998778},{""page_index"":2,""viewing_time"":7850.5899999290705}]","","","","","","","","","","","","","","","","","","","","","","","",""
"psychophysics","6","259489","0.0-6.0-0.0","604bd4be02a18bed5762f304","609a8bf73b2ac84e2732f618","609d7bf4a4b0761905050ab4","2122.689999639988","","","","37","","","","key","7.080452488687843","960","468.5","true","-1","180","30","0","-1","","","","","","","","","","","","","",""
"psychophysics","7","262550","0.0-6.0-0.1","604bd4be02a18bed5762f304","609a8bf73b2ac84e2732f618","609d7bf4a4b0761905050ab4","2056.579999625683","","","","37","","","","key","6.944579545454524","960","468.5","true","1","180","30","0","1","-1","","","","","","","","","","","","",""
"psychophysics","8","264334","0.0-6.0-0.2","604bd4be02a18bed5762f304","609a8bf73b2ac84e2732f618","609d7bf4a4b0761905050ab4","781.8100000731647","","","","37","","","","key","6.944531250000182","960","468.5","true","-1","210","30","0","-1","1","","","","","","","","","","","","",""
"psychophysics","9","266105","0.0-6.0-0.3","604bd4be02a18bed5762f304","609a8bf73b2ac84e2732f618","609d7bf4a4b0761905050ab4","768.7150002457201","","","","37","","","","key","6.944570866141626","960","468.5","true","-1","210","24","1","-1","-1","","","","","","","","","","","","",""
"psychophysics","10","267543","0.0-6.0-0.4","604bd4be02a18bed5762f304","609a8bf73b2ac84e2732f618","609d7bf4a4b0761905050ab4","435.9699999913573","","","","39","","","","key","6.9447475728153325","960","468.5","true","1","186","24","1","-1","-1","","","","","","","","","","","","",""
"psychophysics","11","268974","0.0-6.0-0.5","604bd4be02a18bed5762f304","609a8bf73b2ac84e2732f618","609d7bf4a4b0761905050ab4","429.86000003293157","","","","37","","","","key","6.944453658536644","960","468.5","true","-1","186","24","1","-1","-1","","","","","","","","","","","","",""
"psychophysics","12","270815","0.0-6.0-0.6","604bd4be02a18bed5762f304","609a8bf73b2ac84e2732f618","609d7bf4a4b0761905050ab4","839.3899998627603","","","","37","","","","key","6.971057034220445","960","468.5","true","-1","162","24","1","-1","-1","","","","","","","","","","","","",""
"psychophysics","13","273085","0.0-6.0-0.7","604bd4be02a18bed5762f304","609a8bf73b2ac84e2732f618","609d7bf4a4b0761905050ab4","1269.1750000230968","","","","37","","","","key","6.944398773006168","960","468.5","true","-1","162","24","1","-1","-1","","","","","","","","","","","","",""
"psychophysics","14","274396","0.0-6.0-0.8","604bd4be02a18bed5762f304","609a8bf73b2ac84e2732f618","609d7bf4a4b0761905050ab4","305.8949997648597","","","","39","","","","key","6.944813829787234","960","468.5","true","1","138","24","1","-1","-1","","","","","","","","","","","","",""
"psychophysics","15","275827","0.0-6.0-0.9","604bd4be02a18bed5762f304","609a8bf73b2ac84e2732f618","609d7bf4a4b0761905050ab4","429.0900002233684","","","","37","","","","key","7.013068965517197","960","468.5","true","-1","138","24","1","-1","-1","","","","","","","","","","","","",""
"psychophysics","16","278008","0.0-6.0-0.10","604bd4be02a18bed5762f304","609a8bf73b2ac84e2732f618","609d7bf4a4b0761905050ab4","1179.1650000959635","","","","37","","","","key","6.944584664536831","960","468.5","true","-1","129","24","1","-1","-1","","","","","","","","","","","","",""
"psychophysics","17","280281","0.0-6.0-0.11","604bd4be02a18bed5762f304","609a8bf73b2ac84e2732f618","609d7bf4a4b0761905050ab4","1271.1700000800192","","","","37","","","","key","6.944552147239261","960","468.5","true","1","129","19.2","2","1","-1","","","","","","","","","","","","",""
"psychophysics","18","281605","0.0-6.0-0.12","604bd4be02a18bed5762f304","609a8bf73b2ac84e2732f618","609d7bf4a4b0761905050ab4","317.18500005081296","","","","39","","","","key","6.9447473684209395","960","468.5","true","1","148.2","19.2","2","-1","1","","","","","","","","","","","","",""
"psychophysics","19","283648","0.0-6.0-0.13","604bd4be02a18bed5762f304","609a8bf73b2ac84e2732f618","609d7bf4a4b0761905050ab4","1040.9699999727309","","","","39","","","","key","6.944655290102339","960","468.5","true","1","148.2","15.36","3","-1","-1","","","","","","","","","","","","",""
"psychophysics","20","285559","0.0-6.0-0.14","604bd4be02a18bed5762f304","609a8bf73b2ac84e2732f618","609d7bf4a4b0761905050ab4","909.7450003027916","","","","39","","","","key","6.970208791208892","960","468.5","true","-1","132.83999999999997","12.287999999999998","4","1","-1","","","","","","","","","","","","",""
"psychophysics","21","287571","0.0-6.0-0.15","604bd4be02a18bed5762f304","609a8bf73b2ac84e2732f618","609d7bf4a4b0761905050ab4","1004.6550002880394","","","","39","","","","key","6.944602076124535","960","468.5","true","1","145.128","12.287999999999998","4","-1","1","","","","","","","","","","","","",""
"psychophysics","22","289890","0.0-6.0-0.16","604bd4be02a18bed5762f304","609a8bf73b2ac84e2732f618","609d7bf4a4b0761905050ab4","1317.0949998311698","","","","39","","","","key","6.944492492492502","960","468.5","true","1","145.128","9.8304","5","-1","-1","","","","","","","","","","","","",""
"psychophysics","23","291827","0.0-6.0-0.17","604bd4be02a18bed5762f304","609a8bf73b2ac84e2732f618","609d7bf4a4b0761905050ab4","935.8000000938773","","","","39","","","","key","6.94456474820136","960","468.5","true","-1","135.2976","7.864319999999999","6","1","-1","","","","","","","","","","","","",""
"psychophysics","24","294441","0.0-6.0-0.18","604bd4be02a18bed5762f304","609a8bf73b2ac84e2732f618","609d7bf4a4b0761905050ab4","1611.849999986589","","","","39","","","","key","6.96309625668458","960","468.5","true","1","143.16191999999998","7.864319999999999","6","-1","1","","","","","","","","","","","","",""
"psychophysics","25","295835","0.0-6.0-0.19","604bd4be02a18bed5762f304","609a8bf73b2ac84e2732f618","609d7bf4a4b0761905050ab4","388.5349999181926","","","","39","","","","key","6.944624999999942","960","468.5","true","1","143.16191999999998","6.291456","7","-1","-1","","","","","","","","","","","","",""
"psychophysics","26","298321","0.0-6.0-0.20","604bd4be02a18bed5762f304","609a8bf73b2ac84e2732f618","609d7bf4a4b0761905050ab4","1483.0000000074506","","","","39","","","","key","6.944504201680739","960","468.5","true","-1","136.87046399999997","5.033164800000001","8","1","-1","","","","","","","","","","","","",""
"psychophysics","27","300489","0.0-6.0-0.21","604bd4be02a18bed5762f304","609a8bf73b2ac84e2732f618","609d7bf4a4b0761905050ab4","1166.9449997134507","","","","37","","","","key","6.94464308681686","960","468.5","true","1","141.90362879999998","5.033164800000001","8","1","1","","","","","","","","","","","","",""
"psychophysics","28","301932","0.0-6.0-0.22","604bd4be02a18bed5762f304","609a8bf73b2ac84e2732f618","609d7bf4a4b0761905050ab4","441.4650001563132","","","","39","","","","key","6.9446376811596","960","468.5","true","1","146.9367936","5.033164800000001","8","-1","1","","","","","","","","","","","","",""
"psychophysics","29","303322","0.0-6.0-0.23","604bd4be02a18bed5762f304","609a8bf73b2ac84e2732f618","609d7bf4a4b0761905050ab4","388.4499999694526","","","","37","","","","key","6.9446984924622885","960","468.5","true","-1","146.9367936","4.0265318400000005","9","-1","-1","","","","","","","","","","","","",""
"psychophysics","30","304732","0.0-6.0-0.24","604bd4be02a18bed5762f304","609a8bf73b2ac84e2732f618","609d7bf4a4b0761905050ab4","407.3949996381998","","","","39","","","","key","6.944301980198073","960","468.5","true","1","142.91026176","4.0265318400000005","9","-1","-1","","","","","","","","","","","","",""
"psychophysics","31","306505","0.0-6.0-0.25","604bd4be02a18bed5762f304","609a8bf73b2ac84e2732f618","609d7bf4a4b0761905050ab4","767.6300001330674","","","","39","","","","key","6.944519685039354","960","468.5","true","-1","142.91026176","3.2212254720000004","10","1","-1","","","","","","","","","","","","",""
"psychophysics","32","307836","0.0-6.0-0.26","604bd4be02a18bed5762f304","609a8bf73b2ac84e2732f618","609d7bf4a4b0761905050ab4","328.1199997290969","","","","37","","","","key","6.944434554974063","960","468.5","true","-1","146.13148723199998","3.2212254720000004","10","-1","1","","","","","","","","","","","","",""
"psychophysics","33","309441","0.0-6.0-0.27","604bd4be02a18bed5762f304","609a8bf73b2ac84e2732f618","609d7bf4a4b0761905050ab4","599.2699996568263","","","","37","","","","key","6.944552173913183","960","468.5","true","-1","146.13148723199998","2.5769803776000004","11","-1","-1","","","","","","","","","","","","",""
"psychophysics","34","310849","0.0-6.0-0.28","604bd4be02a18bed5762f304","609a8bf73b2ac84e2732f618","609d7bf4a4b0761905050ab4","406.68000001460314","","","","39","","","","key","6.944519801980223","960","468.5","true","1","143.5545068544","2.5769803776000004","11","-1","-1","","","","","","","","","","","","",""
"psychophysics","35","312274","0.0-6.0-0.29","604bd4be02a18bed5762f304","609a8bf73b2ac84e2732f618","609d7bf4a4b0761905050ab4","422.4000000394881","","","","39","","","","key","6.944504901960802","960","468.5","true","1","143.5545068544","2.5769803776000004","11","-1","-1","","","","","","","","","","","","",""
"psychophysics","36","314335","0.0-6.0-0.30","604bd4be02a18bed5762f304","609a8bf73b2ac84e2732f618","609d7bf4a4b0761905050ab4","1060.560000129044","","","","39","","","","key","6.968081355932311","960","468.5","true","1","140.9775264768","2.5769803776000004","11","-1","-1","","","","","","","","","","","","",""
"psychophysics","37","316433","0.0-6.0-0.31","604bd4be02a18bed5762f304","609a8bf73b2ac84e2732f618","609d7bf4a4b0761905050ab4","1096.665000077337","","","","39","","","","key","6.944591362126198","960","468.5","true","1","140.9775264768","2.5769803776000004","11","-1","-1","","","","","","","","","","","","",""
"psychophysics","38","317961","0.0-6.0-0.32","604bd4be02a18bed5762f304","609a8bf73b2ac84e2732f618","609d7bf4a4b0761905050ab4","526.6550001688302","","","","37","","","","key","6.944534246575355","960","468.5","true","1","138.4005460992","2.0615843020800004","12","1","-1","","","","","","","","","","","","",""
"psychophysics","39","319502","0.0-6.0-0.33","604bd4be02a18bed5762f304","609a8bf73b2ac84e2732f618","609d7bf4a4b0761905050ab4","539.3199999816716","","","","39","","","","key","6.944610859728598","960","468.5","true","-1","140.46213040128","2.0615843020800004","12","1","1","","","","","","","","","","","","",""
"psychophysics","40","321149","0.0-6.0-0.34","604bd4be02a18bed5762f304","609a8bf73b2ac84e2732f618","609d7bf4a4b0761905050ab4","643.465000204742","","","","39","","","","key","6.9444194915253075","960","468.5","true","-1","142.52371470336","2.0615843020800004","12","1","1","","","","","","","","","","","","",""
"psychophysics","41","322482","0.0-6.0-0.35","604bd4be02a18bed5762f304","609a8bf73b2ac84e2732f618","609d7bf4a4b0761905050ab4","329.9199999310076","","","","37","","","","key","6.944534031413703","960","468.5","true","-1","144.58529900544002","2.0615843020800004","12","-1","1","","","","","","","","","","","","",""
"psychophysics","42","324329","0.0-6.0-0.36","604bd4be02a18bed5762f304","609a8bf73b2ac84e2732f618","609d7bf4a4b0761905050ab4","845.9450001828372","","","","37","","","","key","6.944498113207387","960","468.5","true","-1","144.58529900544002","1.6492674416640005","13","-1","-1","","","","","","","","","","","","",""
"psychophysics","43","325927","0.0-6.0-0.37","604bd4be02a18bed5762f304","609a8bf73b2ac84e2732f618","609d7bf4a4b0761905050ab4","595.9199997596443","","","","37","","","","key","6.944589519650598","960","468.5","true","1","142.93603156377603","1.3194139533312006","14","1","-1","","","","","","","","","","","","",""
"psychophysics","44","327329","0.0-6.0-0.38","604bd4be02a18bed5762f304","609a8bf73b2ac84e2732f618","609d7bf4a4b0761905050ab4","400.9050000458956","","","","37","","","","key","6.94451243781099","960","468.5","true","-1","144.25544551710723","1.3194139533312006","14","-1","1","","","","","","","","","","","","",""
"psychophysics","45","328711","0.0-6.0-0.39","604bd4be02a18bed5762f304","609a8bf73b2ac84e2732f618","609d7bf4a4b0761905050ab4","380.7000000961125","","","","39","","","","key","6.944550505050545","960","468.5","true","1","144.25544551710723","1.0555311626649604","15","-1","-1","","","","","","","","","","","","",""
"html-keyboard-response","46","332292","0.0-7.0","604bd4be02a18bed5762f304","609a8bf73b2ac84e2732f618","609d7bf4a4b0761905050ab4","3579.2299997992814","<p>Well Done !</p><p>Prepare for a new block.</p><p>DON'T EXIT THE FULL SCREEN MODE</p><p>Press the Spacebar to start.</p>","","","32","","","","","","","","","","","","","","","true","143.08274764660737","","","","","","","","","","",""
"psychophysics","47","334077","0.0-8.0-0.0","604bd4be02a18bed5762f304","609a8bf73b2ac84e2732f618","609d7bf4a4b0761905050ab4","782.3850000277162","","","","37","","","","key","7.3643016528924115","960","468.5","true","1","180","30","0","1","","","","","","","","","","","","","",""
"psychophysics","48","335438","0.0-8.0-0.1","604bd4be02a18bed5762f304","609a8bf73b2ac84e2732f618","609d7bf4a4b0761905050ab4","354.7649998217821","","","","39","","","","key","6.944584615384407","960","468.5","true","1","210","30","0","-1","1","","","","","","","","","","","","",""
"psychophysics","49","336778","0.0-8.0-0.2","604bd4be02a18bed5762f304","609a8bf73b2ac84e2732f618","609d7bf4a4b0761905050ab4","338.64500001072884","","","","39","","","","key","6.944625000000087","960","468.5","true","1","210","24","1","-1","-1","","","","","","","","","","","","",""
"psychophysics","50","338096","0.0-8.0-0.3","604bd4be02a18bed5762f304","609a8bf73b2ac84e2732f618","609d7bf4a4b0761905050ab4","317.005000077188","","","","37","","","","key","6.944518518518342","960","468.5","true","-1","186","24","1","-1","-1","","","","","","","","","","","","",""
"psychophysics","51","339453","0.0-8.0-0.4","604bd4be02a18bed5762f304","609a8bf73b2ac84e2732f618","609d7bf4a4b0761905050ab4","354.8449999652803","","","","37","","","","key","6.94463917525748","960","468.5","true","-1","186","24","1","-1","-1","","","","","","","","","","","","",""
"psychophysics","52","341161","0.0-8.0-0.5","604bd4be02a18bed5762f304","609a8bf73b2ac84e2732f618","609d7bf4a4b0761905050ab4","702.5549998506904","","","","37","","","","key","6.944636734693824","960","468.5","true","-1","162","24","1","-1","-1","","","","","","","","","","","","",""
"psychophysics","53","342549","0.0-8.0-0.6","604bd4be02a18bed5762f304","609a8bf73b2ac84e2732f618","609d7bf4a4b0761905050ab4","386.24999998137355","","","","37","","","","key","6.944643216080386","960","468.5","true","-1","162","24","1","-1","-1","","","","","","","","","","","","",""
"psychophysics","54","344279","0.0-8.0-0.7","604bd4be02a18bed5762f304","609a8bf73b2ac84e2732f618","609d7bf4a4b0761905050ab4","728.3899998292327","","","","39","","","","key","6.9445887096773085","960","468.5","true","-1","138","19.2","2","1","-1","","","","","","","","","","","","",""
"psychophysics","55","345570","0.0-8.0-0.8","604bd4be02a18bed5762f304","609a8bf73b2ac84e2732f618","609d7bf4a4b0761905050ab4","290.38000013679266","","","","37","","","","key","6.944518918918786","960","468.5","true","-1","157.2","19.2","2","-1","1","","","","","","","","","","","","",""
"psychophysics","56","346841","0.0-8.0-0.9","604bd4be02a18bed5762f304","609a8bf73b2ac84e2732f618","609d7bf4a4b0761905050ab4","269.9049999937415","","","","39","","","","key","6.944554945054863","960","468.5","true","1","157.2","15.36","3","-1","-1","","","","","","","","","","","","",""
"psychophysics","57","348188","0.0-8.0-0.10","604bd4be02a18bed5762f304","609a8bf73b2ac84e2732f618","609d7bf4a4b0761905050ab4","345.6500000320375","","","","39","","","","key","6.944642487046589","960","468.5","true","1","141.83999999999997","15.36","3","-1","-1","","","","","","","","","","","","",""
"psychophysics","58","349999","0.0-8.0-0.11","604bd4be02a18bed5762f304","609a8bf73b2ac84e2732f618","609d7bf4a4b0761905050ab4","810.0700001232326","","","","39","","","","key","6.944538461538524","960","468.5","true","1","141.83999999999997","15.36","3","-1","-1","","","","","","","","","","","","",""
"psychophysics","59","351535","0.0-8.0-0.12","604bd4be02a18bed5762f304","609a8bf73b2ac84e2732f618","609d7bf4a4b0761905050ab4","533.9600001461804","","","","37","","","","key","6.944490909090911","960","468.5","true","-1","129","15.36","3","-1","-1","","","","","","","","","","","","",""
"psychophysics","60","354104","0.0-8.0-0.13","604bd4be02a18bed5762f304","609a8bf73b2ac84e2732f618","609d7bf4a4b0761905050ab4","1567.534999921918","","","","37","","","","key","6.944585365853569","960","468.5","true","1","129","12.287999999999998","4","1","-1","","","","","","","","","","","","",""
"psychophysics","61","355403","0.0-8.0-0.14","604bd4be02a18bed5762f304","609a8bf73b2ac84e2732f618","609d7bf4a4b0761905050ab4","297.6899999193847","","","","39","","","","key","6.981989189189217","960","468.5","true","1","141.288","12.287999999999998","4","-1","1","","","","","","","","","","","","",""
"psychophysics","62","356974","0.0-8.0-0.15","604bd4be02a18bed5762f304","609a8bf73b2ac84e2732f618","609d7bf4a4b0761905050ab4","569.4949999451637","","","","39","","","","key","6.9445644444444525","960","468.5","true","1","141.288","9.8304","5","-1","-1","","","","","","","","","","","","",""
"psychophysics","63","358416","0.0-8.0-0.16","604bd4be02a18bed5762f304","609a8bf73b2ac84e2732f618","609d7bf4a4b0761905050ab4","441.0749999806285","","","","37","","","","key","6.944821256038829","960","468.5","true","-1","131.4576","9.8304","5","-1","-1","","","","","","","","","","","","",""
"psychophysics","64","360439","0.0-8.0-0.17","604bd4be02a18bed5762f304","609a8bf73b2ac84e2732f618","609d7bf4a4b0761905050ab4","1020.2750000171363","","","","37","","","","key","6.94467931034481","960","468.5","true","1","131.4576","7.864319999999999","6","1","-1","","","","","","","","","","","","",""
"psychophysics","65","361835","0.0-8.0-0.18","604bd4be02a18bed5762f304","609a8bf73b2ac84e2732f618","609d7bf4a4b0761905050ab4","390.52999997511506","","","","37","","","","key","6.944605000000156","960","468.5","true","-1","139.32192","7.864319999999999","6","-1","1","","","","","","","","","","","","",""
"psychophysics","66","364003","0.0-8.0-0.19","604bd4be02a18bed5762f304","609a8bf73b2ac84e2732f618","609d7bf4a4b0761905050ab4","1163.410000037402","","","","37","","","","key","6.944491961414864","960","468.5","true","1","139.32192","6.291456","7","1","-1","","","","","","","","","","","","",""
"psychophysics","67","366277","0.0-8.0-0.20","604bd4be02a18bed5762f304","609a8bf73b2ac84e2732f618","609d7bf4a4b0761905050ab4","1270.0100000947714","","","","37","","","","key","6.944568807339304","960","468.5","true","-1","145.61337600000002","6.291456","7","-1","1","","","","","","","","","","","","",""
"psychophysics","68","367925","0.0-8.0-0.21","604bd4be02a18bed5762f304","609a8bf73b2ac84e2732f618","609d7bf4a4b0761905050ab4","645.7549999468029","","","","39","","","","key","6.944584745762799","960","468.5","true","1","145.61337600000002","5.033164800000001","8","-1","-1","","","","","","","","","","","","",""
"psychophysics","69","369242","0.0-8.0-0.22","604bd4be02a18bed5762f304","609a8bf73b2ac84e2732f618","609d7bf4a4b0761905050ab4","316.78499979898334","","","","37","","","","key","6.9446137566137915","960","468.5","true","-1","140.5802112","5.033164800000001","8","-1","-1","","","","","","","","","","","","",""
"psychophysics","70","371118","0.0-8.0-0.23","604bd4be02a18bed5762f304","609a8bf73b2ac84e2732f618","609d7bf4a4b0761905050ab4","873.4849998727441","","","","37","","","","key","6.94456505576204","960","468.5","true","-1","140.5802112","5.033164800000001","8","-1","-1","","","","","","","","","","","","",""
"psychophysics","71","372787","0.0-8.0-0.24","604bd4be02a18bed5762f304","609a8bf73b2ac84e2732f618","609d7bf4a4b0761905050ab4","667.4849996343255","","","","37","","","","key","6.944610878661037","960","468.5","true","-1","135.5470464","5.033164800000001","8","-1","-1","","","","","","","","","","","","",""
"psychophysics","72","374716","0.0-8.0-0.25","604bd4be02a18bed5762f304","609a8bf73b2ac84e2732f618","609d7bf4a4b0761905050ab4","924.6299997903407","","","","37","","","","key","6.944555956678673","960","468.5","true","1","135.5470464","4.0265318400000005","9","1","-1","","","","","","","","","","","","",""
"psychophysics","73","376306","0.0-8.0-0.26","604bd4be02a18bed5762f304","609a8bf73b2ac84e2732f618","609d7bf4a4b0761905050ab4","583.6350000463426","","","","39","","","","key","6.944627192982456","960","468.5","true","-1","139.57357824","4.0265318400000005","9","1","1","","","","","","","","","","","","",""
"psychophysics","74","378836","0.0-8.0-0.27","604bd4be02a18bed5762f304","609a8bf73b2ac84e2732f618","609d7bf4a4b0761905050ab4","1529.209999833256","","","","39","","","","key","6.944550964187256","960","468.5","true","-1","143.60011007999998","4.0265318400000005","9","1","1","","","","","","","","","","","","",""
"psychophysics","75","381438","0.0-8.0-0.28","604bd4be02a18bed5762f304","609a8bf73b2ac84e2732f618","609d7bf4a4b0761905050ab4","1598.0349997989833","","","","39","","","","key","6.944534759358272","960","468.5","true","1","147.62664191999997","4.0265318400000005","9","-1","1","","","","","","","","","","","","",""
"psychophysics","76","382868","0.0-8.0-0.29","604bd4be02a18bed5762f304","609a8bf73b2ac84e2732f618","609d7bf4a4b0761905050ab4","428.24000027030706","","","","39","","","","key","6.944560975609802","960","468.5","true","1","147.62664191999997","3.2212254720000004","10","-1","-1","","","","","","","","","","","","",""
"psychophysics","77","385736","0.0-8.0-0.30","604bd4be02a18bed5762f304","609a8bf73b2ac84e2732f618","609d7bf4a4b0761905050ab4","1866.0199996083975","","","","39","","","","key","6.944560679611614","960","468.5","true","-1","144.40541644799998","2.5769803776000004","11","1","-1","","","","","","","","","","","","",""
"psychophysics","78","387503","0.0-8.0-0.31","604bd4be02a18bed5762f304","609a8bf73b2ac84e2732f618","609d7bf4a4b0761905050ab4","764.6300001069903","","","","39","","","","key","6.944604743082949","960","468.5","true","1","146.98239682559998","2.5769803776000004","11","-1","1","","","","","","","","","","","","",""
"psychophysics","79","388931","0.0-8.0-0.32","604bd4be02a18bed5762f304","609a8bf73b2ac84e2732f618","609d7bf4a4b0761905050ab4","423.88000013306737","","","","37","","","","key","6.944570731707542","960","468.5","true","-1","146.98239682559998","2.0615843020800004","12","-1","-1","","","","","","","","","","","","",""
"psychophysics","80","390294","0.0-8.0-0.33","604bd4be02a18bed5762f304","609a8bf73b2ac84e2732f618","609d7bf4a4b0761905050ab4","356.62500001490116","","","","39","","","","key","6.944446153846235","960","468.5","true","1","144.92081252351997","2.0615843020800004","12","-1","-1","","","","","","","","","","","","",""
"psychophysics","81","392044","0.0-8.0-0.34","604bd4be02a18bed5762f304","609a8bf73b2ac84e2732f618","609d7bf4a4b0761905050ab4","744.5600000210106","","","","37","","","","key","6.944717131474146","960","468.5","true","-1","144.92081252351997","2.0615843020800004","12","-1","-1","","","","","","","","","","","","",""
"psychophysics","82","393931","0.0-8.0-0.35","604bd4be02a18bed5762f304","609a8bf73b2ac84e2732f618","609d7bf4a4b0761905050ab4","886.4600001834333","","","","37","","","","key","6.944542435424212","960","468.5","true","-1","142.85922822143996","2.0615843020800004","12","-1","-1","","","","","","","","","","","","",""
"psychophysics","83","396583","0.0-8.0-0.36","604bd4be02a18bed5762f304","609a8bf73b2ac84e2732f618","609d7bf4a4b0761905050ab4","1651.1699999682605","","","","39","","","","key","6.94456692913387","960","468.5","true","1","142.85922822143996","2.0615843020800004","12","-1","-1","","","","","","","","","","","","",""
"psychophysics","84","398440","0.0-8.0-0.37","604bd4be02a18bed5762f304","609a8bf73b2ac84e2732f618","609d7bf4a4b0761905050ab4","855.4999995976686","","","","37","","","","key","6.944556390977363","960","468.5","true","1","140.79764391935996","1.6492674416640005","13","1","-1","","","","","","","","","","","","",""
"psychophysics","85","403354","0.0-8.0-0.38","604bd4be02a18bed5762f304","609a8bf73b2ac84e2732f618","609d7bf4a4b0761905050ab4","3909.350000321865","","","","39","","","","key","6.944483734087695","960","468.5","true","-1","142.44691136102395","1.6492674416640005","13","1","1","","","","","","","","","","","","",""
"psychophysics","86","405167","0.0-8.0-0.39","604bd4be02a18bed5762f304","609a8bf73b2ac84e2732f618","609d7bf4a4b0761905050ab4","810.5500000528991","","","","39","","","","key","6.944007692307843","960","468.5","true","1","144.09617880268794","1.6492674416640005","13","-1","1","","","","","","","","","","","","",""
"html-keyboard-response","87","408334","0.0-9.0","604bd4be02a18bed5762f304","609a8bf73b2ac84e2732f618","609d7bf4a4b0761905050ab4","3165.715000126511","<p>Well Done !</p><p>Prepare for a new block.</p><p>DON'T EXIT THE FULL SCREEN MODE</p><p>Press the Spacebar to start.</p>","","","32","","","","","","","","","","","","","","","true","143.68300294881277","","","","","","","","","","",""
"psychophysics","88","410029","0.0-10.0-0.0","604bd4be02a18bed5762f304","609a8bf73b2ac84e2732f618","609d7bf4a4b0761905050ab4","693.8299997709692","","","","37","","","","key","6.939303278688534","960","468.5","true","-1","180","30","0","-1","","","","","","","","","","","","","",""
"psychophysics","89","411313","0.0-10.0-0.1","604bd4be02a18bed5762f304","609a8bf73b2ac84e2732f618","609d7bf4a4b0761905050ab4","279.6550001949072","","","","39","","","","key","6.944271739130351","960","468.5","true","1","180","30","0","-1","-1","","","","","","","","","","","","",""
"psychophysics","90","412576","0.0-10.0-0.2","604bd4be02a18bed5762f304","609a8bf73b2ac84e2732f618","609d7bf4a4b0761905050ab4","257.4650002643466","","","","39","","","","key","6.944441988950374","960","468.5","true","1","150","30","0","-1","-1","","","","","","","","","","","","",""
"psychophysics","91","413936","0.0-10.0-0.3","604bd4be02a18bed5762f304","609a8bf73b2ac84e2732f618","609d7bf4a4b0761905050ab4","358.12999960035086","","","","39","","","","key","6.944646153846183","960","468.5","true","1","150","30","0","-1","-1","","","","","","","","","","","","",""
"psychophysics","92","415307","0.0-10.0-0.4","604bd4be02a18bed5762f304","609a8bf73b2ac84e2732f618","609d7bf4a4b0761905050ab4","369.3850003182888","","","","39","","","","key","6.944535714285496","960","468.5","true","1","129","30","0","-1","-1","","","","","","","","","","","","",""
"psychophysics","93","417673","0.0-10.0-0.5","604bd4be02a18bed5762f304","609a8bf73b2ac84e2732f618","609d7bf4a4b0761905050ab4","1361.2549998797476","","","","37","","","","key","6.9445735294116755","960","468.5","true","1","129","24","1","1","-1","","","","","","","","","","","","",""
"psychophysics","94","419186","0.0-10.0-0.6","604bd4be02a18bed5762f304","609a8bf73b2ac84e2732f618","609d7bf4a4b0761905050ab4","512.1949999593198","","","","39","","","","key","6.944474654377885","960","468.5","true","1","153","24","1","-1","1","","","","","","","","","","","","",""
"psychophysics","95","420806","0.0-10.0-0.7","604bd4be02a18bed5762f304","609a8bf73b2ac84e2732f618","609d7bf4a4b0761905050ab4","618.9250000752509","","","","39","","","","key","6.944637931034306","960","468.5","true","1","153","19.2","2","-1","-1","","","","","","","","","","","","",""
"psychophysics","96","422950","0.0-10.0-0.8","604bd4be02a18bed5762f304","609a8bf73b2ac84e2732f618","609d7bf4a4b0761905050ab4","1142.8850004449487","","","","39","","","","key","6.94452597402594","960","468.5","true","1","133.8","19.2","2","-1","-1","","","","","","","","","","","","",""
"psychophysics","97","425285","0.0-10.0-0.9","604bd4be02a18bed5762f304","609a8bf73b2ac84e2732f618","609d7bf4a4b0761905050ab4","1333.044999744743","","","","37","","","","key","6.944605970149339","960","468.5","true","-1","133.8","19.2","2","-1","-1","","","","","","","","","","","","",""
"psychophysics","98","427124","0.0-10.0-0.10","604bd4be02a18bed5762f304","609a8bf73b2ac84e2732f618","609d7bf4a4b0761905050ab4","833.7050001136959","","","","39","","","","key","6.944465909091047","960","468.5","true","-1","129","15.36","3","1","-1","","","","","","","","","","","","",""
"psychophysics","99","428471","0.0-10.0-0.11","604bd4be02a18bed5762f304","609a8bf73b2ac84e2732f618","609d7bf4a4b0761905050ab4","344.88500002771616","","","","37","","","","key","6.944575129533754","960","468.5","true","-1","144.36","15.36","3","-1","1","","","","","","","","","","","","",""
"psychophysics","100","429770","0.0-10.0-0.12","604bd4be02a18bed5762f304","609a8bf73b2ac84e2732f618","609d7bf4a4b0761905050ab4","297.3149996250868","","","","37","","","","key","6.9444086021507125","960","468.5","true","-1","144.36","12.287999999999998","4","-1","-1","","","","","","","","","","","","",""
"psychophysics","101","431694","0.0-10.0-0.13","604bd4be02a18bed5762f304","609a8bf73b2ac84e2732f618","609d7bf4a4b0761905050ab4","922.7950000204146","","","","39","","","","key","6.944525362318887","960","468.5","true","-1","132.072","9.8304","5","1","-1","","","","","","","","","","","","",""
"psychophysics","102","433041","0.0-10.0-0.14","604bd4be02a18bed5762f304","609a8bf73b2ac84e2732f618","609d7bf4a4b0761905050ab4","345.7400002516806","","","","39","","","","key","6.944554404145073","960","468.5","true","1","141.9024","9.8304","5","-1","1","","","","","","","","","","","","",""
"psychophysics","103","434694","0.0-10.0-0.15","604bd4be02a18bed5762f304","609a8bf73b2ac84e2732f618","609d7bf4a4b0761905050ab4","651.5799998305738","","","","39","","","","key","6.9443713080168425","960","468.5","true","1","141.9024","7.864319999999999","6","-1","-1","","","","","","","","","","","","",""
"psychophysics","104","436312","0.0-10.0-0.16","604bd4be02a18bed5762f304","609a8bf73b2ac84e2732f618","609d7bf4a4b0761905050ab4","617.0800002291799","","","","37","","","","key","6.9446206896551805","960","468.5","true","1","134.03808","6.291456","7","1","-1","","","","","","","","","","","","",""
"psychophysics","105","437825","0.0-10.0-0.17","604bd4be02a18bed5762f304","609a8bf73b2ac84e2732f618","609d7bf4a4b0761905050ab4","512.2050000354648","","","","37","","","","key","6.944483870967647","960","468.5","true","-1","140.32953600000002","6.291456","7","-1","1","","","","","","","","","","","","",""
"psychophysics","106","439717","0.0-10.0-0.18","604bd4be02a18bed5762f304","609a8bf73b2ac84e2732f618","609d7bf4a4b0761905050ab4","890.2450003661215","","","","37","","","","key","6.944638376383883","960","468.5","true","-1","140.32953600000002","5.033164800000001","8","-1","-1","","","","","","","","","","","","",""
"psychophysics","107","441652","0.0-10.0-0.19","604bd4be02a18bed5762f304","609a8bf73b2ac84e2732f618","609d7bf4a4b0761905050ab4","930.784999858588","","","","39","","","","key","6.944582733812887","960","468.5","true","-1","135.2963712","4.0265318400000005","9","1","-1","","","","","","","","","","","","",""
"psychophysics","108","443612","0.0-10.0-0.20","604bd4be02a18bed5762f304","609a8bf73b2ac84e2732f618","609d7bf4a4b0761905050ab4","958.5349997505546","","","","37","","","","key","6.944555160142498","960","468.5","true","-1","139.32290304","4.0265318400000005","9","-1","1","","","","","","","","","","","","",""
"psychophysics","109","446118","0.0-10.0-0.21","604bd4be02a18bed5762f304","609a8bf73b2ac84e2732f618","609d7bf4a4b0761905050ab4","1500.9899996221066","","","","37","","","","key","6.963849582172694","960","468.5","true","1","139.32290304","3.2212254720000004","10","1","-1","","","","","","","","","","","","",""
"psychophysics","110","447659","0.0-10.0-0.22","604bd4be02a18bed5762f304","609a8bf73b2ac84e2732f618","609d7bf4a4b0761905050ab4","539.18999992311","","","","37","","","","key","6.944638009049837","960","468.5","true","1","142.544128512","3.2212254720000004","10","1","1","","","","","","","","","","","","",""
"psychophysics","111","448974","0.0-10.0-0.23","604bd4be02a18bed5762f304","609a8bf73b2ac84e2732f618","609d7bf4a4b0761905050ab4","312.2000000439584","","","","39","","","","key","6.944664893617069","960","468.5","true","1","145.765353984","3.2212254720000004","10","-1","1","","","","","","","","","","","","",""
"psychophysics","112","450320","0.0-10.0-0.24","604bd4be02a18bed5762f304","609a8bf73b2ac84e2732f618","609d7bf4a4b0761905050ab4","344.73499981686473","","","","37","","","","key","6.9444559585493675","960","468.5","true","-1","145.765353984","2.5769803776000004","11","-1","-1","","","","","","","","","","","","",""
"psychophysics","113","452563","0.0-10.0-0.25","604bd4be02a18bed5762f304","609a8bf73b2ac84e2732f618","609d7bf4a4b0761905050ab4","1241.0349999554455","","","","39","","","","key","6.987931250000111","960","468.5","true","-1","143.1883736064","2.0615843020800004","12","1","-1","","","","","","","","","","","","",""
"psychophysics","114","454627","0.0-10.0-0.26","604bd4be02a18bed5762f304","609a8bf73b2ac84e2732f618","609d7bf4a4b0761905050ab4","1063.120000064373","","","","37","","","","key","6.9445675675675815","960","468.5","true","1","145.24995790848","2.0615843020800004","12","1","1","","","","","","","","","","","","",""
"psychophysics","115","456313","0.0-10.0-0.27","604bd4be02a18bed5762f304","609a8bf73b2ac84e2732f618","609d7bf4a4b0761905050ab4","681.3400001265109","","","","39","","","","key","6.944458677685745","960","468.5","true","-1","147.31154221056002","2.0615843020800004","12","1","1","","","","","","","","","","","","",""
"psychophysics","116","457757","0.0-10.0-0.28","604bd4be02a18bed5762f304","609a8bf73b2ac84e2732f618","609d7bf4a4b0761905050ab4","442.40500032901764","","","","37","","","","key","6.9444299516906955","960","468.5","true","-1","149.37312651264003","2.0615843020800004","12","-1","1","","","","","","","","","","","","",""
"psychophysics","117","460353","0.0-10.0-0.29","604bd4be02a18bed5762f304","609a8bf73b2ac84e2732f618","609d7bf4a4b0761905050ab4","1593.6699998565018","","","","37","","","","key","6.944561827956932","960","468.5","true","1","149.37312651264003","1.6492674416640005","13","1","-1","","","","","","","","","","","","",""
"psychophysics","118","462222","0.0-10.0-0.30","604bd4be02a18bed5762f304","609a8bf73b2ac84e2732f618","609d7bf4a4b0761905050ab4","866.2950000725687","","","","37","","","","key","7.022849624060292","960","468.5","true","-1","151.02239395430402","1.6492674416640005","13","-1","1","","","","","","","","","","","","",""
"psychophysics","119","463891","0.0-10.0-0.31","604bd4be02a18bed5762f304","609a8bf73b2ac84e2732f618","609d7bf4a4b0761905050ab4","667.105000000447","","","","37","","","","key","6.944535564853582","960","468.5","true","-1","151.02239395430402","1.3194139533312006","14","-1","-1","","","","","","","","","","","","",""
"psychophysics","120","465167","0.0-10.0-0.32","604bd4be02a18bed5762f304","609a8bf73b2ac84e2732f618","609d7bf4a4b0761905050ab4","271.4049997739494","","","","39","","","","key","6.944540983606689","960","468.5","true","1","149.70298000097281","1.3194139533312006","14","-1","-1","","","","","","","","","","","","",""
"psychophysics","121","466805","0.0-10.0-0.33","604bd4be02a18bed5762f304","609a8bf73b2ac84e2732f618","609d7bf4a4b0761905050ab4","635.855000000447","","","","39","","","","key","6.944527659574622","960","468.5","true","1","149.70298000097281","1.3194139533312006","14","-1","-1","","","","","","","","","","","","",""
"psychophysics","122","468474","0.0-10.0-0.34","604bd4be02a18bed5762f304","609a8bf73b2ac84e2732f618","609d7bf4a4b0761905050ab4","667.2249999828637","","","","37","","","","key","6.944623430962402","960","468.5","true","-1","148.3835660476416","1.3194139533312006","14","-1","-1","","","","","","","","","","","","",""
"psychophysics","123","470472","0.0-10.0-0.35","604bd4be02a18bed5762f304","609a8bf73b2ac84e2732f618","609d7bf4a4b0761905050ab4","992.8399999625981","","","","37","","","","key","6.944609756097571","960","468.5","true","1","148.3835660476416","1.0555311626649604","15","1","-1","","","","","","","","","","","","",""
"psychophysics","124","471758","0.0-10.0-0.36","604bd4be02a18bed5762f304","609a8bf73b2ac84e2732f618","609d7bf4a4b0761905050ab4","284.05999997630715","","","","39","","","","key","6.944527173913071","960","468.5","true","1","149.43909721030656","1.0555311626649604","15","-1","1","","","","","","","","","","","","",""
"psychophysics","125","473070","0.0-10.0-0.37","604bd4be02a18bed5762f304","609a8bf73b2ac84e2732f618","609d7bf4a4b0761905050ab4","310.74999971315265","","","","37","","","","key","6.944547872340488","960","468.5","true","-1","149.43909721030656","1","16","-1","-1","","","","","","","","","","","","",""
"psychophysics","126","474695","0.0-10.0-0.38","604bd4be02a18bed5762f304","609a8bf73b2ac84e2732f618","609d7bf4a4b0761905050ab4","623.6250000074506","","","","37","","","","key","6.944678111587923","960","468.5","true","-1","148.43909721030656","1","16","-1","-1","","","","","","","","","","","","",""
"psychophysics","127","476008","0.0-10.0-0.39","604bd4be02a18bed5762f304","609a8bf73b2ac84e2732f618","609d7bf4a4b0761905050ab4","310.25500036776066","","","","37","","","","key","6.944393617021133","960","468.5","true","-1","148.43909721030656","1","16","-1","-1","","","","","","","","","","","","",""
"html-keyboard-response","128","482004","0.0-11.0","604bd4be02a18bed5762f304","609a8bf73b2ac84e2732f618","609d7bf4a4b0761905050ab4","5995.420000050217","<p>Well Done !</p><p>Prepare for a new block.</p><p>DON'T EXIT THE FULL SCREEN MODE</p><p>Press the Spacebar to start.</p>","","","32","","","","","","","","","","","","","","","true","148.5646930398522","","","","","","","","","","",""
"psychophysics","129","483297","0.0-12.0-0.0","604bd4be02a18bed5762f304","609a8bf73b2ac84e2732f618","609d7bf4a4b0761905050ab4","291.55000019818544","","","","37","","","","key","6.964497297297458","960","468.5","true","-1","180","30","0","-1","","","","","","","","","","","","","",""
"psychophysics","130","484637","0.0-12.0-0.1","604bd4be02a18bed5762f304","609a8bf73b2ac84e2732f618","609d7bf4a4b0761905050ab4","334.840000141412","","","","37","","","","key","6.944630208333365","960","468.5","true","-1","180","30","0","-1","-1","","","","","","","","","","","","",""
"psychophysics","131","485948","0.0-12.0-0.2","604bd4be02a18bed5762f304","609a8bf73b2ac84e2732f618","609d7bf4a4b0761905050ab4","309.6799999475479","","","","39","","","","key","6.944643617021242","960","468.5","true","1","150","30","0","-1","-1","","","","","","","","","","","","",""
"psychophysics","132","487274","0.0-12.0-0.3","604bd4be02a18bed5762f304","609a8bf73b2ac84e2732f618","609d7bf4a4b0761905050ab4","325.04000002518296","","","","37","","","","key","6.9445368421052605","960","468.5","true","-1","150","30","0","-1","-1","","","","","","","","","","","","",""
"psychophysics","133","489080","0.0-12.0-0.4","604bd4be02a18bed5762f304","609a8bf73b2ac84e2732f618","609d7bf4a4b0761905050ab4","802.7399997226894","","","","39","","","","key","6.944532818532671","960","468.5","true","1","129","30","0","-1","-1","","","","","","","","","","","","",""
"psychophysics","134","490475","0.0-12.0-0.5","604bd4be02a18bed5762f304","609a8bf73b2ac84e2732f618","609d7bf4a4b0761905050ab4","393.370000179857","","","","37","","","","key","6.944590000000026","960","468.5","true","1","129","24","1","1","-1","","","","","","","","","","","","",""
"psychophysics","135","492476","0.0-12.0-0.6","604bd4be02a18bed5762f304","609a8bf73b2ac84e2732f618","609d7bf4a4b0761905050ab4","998.8949997350574","","","","37","","","","key","6.944571428571443","960","468.5","true","-1","153","24","1","-1","1","","","","","","","","","","","","",""
"psychophysics","136","493755","0.0-12.0-0.7","604bd4be02a18bed5762f304","609a8bf73b2ac84e2732f618","609d7bf4a4b0761905050ab4","276.1300001293421","","","","39","","","","key","6.94446994535513","960","468.5","true","1","153","19.2","2","-1","-1","","","","","","","","","","","","",""
"psychophysics","137","495575","0.0-12.0-0.8","604bd4be02a18bed5762f304","609a8bf73b2ac84e2732f618","609d7bf4a4b0761905050ab4","818.5200002044439","","","","39","","","","key","6.944858237547921","960","468.5","true","-1","133.8","15.36","3","1","-1","","","","","","","","","","","","",""
"psychophysics","138","496865","0.0-12.0-0.9","604bd4be02a18bed5762f304","609a8bf73b2ac84e2732f618","609d7bf4a4b0761905050ab4","284.25499983131886","","","","37","","","","key","6.94450810810809","960","468.5","true","-1","149.16000000000003","15.36","3","-1","1","","","","","","","","","","","","",""
"psychophysics","139","498247","0.0-12.0-0.10","604bd4be02a18bed5762f304","609a8bf73b2ac84e2732f618","609d7bf4a4b0761905050ab4","380.40999975055456","","","","37","","","","key","6.944661616161642","960","468.5","true","-1","149.16000000000003","12.287999999999998","4","-1","-1","","","","","","","","","","","","",""
"psychophysics","140","499739","0.0-12.0-0.11","604bd4be02a18bed5762f304","609a8bf73b2ac84e2732f618","609d7bf4a4b0761905050ab4","489.934999961406","","","","37","","","","key","6.944672897196142","960","468.5","true","1","136.872","9.8304","5","1","-1","","","","","","","","","","","","",""
"psychophysics","141","501171","0.0-12.0-0.12","604bd4be02a18bed5762f304","609a8bf73b2ac84e2732f618","609d7bf4a4b0761905050ab4","427.8250001370907","","","","37","","","","key","6.944126829268161","960","468.5","true","1","146.7024","9.8304","5","1","1","","","","","","","","","","","","",""
"psychophysics","142","502407","0.0-12.0-0.13","604bd4be02a18bed5762f304","609a8bf73b2ac84e2732f618","609d7bf4a4b0761905050ab4","230.9949998743832","","","","39","","","","key","6.94478531073454","960","468.5","true","1","156.5328","9.8304","5","-1","1","","","","","","","","","","","","",""
"psychophysics","143","504130","0.0-12.0-0.14","604bd4be02a18bed5762f304","609a8bf73b2ac84e2732f618","609d7bf4a4b0761905050ab4","721.384999807924","","","","39","","","","key","6.944955465586966","960","468.5","true","1","156.5328","7.864319999999999","6","-1","-1","","","","","","","","","","","","",""
"psychophysics","144","506067","0.0-12.0-0.15","604bd4be02a18bed5762f304","609a8bf73b2ac84e2732f618","609d7bf4a4b0761905050ab4","936.4050002768636","","","","39","","","","key","6.944356115107976","960","468.5","true","1","148.66848000000002","7.864319999999999","6","-1","-1","","","","","","","","","","","","",""
"psychophysics","145","507338","0.0-12.0-0.16","604bd4be02a18bed5762f304","609a8bf73b2ac84e2732f618","609d7bf4a4b0761905050ab4","265.50500001758337","","","","37","","","","key","6.944467032966934","960","468.5","true","-1","148.66848000000002","7.864319999999999","6","-1","-1","","","","","","","","","","","","",""
"psychophysics","146","508892","0.0-12.0-0.17","604bd4be02a18bed5762f304","609a8bf73b2ac84e2732f618","609d7bf4a4b0761905050ab4","552.2349998354912","","","","37","","","","key","6.9444708520180605","960","468.5","true","-1","140.80416000000002","7.864319999999999","6","-1","-1","","","","","","","","","","","","",""
"psychophysics","147","510434","0.0-12.0-0.18","604bd4be02a18bed5762f304","609a8bf73b2ac84e2732f618","609d7bf4a4b0761905050ab4","540.9050001762807","","","","37","","","","key","6.944475113122136","960","468.5","true","1","140.80416000000002","6.291456","7","1","-1","","","","","","","","","","","","",""
"psychophysics","148","512026","0.0-12.0-0.19","604bd4be02a18bed5762f304","609a8bf73b2ac84e2732f618","609d7bf4a4b0761905050ab4","589.9400003254414","","","","37","","","","key","6.944530701754398","960","468.5","true","-1","147.09561600000004","6.291456","7","-1","1","","","","","","","","","","","","",""
"psychophysics","149","513333","0.0-12.0-0.20","604bd4be02a18bed5762f304","609a8bf73b2ac84e2732f618","609d7bf4a4b0761905050ab4","304.96499966830015","","","","39","","","","key","6.94468449197839","960","468.5","true","1","147.09561600000004","5.033164800000001","8","-1","-1","","","","","","","","","","","","",""
"psychophysics","150","514636","0.0-12.0-0.21","604bd4be02a18bed5762f304","609a8bf73b2ac84e2732f618","609d7bf4a4b0761905050ab4","298.8350000232458","","","","39","","","","key","6.944513368984015","960","468.5","true","1","142.06245120000003","5.033164800000001","8","-1","-1","","","","","","","","","","","","",""
"psychophysics","151","515914","0.0-12.0-0.22","604bd4be02a18bed5762f304","609a8bf73b2ac84e2732f618","609d7bf4a4b0761905050ab4","276.3049998320639","","","","39","","","","key","6.944420765027152","960","468.5","true","1","142.06245120000003","5.033164800000001","8","-1","-1","","","","","","","","","","","","",""
"psychophysics","152","517303","0.0-12.0-0.23","604bd4be02a18bed5762f304","609a8bf73b2ac84e2732f618","609d7bf4a4b0761905050ab4","387.9949999973178","","","","39","","","","key","6.944492462311693","960","468.5","true","1","137.02928640000002","5.033164800000001","8","-1","-1","","","","","","","","","","","","",""
"psychophysics","153","518706","0.0-12.0-0.24","604bd4be02a18bed5762f304","609a8bf73b2ac84e2732f618","609d7bf4a4b0761905050ab4","401.4200000092387","","","","39","","","","key","6.9444925373134","960","468.5","true","1","137.02928640000002","5.033164800000001","8","-1","-1","","","","","","","","","","","","",""
"psychophysics","154","520088","0.0-12.0-0.25","604bd4be02a18bed5762f304","609a8bf73b2ac84e2732f618","609d7bf4a4b0761905050ab4","380.6450003758073","","","","39","","","","key","6.944641414141363","960","468.5","true","1","131.9961216","5.033164800000001","8","-1","-1","","","","","","","","","","","","",""
"psychophysics","155","521539","0.0-12.0-0.26","604bd4be02a18bed5762f304","609a8bf73b2ac84e2732f618","609d7bf4a4b0761905050ab4","450.5199999548495","","","","39","","","","key","6.944490384615235","960","468.5","true","-1","131.9961216","4.0265318400000005","9","1","-1","","","","","","","","","","","","",""
"psychophysics","156","523102","0.0-12.0-0.27","604bd4be02a18bed5762f304","609a8bf73b2ac84e2732f618","609d7bf4a4b0761905050ab4","557.3450000956655","","","","39","","","","key","6.944343749999981","960","468.5","true","-1","136.02265344","4.0265318400000005","9","1","1","","","","","","","","","","","","",""
"psychophysics","157","524806","0.0-12.0-0.28","604bd4be02a18bed5762f304","609a8bf73b2ac84e2732f618","609d7bf4a4b0761905050ab4","702.0999998785555","","","","39","","","","key","6.944577868852276","960","468.5","true","1","140.04918528","4.0265318400000005","9","-1","1","","","","","","","","","","","","",""
"psychophysics","158","526302","0.0-12.0-0.29","604bd4be02a18bed5762f304","609a8bf73b2ac84e2732f618","609d7bf4a4b0761905050ab4","492.6200001500547","","","","39","","","","key","6.9445395348837256","960","468.5","true","-1","140.04918528","3.2212254720000004","10","1","-1","","","","","","","","","","","","",""
"psychophysics","159","527552","0.0-12.0-0.30","604bd4be02a18bed5762f304","609a8bf73b2ac84e2732f618","609d7bf4a4b0761905050ab4","248.26999986544251","","","","37","","","","key","6.94456983240277","960","468.5","true","-1","143.27041075199998","3.2212254720000004","10","-1","1","","","","","","","","","","","","",""
"psychophysics","160","529164","0.0-12.0-0.31","604bd4be02a18bed5762f304","609a8bf73b2ac84e2732f618","609d7bf4a4b0761905050ab4","610.3500002063811","","","","39","","","","key","6.944567099567382","960","468.5","true","1","143.27041075199998","2.5769803776000004","11","-1","-1","","","","","","","","","","","","",""
"psychophysics","161","531296","0.0-12.0-0.32","604bd4be02a18bed5762f304","609a8bf73b2ac84e2732f618","609d7bf4a4b0761905050ab4","1130.295000039041","","","","39","","","","key","6.944647058823262","960","468.5","true","-1","140.69343037439998","2.0615843020800004","12","1","-1","","","","","","","","","","","","",""
"psychophysics","162","532692","0.0-12.0-0.33","604bd4be02a18bed5762f304","609a8bf73b2ac84e2732f618","609d7bf4a4b0761905050ab4","394.7600000537932","","","","37","","","","key","6.9453649999998746","960","468.5","true","1","142.75501467648","2.0615843020800004","12","1","1","","","","","","","","","","","","",""
"psychophysics","163","534124","0.0-12.0-0.34","604bd4be02a18bed5762f304","609a8bf73b2ac84e2732f618","609d7bf4a4b0761905050ab4","430.1149998791516","","","","39","","","","key","6.944770731707104","960","468.5","true","-1","144.81659897856","2.0615843020800004","12","1","1","","","","","","","","","","","","",""
"psychophysics","164","535421","0.0-12.0-0.35","604bd4be02a18bed5762f304","609a8bf73b2ac84e2732f618","609d7bf4a4b0761905050ab4","296.2350002489984","","","","37","","","","key","6.944510752687566","960","468.5","true","-1","146.87818328064","2.0615843020800004","12","-1","1","","","","","","","","","","","","",""
"psychophysics","165","536818","0.0-12.0-0.36","604bd4be02a18bed5762f304","609a8bf73b2ac84e2732f618","609d7bf4a4b0761905050ab4","395.564999897033","","","","37","","","","key","6.944490000000224","960","468.5","true","-1","146.87818328064","1.6492674416640005","13","-1","-1","","","","","","","","","","","","",""
"psychophysics","166","538651","0.0-12.0-0.37","604bd4be02a18bed5762f304","609a8bf73b2ac84e2732f618","609d7bf4a4b0761905050ab4","831.3600001856685","","","","37","","","","key","6.944524714829021","960","468.5","true","1","145.228915838976","1.3194139533312006","14","1","-1","","","","","","","","","","","","",""
"psychophysics","167","540156","0.0-12.0-0.38","604bd4be02a18bed5762f304","609a8bf73b2ac84e2732f618","609d7bf4a4b0761905050ab4","499.75499976426363","","","","37","","","","key","6.944648148148122","960","468.5","true","-1","146.54832979230721","1.3194139533312006","14","-1","1","","","","","","","","","","","","",""
"psychophysics","168","541685","0.0-12.0-0.39","604bd4be02a18bed5762f304","609a8bf73b2ac84e2732f618","609d7bf4a4b0761905050ab4","526.8749999813735","","","","37","","","","key","6.945278538813066","960","468.5","true","-1","146.54832979230721","1.0555311626649604","15","-1","-1","","","","","","","","","","","","",""
"html-keyboard-response","169","555380","0.0-13.0","604bd4be02a18bed5762f304","609a8bf73b2ac84e2732f618","609d7bf4a4b0761905050ab4","13693.824999965727","<p>Well Done !</p><p>Prepare for a new block.</p><p>DON'T EXIT THE FULL SCREEN MODE</p><p>Press the Spacebar to start.</p>","","","32","","","","","","","","","","","","","","","true","141.80007164788736","","","","","","","","","","",""
"html-keyboard-response","170","555483","0.0-14.0","604bd4be02a18bed5762f304","609a8bf73b2ac84e2732f618","609d7bf4a4b0761905050ab4","null","","","","null","","","","","","","","","","","","","","","","","144.2826288207899","true","160.56525764157982","","","","","","","",""
"instructions","171","602893","0.0-15.0","604bd4be02a18bed5762f304","609a8bf73b2ac84e2732f618","609d7bf4a4b0761905050ab4","47408.315000124276","","","","","","","[{""page_index"":0,""viewing_time"":22294.470000080764},{""page_index"":1,""viewing_time"":10886.01000001654},{""page_index"":2,""viewing_time"":14227.394999936223}]","","","","","","","","","","","","","","","","","","","","","","","",""
"psychophysics","172","606151","0.0-16.0-0.0","604bd4be02a18bed5762f304","609a8bf73b2ac84e2732f618","609d7bf4a4b0761905050ab4","null","","","","null","","","","key","7.223635838150364","960","468.5","","","","","","","","","","","","","","","","","","","",""
"psychophysics","173","606653","0.0-16.0-1.0","604bd4be02a18bed5762f304","609a8bf73b2ac84e2732f618","609d7bf4a4b0761905050ab4","null","","","","null","","","","key","6.944380281689826","960","468.5","","","","","","","","","","","","","161","1","6","false","","","",""
"psychophysics","174","610553","0.0-16.0-2.0","604bd4be02a18bed5762f304","609a8bf73b2ac84e2732f618","609d7bf4a4b0761905050ab4","3893.604999873787","","","","77","","","","key","6.944525846702448","960","468.5","","","","","","","","","","","","","","","","","","","",""
"psychophysics","175","611289","0.0-16.0-0.1","604bd4be02a18bed5762f304","609a8bf73b2ac84e2732f618","609d7bf4a4b0761905050ab4","null","","","","null","","","","key","6.944523809523144","960","468.5","","","","","","","","","","","","","","","","","","","",""
"psychophysics","176","611791","0.0-16.0-1.1","604bd4be02a18bed5762f304","609a8bf73b2ac84e2732f618","609d7bf4a4b0761905050ab4","null","","","","null","","","","key","6.944633802817151","960","468.5","","","","","","","","","","","","","161","1","5","false","","","",""
"psychophysics","177","612379","0.0-16.0-2.1","604bd4be02a18bed5762f304","609a8bf73b2ac84e2732f618","609d7bf4a4b0761905050ab4","582.7050004154444","","","","77","","","","key","6.944499999999867","960","468.5","","","","","","","","","","","","","","","","","","","",""
"psychophysics","178","613200","0.0-16.0-0.2","604bd4be02a18bed5762f304","609a8bf73b2ac84e2732f618","609d7bf4a4b0761905050ab4","null","","","","null","","","","key","6.94421367521366","960","468.5","","","","","","","","","","","","","","","","","","","",""
"psychophysics","179","613713","0.0-16.0-1.2","604bd4be02a18bed5762f304","609a8bf73b2ac84e2732f618","609d7bf4a4b0761905050ab4","null","","","","null","","","","key","7.041624999999637","960","468.5","","","","","","","","","","","","","161","-1","6","false","","","",""
"psychophysics","180","614728","0.0-16.0-2.2","604bd4be02a18bed5762f304","609a8bf73b2ac84e2732f618","609d7bf4a4b0761905050ab4","1011.4549999125302","","","","90","","","","key","6.94437931034441","960","468.5","","","","","","","","","","","","","","","","","","","",""
"psychophysics","181","615643","0.0-16.0-0.3","604bd4be02a18bed5762f304","609a8bf73b2ac84e2732f618","609d7bf4a4b0761905050ab4","null","","","","null","","","","key","6.944839694656304","960","468.5","","","","","","","","","","","","","","","","","","","",""
"psychophysics","182","616145","0.0-16.0-1.3","604bd4be02a18bed5762f304","609a8bf73b2ac84e2732f618","609d7bf4a4b0761905050ab4","null","","","","null","","","","key","6.944464788732814","960","468.5","","","","","","","","","","","","","161","-1","0","false","","","",""
"psychophysics","183","617179","0.0-16.0-2.3","604bd4be02a18bed5762f304","609a8bf73b2ac84e2732f618","609d7bf4a4b0761905050ab4","1028.1599997542799","","","","77","","","","key","6.944655405405462","960","468.5","","","","","","","","","","","","","","","","","","","",""
"psychophysics","184","618539","0.0-16.0-0.4","604bd4be02a18bed5762f304","609a8bf73b2ac84e2732f618","609d7bf4a4b0761905050ab4","null","","","","null","","","","key","6.946482051282118","960","468.5","","","","","","","","","","","","","","","","","","","",""
"psychophysics","185","619041","0.0-16.0-1.4","604bd4be02a18bed5762f304","609a8bf73b2ac84e2732f618","609d7bf4a4b0761905050ab4","null","","","","null","","","","key","6.945591549295604","960","468.5","","","","","","","","","","","","","161","1","4","false","","","",""
"psychophysics","186","620310","0.0-16.0-2.4","604bd4be02a18bed5762f304","609a8bf73b2ac84e2732f618","609d7bf4a4b0761905050ab4","1263.1299998611212","","","","77","","","","key","6.943807692307938","960","468.5","","","","","","","","","","","","","","","","","","","",""
"psychophysics","187","621269","0.0-16.0-0.5","604bd4be02a18bed5762f304","609a8bf73b2ac84e2732f618","609d7bf4a4b0761905050ab4","null","","","","null","","","","key","6.995191176470732","960","468.5","","","","","","","","","","","","","","","","","","","",""
"psychophysics","188","621771","0.0-16.0-1.5","604bd4be02a18bed5762f304","609a8bf73b2ac84e2732f618","609d7bf4a4b0761905050ab4","null","","","","null","","","","key","6.944352112676043","960","468.5","","","","","","","","","","","","","161","-1","4","false","","","",""
"psychophysics","189","622824","0.0-16.0-2.5","604bd4be02a18bed5762f304","609a8bf73b2ac84e2732f618","609d7bf4a4b0761905050ab4","1047.4299998022616","","","","90","","","","key","6.944748344370904","960","468.5","","","","","","","","","","","","","","","","","","","",""
"psychophysics","190","623720","0.0-16.0-0.6","604bd4be02a18bed5762f304","609a8bf73b2ac84e2732f618","609d7bf4a4b0761905050ab4","null","","","","null","","","","key","6.944421874999534","960","468.5","","","","","","","","","","","","","","","","","","","",""
"psychophysics","191","624221","0.0-16.0-1.6","604bd4be02a18bed5762f304","609a8bf73b2ac84e2732f618","609d7bf4a4b0761905050ab4","null","","","","null","","","","key","6.944746478872282","960","468.5","","","","","","","","","","","","","161","1","0","false","","","",""
"psychophysics","192","624743","0.0-16.0-2.6","604bd4be02a18bed5762f304","609a8bf73b2ac84e2732f618","609d7bf4a4b0761905050ab4","520.4400001093745","","","","77","","","","key","6.943851351350974","960","468.5","","","","","","","","","","","","","","","","","","","",""
"psychophysics","193","625400","0.0-16.0-0.7","604bd4be02a18bed5762f304","609a8bf73b2ac84e2732f618","609d7bf4a4b0761905050ab4","null","","","","null","","","","key","6.94447872340382","960","468.5","","","","","","","","","","","","","","","","","","","",""
"psychophysics","194","625902","0.0-16.0-1.7","604bd4be02a18bed5762f304","609a8bf73b2ac84e2732f618","609d7bf4a4b0761905050ab4","null","","","","null","","","","key","6.94461971830944","960","468.5","","","","","","","","","","","","","161","1","2","false","","","",""
"psychophysics","195","626269","0.0-16.0-2.7","604bd4be02a18bed5762f304","609a8bf73b2ac84e2732f618","609d7bf4a4b0761905050ab4","360.73500011116266","","","","77","","","","key","6.945365384615098","960","468.5","","","","","","","","","","","","","","","","","","","",""
"psychophysics","196","627005","0.0-16.0-0.8","604bd4be02a18bed5762f304","609a8bf73b2ac84e2732f618","609d7bf4a4b0761905050ab4","null","","","","null","","","","key","6.945438095237616","960","468.5","","","","","","","","","","","","","","","","","","","",""
"psychophysics","197","627506","0.0-16.0-1.8","604bd4be02a18bed5762f304","609a8bf73b2ac84e2732f618","609d7bf4a4b0761905050ab4","null","","","","null","","","","key","6.94391549295831","960","468.5","","","","","","","","","","","","","161","-1","5","false","","","",""
"psychophysics","198","628818","0.0-16.0-2.8","604bd4be02a18bed5762f304","609a8bf73b2ac84e2732f618","609d7bf4a4b0761905050ab4","1305.5000002495944","","","","90","","","","key","6.9443670212764275","960","468.5","","","","","","","","","","","","","","","","","","","",""
"psychophysics","199","630102","0.0-16.0-0.9","604bd4be02a18bed5762f304","609a8bf73b2ac84e2732f618","609d7bf4a4b0761905050ab4","null","","","","null","","","","key","6.9446086956519615","960","468.5","","","","","","","","","","","","","","","","","","","",""
"psychophysics","200","630603","0.0-16.0-1.9","604bd4be02a18bed5762f304","609a8bf73b2ac84e2732f618","609d7bf4a4b0761905050ab4","null","","","","null","","","","key","6.944788732393776","960","468.5","","","","","","","","","","","","","161","1","3","false","","","",""
"psychophysics","201","631047","0.0-16.0-2.9","604bd4be02a18bed5762f304","609a8bf73b2ac84e2732f618","609d7bf4a4b0761905050ab4","441.76500011235476","","","","77","","","","key","6.945238095238834","960","468.5","","","","","","","","","","","","","","","","","","","",""
"psychophysics","202","631820","0.0-16.0-0.10","604bd4be02a18bed5762f304","609a8bf73b2ac84e2732f618","609d7bf4a4b0761905050ab4","null","","","","null","","","","key","6.944718181818131","960","468.5","","","","","","","","","","","","","","","","","","","",""
"psychophysics","203","632321","0.0-16.0-1.10","604bd4be02a18bed5762f304","609a8bf73b2ac84e2732f618","609d7bf4a4b0761905050ab4","null","","","","null","","","","key","6.944042253521153","960","468.5","","","","","","","","","","","","","161","-1","3","false","","","",""
"psychophysics","204","632868","0.0-16.0-2.10","604bd4be02a18bed5762f304","609a8bf73b2ac84e2732f618","609d7bf4a4b0761905050ab4","541.9550002552569","","","","77","","","","key","6.947589743589887","960","468.5","","","","","","","","","","","","","","","","","","","",""
"psychophysics","205","633694","0.0-16.0-0.11","604bd4be02a18bed5762f304","609a8bf73b2ac84e2732f618","609d7bf4a4b0761905050ab4","null","","","","null","","","","key","6.94461864406752","960","468.5","","","","","","","","","","","","","","","","","","","",""
"psychophysics","206","634199","0.0-16.0-1.11","604bd4be02a18bed5762f304","609a8bf73b2ac84e2732f618","609d7bf4a4b0761905050ab4","null","","","","null","","","","key","7.042999999999384","960","468.5","","","","","","","","","","","","","161","-1","2","false","","","",""
"psychophysics","207","634963","0.0-16.0-2.11","604bd4be02a18bed5762f304","609a8bf73b2ac84e2732f618","609d7bf4a4b0761905050ab4","761.8299997411668","","","","90","","","","key","6.943944954128568","960","468.5","","","","","","","","","","","","","","","","","","","",""
"psychophysics","208","636096","0.0-16.0-0.12","604bd4be02a18bed5762f304","609a8bf73b2ac84e2732f618","609d7bf4a4b0761905050ab4","null","","","","null","","","","key","6.944567901234683","960","468.5","","","","","","","","","","","","","","","","","","","",""
"psychophysics","209","636598","0.0-16.0-1.12","604bd4be02a18bed5762f304","609a8bf73b2ac84e2732f618","609d7bf4a4b0761905050ab4","null","","","","null","","","","key","6.944394366197537","960","468.5","","","","","","","","","","","","","161","-1","5","false","","","",""
"psychophysics","210","637124","0.0-16.0-2.12","604bd4be02a18bed5762f304","609a8bf73b2ac84e2732f618","609d7bf4a4b0761905050ab4","520.7149996422231","","","","77","","","","key","6.944799999999813","960","468.5","","","","","","","","","","","","","","","","","","","",""
"psychophysics","211","638217","0.0-16.0-0.13","604bd4be02a18bed5762f304","609a8bf73b2ac84e2732f618","609d7bf4a4b0761905050ab4","null","","","","null","","","","key","6.944628205127978","960","468.5","","","","","","","","","","","","","","","","","","","",""
"psychophysics","212","638721","0.0-16.0-1.13","604bd4be02a18bed5762f304","609a8bf73b2ac84e2732f618","609d7bf4a4b0761905050ab4","null","","","","null","","","","key","6.944652777777971","960","468.5","","","","","","","","","","","","","161","-1","2","false","","","",""
"psychophysics","213","639269","0.0-16.0-2.13","604bd4be02a18bed5762f304","609a8bf73b2ac84e2732f618","609d7bf4a4b0761905050ab4","546.525000128895","","","","77","","","","key","6.944820512820465","960","468.5","","","","","","","","","","","","","","","","","","","",""
"psychophysics","214","639831","0.0-16.0-0.14","604bd4be02a18bed5762f304","609a8bf73b2ac84e2732f618","609d7bf4a4b0761905050ab4","null","","","","null","","","","key","6.944162500000675","960","468.5","","","","","","","","","","","","","","","","","","","",""
"psychophysics","215","640333","0.0-16.0-1.14","604bd4be02a18bed5762f304","609a8bf73b2ac84e2732f618","609d7bf4a4b0761905050ab4","null","","","","null","","","","key","6.944197183097779","960","468.5","","","","","","","","","","","","","161","1","5","false","","","",""
"psychophysics","216","640623","0.0-16.0-2.14","604bd4be02a18bed5762f304","609a8bf73b2ac84e2732f618","609d7bf4a4b0761905050ab4","288.75500010326505","","","","90","","","","key","6.944390243901758","960","468.5","","","","","","","","","","","","","","","","","","","",""
"psychophysics","217","641195","0.0-16.0-0.15","604bd4be02a18bed5762f304","609a8bf73b2ac84e2732f618","609d7bf4a4b0761905050ab4","null","","","","null","","","","key","6.945197530864037","960","468.5","","","","","","","","","","","","","","","","","","","",""
"psychophysics","218","641700","0.0-16.0-1.15","604bd4be02a18bed5762f304","609a8bf73b2ac84e2732f618","609d7bf4a4b0761905050ab4","null","","","","null","","","","key","6.9444305555565125","960","468.5","","","","","","","","","","","","","161","1","6","false","","","",""
"psychophysics","219","641936","0.0-16.0-2.15","604bd4be02a18bed5762f304","609a8bf73b2ac84e2732f618","609d7bf4a4b0761905050ab4","233.38999971747398","","","","77","","","","key","6.938424242424045","960","468.5","","","","","","","","","","","","","","","","","","","",""
"psychophysics","220","642894","0.0-16.0-0.16","604bd4be02a18bed5762f304","609a8bf73b2ac84e2732f618","609d7bf4a4b0761905050ab4","null","","","","null","","","","key","6.944664233576601","960","468.5","","","","","","","","","","","","","","","","","","","",""
"psychophysics","221","643395","0.0-16.0-1.16","604bd4be02a18bed5762f304","609a8bf73b2ac84e2732f618","609d7bf4a4b0761905050ab4","null","","","","null","","","","key","6.944788732393776","960","468.5","","","","","","","","","","","","","161","-1","4","false","","","",""
"psychophysics","222","643783","0.0-16.0-2.16","604bd4be02a18bed5762f304","609a8bf73b2ac84e2732f618","609d7bf4a4b0761905050ab4","385.1700001396239","","","","90","","","","key","6.944727272726595","960","468.5","","","","","","","","","","","","","","","","","","","",""
"psychophysics","223","644831","0.0-16.0-0.17","604bd4be02a18bed5762f304","609a8bf73b2ac84e2732f618","609d7bf4a4b0761905050ab4","null","","","","null","","","","key","6.944613333333594","960","468.5","","","","","","","","","","","","","","","","","","","",""
"psychophysics","224","645332","0.0-16.0-1.17","604bd4be02a18bed5762f304","609a8bf73b2ac84e2732f618","609d7bf4a4b0761905050ab4","null","","","","null","","","","key","6.944464788732814","960","468.5","","","","","","","","","","","","","161","1","3","false","","","",""
"psychophysics","225","645980","0.0-16.0-2.17","604bd4be02a18bed5762f304","609a8bf73b2ac84e2732f618","609d7bf4a4b0761905050ab4","646.3350001722574","","","","90","","","","key","6.944706521738503","960","468.5","","","","","","","","","","","","","","","","","","","",""
"psychophysics","226","646910","0.0-16.0-0.18","604bd4be02a18bed5762f304","609a8bf73b2ac84e2732f618","609d7bf4a4b0761905050ab4","null","","","","null","","","","key","6.9447744360904355","960","468.5","","","","","","","","","","","","","","","","","","","",""
"psychophysics","227","647415","0.0-16.0-1.18","604bd4be02a18bed5762f304","609a8bf73b2ac84e2732f618","609d7bf4a4b0761905050ab4","null","","","","null","","","","key","6.942402777777817","960","468.5","","","","","","","","","","","","","161","-1","0","false","","","",""
"psychophysics","228","647818","0.0-16.0-2.18","604bd4be02a18bed5762f304","609a8bf73b2ac84e2732f618","609d7bf4a4b0761905050ab4","401.06500033289194","","","","90","","","","key","6.9451228070170865","960","468.5","","","","","","","","","","","","","","","","","","","",""
"psychophysics","229","648528","0.0-16.0-0.19","604bd4be02a18bed5762f304","609a8bf73b2ac84e2732f618","609d7bf4a4b0761905050ab4","null","","","","null","","","","key","6.944584158416331","960","468.5","","","","","","","","","","","","","","","","","","","",""
"psychophysics","230","649032","0.0-16.0-1.19","604bd4be02a18bed5762f304","609a8bf73b2ac84e2732f618","609d7bf4a4b0761905050ab4","null","","","","null","","","","key","6.944791666665373","960","468.5","","","","","","","","","","","","","161","-1","3","false","","","",""
"psychophysics","231","649557","0.0-16.0-2.19","604bd4be02a18bed5762f304","609a8bf73b2ac84e2732f618","609d7bf4a4b0761905050ab4","522.2749998793006","","","","90","","","","key","6.945094594593487","960","468.5","","","","","","","","","","","","","","","","","","","",""
"psychophysics","232","650873","0.0-16.0-0.20","604bd4be02a18bed5762f304","609a8bf73b2ac84e2732f618","609d7bf4a4b0761905050ab4","null","","","","null","","","","key","6.943613756613722","960","468.5","","","","","","","","","","","","","","","","","","","",""
"psychophysics","233","651374","0.0-16.0-1.20","604bd4be02a18bed5762f304","609a8bf73b2ac84e2732f618","609d7bf4a4b0761905050ab4","null","","","","null","","","","key","6.945323943662208","960","468.5","","","","","","","","","","","","","161","-1","6","false","","","",""
"psychophysics","234","651666","0.0-16.0-2.20","604bd4be02a18bed5762f304","609a8bf73b2ac84e2732f618","609d7bf4a4b0761905050ab4","285.5849997140467","","","","77","","","","key","7.118674999999348","960","468.5","","","","","","","","","","","","","","","","","","","",""
"psychophysics","235","652632","0.0-16.0-0.21","604bd4be02a18bed5762f304","609a8bf73b2ac84e2732f618","609d7bf4a4b0761905050ab4","null","","","","null","","","","key","6.944340579710273","960","468.5","","","","","","","","","","","","","","","","","","","",""
"psychophysics","236","653133","0.0-16.0-1.21","604bd4be02a18bed5762f304","609a8bf73b2ac84e2732f618","609d7bf4a4b0761905050ab4","null","","","","null","","","","key","6.948436619717182","960","468.5","","","","","","","","","","","","","161","1","0","false","","","",""
"psychophysics","237","653652","0.0-16.0-2.21","604bd4be02a18bed5762f304","609a8bf73b2ac84e2732f618","609d7bf4a4b0761905050ab4","512.8649999387562","","","","77","","","","key","6.945162162162691","960","468.5","","","","","","","","","","","","","","","","","","","",""
"psychophysics","238","654181","0.0-16.0-0.22","604bd4be02a18bed5762f304","609a8bf73b2ac84e2732f618","609d7bf4a4b0761905050ab4","null","","","","null","","","","key","6.944293333333917","960","468.5","","","","","","","","","","","","","","","","","","","",""
"psychophysics","239","654685","0.0-16.0-1.22","604bd4be02a18bed5762f304","609a8bf73b2ac84e2732f618","609d7bf4a4b0761905050ab4","null","","","","null","","","","key","6.94473611111203","960","468.5","","","","","","","","","","","","","161","1","2","false","","","",""
"psychophysics","240","655151","0.0-16.0-2.22","604bd4be02a18bed5762f304","609a8bf73b2ac84e2732f618","609d7bf4a4b0761905050ab4","463.8249999843538","","","","90","","","","key","6.944939393938209","960","468.5","","","","","","","","","","","","","","","","","","","",""
"psychophysics","241","656480","0.0-16.0-0.23","604bd4be02a18bed5762f304","609a8bf73b2ac84e2732f618","609d7bf4a4b0761905050ab4","null","","","","null","","","","key","6.944473684210894","960","468.5","","","","","","","","","","","","","","","","","","","",""
"psychophysics","242","656981","0.0-16.0-1.23","604bd4be02a18bed5762f304","609a8bf73b2ac84e2732f618","609d7bf4a4b0761905050ab4","null","","","","null","","","","key","6.944704225352427","960","468.5","","","","","","","","","","","","","161","1","4","false","","","",""
"psychophysics","243","657412","0.0-16.0-2.23","604bd4be02a18bed5762f304","609a8bf73b2ac84e2732f618","609d7bf4a4b0761905050ab4","425.4000000655651","","","","77","","","","key","6.945786885245413","960","468.5","","","","","","","","","","","","","","","","","","","",""
"html-keyboard-response","244","660506","0.0-17.0","604bd4be02a18bed5762f304","609a8bf73b2ac84e2732f618","609d7bf4a4b0761905050ab4","3092.4050002358854","<p>Well Done !</p><p>Training Complete. Press the spacebar to start.</p><p>DON'T EXIT THE FULL SCREEN MODE</p>","","","32","","","","","","","","","","","","","","","","","","","","","","","","","","",""
"psychophysics","245","663512","0.0-18.0-0.0","604bd4be02a18bed5762f304","609a8bf73b2ac84e2732f618","609d7bf4a4b0761905050ab4","null","","","","null","","","","key","7.275613138686702","960","468.5","","","","","","","","","","","","","","","","","","","",""
"psychophysics","246","664016","0.0-18.0-1.0","604bd4be02a18bed5762f304","609a8bf73b2ac84e2732f618","609d7bf4a4b0761905050ab4","null","","","","null","","","","key","6.9444305555565125","960","468.5","","","","","","","","","","","","","161","-1","0","true","","","",""
"psychophysics","247","664636","0.0-18.0-2.0","604bd4be02a18bed5762f304","609a8bf73b2ac84e2732f618","609d7bf4a4b0761905050ab4","617.8550003096461","","","","77","","","","key","6.944352272727304","960","468.5","","","","","","","","","","","","","","","","","","","",""
"psychophysics","248","665766","0.0-18.0-0.1","604bd4be02a18bed5762f304","609a8bf73b2ac84e2732f618","609d7bf4a4b0761905050ab4","null","","","","null","","","","key","6.944777777777801","960","468.5","","","","","","","","","","","","","","","","","","","",""
"psychophysics","249","666268","0.0-18.0-1.1","604bd4be02a18bed5762f304","609a8bf73b2ac84e2732f618","609d7bf4a4b0761905050ab4","null","","","","null","","","","key","6.945549295775749","960","468.5","","","","","","","","","","","","","161","1","4","true","","","",""
"psychophysics","250","666524","0.0-18.0-2.1","604bd4be02a18bed5762f304","609a8bf73b2ac84e2732f618","609d7bf4a4b0761905050ab4","249.76000003516674","","","","90","","","","key","6.944638888888424","960","468.5","","","","","","","","","","","","","","","","","","","",""
"psychophysics","251","667294","0.0-18.0-0.2","604bd4be02a18bed5762f304","609a8bf73b2ac84e2732f618","609d7bf4a4b0761905050ab4","null","","","","null","","","","key","6.945354545454029","960","468.5","","","","","","","","","","","","","","","","","","","",""
"psychophysics","252","667796","0.0-18.0-1.2","604bd4be02a18bed5762f304","609a8bf73b2ac84e2732f618","609d7bf4a4b0761905050ab4","null","","","","null","","","","key","6.94421126760549","960","468.5","","","","","","","","","","","","","161","-1","4","true","","","",""
"psychophysics","253","668246","0.0-18.0-2.2","604bd4be02a18bed5762f304","609a8bf73b2ac84e2732f618","609d7bf4a4b0761905050ab4","443.8200001604855","","","","90","","","","key","6.9447500000005675","960","468.5","","","","","","","","","","","","","","","","","","","",""
"psychophysics","254","669043","0.0-18.0-0.3","604bd4be02a18bed5762f304","609a8bf73b2ac84e2732f618","609d7bf4a4b0761905050ab4","null","","","","null","","","","key","6.944175438596989","960","468.5","","","","","","","","","","","","","","","","","","","",""
"psychophysics","255","669545","0.0-18.0-1.3","604bd4be02a18bed5762f304","609a8bf73b2ac84e2732f618","609d7bf4a4b0761905050ab4","null","","","","null","","","","key","6.943887323944527","960","468.5","","","","","","","","","","","","","161","1","6","true","","","",""
"psychophysics","256","669822","0.0-18.0-2.3","604bd4be02a18bed5762f304","609a8bf73b2ac84e2732f618","609d7bf4a4b0761905050ab4","269.7600000537932","","","","77","","","","key","6.938076923075968","960","468.5","","","","","","","","","","","","","","","","","","","",""
"psychophysics","257","671273","0.0-18.0-0.4","604bd4be02a18bed5762f304","609a8bf73b2ac84e2732f618","609d7bf4a4b0761905050ab4","null","","","","null","","","","key","6.944586538461198","960","468.5","","","","","","","","","","","","","","","","","","","",""
"psychophysics","258","671774","0.0-18.0-1.4","604bd4be02a18bed5762f304","609a8bf73b2ac84e2732f618","609d7bf4a4b0761905050ab4","null","","","","null","","","","key","6.944366197183754","960","468.5","","","","","","","","","","","","","161","-1","3","true","","","",""
"psychophysics","259","672134","0.0-18.0-2.4","604bd4be02a18bed5762f304","609a8bf73b2ac84e2732f618","609d7bf4a4b0761905050ab4","353.1700000166893","","","","77","","","","key","6.944372549018476","960","468.5","","","","","","","","","","","","","","","","","","","",""
"psychophysics","260","673393","0.0-18.0-0.5","604bd4be02a18bed5762f304","609a8bf73b2ac84e2732f618","609d7bf4a4b0761905050ab4","null","","","","null","","","","key","6.944605555555447","960","468.5","","","","","","","","","","","","","","","","","","","",""
"psychophysics","261","673898","0.0-18.0-1.5","604bd4be02a18bed5762f304","609a8bf73b2ac84e2732f618","609d7bf4a4b0761905050ab4","null","","","","null","","","","key","6.9439444444449485","960","468.5","","","","","","","","","","","","","161","1","2","true","","","",""
"psychophysics","262","674175","0.0-18.0-2.5","604bd4be02a18bed5762f304","609a8bf73b2ac84e2732f618","609d7bf4a4b0761905050ab4","275.6350003182888","","","","90","","","","key","6.943923076922194","960","468.5","","","","","","","","","","","","","","","","","","","",""
"psychophysics","263","675516","0.0-18.0-0.6","604bd4be02a18bed5762f304","609a8bf73b2ac84e2732f618","609d7bf4a4b0761905050ab4","null","","","","null","","","","key","6.944494791666632","960","468.5","","","","","","","","","","","","","","","","","","","",""
"psychophysics","264","676017","0.0-18.0-1.6","604bd4be02a18bed5762f304","609a8bf73b2ac84e2732f618","609d7bf4a4b0761905050ab4","null","","","","null","","","","key","6.944394366197537","960","468.5","","","","","","","","","","","","","161","1","3","true","","","",""
"psychophysics","265","676267","0.0-18.0-2.6","604bd4be02a18bed5762f304","609a8bf73b2ac84e2732f618","609d7bf4a4b0761905050ab4","247.55499977618456","","","","77","","","","key","6.943628571428625","960","468.5","","","","","","","","","","","","","","","","","","","",""
"psychophysics","266","677217","0.0-18.0-0.7","604bd4be02a18bed5762f304","609a8bf73b2ac84e2732f618","609d7bf4a4b0761905050ab4","null","","","","null","","","","key","6.944558823529994","960","468.5","","","","","","","","","","","","","","","","","","","",""
"psychophysics","267","677718","0.0-18.0-1.7","604bd4be02a18bed5762f304","609a8bf73b2ac84e2732f618","609d7bf4a4b0761905050ab4","null","","","","null","","","","key","6.944718309860138","960","468.5","","","","","","","","","","","","","161","-1","6","true","","","",""
"psychophysics","268","678131","0.0-18.0-2.7","604bd4be02a18bed5762f304","609a8bf73b2ac84e2732f618","609d7bf4a4b0761905050ab4","405.7700000703335","","","","77","","","","key","6.944275862069656","960","468.5","","","","","","","","","","","","","","","","","","","",""
"psychophysics","269","679363","0.0-18.0-0.8","604bd4be02a18bed5762f304","609a8bf73b2ac84e2732f618","609d7bf4a4b0761905050ab4","null","","","","null","","","","key","6.944423728813233","960","468.5","","","","","","","","","","","","","","","","","","","",""
"psychophysics","270","679865","0.0-18.0-1.8","604bd4be02a18bed5762f304","609a8bf73b2ac84e2732f618","609d7bf4a4b0761905050ab4","null","","","","null","","","","key","6.944028169013442","960","468.5","","","","","","","","","","","","","161","-1","5","true","","","",""
"psychophysics","271","680093","0.0-18.0-2.8","604bd4be02a18bed5762f304","609a8bf73b2ac84e2732f618","609d7bf4a4b0761905050ab4","221.34499996900558","","","","77","","","","key","6.942937499999971","960","468.5","","","","","","","","","","","","","","","","","","","",""
"psychophysics","272","681086","0.0-18.0-0.9","604bd4be02a18bed5762f304","609a8bf73b2ac84e2732f618","609d7bf4a4b0761905050ab4","null","","","","null","","","","key","6.944626760564115","960","468.5","","","","","","","","","","","","","","","","","","","",""
"psychophysics","273","681587","0.0-18.0-1.9","604bd4be02a18bed5762f304","609a8bf73b2ac84e2732f618","609d7bf4a4b0761905050ab4","null","","","","null","","","","key","6.944957746479752","960","468.5","","","","","","","","","","","","","161","1","5","true","","","",""
"psychophysics","274","682211","0.0-18.0-2.9","604bd4be02a18bed5762f304","609a8bf73b2ac84e2732f618","609d7bf4a4b0761905050ab4","617.919999640435","","","","90","","","","key","6.944359550562561","960","468.5","","","","","","","","","","","","","","","","","","","",""
"psychophysics","275","682884","0.0-18.0-0.10","604bd4be02a18bed5762f304","609a8bf73b2ac84e2732f618","609d7bf4a4b0761905050ab4","null","","","","null","","","","key","6.947093749999719","960","468.5","","","","","","","","","","","","","","","","","","","",""
"psychophysics","276","683385","0.0-18.0-1.10","604bd4be02a18bed5762f304","609a8bf73b2ac84e2732f618","609d7bf4a4b0761905050ab4","null","","","","null","","","","key","6.944802816901487","960","468.5","","","","","","","","","","","","","161","-1","2","true","","","",""
"psychophysics","277","683790","0.0-18.0-2.10","604bd4be02a18bed5762f304","609a8bf73b2ac84e2732f618","609d7bf4a4b0761905050ab4","403.4899999387562","","","","77","","","","key","6.945017543860319","960","468.5","","","","","","","","","","","","","","","","","","","",""
"psychophysics","278","685163","0.0-18.0-0.11","604bd4be02a18bed5762f304","609a8bf73b2ac84e2732f618","609d7bf4a4b0761905050ab4","null","","","","null","","","","key","6.979938775510646","960","468.5","","","","","","","","","","","","","","","","","","","",""
"psychophysics","279","685664","0.0-18.0-1.11","604bd4be02a18bed5762f304","609a8bf73b2ac84e2732f618","609d7bf4a4b0761905050ab4","null","","","","null","","","","key","6.9441408450718525","960","468.5","","","","","","","","","","","","","161","1","0","true","","","",""
"psychophysics","280","686148","0.0-18.0-2.11","604bd4be02a18bed5762f304","609a8bf73b2ac84e2732f618","609d7bf4a4b0761905050ab4","478.45999989658594","","","","90","","","","key","6.944478260869484","960","468.5","","","","","","","","","","","","","","","","","","","",""
"psychophysics","281","687225","0.0-18.0-0.12","604bd4be02a18bed5762f304","609a8bf73b2ac84e2732f618","609d7bf4a4b0761905050ab4","null","","","","null","","","","key","6.946519480519263","960","468.5","","","","","","","","","","","","","","","","","","","",""
"psychophysics","282","687726","0.0-18.0-1.12","604bd4be02a18bed5762f304","609a8bf73b2ac84e2732f618","609d7bf4a4b0761905050ab4","null","","","","null","","","","key","6.944901408450547","960","468.5","","","","","","","","","","","","","161","1","5","true","","","",""
"psychophysics","283","688150","0.0-18.0-2.12","604bd4be02a18bed5762f304","609a8bf73b2ac84e2732f618","609d7bf4a4b0761905050ab4","417.92500019073486","","","","90","","","","key","6.944433333332806","960","468.5","","","","","","","","","","","","","","","","","","","",""
"psychophysics","284","688669","0.0-18.0-0.13","604bd4be02a18bed5762f304","609a8bf73b2ac84e2732f618","609d7bf4a4b0761905050ab4","null","","","","null","","","","key","6.945324324323116","960","468.5","","","","","","","","","","","","","","","","","","","",""
"psychophysics","285","689172","0.0-18.0-1.13","604bd4be02a18bed5762f304","609a8bf73b2ac84e2732f618","609d7bf4a4b0761905050ab4","null","","","","null","","","","key","6.943873239436816","960","468.5","","","","","","","","","","","","","161","-1","4","true","","","",""
"psychophysics","286","689524","0.0-18.0-2.13","604bd4be02a18bed5762f304","609a8bf73b2ac84e2732f618","609d7bf4a4b0761905050ab4","346.25500021502376","","","","77","","","","key","6.944720000000671","960","468.5","","","","","","","","","","","","","","","","","","","",""
"psychophysics","287","690753","0.0-18.0-0.14","604bd4be02a18bed5762f304","609a8bf73b2ac84e2732f618","609d7bf4a4b0761905050ab4","null","","","","null","","","","key","6.945130681818145","960","468.5","","","","","","","","","","","","","","","","","","","",""
"psychophysics","288","691268","0.0-18.0-1.14","604bd4be02a18bed5762f304","609a8bf73b2ac84e2732f618","609d7bf4a4b0761905050ab4","null","","","","null","","","","key","7.041486111110619","960","468.5","","","","","","","","","","","","","161","1","4","true","","","",""
"psychophysics","289","691606","0.0-18.0-2.14","604bd4be02a18bed5762f304","609a8bf73b2ac84e2732f618","609d7bf4a4b0761905050ab4","330.870000179857","","","","77","","","","key","6.944979166667811","960","468.5","","","","","","","","","","","","","","","","","","","",""
"psychophysics","290","692652","0.0-18.0-0.15","604bd4be02a18bed5762f304","609a8bf73b2ac84e2732f618","609d7bf4a4b0761905050ab4","null","","","","null","","","","key","6.944778523489914","960","468.5","","","","","","","","","","","","","","","","","","","",""
"psychophysics","291","693155","0.0-18.0-1.15","604bd4be02a18bed5762f304","609a8bf73b2ac84e2732f618","609d7bf4a4b0761905050ab4","null","","","","null","","","","key","6.944402777777416","960","468.5","","","","","","","","","","","","","161","1","6","true","","","",""
"psychophysics","292","693475","0.0-18.0-2.15","604bd4be02a18bed5762f304","609a8bf73b2ac84e2732f618","609d7bf4a4b0761905050ab4","317.74500012397766","","","","77","","","","key","6.944577777778937","960","468.5","","","","","","","","","","","","","","","","","","","",""
"psychophysics","293","694378","0.0-18.0-0.16","604bd4be02a18bed5762f304","609a8bf73b2ac84e2732f618","609d7bf4a4b0761905050ab4","null","","","","null","","","","key","6.944418604650838","960","468.5","","","","","","","","","","","","","","","","","","","",""
"psychophysics","294","694879","0.0-18.0-1.16","604bd4be02a18bed5762f304","609a8bf73b2ac84e2732f618","609d7bf4a4b0761905050ab4","null","","","","null","","","","key","6.944746478873921","960","468.5","","","","","","","","","","","","","161","1","0","true","","","",""
"psychophysics","295","695197","0.0-18.0-2.16","604bd4be02a18bed5762f304","609a8bf73b2ac84e2732f618","609d7bf4a4b0761905050ab4","311.61500001326203","","","","77","","","","key","6.945022222221208","960","468.5","","","","","","","","","","","","","","","","","","","",""
"psychophysics","296","696045","0.0-18.0-0.17","604bd4be02a18bed5762f304","609a8bf73b2ac84e2732f618","609d7bf4a4b0761905050ab4","null","","","","null","","","","key","6.944561983471205","960","468.5","","","","","","","","","","","","","","","","","","","",""
"psychophysics","297","696546","0.0-18.0-1.17","604bd4be02a18bed5762f304","609a8bf73b2ac84e2732f618","609d7bf4a4b0761905050ab4","null","","","","null","","","","key","6.94319718309947","960","468.5","","","","","","","","","","","","","161","1","2","true","","","",""
"psychophysics","298","696885","0.0-18.0-2.17","604bd4be02a18bed5762f304","609a8bf73b2ac84e2732f618","609d7bf4a4b0761905050ab4","322.38000025972724","","","","77","","","","key","7.092446808510044","960","468.5","","","","","","","","","","","","","","","","","","","",""
"psychophysics","299","697787","0.0-18.0-0.18","604bd4be02a18bed5762f304","609a8bf73b2ac84e2732f618","609d7bf4a4b0761905050ab4","null","","","","null","","","","key","6.944527131783263","960","468.5","","","","","","","","","","","","","","","","","","","",""
"psychophysics","300","698288","0.0-18.0-1.18","604bd4be02a18bed5762f304","609a8bf73b2ac84e2732f618","609d7bf4a4b0761905050ab4","null","","","","null","","","","key","6.9445211267620195","960","468.5","","","","","","","","","","","","","161","-1","2","true","","","",""
"psychophysics","301","698649","0.0-18.0-2.18","604bd4be02a18bed5762f304","609a8bf73b2ac84e2732f618","609d7bf4a4b0761905050ab4","358.0849999561906","","","","90","","","","key","6.94498039215721","960","468.5","","","","","","","","","","","","","","","","","","","",""
"psychophysics","302","699269","0.0-18.0-0.19","604bd4be02a18bed5762f304","609a8bf73b2ac84e2732f618","609d7bf4a4b0761905050ab4","null","","","","null","","","","key","6.94463636363666","960","468.5","","","","","","","","","","","","","","","","","","","",""
"psychophysics","303","699773","0.0-18.0-1.19","604bd4be02a18bed5762f304","609a8bf73b2ac84e2732f618","609d7bf4a4b0761905050ab4","null","","","","null","","","","key","6.944527777778502","960","468.5","","","","","","","","","","","","","161","-1","5","true","","","",""
"psychophysics","304","700198","0.0-18.0-2.19","604bd4be02a18bed5762f304","609a8bf73b2ac84e2732f618","609d7bf4a4b0761905050ab4","422.4400003440678","","","","77","","","","key","6.9489000000001395","960","468.5","","","","","","","","","","","","","","","","","","","",""
"psychophysics","305","701082","0.0-18.0-0.20","604bd4be02a18bed5762f304","609a8bf73b2ac84e2732f618","609d7bf4a4b0761905050ab4","null","","","","null","","","","key","6.944944444444171","960","468.5","","","","","","","","","","","","","","","","","","","",""
"psychophysics","306","701587","0.0-18.0-1.20","604bd4be02a18bed5762f304","609a8bf73b2ac84e2732f618","609d7bf4a4b0761905050ab4","null","","","","null","","","","key","6.944611111110943","960","468.5","","","","","","","","","","","","","161","-1","6","true","","","",""
"psychophysics","307","702149","0.0-18.0-2.20","604bd4be02a18bed5762f304","609a8bf73b2ac84e2732f618","609d7bf4a4b0761905050ab4","553.5650001838803","","","","90","","","","key","6.944474999999511","960","468.5","","","","","","","","","","","","","","","","","","","",""
"psychophysics","308","703200","0.0-18.0-0.21","604bd4be02a18bed5762f304","609a8bf73b2ac84e2732f618","609d7bf4a4b0761905050ab4","null","","","","null","","","","key","6.945146666666648","960","468.5","","","","","","","","","","","","","","","","","","","",""
"psychophysics","309","703704","0.0-18.0-1.21","604bd4be02a18bed5762f304","609a8bf73b2ac84e2732f618","609d7bf4a4b0761905050ab4","null","","","","null","","","","key","6.944625000000491","960","468.5","","","","","","","","","","","","","161","1","3","true","","","",""
"psychophysics","310","704170","0.0-18.0-2.21","604bd4be02a18bed5762f304","609a8bf73b2ac84e2732f618","609d7bf4a4b0761905050ab4","464.3649999052286","","","","77","","","","key","6.946242424243158","960","468.5","","","","","","","","","","","","","","","","","","","",""
"psychophysics","311","704796","0.0-18.0-0.22","604bd4be02a18bed5762f304","609a8bf73b2ac84e2732f618","609d7bf4a4b0761905050ab4","null","","","","null","","","","key","6.944000000000691","960","468.5","","","","","","","","","","","","","","","","","","","",""
"psychophysics","312","705301","0.0-18.0-1.22","604bd4be02a18bed5762f304","609a8bf73b2ac84e2732f618","609d7bf4a4b0761905050ab4","null","","","","null","","","","key","6.947750000000168","960","468.5","","","","","","","","","","","","","161","-1","3","true","","","",""
"psychophysics","313","705593","0.0-18.0-2.22","604bd4be02a18bed5762f304","609a8bf73b2ac84e2732f618","609d7bf4a4b0761905050ab4","289.3799999728799","","","","90","","","","key","6.943146341463279","960","468.5","","","","","","","","","","","","","","","","","","","",""
"psychophysics","314","706934","0.0-18.0-0.23","604bd4be02a18bed5762f304","609a8bf73b2ac84e2732f618","609d7bf4a4b0761905050ab4","null","","","","null","","","","key","6.94441666666656","960","468.5","","","","","","","","","","","","","","","","","","","",""
"psychophysics","315","707435","0.0-18.0-1.23","604bd4be02a18bed5762f304","609a8bf73b2ac84e2732f618","609d7bf4a4b0761905050ab4","null","","","","null","","","","key","6.944605633803368","960","468.5","","","","","","","","","","","","","161","-1","0","true","","","",""
"psychophysics","316","707718","0.0-18.0-2.23","604bd4be02a18bed5762f304","609a8bf73b2ac84e2732f618","609d7bf4a4b0761905050ab4","276.9200000911951","","","","77","","","","key","6.944925000000512","960","468.5","","","","","","","","","","","","","","","","","","","",""
"psychophysics","317","708351","0.0-18.0-0.24","604bd4be02a18bed5762f304","609a8bf73b2ac84e2732f618","609d7bf4a4b0761905050ab4","null","","","","null","","","","key","6.944555555554365","960","468.5","","","","","","","","","","","","","","","","","","","",""
"psychophysics","318","708853","0.0-18.0-1.24","604bd4be02a18bed5762f304","609a8bf73b2ac84e2732f618","609d7bf4a4b0761905050ab4","null","","","","null","","","","key","6.945154929577871","960","468.5","","","","","","","","","","","","","161","-1","0","true","","","",""
"psychophysics","319","709137","0.0-18.0-2.24","604bd4be02a18bed5762f304","609a8bf73b2ac84e2732f618","609d7bf4a4b0761905050ab4","277.87999995052814","","","","77","","","","key","6.941824999998789","960","468.5","","","","","","","","","","","","","","","","","","","",""
"psychophysics","320","709672","0.0-18.0-0.25","604bd4be02a18bed5762f304","609a8bf73b2ac84e2732f618","609d7bf4a4b0761905050ab4","null","","","","null","","","","key","6.944828947368813","960","468.5","","","","","","","","","","","","","","","","","","","",""
"psychophysics","321","710178","0.0-18.0-1.25","604bd4be02a18bed5762f304","609a8bf73b2ac84e2732f618","609d7bf4a4b0761905050ab4","null","","","","null","","","","key","6.944611111110943","960","468.5","","","","","","","","","","","","","161","-1","5","true","","","",""
"psychophysics","322","710441","0.0-18.0-2.25","604bd4be02a18bed5762f304","609a8bf73b2ac84e2732f618","609d7bf4a4b0761905050ab4","260.86000027135015","","","","77","","","","key","6.944162162162389","960","468.5","","","","","","","","","","","","","","","","","","","",""
"psychophysics","323","711031","0.0-18.0-0.26","604bd4be02a18bed5762f304","609a8bf73b2ac84e2732f618","609d7bf4a4b0761905050ab4","null","","","","null","","","","key","6.944904761904452","960","468.5","","","","","","","","","","","","","","","","","","","",""
"psychophysics","324","711531","0.0-18.0-1.26","604bd4be02a18bed5762f304","609a8bf73b2ac84e2732f618","609d7bf4a4b0761905050ab4","null","","","","null","","","","key","6.944577464789585","960","468.5","","","","","","","","","","","","","161","1","3","true","","","",""
"psychophysics","325","711776","0.0-18.0-2.26","604bd4be02a18bed5762f304","609a8bf73b2ac84e2732f618","609d7bf4a4b0761905050ab4","242.38499999046326","","","","90","","","","key","6.943323529411025","960","468.5","","","","","","","","","","","","","","","","","","","",""
"psychophysics","326","712496","0.0-18.0-0.27","604bd4be02a18bed5762f304","609a8bf73b2ac84e2732f618","609d7bf4a4b0761905050ab4","null","","","","null","","","","key","6.94435922330069","960","468.5","","","","","","","","","","","","","","","","","","","",""
"psychophysics","327","712998","0.0-18.0-1.27","604bd4be02a18bed5762f304","609a8bf73b2ac84e2732f618","609d7bf4a4b0761905050ab4","null","","","","null","","","","key","6.944225352113201","960","468.5","","","","","","","","","","","","","161","-1","4","true","","","",""
"psychophysics","328","713538","0.0-18.0-2.27","604bd4be02a18bed5762f304","609a8bf73b2ac84e2732f618","609d7bf4a4b0761905050ab4","533.4300003014505","","","","77","","","","key","6.944610389610208","960","468.5","","","","","","","","","","","","","","","","","","","",""
