"trial_type","trial_index","time_elapsed","internal_node_id","PROLIFIC_PID","STUDY_ID","SESSION_ID","rt","stimulus","button_pressed","success","key_press","responses","isData","view_history","response_type","avg_frame_time","center_x","center_y","isSC","stim_side","trial_luminance","step_size","nReversal","correct","prev_ans","isThreshold","SC_threshold","final_threshold","isLuminance","FF_luminance","luminance","stimSide","ISInt","isFF","question_order","isSPQ","isCAPS","isAQ"
"pavlovia","0","28","0.0-0.0","5fea2e6613597c51a166f24d","609a8bf73b2ac84e2732f618","60a0edd4caeef8748b7ffc7a","","","","","","","","","","","","","","","","","","","","","","","","","","","","","","","",""
"html-button-response","1","30435","0.0-1.0","5fea2e6613597c51a166f24d","609a8bf73b2ac84e2732f618","60a0edd4caeef8748b7ffc7a","30394.704999984242","<div style='background-color: white; width:60%; margin: auto; padding: 50px; text-align: justify; text-justify: inter-word; margin-bottom: 20px;'><h1 style='text-align: center;'>Consent Form</h1><p>Please read this consent form carefully before deciding whether you would like to participate in this study. You have to be 18 years old or older to participate to this study.</p><p style='text-decoration: underline;'>Participation is voluntary:</p><p>It is your choice whether or not to participate in this research. If you choose to participate, you may change your mind and leave the study at any time. Refusal to participate or stopping your participation will involve no penalty or loss of benefits to which you are otherwise entitled.</p><p style='text-decoration: underline;'>Purpose of the Study:</p><p>To understand the mechanisms underlying human perception.</p><p style='text-decoration: underline;'>What you will do in this study:</p><p>You will be presented with a series of visual images and then you will press buttons on the keyboard of your computer to respond to simple questions about the images (e.g. Were one or two images presented?). In addition, you will be asked to complete a questionnaire concerning your beliefs and everyday mental and perceptual experiences.'</p><p style='text-decoration: underline;'> Time Required:</p><p>The study will take 40 minutes to complete. </p><p style='text-decoration: underline;'>Risks:</p><p>There are no anticipated risks associated with participating in this study that are beyond those experienced in everyday life. </p><p style='text-decoration: underline;'>Benefits:</p><p>There are no benefits to you in participating in the study. However, this study may lead to a better understanding of how different kinds of visual information are used.</p><p style='text-decoration: underline;'>Compensation:</p><p>You will be paid US$6.6/hour. </p><p style='text-decoration: underline;'>Privacy and Confidentiality:</p><p>Your participation in this study will be anonymous. No personal information about your name or identity will be asked or recorded. This anonymous data will be stored for several years and may be used for a variety of research purposes. The overall results of the study may be published, or the data files may be shared with other researchers, but your identity will not be revealed in any way. The online services we are using for this study may temporarily store your data, but this data will be downloaded and then promptly deleted from those services.Your data will not be permanently associated with your name, IP address, or any other identifiable information (e.g., your information will only be connected to your payment, not to any of your responses), though they may be temporarily stored together before we download and separate them. Even so, no guarantee of internet survey security can be given because, although unlikely, transmissions can be intercepted and IP addresses can be identified. The anonymous data may be shared publicly (for example, in conjunction with a resulting academic publication).</p><p style='text-decoration: underline;'>Participation and Withdrawal:</p><p>Your participation in this study is completely voluntary. You may stop responding to the stimuli or stop answering questions if you so choose and without penalty by exiting the full screen mode, closing this tab of your browser or redirecting it to a different website.</p><p style='text-decoration: underline;'>Contact Info of the Researcher: </p><p>If you have questions about this study, or if you would like to talk to the research team, please contact David Melcher (david.melcher@nyu.edu, md5050@nyu.edu) at the Perception and Active Cognition Laboratory, New York University Abu Dhabi, Computational Research Building, Saadiyat Island, Abu Dhabi, UAE.This research has been reviewed by the New York University Abu Dhabi Institutional Review Board (NYUAD IRB). To contact about your rights in this research, for questions, suggestions, or complaints that are not addressed by the researchers, please email IRBnyuad@nyu.edu, or call the NYUAD IRB at +971 2 628 4313. </p></div>","0","","","","","","","","","","","","","","","","","","","","","","","","","","","","",""
"fullscreen","2","232395","0.0-2.0","5fea2e6613597c51a166f24d","609a8bf73b2ac84e2732f618","60a0edd4caeef8748b7ffc7a","","","","true","","","","","","","","","","","","","","","","","","","","","","","","","","","",""
"html-keyboard-response","3","247545","0.0-3.0","5fea2e6613597c51a166f24d","609a8bf73b2ac84e2732f618","60a0edd4caeef8748b7ffc7a","15146.37999999104","<p>Welcome !</p><p>READ CAREFULLY THE FOLLOWING INDICATIONS:</p><p>From this moment you have ~40 minutes to complete the experiment.</p><p>During the experiment you will be prompted to take several breaks. Each break should not last longer than 2-3 minutes.</p><p>Make sure that your computer is plugged in and it's not running on battery power, even if the battery is already fully charged.</p><p>Turn off your phone and music, make sure that you are in a quiet room and that you will not be distracted for the next hour.</p><p>Failure to comply with the instructions and indications provided during the experiment will most likely result in the rejection of your data.<p>Press the spacebar to start.</p>","","","32","","","","","","","","","","","","","","","","","","","","","","","","","","",""
"survey-html-form","4","257784","0.0-4.0","5fea2e6613597c51a166f24d","609a8bf73b2ac84e2732f618","60a0edd4caeef8748b7ffc7a","10234.344999946188","","","","","{""age"":""53"",""sex"":""M""}","true","","","","","","","","","","","","","","","","","","","","","","","","",""
"instructions","5","321357","0.0-5.0","5fea2e6613597c51a166f24d","609a8bf73b2ac84e2732f618","60a0edd4caeef8748b7ffc7a","63570.29499998316","","","","","","","[{""page_index"":0,""viewing_time"":32891.0999999498},{""page_index"":1,""viewing_time"":22393.88000004692},{""page_index"":2,""viewing_time"":8285.134999954607}]","","","","","","","","","","","","","","","","","","","","","","","",""
"psychophysics","6","322855","0.0-6.0-0.0","5fea2e6613597c51a166f24d","609a8bf73b2ac84e2732f618","60a0edd4caeef8748b7ffc7a","493.90000000130385","","","","37","","","","key","16.87933707865167","619","277","true","-1","180","30","0","-1","","","","","","","","","","","","","",""
"psychophysics","7","324971","0.0-6.0-0.1","5fea2e6613597c51a166f24d","609a8bf73b2ac84e2732f618","60a0edd4caeef8748b7ffc7a","1113.0600000033155","","","","39","","","","key","16.689817460317585","619","277","true","1","180","30","0","-1","-1","","","","","","","","","","","","",""
"psychophysics","8","326582","0.0-6.0-0.2","5fea2e6613597c51a166f24d","609a8bf73b2ac84e2732f618","60a0edd4caeef8748b7ffc7a","608.6500000092201","","","","37","","","","key","16.689705263157865","619","277","true","-1","150","30","0","-1","-1","","","","","","","","","","","","",""
"psychophysics","9","328538","0.0-6.0-0.3","5fea2e6613597c51a166f24d","609a8bf73b2ac84e2732f618","60a0edd4caeef8748b7ffc7a","952.7499999967404","","","","37","","","","key","16.68964102564123","619","277","true","1","150","24","1","1","-1","","","","","","","","","","","","",""
"psychophysics","10","330171","0.0-6.0-0.4","5fea2e6613597c51a166f24d","609a8bf73b2ac84e2732f618","60a0edd4caeef8748b7ffc7a","629.735000024084","","","","39","","","","key","16.689822916666646","619","277","true","1","174","24","1","-1","1","","","","","","","","","","","","",""
"psychophysics","11","331530","0.0-6.0-0.5","5fea2e6613597c51a166f24d","609a8bf73b2ac84e2732f618","60a0edd4caeef8748b7ffc7a","355.71999999228865","","","","39","","","","key","16.689728395061934","619","277","true","1","174","19.2","2","-1","-1","","","","","","","","","","","","",""
"psychophysics","12","333071","0.0-6.0-0.6","5fea2e6613597c51a166f24d","609a8bf73b2ac84e2732f618","60a0edd4caeef8748b7ffc7a","531.4099999959581","","","","39","","","","key","16.689582417582184","619","277","true","1","154.8","19.2","2","-1","-1","","","","","","","","","","","","",""
"psychophysics","13","334312","0.0-6.0-0.7","5fea2e6613597c51a166f24d","609a8bf73b2ac84e2732f618","60a0edd4caeef8748b7ffc7a","237.3549999902025","","","","37","","","","key","16.68982191780767","619","277","true","-1","154.8","19.2","2","-1","-1","","","","","","","","","","","","",""
"psychophysics","14","335602","0.0-6.0-0.8","5fea2e6613597c51a166f24d","609a8bf73b2ac84e2732f618","60a0edd4caeef8748b7ffc7a","287.81000000890344","","","","39","","","","key","16.69003896103936","619","277","true","1","135.60000000000002","19.2","2","-1","-1","","","","","","","","","","","","",""
"psychophysics","15","337075","0.0-6.0-0.9","5fea2e6613597c51a166f24d","609a8bf73b2ac84e2732f618","60a0edd4caeef8748b7ffc7a","469.6100000292063","","","","39","","","","key","16.689747126437133","619","277","true","1","135.60000000000002","19.2","2","-1","-1","","","","","","","","","","","","",""
"psychophysics","16","338803","0.0-6.0-0.10","5fea2e6613597c51a166f24d","609a8bf73b2ac84e2732f618","60a0edd4caeef8748b7ffc7a","725.0449999701232","","","","37","","","","key","16.689864077670297","619","277","true","-1","129","19.2","2","-1","-1","","","","","","","","","","","","",""
"psychophysics","17","340739","0.0-6.0-0.11","5fea2e6613597c51a166f24d","609a8bf73b2ac84e2732f618","60a0edd4caeef8748b7ffc7a","933.5450000362471","","","","37","","","","key","16.68951304347821","619","277","true","1","129","15.36","3","1","-1","","","","","","","","","","","","",""
"psychophysics","18","344361","0.0-6.0-0.12","5fea2e6613597c51a166f24d","609a8bf73b2ac84e2732f618","60a0edd4caeef8748b7ffc7a","2618.159999954514","","","","39","","","","key","16.689703703703817","619","277","true","1","144.36","15.36","3","-1","1","","","","","","","","","","","","",""
"psychophysics","19","345915","0.0-6.0-0.13","5fea2e6613597c51a166f24d","609a8bf73b2ac84e2732f618","60a0edd4caeef8748b7ffc7a","549.475000007078","","","","39","","","","key","16.689673913043606","619","277","true","1","144.36","12.287999999999998","4","-1","-1","","","","","","","","","","","","",""
"psychophysics","20","347777","0.0-6.0-0.14","5fea2e6613597c51a166f24d","609a8bf73b2ac84e2732f618","60a0edd4caeef8748b7ffc7a","858.4949999931268","","","","37","","","","key","16.6899363636362","619","277","true","-1","132.072","12.287999999999998","4","-1","-1","","","","","","","","","","","","",""
"psychophysics","21","350642","0.0-6.0-0.15","5fea2e6613597c51a166f24d","609a8bf73b2ac84e2732f618","60a0edd4caeef8748b7ffc7a","1860.709999979008","","","","37","","","","key","16.690081871345118","619","277","true","-1","132.072","12.287999999999998","4","-1","-1","","","","","","","","","","","","",""
"psychophysics","22","352213","0.0-6.0-0.16","5fea2e6613597c51a166f24d","609a8bf73b2ac84e2732f618","60a0edd4caeef8748b7ffc7a","564.1299999551848","","","","39","","","","key","16.689204301075478","619","277","true","-1","129","9.8304","5","1","-1","","","","","","","","","","","","",""
"psychophysics","23","353813","0.0-6.0-0.17","5fea2e6613597c51a166f24d","609a8bf73b2ac84e2732f618","60a0edd4caeef8748b7ffc7a","594.6950000361539","","","","37","","","","key","16.867638297871924","619","277","true","-1","138.8304","9.8304","5","-1","1","","","","","","","","","","","","",""
"psychophysics","24","355595","0.0-6.0-0.18","5fea2e6613597c51a166f24d","609a8bf73b2ac84e2732f618","60a0edd4caeef8748b7ffc7a","775.3450000309385","","","","39","","","","key","17.0136893203881","619","277","true","1","138.8304","7.864319999999999","6","-1","-1","","","","","","","","","","","","",""
"psychophysics","25","357793","0.0-6.0-0.19","5fea2e6613597c51a166f24d","609a8bf73b2ac84e2732f618","60a0edd4caeef8748b7ffc7a","1191.2849999498576","","","","37","","","","key","16.817846153846208","619","277","true","1","130.96608","6.291456","7","1","-1","","","","","","","","","","","","",""
"psychophysics","26","360045","0.0-6.0-0.20","5fea2e6613597c51a166f24d","609a8bf73b2ac84e2732f618","60a0edd4caeef8748b7ffc7a","1246.2900000391528","","","","37","","","","key","17.071709923664347","619","277","true","-1","137.25753600000002","6.291456","7","-1","1","","","","","","","","","","","","",""
"psychophysics","27","362155","0.0-6.0-0.21","5fea2e6613597c51a166f24d","609a8bf73b2ac84e2732f618","60a0edd4caeef8748b7ffc7a","1101.1799999978393","","","","37","","","","key","16.958838709677483","619","277","true","-1","137.25753600000002","5.033164800000001","8","-1","-1","","","","","","","","","","","","",""
"psychophysics","28","365471","0.0-6.0-0.22","5fea2e6613597c51a166f24d","609a8bf73b2ac84e2732f618","60a0edd4caeef8748b7ffc7a","2310.189999989234","","","","37","","","","key","17.213842931937084","619","277","true","-1","132.2243712","5.033164800000001","8","-1","-1","","","","","","","","","","","","",""
"psychophysics","29","368639","0.0-6.0-0.23","5fea2e6613597c51a166f24d","609a8bf73b2ac84e2732f618","60a0edd4caeef8748b7ffc7a","2160.3650000179186","","","","37","","","","key","16.959000000000056","619","277","true","1","132.2243712","4.0265318400000005","9","1","-1","","","","","","","","","","","","",""
"psychophysics","30","369996","0.0-6.0-0.24","5fea2e6613597c51a166f24d","609a8bf73b2ac84e2732f618","60a0edd4caeef8748b7ffc7a","347.6549999904819","","","","39","","","","key","17.118192307692087","619","277","true","1","136.25090304","4.0265318400000005","9","-1","1","","","","","","","","","","","","",""
"psychophysics","31","371909","0.0-6.0-0.25","5fea2e6613597c51a166f24d","609a8bf73b2ac84e2732f618","60a0edd4caeef8748b7ffc7a","907.0799999753945","","","","39","","","","key","16.83700000000005","619","277","true","1","136.25090304","3.2212254720000004","10","-1","-1","","","","","","","","","","","","",""
"psychophysics","32","373746","0.0-6.0-0.26","5fea2e6613597c51a166f24d","609a8bf73b2ac84e2732f618","60a0edd4caeef8748b7ffc7a","827.9500000062399","","","","37","","","","key","16.689777777777635","619","277","true","1","133.029677568","2.5769803776000004","11","1","-1","","","","","","","","","","","","",""
"psychophysics","33","375111","0.0-6.0-0.27","5fea2e6613597c51a166f24d","609a8bf73b2ac84e2732f618","60a0edd4caeef8748b7ffc7a","352.62000001966953","","","","39","","","","key","16.69017283950593","619","277","true","1","135.6066579456","2.5769803776000004","11","-1","1","","","","","","","","","","","","",""
"psychophysics","34","377200","0.0-6.0-0.28","5fea2e6613597c51a166f24d","609a8bf73b2ac84e2732f618","60a0edd4caeef8748b7ffc7a","1081.7350000143051","","","","39","","","","key","17.103495867768963","619","277","true","-1","135.6066579456","2.0615843020800004","12","1","-1","","","","","","","","","","","","",""
"psychophysics","35","379774","0.0-6.0-0.29","5fea2e6613597c51a166f24d","609a8bf73b2ac84e2732f618","60a0edd4caeef8748b7ffc7a","1567.7499999874271","","","","37","","","","key","17.137771812080477","619","277","true","-1","137.66824224768","2.0615843020800004","12","-1","1","","","","","","","","","","","","",""
"psychophysics","36","382665","0.0-6.0-0.30","5fea2e6613597c51a166f24d","609a8bf73b2ac84e2732f618","60a0edd4caeef8748b7ffc7a","1882.1950000128709","","","","37","","","","key","17.18631547619069","619","277","true","-1","137.66824224768","1.6492674416640005","13","-1","-1","","","","","","","","","","","","",""
"psychophysics","37","386155","0.0-6.0-0.31","5fea2e6613597c51a166f24d","609a8bf73b2ac84e2732f618","60a0edd4caeef8748b7ffc7a","2486.0350000089966","","","","37","","","","key","17.18561386138617","619","277","true","-1","136.01897480601602","1.6492674416640005","13","-1","-1","","","","","","","","","","","","",""
"psychophysics","38","387780","0.0-6.0-0.32","5fea2e6613597c51a166f24d","609a8bf73b2ac84e2732f618","60a0edd4caeef8748b7ffc7a","615.9249999909662","","","","39","","","","key","16.86508421052652","619","277","true","1","136.01897480601602","1.6492674416640005","13","-1","-1","","","","","","","","","","","","",""
"psychophysics","39","389320","0.0-6.0-0.33","5fea2e6613597c51a166f24d","609a8bf73b2ac84e2732f618","60a0edd4caeef8748b7ffc7a","529.8349999939092","","","","39","","","","key","17.065415730336916","619","277","true","-1","134.36970736435202","1.3194139533312006","14","1","-1","","","","","","","","","","","","",""
"psychophysics","40","391034","0.0-6.0-0.34","5fea2e6613597c51a166f24d","609a8bf73b2ac84e2732f618","60a0edd4caeef8748b7ffc7a","707.1900000446476","","","","37","","","","key","17.370520408163728","619","277","true","1","135.68912131768323","1.3194139533312006","14","1","1","","","","","","","","","","","","",""
"psychophysics","41","396002","0.0-6.0-0.35","5fea2e6613597c51a166f24d","609a8bf73b2ac84e2732f618","60a0edd4caeef8748b7ffc7a","3961.940000008326","","","","37","","","","key","16.91809246575337","619","277","true","-1","137.00853527101444","1.3194139533312006","14","-1","1","","","","","","","","","","","","",""
"psychophysics","42","397492","0.0-6.0-0.36","5fea2e6613597c51a166f24d","609a8bf73b2ac84e2732f618","60a0edd4caeef8748b7ffc7a","483.13500004587695","","","","37","","","","key","16.882057471264385","619","277","true","-1","137.00853527101444","1.0555311626649604","15","-1","-1","","","","","","","","","","","","",""
"psychophysics","43","401803","0.0-6.0-0.37","5fea2e6613597c51a166f24d","609a8bf73b2ac84e2732f618","60a0edd4caeef8748b7ffc7a","3303.669999993872","","","","39","","","","key","16.953426877470374","619","277","true","-1","135.9530041083495","1","16","1","-1","","","","","","","","","","","","",""
"psychophysics","44","404548","0.0-6.0-0.38","5fea2e6613597c51a166f24d","609a8bf73b2ac84e2732f618","60a0edd4caeef8748b7ffc7a","1736.8949999799952","","","","39","","","","key","17.10648125000007","619","277","true","1","136.9530041083495","1","16","-1","1","","","","","","","","","","","","",""
"psychophysics","45","407450","0.0-6.0-0.39","5fea2e6613597c51a166f24d","609a8bf73b2ac84e2732f618","60a0edd4caeef8748b7ffc7a","1895.0949999853037","","","","37","","","","key","16.98422352941193","619","277","true","-1","136.9530041083495","1","17","-1","-1","","","","","","","","","","","","",""
"html-keyboard-response","46","410906","0.0-7.0","5fea2e6613597c51a166f24d","609a8bf73b2ac84e2732f618","60a0edd4caeef8748b7ffc7a","3451.3549999683164","<p>Well Done !</p><p>Prepare for a new block.</p><p>DON'T EXIT THE FULL SCREEN MODE</p><p>Press the Spacebar to start.</p>","","","32","","","","","","","","","","","","","","","true","136.12021614371363","","","","","","","","","","",""
"psychophysics","47","412965","0.0-8.0-0.0","5fea2e6613597c51a166f24d","609a8bf73b2ac84e2732f618","60a0edd4caeef8748b7ffc7a","1049.5050000026822","","","","37","","","","key","16.697999999999936","619","277","true","1","180","30","0","1","","","","","","","","","","","","","",""
"psychophysics","48","414482","0.0-8.0-0.1","5fea2e6613597c51a166f24d","609a8bf73b2ac84e2732f618","60a0edd4caeef8748b7ffc7a","510.4750000173226","","","","37","","","","key","16.87614606741588","619","277","true","-1","210","30","0","-1","1","","","","","","","","","","","","",""
"psychophysics","49","416033","0.0-8.0-0.2","5fea2e6613597c51a166f24d","609a8bf73b2ac84e2732f618","60a0edd4caeef8748b7ffc7a","544.1749999881722","","","","37","","","","key","17.060299999999632","619","277","true","-1","210","24","1","-1","-1","","","","","","","","","","","","",""
"psychophysics","50","417317","0.0-8.0-0.3","5fea2e6613597c51a166f24d","609a8bf73b2ac84e2732f618","60a0edd4caeef8748b7ffc7a","279.44000001298264","","","","39","","","","key","17.375561643835184","619","277","true","1","186","24","1","-1","-1","","","","","","","","","","","","",""
"psychophysics","51","418652","0.0-8.0-0.4","5fea2e6613597c51a166f24d","609a8bf73b2ac84e2732f618","60a0edd4caeef8748b7ffc7a","328.9199999999255","","","","37","","","","key","16.90310256410232","619","277","true","-1","186","24","1","-1","-1","","","","","","","","","","","","",""
"psychophysics","52","420058","0.0-8.0-0.5","5fea2e6613597c51a166f24d","609a8bf73b2ac84e2732f618","60a0edd4caeef8748b7ffc7a","402.33000001171604","","","","39","","","","key","16.893146341463563","619","277","true","1","162","24","1","-1","-1","","","","","","","","","","","","",""
"psychophysics","53","421525","0.0-8.0-0.6","5fea2e6613597c51a166f24d","609a8bf73b2ac84e2732f618","60a0edd4caeef8748b7ffc7a","463.7900000088848","","","","39","","","","key","16.68985057471256","619","277","true","1","162","24","1","-1","-1","","","","","","","","","","","","",""
"psychophysics","54","423001","0.0-8.0-0.7","5fea2e6613597c51a166f24d","609a8bf73b2ac84e2732f618","60a0edd4caeef8748b7ffc7a","472.3000000230968","","","","39","","","","key","16.690275862069008","619","277","true","1","138","24","1","-1","-1","","","","","","","","","","","","",""
"psychophysics","55","424154","0.0-8.0-0.8","5fea2e6613597c51a166f24d","609a8bf73b2ac84e2732f618","60a0edd4caeef8748b7ffc7a","150.1249999855645","","","","39","","","","key","16.689768115942623","619","277","true","1","138","24","1","-1","-1","","","","","","","","","","","","",""
"psychophysics","56","425962","0.0-8.0-0.9","5fea2e6613597c51a166f24d","609a8bf73b2ac84e2732f618","60a0edd4caeef8748b7ffc7a","805.0700000021607","","","","39","","","","key","16.68982242990642","619","277","true","1","129","24","1","-1","-1","","","","","","","","","","","","",""
"psychophysics","57","427477","0.0-8.0-0.10","5fea2e6613597c51a166f24d","609a8bf73b2ac84e2732f618","60a0edd4caeef8748b7ffc7a","512.5850000185892","","","","37","","","","key","16.68948888888893","619","277","true","-1","129","24","1","-1","-1","","","","","","","","","","","","",""
"psychophysics","58","429224","0.0-8.0-0.11","5fea2e6613597c51a166f24d","609a8bf73b2ac84e2732f618","60a0edd4caeef8748b7ffc7a","745.0200000312179","","","","37","","","","key","16.689582524271863","619","277","true","-1","129","24","1","-1","-1","","","","","","","","","","","","",""
"psychophysics","59","431264","0.0-8.0-0.12","5fea2e6613597c51a166f24d","609a8bf73b2ac84e2732f618","60a0edd4caeef8748b7ffc7a","1037.819999968633","","","","37","","","","key","16.6897377049184","619","277","true","-1","129","24","1","-1","-1","","","","","","","","","","","","",""
"psychophysics","60","433435","0.0-8.0-0.13","5fea2e6613597c51a166f24d","609a8bf73b2ac84e2732f618","60a0edd4caeef8748b7ffc7a","1168.1649999809451","","","","37","","","","key","16.689565891472625","619","277","true","-1","129","24","1","-1","-1","","","","","","","","","","","","",""
"psychophysics","61","435982","0.0-8.0-0.14","5fea2e6613597c51a166f24d","609a8bf73b2ac84e2732f618","60a0edd4caeef8748b7ffc7a","1542.2450000187382","","","","37","","","","key","16.68983443708634","619","277","true","-1","129","24","1","-1","-1","","","","","","","","","","","","",""
"psychophysics","62","438354","0.0-8.0-0.15","5fea2e6613597c51a166f24d","609a8bf73b2ac84e2732f618","60a0edd4caeef8748b7ffc7a","1369.6099999942817","","","","37","","","","key","16.689659574467868","619","277","true","-1","129","24","1","-1","-1","","","","","","","","","","","","",""
"psychophysics","63","442070","0.0-8.0-0.16","5fea2e6613597c51a166f24d","609a8bf73b2ac84e2732f618","60a0edd4caeef8748b7ffc7a","2713.2500000298023","","","","39","","","","key","16.689626126126164","619","277","true","-1","129","19.2","2","1","-1","","","","","","","","","","","","",""
"psychophysics","64","444349","0.0-8.0-0.17","5fea2e6613597c51a166f24d","609a8bf73b2ac84e2732f618","60a0edd4caeef8748b7ffc7a","1275.0600000144914","","","","37","","","","key","16.689764705882492","619","277","true","-1","148.2","19.2","2","-1","1","","","","","","","","","","","","",""
"psychophysics","65","445757","0.0-8.0-0.18","5fea2e6613597c51a166f24d","609a8bf73b2ac84e2732f618","60a0edd4caeef8748b7ffc7a","406.22499998426065","","","","39","","","","key","16.689578313252845","619","277","true","1","148.2","15.36","3","-1","-1","","","","","","","","","","","","",""
"psychophysics","66","447642","0.0-8.0-0.19","5fea2e6613597c51a166f24d","609a8bf73b2ac84e2732f618","60a0edd4caeef8748b7ffc7a","881.9800000055693","","","","37","","","","key","16.689955357143067","619","277","true","-1","132.83999999999997","15.36","3","-1","-1","","","","","","","","","","","","",""
"psychophysics","67","449965","0.0-8.0-0.20","5fea2e6613597c51a166f24d","609a8bf73b2ac84e2732f618","60a0edd4caeef8748b7ffc7a","1318.7949999701232","","","","37","","","","key","16.69036956521745","619","277","true","1","132.83999999999997","12.287999999999998","4","1","-1","","","","","","","","","","","","",""
"psychophysics","68","451974","0.0-8.0-0.21","5fea2e6613597c51a166f24d","609a8bf73b2ac84e2732f618","60a0edd4caeef8748b7ffc7a","1003.9850000175647","","","","37","","","","key","16.975136752136383","619","277","true","-1","145.128","12.287999999999998","4","-1","1","","","","","","","","","","","","",""
"psychophysics","69","453451","0.0-8.0-0.22","5fea2e6613597c51a166f24d","609a8bf73b2ac84e2732f618","60a0edd4caeef8748b7ffc7a","469.84499995596707","","","","39","","","","key","17.695036144577898","619","277","true","1","145.128","9.8304","5","-1","-1","","","","","","","","","","","","",""
"psychophysics","70","455335","0.0-8.0-0.23","5fea2e6613597c51a166f24d","609a8bf73b2ac84e2732f618","60a0edd4caeef8748b7ffc7a","876.1299999896437","","","","39","","","","key","16.840360360360087","619","277","true","1","135.2976","9.8304","5","-1","-1","","","","","","","","","","","","",""
"psychophysics","71","457619","0.0-8.0-0.24","5fea2e6613597c51a166f24d","609a8bf73b2ac84e2732f618","60a0edd4caeef8748b7ffc7a","1268.709999974817","","","","39","","","","key","16.93838059701505","619","277","true","1","135.2976","9.8304","5","-1","-1","","","","","","","","","","","","",""
"psychophysics","72","459511","0.0-8.0-0.25","5fea2e6613597c51a166f24d","609a8bf73b2ac84e2732f618","60a0edd4caeef8748b7ffc7a","882.2299999883398","","","","37","","","","key","17.634254716980855","619","277","true","-1","129","9.8304","5","-1","-1","","","","","","","","","","","","",""
"psychophysics","73","462893","0.0-8.0-0.26","5fea2e6613597c51a166f24d","609a8bf73b2ac84e2732f618","60a0edd4caeef8748b7ffc7a","2370.085000002291","","","","37","","","","key","17.11364974619302","619","277","true","1","129","7.864319999999999","6","1","-1","","","","","","","","","","","","",""
"psychophysics","74","464273","0.0-8.0-0.27","5fea2e6613597c51a166f24d","609a8bf73b2ac84e2732f618","60a0edd4caeef8748b7ffc7a","374.86499996157363","","","","39","","","","key","17.556298701298974","619","277","true","1","136.86432","7.864319999999999","6","-1","1","","","","","","","","","","","","",""
"psychophysics","75","466272","0.0-8.0-0.28","5fea2e6613597c51a166f24d","609a8bf73b2ac84e2732f618","60a0edd4caeef8748b7ffc7a","992.9250000277534","","","","37","","","","key","17.27040869565225","619","277","true","-1","136.86432","6.291456","7","-1","-1","","","","","","","","","","","","",""
"psychophysics","76","469253","0.0-8.0-0.29","5fea2e6613597c51a166f24d","609a8bf73b2ac84e2732f618","60a0edd4caeef8748b7ffc7a","1970.8899999968708","","","","37","","","","key","17.073580459769865","619","277","true","-1","130.57286399999998","6.291456","7","-1","-1","","","","","","","","","","","","",""
"psychophysics","77","472721","0.0-8.0-0.30","5fea2e6613597c51a166f24d","609a8bf73b2ac84e2732f618","60a0edd4caeef8748b7ffc7a","2461.269999970682","","","","37","","","","key","16.936197044334737","619","277","true","-1","130.57286399999998","6.291456","7","-1","-1","","","","","","","","","","","","",""
"psychophysics","78","475676","0.0-8.0-0.31","5fea2e6613597c51a166f24d","609a8bf73b2ac84e2732f618","60a0edd4caeef8748b7ffc7a","1944.3999999784864","","","","37","","","","key","16.97896531791893","619","277","true","1","129","5.033164800000001","8","1","-1","","","","","","","","","","","","",""
"psychophysics","79","478128","0.0-8.0-0.32","5fea2e6613597c51a166f24d","609a8bf73b2ac84e2732f618","60a0edd4caeef8748b7ffc7a","1444.145000015851","","","","37","","","","key","16.921159722222203","619","277","true","-1","134.0331648","5.033164800000001","8","-1","1","","","","","","","","","","","","",""
"psychophysics","80","480127","0.0-8.0-0.33","5fea2e6613597c51a166f24d","609a8bf73b2ac84e2732f618","60a0edd4caeef8748b7ffc7a","984.7849999787286","","","","37","","","","key","16.975025641025464","619","277","true","1","134.0331648","4.0265318400000005","9","1","-1","","","","","","","","","","","","",""
"psychophysics","81","482535","0.0-8.0-0.34","5fea2e6613597c51a166f24d","609a8bf73b2ac84e2732f618","60a0edd4caeef8748b7ffc7a","1397.7600000216626","","","","37","","","","key","17.04739999999999","619","277","true","-1","138.05969664","4.0265318400000005","9","-1","1","","","","","","","","","","","","",""
"psychophysics","82","484016","0.0-8.0-0.35","5fea2e6613597c51a166f24d","609a8bf73b2ac84e2732f618","60a0edd4caeef8748b7ffc7a","475.2750000334345","","","","39","","","","key","17.07754651162784","619","277","true","1","138.05969664","3.2212254720000004","10","-1","-1","","","","","","","","","","","","",""
"psychophysics","83","486445","0.0-8.0-0.36","5fea2e6613597c51a166f24d","609a8bf73b2ac84e2732f618","60a0edd4caeef8748b7ffc7a","1420.0549999950454","","","","37","","","","key","16.689572413793186","619","277","true","-1","134.838471168","3.2212254720000004","10","-1","-1","","","","","","","","","","","","",""
"psychophysics","84","489229","0.0-8.0-0.37","5fea2e6613597c51a166f24d","609a8bf73b2ac84e2732f618","60a0edd4caeef8748b7ffc7a","1776.0549999657087","","","","37","","","","key","16.893384146341194","619","277","true","1","134.838471168","2.5769803776000004","11","1","-1","","","","","","","","","","","","",""
"psychophysics","85","490690","0.0-8.0-0.38","5fea2e6613597c51a166f24d","609a8bf73b2ac84e2732f618","60a0edd4caeef8748b7ffc7a","454.68500000424683","","","","39","","","","key","17.086988095237757","619","277","true","1","137.4154515456","2.5769803776000004","11","-1","1","","","","","","","","","","","","",""
"psychophysics","86","492248","0.0-8.0-0.39","5fea2e6613597c51a166f24d","609a8bf73b2ac84e2732f618","60a0edd4caeef8748b7ffc7a","548.7100000027567","","","","39","","","","key","16.87282417582445","619","277","true","1","137.4154515456","2.0615843020800004","12","-1","-1","","","","","","","","","","","","",""
"html-keyboard-response","87","495041","0.0-9.0","5fea2e6613597c51a166f24d","609a8bf73b2ac84e2732f618","60a0edd4caeef8748b7ffc7a","2788.4549999726005","<p>Well Done !</p><p>Prepare for a new block.</p><p>DON'T EXIT THE FULL SCREEN MODE</p><p>Press the Spacebar to start.</p>","","","17","","","","","","","","","","","","","","","true","134.03786242048002","","","","","","","","","","",""
"psychophysics","88","496639","0.0-10.0-0.0","5fea2e6613597c51a166f24d","609a8bf73b2ac84e2732f618","60a0edd4caeef8748b7ffc7a","587.8549999906681","","","","37","","","","key","17.23632258064519","619","277","true","-1","180","30","0","-1","","","","","","","","","","","","","",""
"psychophysics","89","499583","0.0-10.0-0.1","5fea2e6613597c51a166f24d","609a8bf73b2ac84e2732f618","60a0edd4caeef8748b7ffc7a","1937.5049999798648","","","","37","","","","key","17.180652941176533","619","277","true","1","180","30","0","1","-1","","","","","","","","","","","","",""
"psychophysics","90","500905","0.0-10.0-0.2","5fea2e6613597c51a166f24d","609a8bf73b2ac84e2732f618","60a0edd4caeef8748b7ffc7a","315.0599999935366","","","","37","","","","key","17.832561643835643","619","277","true","-1","210","30","0","-1","1","","","","","","","","","","","","",""
"psychophysics","91","502002","0.0-10.0-0.3","5fea2e6613597c51a166f24d","609a8bf73b2ac84e2732f618","60a0edd4caeef8748b7ffc7a","89.24499998101965","","","","39","","","","key","17.219174603174906","619","277","true","1","210","24","1","-1","-1","","","","","","","","","","","","",""
"psychophysics","92","503121","0.0-10.0-0.4","5fea2e6613597c51a166f24d","609a8bf73b2ac84e2732f618","60a0edd4caeef8748b7ffc7a","111.96499998914078","","","","37","","","","key","16.945969230769418","619","277","true","-1","186","24","1","-1","-1","","","","","","","","","","","","",""
"psychophysics","93","504383","0.0-10.0-0.5","5fea2e6613597c51a166f24d","609a8bf73b2ac84e2732f618","60a0edd4caeef8748b7ffc7a","255.7350000133738","","","","39","","","","key","16.689506666666517","619","277","true","1","186","24","1","-1","-1","","","","","","","","","","","","",""
"psychophysics","94","505589","0.0-10.0-0.6","5fea2e6613597c51a166f24d","609a8bf73b2ac84e2732f618","60a0edd4caeef8748b7ffc7a","202.22500001545995","","","","37","","","","key","18.809253968254087","619","277","true","-1","162","24","1","-1","-1","","","","","","","","","","","","",""
"psychophysics","95","506947","0.0-10.0-0.7","5fea2e6613597c51a166f24d","609a8bf73b2ac84e2732f618","60a0edd4caeef8748b7ffc7a","350.25000001769513","","","","37","","","","key","18.543805555555284","619","277","true","-1","162","24","1","-1","-1","","","","","","","","","","","","",""
"psychophysics","96","508568","0.0-10.0-0.8","5fea2e6613597c51a166f24d","609a8bf73b2ac84e2732f618","60a0edd4caeef8748b7ffc7a","616.890000004787","","","","39","","","","key","18.84996470588273","619","277","true","1","138","24","1","-1","-1","","","","","","","","","","","","",""
"psychophysics","97","510616","0.0-10.0-0.9","5fea2e6613597c51a166f24d","609a8bf73b2ac84e2732f618","60a0edd4caeef8748b7ffc7a","1040.7300000078976","","","","37","","","","key","18.180098214285472","619","277","true","-1","138","24","1","-1","-1","","","","","","","","","","","","",""
"psychophysics","98","512905","0.0-10.0-0.10","5fea2e6613597c51a166f24d","609a8bf73b2ac84e2732f618","60a0edd4caeef8748b7ffc7a","1283.5699999704957","","","","37","","","","key","18.014142857142907","619","277","true","-1","129","24","1","-1","-1","","","","","","","","","","","","",""
"psychophysics","99","515152","0.0-10.0-0.11","5fea2e6613597c51a166f24d","609a8bf73b2ac84e2732f618","60a0edd4caeef8748b7ffc7a","1241.0350000136532","","","","37","","","","key","18.18242276422736","619","277","true","-1","129","24","1","-1","-1","","","","","","","","","","","","",""
"psychophysics","100","517016","0.0-10.0-0.12","5fea2e6613597c51a166f24d","609a8bf73b2ac84e2732f618","60a0edd4caeef8748b7ffc7a","856.885000015609","","","","37","","","","key","17.99874509803896","619","277","true","-1","129","24","1","-1","-1","","","","","","","","","","","","",""
"psychophysics","101","518991","0.0-10.0-0.13","5fea2e6613597c51a166f24d","609a8bf73b2ac84e2732f618","60a0edd4caeef8748b7ffc7a","968.2949999696575","","","","39","","","","key","18.06747706422001","619","277","true","1","129","24","1","-1","-1","","","","","","","","","","","","",""
"psychophysics","102","521229","0.0-10.0-0.14","5fea2e6613597c51a166f24d","609a8bf73b2ac84e2732f618","60a0edd4caeef8748b7ffc7a","1232.0550000295043","","","","37","","","","key","19.156930434781774","619","277","true","1","129","19.2","2","1","-1","","","","","","","","","","","","",""
"psychophysics","103","522712","0.0-10.0-0.15","5fea2e6613597c51a166f24d","609a8bf73b2ac84e2732f618","60a0edd4caeef8748b7ffc7a","477.9050000361167","","","","37","","","","key","17.48461904761886","619","277","true","-1","148.2","19.2","2","-1","1","","","","","","","","","","","","",""
"psychophysics","104","523963","0.0-10.0-0.16","5fea2e6613597c51a166f24d","609a8bf73b2ac84e2732f618","60a0edd4caeef8748b7ffc7a","243.63500002073124","","","","39","","","","key","18.161602941175634","619","277","true","1","148.2","15.36","3","-1","-1","","","","","","","","","","","","",""
"psychophysics","105","526907","0.0-10.0-0.17","5fea2e6613597c51a166f24d","609a8bf73b2ac84e2732f618","60a0edd4caeef8748b7ffc7a","1937.4899999820627","","","","37","","","","key","18.254468749999795","619","277","true","1","132.83999999999997","12.287999999999998","4","1","-1","","","","","","","","","","","","",""
"psychophysics","106","528242","0.0-10.0-0.18","5fea2e6613597c51a166f24d","609a8bf73b2ac84e2732f618","60a0edd4caeef8748b7ffc7a","326.1049999855459","","","","37","","","","key","17.34859210526338","619","277","true","-1","145.128","12.287999999999998","4","-1","1","","","","","","","","","","","","",""
"psychophysics","107","529595","0.0-10.0-0.19","5fea2e6613597c51a166f24d","609a8bf73b2ac84e2732f618","60a0edd4caeef8748b7ffc7a","347.47999999672174","","","","39","","","","key","17.802333333332403","619","277","true","1","145.128","9.8304","5","-1","-1","","","","","","","","","","","","",""
"psychophysics","108","532254","0.0-10.0-0.20","5fea2e6613597c51a166f24d","609a8bf73b2ac84e2732f618","60a0edd4caeef8748b7ffc7a","1652.7149999747053","","","","37","","","","key","16.90167515923545","619","277","true","-1","135.2976","9.8304","5","-1","-1","","","","","","","","","","","","",""
"psychophysics","109","534618","0.0-10.0-0.21","5fea2e6613597c51a166f24d","609a8bf73b2ac84e2732f618","60a0edd4caeef8748b7ffc7a","1360.6299999519251","","","","37","","","","key","16.689807142857795","619","277","true","1","135.2976","7.864319999999999","6","1","-1","","","","","","","","","","","","",""
"psychophysics","110","536137","0.0-10.0-0.22","5fea2e6613597c51a166f24d","609a8bf73b2ac84e2732f618","60a0edd4caeef8748b7ffc7a","517.1350000309758","","","","39","","","","key","16.689888888888525","619","277","true","1","143.16191999999998","7.864319999999999","6","-1","1","","","","","","","","","","","","",""
"psychophysics","111","538495","0.0-10.0-0.23","5fea2e6613597c51a166f24d","609a8bf73b2ac84e2732f618","60a0edd4caeef8748b7ffc7a","1355.3650000249036","","","","37","","","","key","16.80901428571503","619","277","true","1","143.16191999999998","6.291456","7","1","-1","","","","","","","","","","","","",""
"psychophysics","112","539951","0.0-10.0-0.24","5fea2e6613597c51a166f24d","609a8bf73b2ac84e2732f618","60a0edd4caeef8748b7ffc7a","453.5800000303425","","","","37","","","","key","16.689662790697522","619","277","true","-1","149.453376","6.291456","7","-1","1","","","","","","","","","","","","",""
"psychophysics","113","541469","0.0-10.0-0.25","5fea2e6613597c51a166f24d","609a8bf73b2ac84e2732f618","60a0edd4caeef8748b7ffc7a","513.7349999858998","","","","37","","","","key","16.68987777777689","619","277","true","-1","149.453376","5.033164800000001","8","-1","-1","","","","","","","","","","","","",""
"psychophysics","114","542955","0.0-10.0-0.26","5fea2e6613597c51a166f24d","609a8bf73b2ac84e2732f618","60a0edd4caeef8748b7ffc7a","482.7250000089407","","","","39","","","","key","16.689693181817844","619","277","true","1","144.42021119999998","5.033164800000001","8","-1","-1","","","","","","","","","","","","",""
"psychophysics","115","544416","0.0-10.0-0.27","5fea2e6613597c51a166f24d","609a8bf73b2ac84e2732f618","60a0edd4caeef8748b7ffc7a","457.91499997721985","","","","37","","","","key","16.689430232559125","619","277","true","-1","144.42021119999998","5.033164800000001","8","-1","-1","","","","","","","","","","","","",""
"psychophysics","116","545928","0.0-10.0-0.28","5fea2e6613597c51a166f24d","609a8bf73b2ac84e2732f618","60a0edd4caeef8748b7ffc7a","510.66000002902","","","","37","","","","key","16.68969999999972","619","277","true","-1","139.38704639999997","5.033164800000001","8","-1","-1","","","","","","","","","","","","",""
"psychophysics","117","547839","0.0-10.0-0.29","5fea2e6613597c51a166f24d","609a8bf73b2ac84e2732f618","60a0edd4caeef8748b7ffc7a","906.1549999751151","","","","39","","","","key","16.68964601769854","619","277","true","1","139.38704639999997","5.033164800000001","8","-1","-1","","","","","","","","","","","","",""
"psychophysics","118","550250","0.0-10.0-0.30","5fea2e6613597c51a166f24d","609a8bf73b2ac84e2732f618","60a0edd4caeef8748b7ffc7a","1408.1500000320375","","","","39","","","","key","16.68972916666664","619","277","true","-1","134.35388159999997","4.0265318400000005","9","1","-1","","","","","","","","","","","","",""
"psychophysics","119","553362","0.0-10.0-0.31","5fea2e6613597c51a166f24d","609a8bf73b2ac84e2732f618","60a0edd4caeef8748b7ffc7a","2109.210000024177","","","","39","","","","key","16.780467391304505","619","277","true","1","138.38041343999996","4.0265318400000005","9","-1","1","","","","","","","","","","","","",""
"psychophysics","120","555379","0.0-10.0-0.32","5fea2e6613597c51a166f24d","609a8bf73b2ac84e2732f618","60a0edd4caeef8748b7ffc7a","1012.7499999944121","","","","37","","","","key","16.689799999999618","619","277","true","1","138.38041343999996","3.2212254720000004","10","1","-1","","","","","","","","","","","","",""
"psychophysics","121","557307","0.0-10.0-0.33","5fea2e6613597c51a166f24d","609a8bf73b2ac84e2732f618","60a0edd4caeef8748b7ffc7a","925.4950000322424","","","","37","","","","key","16.689530434782373","619","277","true","1","141.60163891199994","3.2212254720000004","10","1","1","","","","","","","","","","","","",""
"psychophysics","122","558556","0.0-10.0-0.34","5fea2e6613597c51a166f24d","609a8bf73b2ac84e2732f618","60a0edd4caeef8748b7ffc7a","245.36000000080094","","","","39","","","","key","16.689783783783707","619","277","true","1","144.82286438399996","3.2212254720000004","10","-1","1","","","","","","","","","","","","",""
"psychophysics","123","559752","0.0-10.0-0.35","5fea2e6613597c51a166f24d","609a8bf73b2ac84e2732f618","60a0edd4caeef8748b7ffc7a","192.73999996948987","","","","37","","","","key","16.932275362319544","619","277","true","-1","144.82286438399996","2.5769803776000004","11","-1","-1","","","","","","","","","","","","",""
"psychophysics","124","560887","0.0-10.0-0.36","5fea2e6613597c51a166f24d","609a8bf73b2ac84e2732f618","60a0edd4caeef8748b7ffc7a","129.2700000340119","","","","39","","","","key","16.942621212121043","619","277","true","1","142.24588400639996","2.5769803776000004","11","-1","-1","","","","","","","","","","","","",""
"psychophysics","125","562079","0.0-10.0-0.37","5fea2e6613597c51a166f24d","609a8bf73b2ac84e2732f618","60a0edd4caeef8748b7ffc7a","182.25499999243766","","","","39","","","","key","18.253734374999112","619","277","true","1","142.24588400639996","2.5769803776000004","11","-1","-1","","","","","","","","","","","","",""
"psychophysics","126","563271","0.0-10.0-0.38","5fea2e6613597c51a166f24d","609a8bf73b2ac84e2732f618","60a0edd4caeef8748b7ffc7a","182.77499999385327","","","","37","","","","key","18.25493749999987","619","277","true","-1","139.66890362879997","2.5769803776000004","11","-1","-1","","","","","","","","","","","","",""
"psychophysics","127","564743","0.0-10.0-0.39","5fea2e6613597c51a166f24d","609a8bf73b2ac84e2732f618","60a0edd4caeef8748b7ffc7a","465.75500001199543","","","","37","","","","key","18.401551282051233","619","277","true","-1","139.66890362879997","2.5769803776000004","11","-1","-1","","","","","","","","","","","","",""
"html-keyboard-response","128","568829","0.0-11.0","5fea2e6613597c51a166f24d","609a8bf73b2ac84e2732f618","60a0edd4caeef8748b7ffc7a","4080.0799999851733","<p>Well Done !</p><p>Prepare for a new block.</p><p>DON'T EXIT THE FULL SCREEN MODE</p><p>Press the Spacebar to start.</p>","","","32","","","","","","","","","","","","","","","true","141.55063617535998","","","","","","","","","","",""
"psychophysics","129","570892","0.0-12.0-0.0","5fea2e6613597c51a166f24d","609a8bf73b2ac84e2732f618","60a0edd4caeef8748b7ffc7a","1053.1550000305288","","","","37","","","","key","17.11238016528924","619","277","true","1","180","30","0","1","","","","","","","","","","","","","",""
"psychophysics","130","572978","0.0-12.0-0.1","5fea2e6613597c51a166f24d","609a8bf73b2ac84e2732f618","60a0edd4caeef8748b7ffc7a","1080.7650000206195","","","","37","","","","key","18.15382456140319","619","277","true","1","210","30","0","1","1","","","","","","","","","","","","",""
"psychophysics","131","574340","0.0-12.0-0.2","5fea2e6613597c51a166f24d","609a8bf73b2ac84e2732f618","60a0edd4caeef8748b7ffc7a","356.33499996038154","","","","39","","","","key","18.290657534246485","619","277","true","1","240","30","0","-1","1","","","","","","","","","","","","",""
"psychophysics","132","575555","0.0-12.0-0.3","5fea2e6613597c51a166f24d","609a8bf73b2ac84e2732f618","60a0edd4caeef8748b7ffc7a","208.28000002074987","","","","37","","","","key","16.690000000000712","619","277","true","-1","240","24","1","-1","-1","","","","","","","","","","","","",""
"psychophysics","133","577059","0.0-12.0-0.4","5fea2e6613597c51a166f24d","609a8bf73b2ac84e2732f618","60a0edd4caeef8748b7ffc7a","497.4350000265986","","","","37","","","","key","17.895590361446164","619","277","true","-1","216","24","1","-1","-1","","","","","","","","","","","","",""
"psychophysics","134","578323","0.0-12.0-0.5","5fea2e6613597c51a166f24d","609a8bf73b2ac84e2732f618","60a0edd4caeef8748b7ffc7a","259.15499997790903","","","","39","","","","key","17.38527777777765","619","277","true","1","216","24","1","-1","-1","","","","","","","","","","","","",""
"psychophysics","135","579592","0.0-12.0-0.6","5fea2e6613597c51a166f24d","609a8bf73b2ac84e2732f618","60a0edd4caeef8748b7ffc7a","263.779999979306","","","","39","","","","key","17.14690410958807","619","277","true","1","192","24","1","-1","-1","","","","","","","","","","","","",""
"psychophysics","136","580804","0.0-12.0-0.7","5fea2e6613597c51a166f24d","609a8bf73b2ac84e2732f618","60a0edd4caeef8748b7ffc7a","205.72999998694286","","","","37","","","","key","18.544047619047987","619","277","true","-1","192","24","1","-1","-1","","","","","","","","","","","","",""
"psychophysics","137","581997","0.0-12.0-0.8","5fea2e6613597c51a166f24d","609a8bf73b2ac84e2732f618","60a0edd4caeef8748b7ffc7a","187.31000000843778","","","","37","","","","key","18.51581249999981","619","277","true","-1","168","24","1","-1","-1","","","","","","","","","","","","",""
"psychophysics","138","583236","0.0-12.0-0.9","5fea2e6613597c51a166f24d","609a8bf73b2ac84e2732f618","60a0edd4caeef8748b7ffc7a","231.97999998228624","","","","37","","","","key","17.671764705883106","619","277","true","-1","168","24","1","-1","-1","","","","","","","","","","","","",""
"psychophysics","139","584418","0.0-12.0-0.10","5fea2e6613597c51a166f24d","609a8bf73b2ac84e2732f618","60a0edd4caeef8748b7ffc7a","174.3249999708496","","","","39","","","","key","18.25384374999885","619","277","true","1","144","24","1","-1","-1","","","","","","","","","","","","",""
"psychophysics","140","585688","0.0-12.0-0.11","5fea2e6613597c51a166f24d","609a8bf73b2ac84e2732f618","60a0edd4caeef8748b7ffc7a","265.3549999813549","","","","37","","","","key","18.967121212120578","619","277","true","-1","144","24","1","-1","-1","","","","","","","","","","","","",""
"psychophysics","141","587348","0.0-12.0-0.12","5fea2e6613597c51a166f24d","609a8bf73b2ac84e2732f618","60a0edd4caeef8748b7ffc7a","654.4500000309199","","","","39","","","","key","17.778065217390616","619","277","true","-1","129","19.2","2","1","-1","","","","","","","","","","","","",""
"psychophysics","142","588635","0.0-12.0-0.13","5fea2e6613597c51a166f24d","609a8bf73b2ac84e2732f618","60a0edd4caeef8748b7ffc7a","282.6700000441633","","","","39","","","","key","19.21778787878716","619","277","true","1","148.2","19.2","2","-1","1","","","","","","","","","","","","",""
"psychophysics","143","589938","0.0-12.0-0.14","5fea2e6613597c51a166f24d","609a8bf73b2ac84e2732f618","60a0edd4caeef8748b7ffc7a","297.75999998673797","","","","39","","","","key","18.35878571428558","619","277","true","1","148.2","15.36","3","-1","-1","","","","","","","","","","","","",""
"psychophysics","144","591989","0.0-12.0-0.15","5fea2e6613597c51a166f24d","609a8bf73b2ac84e2732f618","60a0edd4caeef8748b7ffc7a","1044.980000006035","","","","37","","","","key","17.860912280701502","619","277","true","-1","132.83999999999997","15.36","3","-1","-1","","","","","","","","","","","","",""
"psychophysics","145","593436","0.0-12.0-0.16","5fea2e6613597c51a166f24d","609a8bf73b2ac84e2732f618","60a0edd4caeef8748b7ffc7a","442.2649999614805","","","","37","","","","key","18.423753246754202","619","277","true","-1","132.83999999999997","15.36","3","-1","-1","","","","","","","","","","","","",""
"psychophysics","146","595486","0.0-12.0-0.17","5fea2e6613597c51a166f24d","609a8bf73b2ac84e2732f618","60a0edd4caeef8748b7ffc7a","1044.5499999914318","","","","37","","","","key","18.359163636363917","619","277","true","1","129","12.287999999999998","4","1","-1","","","","","","","","","","","","",""
"psychophysics","147","596703","0.0-12.0-0.18","5fea2e6613597c51a166f24d","609a8bf73b2ac84e2732f618","60a0edd4caeef8748b7ffc7a","209.02000000933185","","","","39","","","","key","18.487353846154964","619","277","true","1","141.288","12.287999999999998","4","-1","1","","","","","","","","","","","","",""
"psychophysics","148","597998","0.0-12.0-0.19","5fea2e6613597c51a166f24d","609a8bf73b2ac84e2732f618","60a0edd4caeef8748b7ffc7a","287.03499998664483","","","","39","","","","key","18.099746478872348","619","277","true","1","141.288","9.8304","5","-1","-1","","","","","","","","","","","","",""
"psychophysics","149","600121","0.0-12.0-0.20","5fea2e6613597c51a166f24d","609a8bf73b2ac84e2732f618","60a0edd4caeef8748b7ffc7a","1116.8349999934435","","","","37","","","","key","19.292577981650872","619","277","true","-1","131.4576","9.8304","5","-1","-1","","","","","","","","","","","","",""
"psychophysics","150","602387","0.0-12.0-0.21","5fea2e6613597c51a166f24d","609a8bf73b2ac84e2732f618","60a0edd4caeef8748b7ffc7a","1259.4050000188872","","","","37","","","","key","18.317796747966828","619","277","true","-1","131.4576","9.8304","5","-1","-1","","","","","","","","","","","","",""
"psychophysics","151","603855","0.0-12.0-0.22","5fea2e6613597c51a166f24d","609a8bf73b2ac84e2732f618","60a0edd4caeef8748b7ffc7a","461.940000008326","","","","39","","","","key","19.137226666666876","619","277","true","1","129","9.8304","5","-1","-1","","","","","","","","","","","","",""
"psychophysics","152","606040","0.0-12.0-0.23","5fea2e6613597c51a166f24d","609a8bf73b2ac84e2732f618","60a0edd4caeef8748b7ffc7a","1180.0650000222959","","","","37","","","","key","18.38731355932285","619","277","true","1","129","7.864319999999999","6","1","-1","","","","","","","","","","","","",""
"psychophysics","153","608185","0.0-12.0-0.24","5fea2e6613597c51a166f24d","609a8bf73b2ac84e2732f618","60a0edd4caeef8748b7ffc7a","1138.6049999855459","","","","37","","","","key","17.373795081967238","619","277","true","-1","136.86432","7.864319999999999","6","-1","1","","","","","","","","","","","","",""
"psychophysics","154","610572","0.0-12.0-0.25","5fea2e6613597c51a166f24d","609a8bf73b2ac84e2732f618","60a0edd4caeef8748b7ffc7a","1377.8349999920465","","","","37","","","","key","17.953310606061045","619","277","true","-1","136.86432","6.291456","7","-1","-1","","","","","","","","","","","","",""
"psychophysics","155","612769","0.0-12.0-0.26","5fea2e6613597c51a166f24d","609a8bf73b2ac84e2732f618","60a0edd4caeef8748b7ffc7a","1191.5349999908358","","","","37","","","","key","17.49068800000008","619","277","true","1","130.57286399999998","5.033164800000001","8","1","-1","","","","","","","","","","","","",""
"psychophysics","156","614979","0.0-12.0-0.27","5fea2e6613597c51a166f24d","609a8bf73b2ac84e2732f618","60a0edd4caeef8748b7ffc7a","1201.920000021346","","","","37","","","","key","18.37192436974758","619","277","true","-1","135.6060288","5.033164800000001","8","-1","1","","","","","","","","","","","","",""
"psychophysics","157","617239","0.0-12.0-0.28","5fea2e6613597c51a166f24d","609a8bf73b2ac84e2732f618","60a0edd4caeef8748b7ffc7a","1252.6700000162236","","","","39","","","","key","18.468057377049202","619","277","true","1","135.6060288","4.0265318400000005","9","-1","-1","","","","","","","","","","","","",""
"psychophysics","158","619695","0.0-12.0-0.29","5fea2e6613597c51a166f24d","609a8bf73b2ac84e2732f618","60a0edd4caeef8748b7ffc7a","1448.984999966342","","","","37","","","","key","18.60063358778685","619","277","true","1","131.57949696","3.2212254720000004","10","1","-1","","","","","","","","","","","","",""
"psychophysics","159","621720","0.0-12.0-0.30","5fea2e6613597c51a166f24d","609a8bf73b2ac84e2732f618","60a0edd4caeef8748b7ffc7a","1017.2950000269338","","","","37","","","","key","18.893981132076455","619","277","true","-1","134.800722432","3.2212254720000004","10","-1","1","","","","","","","","","","","","",""
"psychophysics","160","623558","0.0-12.0-0.31","5fea2e6613597c51a166f24d","609a8bf73b2ac84e2732f618","60a0edd4caeef8748b7ffc7a","829.4749999768101","","","","37","","","","key","18.58290721649501","619","277","true","1","134.800722432","2.5769803776000004","11","1","-1","","","","","","","","","","","","",""
"psychophysics","161","625429","0.0-12.0-0.32","5fea2e6613597c51a166f24d","609a8bf73b2ac84e2732f618","60a0edd4caeef8748b7ffc7a","862.5049999682233","","","","39","","","","key","18.9044387755103","619","277","true","-1","137.37770280959998","2.5769803776000004","11","1","1","","","","","","","","","","","","",""
"psychophysics","162","626854","0.0-12.0-0.33","5fea2e6613597c51a166f24d","609a8bf73b2ac84e2732f618","60a0edd4caeef8748b7ffc7a","416.3599999737926","","","","39","","","","key","17.091530120481334","619","277","true","1","139.95468318719998","2.5769803776000004","11","-1","1","","","","","","","","","","","","",""
"psychophysics","163","628755","0.0-12.0-0.34","5fea2e6613597c51a166f24d","609a8bf73b2ac84e2732f618","60a0edd4caeef8748b7ffc7a","895.5349999596365","","","","37","","","","key","18.692619999999877","619","277","true","-1","139.95468318719998","2.0615843020800004","12","-1","-1","","","","","","","","","","","","",""
"psychophysics","164","630550","0.0-12.0-0.35","5fea2e6613597c51a166f24d","609a8bf73b2ac84e2732f618","60a0edd4caeef8748b7ffc7a","788.2100000279024","","","","37","","","","key","18.641553191489173","619","277","true","1","137.89309888511997","1.6492674416640005","13","1","-1","","","","","","","","","","","","",""
"psychophysics","165","632129","0.0-12.0-0.36","5fea2e6613597c51a166f24d","609a8bf73b2ac84e2732f618","60a0edd4caeef8748b7ffc7a","573.6050000414252","","","","37","","","","key","18.24340697674373","619","277","true","-1","139.54236632678396","1.6492674416640005","13","-1","1","","","","","","","","","","","","",""
"psychophysics","166","634263","0.0-12.0-0.37","5fea2e6613597c51a166f24d","609a8bf73b2ac84e2732f618","60a0edd4caeef8748b7ffc7a","1128.5749999806285","","","","39","","","","key","17.0959512195124","619","277","true","-1","139.54236632678396","1.3194139533312006","14","1","-1","","","","","","","","","","","","",""
"psychophysics","167","636247","0.0-12.0-0.38","5fea2e6613597c51a166f24d","609a8bf73b2ac84e2732f618","60a0edd4caeef8748b7ffc7a","980.5549999582581","","","","37","","","","key","16.690694915254056","619","277","true","-1","140.86178028011517","1.3194139533312006","14","-1","1","","","","","","","","","","","","",""
"psychophysics","168","637624","0.0-12.0-0.39","5fea2e6613597c51a166f24d","609a8bf73b2ac84e2732f618","60a0edd4caeef8748b7ffc7a","374.294999986887","","","","39","","","","key","16.689839506172575","619","277","true","1","140.86178028011517","1.0555311626649604","15","-1","-1","","","","","","","","","","","","",""
"html-keyboard-response","169","640742","0.0-13.0","5fea2e6613597c51a166f24d","609a8bf73b2ac84e2732f618","60a0edd4caeef8748b7ffc7a","3116.715000011027","<p>Well Done !</p><p>Prepare for a new block.</p><p>DON'T EXIT THE FULL SCREEN MODE</p><p>Press the Spacebar to start.</p>","","","32","","","","","","","","","","","","","","","true","137.0545763137945","","","","","","","","","","",""
"html-keyboard-response","170","640845","0.0-14.0","5fea2e6613597c51a166f24d","609a8bf73b2ac84e2732f618","60a0edd4caeef8748b7ffc7a","null","","","","null","","","","","","","","","","","","","","","","","137.19082276333705","true","146.3816455266741","","","","","","","",""
"instructions","171","682227","0.0-15.0","5fea2e6613597c51a166f24d","609a8bf73b2ac84e2732f618","60a0edd4caeef8748b7ffc7a","41380.460000014864","","","","","","","[{""page_index"":0,""viewing_time"":31672.684999997728},{""page_index"":1,""viewing_time"":4601.330000034068},{""page_index"":2,""viewing_time"":5105.814999958966}]","","","","","","","","","","","","","","","","","","","","","","","",""
"psychophysics","172","685544","0.0-16.0-0.0","5fea2e6613597c51a166f24d","609a8bf73b2ac84e2732f618","60a0edd4caeef8748b7ffc7a","null","","","","null","","","","key","16.696243589743972","619","277","","","","","","","","","","","","","","","","","","","",""
"psychophysics","173","686050","0.0-16.0-1.0","5fea2e6613597c51a166f24d","609a8bf73b2ac84e2732f618","60a0edd4caeef8748b7ffc7a","null","","","","null","","","","key","17.923259259257637","619","277","","","","","","","","","","","","","146","1","2","false","","","",""
"psychophysics","174","688726","0.0-16.0-2.0","5fea2e6613597c51a166f24d","609a8bf73b2ac84e2732f618","60a0edd4caeef8748b7ffc7a","2671.79000005126","","","","90","","","","key","17.930439189188906","619","277","","","","","","","","","","","","","","","","","","","",""
"psychophysics","175","690147","0.0-16.0-0.1","5fea2e6613597c51a166f24d","609a8bf73b2ac84e2732f618","60a0edd4caeef8748b7ffc7a","null","","","","null","","","","key","18.4467368421059","619","277","","","","","","","","","","","","","","","","","","","",""
"psychophysics","176","690656","0.0-16.0-1.1","5fea2e6613597c51a166f24d","609a8bf73b2ac84e2732f618","60a0edd4caeef8748b7ffc7a","null","","","","null","","","","key","17.880821428573523","619","277","","","","","","","","","","","","","146","-1","0","false","","","",""
"psychophysics","177","693027","0.0-16.0-2.1","5fea2e6613597c51a166f24d","609a8bf73b2ac84e2732f618","60a0edd4caeef8748b7ffc7a","2365.0800000177696","","","","90","","","","key","17.963916030533802","619","277","","","","","","","","","","","","","","","","","","","",""
"psychophysics","178","694383","0.0-16.0-0.2","5fea2e6613597c51a166f24d","609a8bf73b2ac84e2732f618","60a0edd4caeef8748b7ffc7a","null","","","","null","","","","key","17.580613333332973","619","277","","","","","","","","","","","","","","","","","","","",""
"psychophysics","179","694890","0.0-16.0-1.2","5fea2e6613597c51a166f24d","609a8bf73b2ac84e2732f618","60a0edd4caeef8748b7ffc7a","null","","","","null","","","","key","17.92540740740865","619","277","","","","","","","","","","","","","146","1","6","false","","","",""
"psychophysics","180","698370","0.0-16.0-2.2","5fea2e6613597c51a166f24d","609a8bf73b2ac84e2732f618","60a0edd4caeef8748b7ffc7a","3470.2000000397675","","","","90","","","","key","18.367291005290724","619","277","","","","","","","","","","","","","","","","","","","",""
"psychophysics","181","699523","0.0-16.0-0.3","5fea2e6613597c51a166f24d","609a8bf73b2ac84e2732f618","60a0edd4caeef8748b7ffc7a","null","","","","null","","","","key","17.7327812500007","619","277","","","","","","","","","","","","","","","","","","","",""
"psychophysics","182","700029","0.0-16.0-1.3","5fea2e6613597c51a166f24d","609a8bf73b2ac84e2732f618","60a0edd4caeef8748b7ffc7a","null","","","","null","","","","key","18.616076923073987","619","277","","","","","","","","","","","","","146","-1","2","false","","","",""
"psychophysics","183","701045","0.0-16.0-2.3","5fea2e6613597c51a166f24d","609a8bf73b2ac84e2732f618","60a0edd4caeef8748b7ffc7a","1010.3849999723025","","","","90","","","","key","18.894943396224782","619","277","","","","","","","","","","","","","","","","","","","",""
"psychophysics","184","701681","0.0-16.0-0.4","5fea2e6613597c51a166f24d","609a8bf73b2ac84e2732f618","60a0edd4caeef8748b7ffc7a","null","","","","null","","","","key","18.714454545456015","619","277","","","","","","","","","","","","","","","","","","","",""
"psychophysics","185","702191","0.0-16.0-1.4","5fea2e6613597c51a166f24d","609a8bf73b2ac84e2732f618","60a0edd4caeef8748b7ffc7a","null","","","","null","","","","key","17.92696296296048","619","277","","","","","","","","","","","","","146","1","0","false","","","",""
"psychophysics","186","703803","0.0-16.0-2.4","5fea2e6613597c51a166f24d","609a8bf73b2ac84e2732f618","60a0edd4caeef8748b7ffc7a","1607.9599999939092","","","","90","","","","key","18.224885057471962","619","277","","","","","","","","","","","","","","","","","","","",""
"psychophysics","187","705080","0.0-16.0-0.5","5fea2e6613597c51a166f24d","609a8bf73b2ac84e2732f618","60a0edd4caeef8748b7ffc7a","null","","","","null","","","","key","17.86454929577344","619","277","","","","","","","","","","","","","","","","","","","",""
"psychophysics","188","705588","0.0-16.0-1.5","5fea2e6613597c51a166f24d","609a8bf73b2ac84e2732f618","60a0edd4caeef8748b7ffc7a","null","","","","null","","","","key","17.28510714285741","619","277","","","","","","","","","","","","","146","-1","4","false","","","",""
"psychophysics","189","706344","0.0-16.0-2.5","5fea2e6613597c51a166f24d","609a8bf73b2ac84e2732f618","60a0edd4caeef8748b7ffc7a","748.3749999664724","","","","77","","","","key","17.91226829268129","619","277","","","","","","","","","","","","","","","","","","","",""
"psychophysics","190","707167","0.0-16.0-0.6","5fea2e6613597c51a166f24d","609a8bf73b2ac84e2732f618","60a0edd4caeef8748b7ffc7a","null","","","","null","","","","key","19.073428571429325","619","277","","","","","","","","","","","","","","","","","","","",""
"psychophysics","191","707679","0.0-16.0-1.6","5fea2e6613597c51a166f24d","609a8bf73b2ac84e2732f618","60a0edd4caeef8748b7ffc7a","null","","","","null","","","","key","20.16662499999802","619","277","","","","","","","","","","","","","146","1","4","false","","","",""
"psychophysics","192","708553","0.0-16.0-2.6","5fea2e6613597c51a166f24d","609a8bf73b2ac84e2732f618","60a0edd4caeef8748b7ffc7a","868.7800000188872","","","","90","","","","key","18.46685106383062","619","277","","","","","","","","","","","","","","","","","","","",""
"psychophysics","193","710053","0.0-16.0-0.7","5fea2e6613597c51a166f24d","609a8bf73b2ac84e2732f618","60a0edd4caeef8748b7ffc7a","null","","","","null","","","","key","17.896072289156056","619","277","","","","","","","","","","","","","","","","","","","",""
"psychophysics","194","710559","0.0-16.0-1.7","5fea2e6613597c51a166f24d","609a8bf73b2ac84e2732f618","60a0edd4caeef8748b7ffc7a","null","","","","null","","","","key","17.92399999999907","619","277","","","","","","","","","","","","","146","-1","6","false","","","",""
"psychophysics","195","712243","0.0-16.0-2.7","5fea2e6613597c51a166f24d","609a8bf73b2ac84e2732f618","60a0edd4caeef8748b7ffc7a","1679.8000000417233","","","","77","","","","key","18.776136363636894","619","277","","","","","","","","","","","","","","","","","","","",""
"psychophysics","196","712944","0.0-16.0-0.8","5fea2e6613597c51a166f24d","609a8bf73b2ac84e2732f618","60a0edd4caeef8748b7ffc7a","null","","","","null","","","","key","19.00816666666651","619","277","","","","","","","","","","","","","","","","","","","",""
"psychophysics","197","713450","0.0-16.0-1.8","5fea2e6613597c51a166f24d","609a8bf73b2ac84e2732f618","60a0edd4caeef8748b7ffc7a","null","","","","null","","","","key","17.925185185184496","619","277","","","","","","","","","","","","","146","1","5","false","","","",""
"psychophysics","198","715948","0.0-16.0-2.8","5fea2e6613597c51a166f24d","609a8bf73b2ac84e2732f618","60a0edd4caeef8748b7ffc7a","2488.6850000475533","","","","90","","","","key","18.697218045112642","619","277","","","","","","","","","","","","","","","","","","","",""
"psychophysics","199","716652","0.0-16.0-0.9","5fea2e6613597c51a166f24d","609a8bf73b2ac84e2732f618","60a0edd4caeef8748b7ffc7a","null","","","","null","","","","key","19.54948571428457","619","277","","","","","","","","","","","","","","","","","","","",""
"psychophysics","200","717160","0.0-16.0-1.9","5fea2e6613597c51a166f24d","609a8bf73b2ac84e2732f618","60a0edd4caeef8748b7ffc7a","null","","","","null","","","","key","20.863375000000815","619","277","","","","","","","","","","","","","146","-1","3","false","","","",""
"psychophysics","201","718633","0.0-16.0-2.9","5fea2e6613597c51a166f24d","609a8bf73b2ac84e2732f618","60a0edd4caeef8748b7ffc7a","1467.6350000081584","","","","90","","","","key","17.942174999999406","619","277","","","","","","","","","","","","","","","","","","","",""
"psychophysics","202","719745","0.0-16.0-0.10","5fea2e6613597c51a166f24d","609a8bf73b2ac84e2732f618","60a0edd4caeef8748b7ffc7a","null","","","","null","","","","key","17.497741935483646","619","277","","","","","","","","","","","","","","","","","","","",""
"psychophysics","203","720250","0.0-16.0-1.10","5fea2e6613597c51a166f24d","609a8bf73b2ac84e2732f618","60a0edd4caeef8748b7ffc7a","null","","","","null","","","","key","16.690566666664868","619","277","","","","","","","","","","","","","146","1","3","false","","","",""
"psychophysics","204","721253","0.0-16.0-2.10","5fea2e6613597c51a166f24d","609a8bf73b2ac84e2732f618","60a0edd4caeef8748b7ffc7a","997.2300000372343","","","","90","","","","key","16.69035593220388","619","277","","","","","","","","","","","","","","","","","","","",""
"psychophysics","205","722370","0.0-16.0-0.11","5fea2e6613597c51a166f24d","609a8bf73b2ac84e2732f618","60a0edd4caeef8748b7ffc7a","null","","","","null","","","","key","18.991586206896343","619","277","","","","","","","","","","","","","","","","","","","",""
"psychophysics","206","722876","0.0-16.0-1.11","5fea2e6613597c51a166f24d","609a8bf73b2ac84e2732f618","60a0edd4caeef8748b7ffc7a","null","","","","null","","","","key","17.973461538463688","619","277","","","","","","","","","","","","","146","-1","5","false","","","",""
"psychophysics","207","723671","0.0-16.0-2.11","5fea2e6613597c51a166f24d","609a8bf73b2ac84e2732f618","60a0edd4caeef8748b7ffc7a","792.0300000114366","","","","77","","","","key","18.243372093022497","619","277","","","","","","","","","","","","","","","","","","","",""
"psychophysics","208","724495","0.0-16.0-0.12","5fea2e6613597c51a166f24d","609a8bf73b2ac84e2732f618","60a0edd4caeef8748b7ffc7a","null","","","","null","","","","key","17.04614893617257","619","277","","","","","","","","","","","","","","","","","","","",""
"psychophysics","209","724999","0.0-16.0-1.12","5fea2e6613597c51a166f24d","609a8bf73b2ac84e2732f618","60a0edd4caeef8748b7ffc7a","null","","","","null","","","","key","18.61576923076959","619","277","","","","","","","","","","","","","146","1","0","false","","","",""
"psychophysics","210","726712","0.0-16.0-2.12","5fea2e6613597c51a166f24d","609a8bf73b2ac84e2732f618","60a0edd4caeef8748b7ffc7a","1704.9600000027567","","","","77","","","","key","18.30491397849419","619","277","","","","","","","","","","","","","","","","","","","",""
"psychophysics","211","727892","0.0-16.0-0.13","5fea2e6613597c51a166f24d","609a8bf73b2ac84e2732f618","60a0edd4caeef8748b7ffc7a","null","","","","null","","","","key","18.25371875000019","619","277","","","","","","","","","","","","","","","","","","","",""
"psychophysics","212","728399","0.0-16.0-1.13","5fea2e6613597c51a166f24d","609a8bf73b2ac84e2732f618","60a0edd4caeef8748b7ffc7a","null","","","","null","","","","key","17.283464285715517","619","277","","","","","","","","","","","","","146","-1","3","false","","","",""
"psychophysics","213","729123","0.0-16.0-2.13","5fea2e6613597c51a166f24d","609a8bf73b2ac84e2732f618","60a0edd4caeef8748b7ffc7a","719.0100000007078","","","","77","","","","key","18.94497297297081","619","277","","","","","","","","","","","","","","","","","","","",""
"psychophysics","214","729698","0.0-16.0-0.14","5fea2e6613597c51a166f24d","609a8bf73b2ac84e2732f618","60a0edd4caeef8748b7ffc7a","null","","","","null","","","","key","18.294677419351384","619","277","","","","","","","","","","","","","","","","","","","",""
"psychophysics","215","730202","0.0-16.0-1.14","5fea2e6613597c51a166f24d","609a8bf73b2ac84e2732f618","60a0edd4caeef8748b7ffc7a","null","","","","null","","","","key","17.924851851852576","619","277","","","","","","","","","","","","","146","1","2","false","","","",""
"psychophysics","216","730813","0.0-16.0-2.14","5fea2e6613597c51a166f24d","609a8bf73b2ac84e2732f618","60a0edd4caeef8748b7ffc7a","605.5449999985285","","","","90","","","","key","18.207303030303482","619","277","","","","","","","","","","","","","","","","","","","",""
"psychophysics","217","731791","0.0-16.0-0.15","5fea2e6613597c51a166f24d","609a8bf73b2ac84e2732f618","60a0edd4caeef8748b7ffc7a","null","","","","null","","","","key","19.47193750000103","619","277","","","","","","","","","","","","","","","","","","","",""
"psychophysics","218","732297","0.0-16.0-1.15","5fea2e6613597c51a166f24d","609a8bf73b2ac84e2732f618","60a0edd4caeef8748b7ffc7a","null","","","","null","","","","key","18.543888888886645","619","277","","","","","","","","","","","","","146","1","4","false","","","",""
"psychophysics","219","733303","0.0-16.0-2.15","5fea2e6613597c51a166f24d","609a8bf73b2ac84e2732f618","60a0edd4caeef8748b7ffc7a","1002.2499999613501","","","","90","","","","key","17.584660714286397","619","277","","","","","","","","","","","","","","","","","","","",""
"psychophysics","220","734489","0.0-16.0-0.16","5fea2e6613597c51a166f24d","609a8bf73b2ac84e2732f618","60a0edd4caeef8748b7ffc7a","null","","","","null","","","","key","17.974138461538733","619","277","","","","","","","","","","","","","","","","","","","",""
"psychophysics","221","734993","0.0-16.0-1.16","5fea2e6613597c51a166f24d","609a8bf73b2ac84e2732f618","60a0edd4caeef8748b7ffc7a","null","","","","null","","","","key","18.61623076923066","619","277","","","","","","","","","","","","","146","-1","5","false","","","",""
"psychophysics","222","735403","0.0-16.0-2.16","5fea2e6613597c51a166f24d","609a8bf73b2ac84e2732f618","60a0edd4caeef8748b7ffc7a","404.6400000224821","","","","77","","","","key","20.02839999999851","619","277","","","","","","","","","","","","","","","","","","","",""
"psychophysics","223","736094","0.0-16.0-0.17","5fea2e6613597c51a166f24d","609a8bf73b2ac84e2732f618","60a0edd4caeef8748b7ffc7a","null","","","","null","","","","key","17.11779487179294","619","277","","","","","","","","","","","","","","","","","","","",""
"psychophysics","224","736598","0.0-16.0-1.17","5fea2e6613597c51a166f24d","609a8bf73b2ac84e2732f618","60a0edd4caeef8748b7ffc7a","null","","","","null","","","","key","16.688034482757914","619","277","","","","","","","","","","","","","146","1","6","false","","","",""
"psychophysics","225","737194","0.0-16.0-2.17","5fea2e6613597c51a166f24d","609a8bf73b2ac84e2732f618","60a0edd4caeef8748b7ffc7a","592.8800000110641","","","","77","","","","key","18.25346874999741","619","277","","","","","","","","","","","","","","","","","","","",""
"psychophysics","226","738306","0.0-16.0-0.18","5fea2e6613597c51a166f24d","609a8bf73b2ac84e2732f618","60a0edd4caeef8748b7ffc7a","null","","","","null","","","","key","17.76598387096836","619","277","","","","","","","","","","","","","","","","","","","",""
"psychophysics","227","738812","0.0-16.0-1.18","5fea2e6613597c51a166f24d","609a8bf73b2ac84e2732f618","60a0edd4caeef8748b7ffc7a","null","","","","null","","","","key","20.164999999998447","619","277","","","","","","","","","","","","","146","-1","4","false","","","",""
"psychophysics","228","739472","0.0-16.0-2.18","5fea2e6613597c51a166f24d","609a8bf73b2ac84e2732f618","60a0edd4caeef8748b7ffc7a","655.4200000246055","","","","77","","","","key","18.652117647056002","619","277","","","","","","","","","","","","","","","","","","","",""
"psychophysics","229","740421","0.0-16.0-0.19","5fea2e6613597c51a166f24d","609a8bf73b2ac84e2732f618","60a0edd4caeef8748b7ffc7a","null","","","","null","","","","key","17.308018518519088","619","277","","","","","","","","","","","","","","","","","","","",""
"psychophysics","230","740926","0.0-16.0-1.19","5fea2e6613597c51a166f24d","609a8bf73b2ac84e2732f618","60a0edd4caeef8748b7ffc7a","null","","","","null","","","","key","17.264862068964906","619","277","","","","","","","","","","","","","146","-1","0","false","","","",""
"psychophysics","231","741477","0.0-16.0-2.19","5fea2e6613597c51a166f24d","609a8bf73b2ac84e2732f618","60a0edd4caeef8748b7ffc7a","547.0750000094995","","","","77","","","","key","17.2448333333324","619","277","","","","","","","","","","","","","","","","","","","",""
"psychophysics","232","742134","0.0-16.0-0.20","5fea2e6613597c51a166f24d","609a8bf73b2ac84e2732f618","60a0edd4caeef8748b7ffc7a","null","","","","null","","","","key","18.078749999998966","619","277","","","","","","","","","","","","","","","","","","","",""
"psychophysics","233","742636","0.0-16.0-1.20","5fea2e6613597c51a166f24d","609a8bf73b2ac84e2732f618","60a0edd4caeef8748b7ffc7a","null","","","","null","","","","key","16.69003448276058","619","277","","","","","","","","","","","","","146","-1","2","false","","","",""
"psychophysics","234","743297","0.0-16.0-2.20","5fea2e6613597c51a166f24d","609a8bf73b2ac84e2732f618","60a0edd4caeef8748b7ffc7a","658.7549999821931","","","","90","","","","key","16.689641025639737","619","277","","","","","","","","","","","","","","","","","","","",""
"psychophysics","235","744011","0.0-16.0-0.21","5fea2e6613597c51a166f24d","609a8bf73b2ac84e2732f618","60a0edd4caeef8748b7ffc7a","null","","","","null","","","","key","17.10725000000093","619","277","","","","","","","","","","","","","","","","","","","",""
"psychophysics","236","744513","0.0-16.0-1.21","5fea2e6613597c51a166f24d","609a8bf73b2ac84e2732f618","60a0edd4caeef8748b7ffc7a","null","","","","null","","","","key","16.690566666668747","619","277","","","","","","","","","","","","","146","1","5","false","","","",""
"psychophysics","237","745077","0.0-16.0-2.21","5fea2e6613597c51a166f24d","609a8bf73b2ac84e2732f618","60a0edd4caeef8748b7ffc7a","560.0050000357442","","","","77","","","","key","16.690031250000175","619","277","","","","","","","","","","","","","","","","","","","",""
"psychophysics","238","745880","0.0-16.0-0.22","5fea2e6613597c51a166f24d","609a8bf73b2ac84e2732f618","60a0edd4caeef8748b7ffc7a","null","","","","null","","","","key","16.68972340425318","619","277","","","","","","","","","","","","","","","","","","","",""
"psychophysics","239","746382","0.0-16.0-1.22","5fea2e6613597c51a166f24d","609a8bf73b2ac84e2732f618","60a0edd4caeef8748b7ffc7a","null","","","","null","","","","key","16.6900666666644","619","277","","","","","","","","","","","","","146","1","3","false","","","",""
"psychophysics","240","746860","0.0-16.0-2.22","5fea2e6613597c51a166f24d","609a8bf73b2ac84e2732f618","60a0edd4caeef8748b7ffc7a","474.99999997671694","","","","77","","","","key","16.689222222224256","619","277","","","","","","","","","","","","","","","","","","","",""
"psychophysics","241","748324","0.0-16.0-0.23","5fea2e6613597c51a166f24d","609a8bf73b2ac84e2732f618","60a0edd4caeef8748b7ffc7a","null","","","","null","","","","key","16.689735632183716","619","277","","","","","","","","","","","","","","","","","","","",""
"psychophysics","242","748827","0.0-16.0-1.23","5fea2e6613597c51a166f24d","609a8bf73b2ac84e2732f618","60a0edd4caeef8748b7ffc7a","null","","","","null","","","","key","16.689206896554516","619","277","","","","","","","","","","","","","146","-1","6","false","","","",""
"psychophysics","243","749586","0.0-16.0-2.23","5fea2e6613597c51a166f24d","609a8bf73b2ac84e2732f618","60a0edd4caeef8748b7ffc7a","757.3549999506213","","","","77","","","","key","17.068818181816656","619","277","","","","","","","","","","","","","","","","","","","",""
"html-keyboard-response","244","753219","0.0-17.0","5fea2e6613597c51a166f24d","609a8bf73b2ac84e2732f618","60a0edd4caeef8748b7ffc7a","3631.004999973811","<p>Well Done !</p><p>Training Complete. Press the spacebar to start.</p><p>DON'T EXIT THE FULL SCREEN MODE</p>","","","32","","","","","","","","","","","","","","","","","","","","","","","","","","",""
"psychophysics","245","756616","0.0-18.0-0.0","5fea2e6613597c51a166f24d","609a8bf73b2ac84e2732f618","60a0edd4caeef8748b7ffc7a","null","","","","null","","","","key","16.69603571428507","619","277","","","","","","","","","","","","","","","","","","","",""
"psychophysics","246","757119","0.0-18.0-1.0","5fea2e6613597c51a166f24d","609a8bf73b2ac84e2732f618","60a0edd4caeef8748b7ffc7a","null","","","","null","","","","key","16.68968965517004","619","277","","","","","","","","","","","","","146","1","3","true","","","",""
"psychophysics","247","759260","0.0-18.0-2.0","5fea2e6613597c51a166f24d","609a8bf73b2ac84e2732f618","60a0edd4caeef8748b7ffc7a","2138.589999987744","","","","90","","","","key","16.689661417322373","619","277","","","","","","","","","","","","","","","","","","","",""
"psychophysics","248","760201","0.0-18.0-0.1","5fea2e6613597c51a166f24d","609a8bf73b2ac84e2732f618","60a0edd4caeef8748b7ffc7a","null","","","","null","","","","key","16.689571428572112","619","277","","","","","","","","","","","","","","","","","","","",""
"psychophysics","249","760704","0.0-18.0-1.1","5fea2e6613597c51a166f24d","609a8bf73b2ac84e2732f618","60a0edd4caeef8748b7ffc7a","null","","","","null","","","","key","16.691310344825915","619","277","","","","","","","","","","","","","146","1","2","true","","","",""
"psychophysics","250","762621","0.0-18.0-2.1","5fea2e6613597c51a166f24d","609a8bf73b2ac84e2732f618","60a0edd4caeef8748b7ffc7a","1914.6799999871291","","","","90","","","","key","16.689754385964765","619","277","","","","","","","","","","","","","","","","","","","",""
"psychophysics","251","763579","0.0-18.0-0.2","5fea2e6613597c51a166f24d","609a8bf73b2ac84e2732f618","60a0edd4caeef8748b7ffc7a","null","","","","null","","","","key","16.689785714284103","619","277","","","","","","","","","","","","","","","","","","","",""
"psychophysics","252","764082","0.0-18.0-1.2","5fea2e6613597c51a166f24d","609a8bf73b2ac84e2732f618","60a0edd4caeef8748b7ffc7a","null","","","","null","","","","key","16.688896551724234","619","277","","","","","","","","","","","","","146","1","0","true","","","",""
"psychophysics","253","764897","0.0-18.0-2.2","5fea2e6613597c51a166f24d","609a8bf73b2ac84e2732f618","60a0edd4caeef8748b7ffc7a","812.6399999600835","","","","77","","","","key","16.689666666667716","619","277","","","","","","","","","","","","","","","","","","","",""
"psychophysics","254","765545","0.0-18.0-0.3","5fea2e6613597c51a166f24d","609a8bf73b2ac84e2732f618","60a0edd4caeef8748b7ffc7a","null","","","","null","","","","key","16.689526315790747","619","277","","","","","","","","","","","","","","","","","","","",""
"psychophysics","255","766047","0.0-18.0-1.3","5fea2e6613597c51a166f24d","609a8bf73b2ac84e2732f618","60a0edd4caeef8748b7ffc7a","null","","","","null","","","","key","16.6883448275882","619","277","","","","","","","","","","","","","146","-1","4","true","","","",""
"psychophysics","256","766505","0.0-18.0-2.3","5fea2e6613597c51a166f24d","609a8bf73b2ac84e2732f618","60a0edd4caeef8748b7ffc7a","455.40500001516193","","","","90","","","","key","16.688769230771307","619","277","","","","","","","","","","","","","","","","","","","",""
"psychophysics","257","767375","0.0-18.0-0.4","5fea2e6613597c51a166f24d","609a8bf73b2ac84e2732f618","60a0edd4caeef8748b7ffc7a","null","","","","null","","","","key","16.689549019608155","619","277","","","","","","","","","","","","","","","","","","","",""
"psychophysics","258","767877","0.0-18.0-1.4","5fea2e6613597c51a166f24d","609a8bf73b2ac84e2732f618","60a0edd4caeef8748b7ffc7a","null","","","","null","","","","key","16.69043333333296","619","277","","","","","","","","","","","","","146","-1","6","true","","","",""
"psychophysics","259","768359","0.0-18.0-2.4","5fea2e6613597c51a166f24d","609a8bf73b2ac84e2732f618","60a0edd4caeef8748b7ffc7a","479.01000001002103","","","","77","","","","key","16.69003703703897","619","277","","","","","","","","","","","","","","","","","","","",""
"psychophysics","260","769835","0.0-18.0-0.5","5fea2e6613597c51a166f24d","609a8bf73b2ac84e2732f618","60a0edd4caeef8748b7ffc7a","null","","","","null","","","","key","16.68999999999968","619","277","","","","","","","","","","","","","","","","","","","",""
"psychophysics","261","770337","0.0-18.0-1.5","5fea2e6613597c51a166f24d","609a8bf73b2ac84e2732f618","60a0edd4caeef8748b7ffc7a","null","","","","null","","","","key","16.69048275862387","619","277","","","","","","","","","","","","","146","1","4","true","","","",""
"psychophysics","262","771324","0.0-18.0-2.5","5fea2e6613597c51a166f24d","609a8bf73b2ac84e2732f618","60a0edd4caeef8748b7ffc7a","984.8000000347383","","","","90","","","","key","16.68989655172356","619","277","","","","","","","","","","","","","","","","","","","",""
"psychophysics","263","772433","0.0-18.0-0.6","5fea2e6613597c51a166f24d","609a8bf73b2ac84e2732f618","60a0edd4caeef8748b7ffc7a","null","","","","null","","","","key","16.689651515151404","619","277","","","","","","","","","","","","","","","","","","","",""
"psychophysics","264","772937","0.0-18.0-1.6","5fea2e6613597c51a166f24d","609a8bf73b2ac84e2732f618","60a0edd4caeef8748b7ffc7a","null","","","","null","","","","key","16.6890689655175","619","277","","","","","","","","","","","","","146","1","6","true","","","",""
"psychophysics","265","773785","0.0-18.0-2.6","5fea2e6613597c51a166f24d","609a8bf73b2ac84e2732f618","60a0edd4caeef8748b7ffc7a","845.5199999734759","","","","90","","","","key","16.689820000000765","619","277","","","","","","","","","","","","","","","","","","","",""
"psychophysics","266","774368","0.0-18.0-0.7","5fea2e6613597c51a166f24d","609a8bf73b2ac84e2732f618","60a0edd4caeef8748b7ffc7a","null","","","","null","","","","key","16.689454545457423","619","277","","","","","","","","","","","","","","","","","","","",""
"psychophysics","267","774870","0.0-18.0-1.7","5fea2e6613597c51a166f24d","609a8bf73b2ac84e2732f618","60a0edd4caeef8748b7ffc7a","null","","","","null","","","","key","16.690033333333364","619","277","","","","","","","","","","","","","146","-1","0","true","","","",""
"psychophysics","268","775321","0.0-18.0-2.7","5fea2e6613597c51a166f24d","609a8bf73b2ac84e2732f618","60a0edd4caeef8748b7ffc7a","448.74500000150874","","","","90","","","","key","16.688538461538535","619","277","","","","","","","","","","","","","","","","","","","",""
"psychophysics","269","776437","0.0-18.0-0.8","5fea2e6613597c51a166f24d","609a8bf73b2ac84e2732f618","60a0edd4caeef8748b7ffc7a","null","","","","null","","","","key","16.68927692307625","619","277","","","","","","","","","","","","","","","","","","","",""
"psychophysics","270","776938","0.0-18.0-1.8","5fea2e6613597c51a166f24d","609a8bf73b2ac84e2732f618","60a0edd4caeef8748b7ffc7a","null","","","","null","","","","key","16.689793103450814","619","277","","","","","","","","","","","","","146","-1","5","true","","","",""
"psychophysics","271","777352","0.0-18.0-2.8","5fea2e6613597c51a166f24d","609a8bf73b2ac84e2732f618","60a0edd4caeef8748b7ffc7a","411.11499996623024","","","","77","","","","key","16.689833333332597","619","277","","","","","","","","","","","","","","","","","","","",""
"psychophysics","272","778348","0.0-18.0-0.9","5fea2e6613597c51a166f24d","609a8bf73b2ac84e2732f618","60a0edd4caeef8748b7ffc7a","null","","","","null","","","","key","16.689796610169065","619","277","","","","","","","","","","","","","","","","","","","",""
"psychophysics","273","778850","0.0-18.0-1.9","5fea2e6613597c51a166f24d","609a8bf73b2ac84e2732f618","60a0edd4caeef8748b7ffc7a","null","","","","null","","","","key","16.68968965517004","619","277","","","","","","","","","","","","","146","-1","2","true","","","",""
"psychophysics","274","779664","0.0-18.0-2.9","5fea2e6613597c51a166f24d","609a8bf73b2ac84e2732f618","60a0edd4caeef8748b7ffc7a","812.6599999959581","","","","90","","","","key","16.68968749999961","619","277","","","","","","","","","","","","","","","","","","","",""
"psychophysics","275","780205","0.0-18.0-0.10","5fea2e6613597c51a166f24d","609a8bf73b2ac84e2732f618","60a0edd4caeef8748b7ffc7a","null","","","","null","","","","key","16.68961290322665","619","277","","","","","","","","","","","","","","","","","","","",""
"psychophysics","276","780707","0.0-18.0-1.10","5fea2e6613597c51a166f24d","609a8bf73b2ac84e2732f618","60a0edd4caeef8748b7ffc7a","null","","","","null","","","","key","16.69034482758685","619","277","","","","","","","","","","","","","146","1","5","true","","","",""
"psychophysics","277","781796","0.0-18.0-2.10","5fea2e6613597c51a166f24d","609a8bf73b2ac84e2732f618","60a0edd4caeef8748b7ffc7a","1086.5549999871291","","","","90","","","","key","16.689781250001033","619","277","","","","","","","","","","","","","","","","","","","",""
"psychophysics","278","783274","0.0-18.0-0.11","5fea2e6613597c51a166f24d","609a8bf73b2ac84e2732f618","60a0edd4caeef8748b7ffc7a","null","","","","null","","","","key","16.68943181818097","619","277","","","","","","","","","","","","","","","","","","","",""
"psychophysics","279","783776","0.0-18.0-1.11","5fea2e6613597c51a166f24d","609a8bf73b2ac84e2732f618","60a0edd4caeef8748b7ffc7a","null","","","","null","","","","key","16.6897931034468","619","277","","","","","","","","","","","","","146","-1","3","true","","","",""
"psychophysics","280","784198","0.0-18.0-2.11","5fea2e6613597c51a166f24d","609a8bf73b2ac84e2732f618","60a0edd4caeef8748b7ffc7a","418.924999947194","","","","77","","","","key","16.688625000000076","619","277","","","","","","","","","","","","","","","","","","","",""
"psychophysics","281","785562","0.0-18.0-0.12","5fea2e6613597c51a166f24d","609a8bf73b2ac84e2732f618","60a0edd4caeef8748b7ffc7a","null","","","","null","","","","key","16.689296296297538","619","277","","","","","","","","","","","","","","","","","","","",""
"psychophysics","282","786064","0.0-18.0-1.12","5fea2e6613597c51a166f24d","609a8bf73b2ac84e2732f618","60a0edd4caeef8748b7ffc7a","null","","","","null","","","","key","16.689724137930295","619","277","","","","","","","","","","","","","146","-1","3","true","","","",""
"psychophysics","283","786474","0.0-18.0-2.12","5fea2e6613597c51a166f24d","609a8bf73b2ac84e2732f618","60a0edd4caeef8748b7ffc7a","407.8350000199862","","","","77","","","","key","16.68970833333151","619","277","","","","","","","","","","","","","","","","","","","",""
"psychophysics","284","787613","0.0-18.0-0.13","5fea2e6613597c51a166f24d","609a8bf73b2ac84e2732f618","60a0edd4caeef8748b7ffc7a","null","","","","null","","","","key","16.68961194029891","619","277","","","","","","","","","","","","","","","","","","","",""
"psychophysics","285","788114","0.0-18.0-1.13","5fea2e6613597c51a166f24d","609a8bf73b2ac84e2732f618","60a0edd4caeef8748b7ffc7a","null","","","","null","","","","key","16.69000000000032","619","277","","","","","","","","","","","","","146","-1","6","true","","","",""
"psychophysics","286","788491","0.0-18.0-2.13","5fea2e6613597c51a166f24d","609a8bf73b2ac84e2732f618","60a0edd4caeef8748b7ffc7a","374.3350000004284","","","","77","","","","key","16.690772727274716","619","277","","","","","","","","","","","","","","","","","","","",""
"psychophysics","287","789418","0.0-18.0-0.14","5fea2e6613597c51a166f24d","609a8bf73b2ac84e2732f618","60a0edd4caeef8748b7ffc7a","null","","","","null","","","","key","16.690528301886758","619","277","","","","","","","","","","","","","","","","","","","",""
"psychophysics","288","789922","0.0-18.0-1.14","5fea2e6613597c51a166f24d","609a8bf73b2ac84e2732f618","60a0edd4caeef8748b7ffc7a","null","","","","null","","","","key","17.926370370369924","619","277","","","","","","","","","","","","","146","-1","4","true","","","",""
"psychophysics","289","790376","0.0-18.0-2.14","5fea2e6613597c51a166f24d","609a8bf73b2ac84e2732f618","60a0edd4caeef8748b7ffc7a","440.7999999821186","","","","77","","","","key","18.0794999999974","619","277","","","","","","","","","","","","","","","","","","","",""
"psychophysics","290","791147","0.0-18.0-0.15","5fea2e6613597c51a166f24d","609a8bf73b2ac84e2732f618","60a0edd4caeef8748b7ffc7a","null","","","","null","","","","key","17.853534883722055","619","277","","","","","","","","","","","","","","","","","","","",""
"psychophysics","291","791651","0.0-18.0-1.15","5fea2e6613597c51a166f24d","609a8bf73b2ac84e2732f618","60a0edd4caeef8748b7ffc7a","null","","","","null","","","","key","17.284642857146018","619","277","","","","","","","","","","","","","146","1","4","true","","","",""
"psychophysics","292","792455","0.0-18.0-2.15","5fea2e6613597c51a166f24d","609a8bf73b2ac84e2732f618","60a0edd4caeef8748b7ffc7a","800.1100000110455","","","","90","","","","key","17.827295454547063","619","277","","","","","","","","","","","","","","","","","","","",""
"psychophysics","293","793560","0.0-18.0-0.16","5fea2e6613597c51a166f24d","609a8bf73b2ac84e2732f618","60a0edd4caeef8748b7ffc7a","null","","","","null","","","","key","16.950421875000757","619","277","","","","","","","","","","","","","","","","","","","",""
"psychophysics","294","794067","0.0-18.0-1.16","5fea2e6613597c51a166f24d","609a8bf73b2ac84e2732f618","60a0edd4caeef8748b7ffc7a","null","","","","null","","","","key","17.88232142857409","619","277","","","","","","","","","","","","","146","1","6","true","","","",""
"psychophysics","295","794595","0.0-18.0-2.16","5fea2e6613597c51a166f24d","609a8bf73b2ac84e2732f618","60a0edd4caeef8748b7ffc7a","523.1349999667145","","","","90","","","","key","17.88253571428608","619","277","","","","","","","","","","","","","","","","","","","",""
"psychophysics","296","795932","0.0-18.0-0.17","5fea2e6613597c51a166f24d","609a8bf73b2ac84e2732f618","60a0edd4caeef8748b7ffc7a","null","","","","null","","","","key","18.061232876711944","619","277","","","","","","","","","","","","","","","","","","","",""
"psychophysics","297","796438","0.0-18.0-1.17","5fea2e6613597c51a166f24d","609a8bf73b2ac84e2732f618","60a0edd4caeef8748b7ffc7a","null","","","","null","","","","key","17.883357142854948","619","277","","","","","","","","","","","","","146","1","0","true","","","",""
"psychophysics","298","798054","0.0-18.0-2.17","5fea2e6613597c51a166f24d","609a8bf73b2ac84e2732f618","60a0edd4caeef8748b7ffc7a","1611.2049999646842","","","","90","","","","key","18.43682558139445","619","277","","","","","","","","","","","","","","","","","","","",""
"psychophysics","299","799501","0.0-18.0-0.18","5fea2e6613597c51a166f24d","609a8bf73b2ac84e2732f618","60a0edd4caeef8748b7ffc7a","null","","","","null","","","","key","19.433178082191425","619","277","","","","","","","","","","","","","","","","","","","",""
"psychophysics","300","800006","0.0-18.0-1.18","5fea2e6613597c51a166f24d","609a8bf73b2ac84e2732f618","60a0edd4caeef8748b7ffc7a","null","","","","null","","","","key","17.883071428568137","619","277","","","","","","","","","","","","","146","1","2","true","","","",""
"psychophysics","301","801181","0.0-18.0-2.18","5fea2e6613597c51a166f24d","609a8bf73b2ac84e2732f618","60a0edd4caeef8748b7ffc7a","1171.6149999992922","","","","90","","","","key","18.279555555556843","619","277","","","","","","","","","","","","","","","","","","","",""
"psychophysics","302","802225","0.0-18.0-0.19","5fea2e6613597c51a166f24d","609a8bf73b2ac84e2732f618","60a0edd4caeef8748b7ffc7a","null","","","","null","","","","key","18.51016363636379","619","277","","","","","","","","","","","","","","","","","","","",""
"psychophysics","303","802731","0.0-18.0-1.19","5fea2e6613597c51a166f24d","609a8bf73b2ac84e2732f618","60a0edd4caeef8748b7ffc7a","null","","","","null","","","","key","18.541999999998584","619","277","","","","","","","","","","","","","146","-1","2","true","","","",""
"psychophysics","304","803101","0.0-18.0-2.19","5fea2e6613597c51a166f24d","609a8bf73b2ac84e2732f618","60a0edd4caeef8748b7ffc7a","365.46000000089407","","","","90","","","","key","16.68695238095132","619","277","","","","","","","","","","","","","","","","","","","",""
"psychophysics","305","803766","0.0-18.0-0.20","5fea2e6613597c51a166f24d","609a8bf73b2ac84e2732f618","60a0edd4caeef8748b7ffc7a","null","","","","null","","","","key","18.081555555555195","619","277","","","","","","","","","","","","","","","","","","","",""
"psychophysics","306","804270","0.0-18.0-1.20","5fea2e6613597c51a166f24d","609a8bf73b2ac84e2732f618","60a0edd4caeef8748b7ffc7a","null","","","","null","","","","key","19.471083333332597","619","277","","","","","","","","","","","","","146","1","5","true","","","",""
"psychophysics","307","804731","0.0-18.0-2.20","5fea2e6613597c51a166f24d","609a8bf73b2ac84e2732f618","60a0edd4caeef8748b7ffc7a","456.40499994624406","","","","77","","","","key","18.079749999999574","619","277","","","","","","","","","","","","","","","","","","","",""
"psychophysics","308","805306","0.0-18.0-0.21","5fea2e6613597c51a166f24d","609a8bf73b2ac84e2732f618","60a0edd4caeef8748b7ffc7a","null","","","","null","","","","key","17.733062499999505","619","277","","","","","","","","","","","","","","","","","","","",""
"psychophysics","309","805809","0.0-18.0-1.21","5fea2e6613597c51a166f24d","609a8bf73b2ac84e2732f618","60a0edd4caeef8748b7ffc7a","null","","","","null","","","","key","16.690620689656875","619","277","","","","","","","","","","","","","146","-1","0","true","","","",""
"psychophysics","310","806901","0.0-18.0-2.21","5fea2e6613597c51a166f24d","609a8bf73b2ac84e2732f618","60a0edd4caeef8748b7ffc7a","1088.5550000239164","","","","90","","","","key","18.70377586206927","619","277","","","","","","","","","","","","","","","","","","","",""
"psychophysics","311","807780","0.0-18.0-0.22","5fea2e6613597c51a166f24d","609a8bf73b2ac84e2732f618","60a0edd4caeef8748b7ffc7a","null","","","","null","","","","key","17.738062499998097","619","277","","","","","","","","","","","","","","","","","","","",""
"psychophysics","312","808286","0.0-18.0-1.22","5fea2e6613597c51a166f24d","609a8bf73b2ac84e2732f618","60a0edd4caeef8748b7ffc7a","null","","","","null","","","","key","16.689233333334172","619","277","","","","","","","","","","","","","146","1","3","true","","","",""
"psychophysics","313","809223","0.0-18.0-2.22","5fea2e6613597c51a166f24d","609a8bf73b2ac84e2732f618","60a0edd4caeef8748b7ffc7a","933.8699999498203","","","","90","","","","key","16.689418181817217","619","277","","","","","","","","","","","","","","","","","","","",""
"psychophysics","314","810404","0.0-18.0-0.23","5fea2e6613597c51a166f24d","609a8bf73b2ac84e2732f618","60a0edd4caeef8748b7ffc7a","null","","","","null","","","","key","18.279111111111614","619","277","","","","","","","","","","","","","","","","","","","",""
"psychophysics","315","810910","0.0-18.0-1.23","5fea2e6613597c51a166f24d","609a8bf73b2ac84e2732f618","60a0edd4caeef8748b7ffc7a","null","","","","null","","","","key","17.925777777775053","619","277","","","","","","","","","","","","","146","-1","5","true","","","",""
"psychophysics","316","811314","0.0-18.0-2.23","5fea2e6613597c51a166f24d","609a8bf73b2ac84e2732f618","60a0edd4caeef8748b7ffc7a","400.1200000056997","","","","77","","","","key","18.27947619047371","619","277","","","","","","","","","","","","","","","","","","","",""
"psychophysics","317","812094","0.0-18.0-0.24","5fea2e6613597c51a166f24d","609a8bf73b2ac84e2732f618","60a0edd4caeef8748b7ffc7a","null","","","","null","","","","key","16.690456521740366","619","277","","","","","","","","","","","","","","","","","","","",""
"psychophysics","318","812599","0.0-18.0-1.24","5fea2e6613597c51a166f24d","609a8bf73b2ac84e2732f618","60a0edd4caeef8748b7ffc7a","null","","","","null","","","","key","16.687896551720893","619","277","","","","","","","","","","","","","146","1","5","true","","","",""
"psychophysics","319","813682","0.0-18.0-2.24","5fea2e6613597c51a166f24d","609a8bf73b2ac84e2732f618","60a0edd4caeef8748b7ffc7a","1079.2350000119768","","","","90","","","","key","16.954603174603395","619","277","","","","","","","","","","","","","","","","","","","",""
"psychophysics","320","814448","0.0-18.0-0.25","5fea2e6613597c51a166f24d","609a8bf73b2ac84e2732f618","60a0edd4caeef8748b7ffc7a","null","","","","null","","","","key","16.691066666666625","619","277","","","","","","","","","","","","","","","","","","","",""
"psychophysics","321","814953","0.0-18.0-1.25","5fea2e6613597c51a166f24d","609a8bf73b2ac84e2732f618","60a0edd4caeef8748b7ffc7a","null","","","","null","","","","key","18.612961538458386","619","277","","","","","","","","","","","","","146","1","3","true","","","",""
"psychophysics","322","815518","0.0-18.0-2.25","5fea2e6613597c51a166f24d","609a8bf73b2ac84e2732f618","60a0edd4caeef8748b7ffc7a","560.2749999961816","","","","77","","","","key","18.358233333332464","619","277","","","","","","","","","","","","","","","","","","","",""
"psychophysics","323","816658","0.0-18.0-0.26","5fea2e6613597c51a166f24d","609a8bf73b2ac84e2732f618","60a0edd4caeef8748b7ffc7a","null","","","","null","","","","key","17.471843749999607","619","277","","","","","","","","","","","","","","","","","","","",""
"psychophysics","324","817163","0.0-18.0-1.26","5fea2e6613597c51a166f24d","609a8bf73b2ac84e2732f618","60a0edd4caeef8748b7ffc7a","null","","","","null","","","","key","17.88410714285731","619","277","","","","","","","","","","","","","146","1","0","true","","","",""
"psychophysics","325","817639","0.0-18.0-2.26","5fea2e6613597c51a166f24d","609a8bf73b2ac84e2732f618","60a0edd4caeef8748b7ffc7a","471.0250000352971","","","","90","","","","key","18.776333333332634","619","277","","","","","","","","","","","","","","","","","","","",""
"psychophysics","326","818351","0.0-18.0-0.27","5fea2e6613597c51a166f24d","609a8bf73b2ac84e2732f618","60a0edd4caeef8748b7ffc7a","null","","","","null","","","","key","18.544722222221836","619","277","","","","","","","","","","","","","","","","","","","",""
"psychophysics","327","818854","0.0-18.0-1.27","5fea2e6613597c51a166f24d","609a8bf73b2ac84e2732f618","60a0edd4caeef8748b7ffc7a","null","","","","null","","","","key","18.614115384613307","619","277","","","","","","","","","","","","","146","-1","3","true","","","",""
"psychophysics","328","819749","0.0-18.0-2.27","5fea2e6613597c51a166f24d","609a8bf73b2ac84e2732f618","60a0edd4caeef8748b7ffc7a","889.7649999707937","","","","90","","","","key","17.711387755102194","619","277","","","","","","","","","","","","","","","","","","","",""
"psychophysics","329","821194","0.0-18.0-0.28","5fea2e6613597c51a166f24d","609a8bf73b2ac84e2732f618","60a0edd4caeef8748b7ffc7a","null","","","","null","","","","key","17.29099999999919","619","277","","","","","","","","","","","","","","","","","","","",""
"psychophysics","330","821697","0.0-18.0-1.28","5fea2e6613597c51a166f24d","609a8bf73b2ac84e2732f618","60a0edd4caeef8748b7ffc7a","null","","","","null","","","","key","16.688137931034674","619","277","","","","","","","","","","","","","146","1","6","true","","","",""
"psychophysics","331","822080","0.0-18.0-2.28","5fea2e6613597c51a166f24d","609a8bf73b2ac84e2732f618","60a0edd4caeef8748b7ffc7a","378.8749999948777","","","","77","","","","key","17.484809523808682","619","277","","","","","","","","","","","","","","","","","","","",""
"psychophysics","332","822744","0.0-18.0-0.29","5fea2e6613597c51a166f24d","609a8bf73b2ac84e2732f618","60a0edd4caeef8748b7ffc7a","null","","","","null","","","","key","17.59245945945873","619","277","","","","","","","","","","","","","","","","","","","",""
