"trial_type","trial_index","time_elapsed","internal_node_id","rt","stimulus","button_pressed","success","key_press","responses","isData","view_history","response_type","avg_frame_time","center_x","center_y","isSC","stim_side","trial_luminance","step_size","nReversal","correct","prev_ans","isThreshold","SC_threshold","final_threshold","isLuminance","FF_luminance","luminance","stimSide","ISInt","isFF","question_order","isSPQ","isCAPS","isAQ"
"pavlovia","0","28","0.0-0.0","","","","","","","","","","","","","","","","","","","","","","","","","","","","","","","",""
"html-button-response","1","13126","0.0-1.0","13091.939999954775","<div style='background-color: white; width:60%; margin: auto; padding: 50px; text-align: justify; text-justify: inter-word; margin-bottom: 20px;'><h1 style='text-align: center;'>Consent Form</h1><p>Please read this consent form carefully before deciding whether you would like to participate in this study. You have to be 18 years old or older to participate to this study.</p><p style='text-decoration: underline;'>Participation is voluntary:</p><p>It is your choice whether or not to participate in this research. If you choose to participate, you may change your mind and leave the study at any time. Refusal to participate or stopping your participation will involve no penalty or loss of benefits to which you are otherwise entitled.</p><p style='text-decoration: underline;'>Purpose of the Study:</p><p>To understand the mechanisms underlying human perception.</p><p style='text-decoration: underline;'>What you will do in this study:</p><p>You will be presented with a series of visual images and then you will press buttons on the keyboard of your computer to respond to simple questions about the images (e.g. Were one or two images presented?). In addition, you will be asked to complete a questionnaire concerning your beliefs and everyday mental and perceptual experiences.'</p><p style='text-decoration: underline;'> Time Required:</p><p>The study will take 40 minutes to complete. </p><p style='text-decoration: underline;'>Risks:</p><p>There are no anticipated risks associated with participating in this study that are beyond those experienced in everyday life. </p><p style='text-decoration: underline;'>Benefits:</p><p>There are no benefits to you in participating in the study. However, this study may lead to a better understanding of how different kinds of visual information are used.</p><p style='text-decoration: underline;'>Compensation:</p><p>You will be paid US$6.6/hour. </p><p style='text-decoration: underline;'>Privacy and Confidentiality:</p><p>Your participation in this study will be anonymous. No personal information about your name or identity will be asked or recorded. This anonymous data will be stored for several years and may be used for a variety of research purposes. The overall results of the study may be published, or the data files may be shared with other researchers, but your identity will not be revealed in any way. The online services we are using for this study may temporarily store your data, but this data will be downloaded and then promptly deleted from those services.Your data will not be permanently associated with your name, IP address, or any other identifiable information (e.g., your information will only be connected to your payment, not to any of your responses), though they may be temporarily stored together before we download and separate them. Even so, no guarantee of internet survey security can be given because, although unlikely, transmissions can be intercepted and IP addresses can be identified. The anonymous data may be shared publicly (for example, in conjunction with a resulting academic publication).</p><p style='text-decoration: underline;'>Participation and Withdrawal:</p><p>Your participation in this study is completely voluntary. You may stop responding to the stimuli or stop answering questions if you so choose and without penalty by exiting the full screen mode, closing this tab of your browser or redirecting it to a different website.</p><p style='text-decoration: underline;'>Contact Info of the Researcher: </p><p>If you have questions about this study, or if you would like to talk to the research team, please contact David Melcher (david.melcher@nyu.edu, md5050@nyu.edu) at the Perception and Active Cognition Laboratory, New York University Abu Dhabi, Computational Research Building, Saadiyat Island, Abu Dhabi, UAE.This research has been reviewed by the New York University Abu Dhabi Institutional Review Board (NYUAD IRB). To contact about your rights in this research, for questions, suggestions, or complaints that are not addressed by the researchers, please email IRBnyuad@nyu.edu, or call the NYUAD IRB at +971 2 628 4313. </p></div>","0","","","","","","","","","","","","","","","","","","","","","","","","","","","","",""
"fullscreen","2","17211","0.0-2.0","","","","true","","","","","","","","","","","","","","","","","","","","","","","","","","","",""
"html-keyboard-response","3","55092","0.0-3.0","37878.30500002019","<p>Welcome !</p><p>READ CAREFULLY THE FOLLOWING INDICATIONS:</p><p>From this moment you have ~40 minutes to complete the experiment.</p><p>During the experiment you will be prompted to take several breaks. Each break should not last longer than 2-3 minutes.</p><p>Make sure that your computer is plugged in and it's not running on battery power, even if the battery is already fully charged.</p><p>Turn off your phone and music, make sure that you are in a quiet room and that you will not be distracted for the next hour.</p><p>Failure to comply with the instructions and indications provided during the experiment will most likely result in the rejection of your data.<p>Press the spacebar to start.</p>","","","32","","","","","","","","","","","","","","","","","","","","","","","","","","",""
"survey-html-form","4","63271","0.0-4.0","8176.485000003595","","","","","{""age"":""20"",""sex"":""F""}","true","","","","","","","","","","","","","","","","","","","","","","","","",""
"instructions","5","213098","0.0-5.0","149824.12499998463","","","","","","","[{""page_index"":0,""viewing_time"":124725.94999999274},{""page_index"":1,""viewing_time"":7268.06500001112},{""page_index"":2,""viewing_time"":17829.454999999143}]","","","","","","","","","","","","","","","","","","","","","","","",""
"psychophysics","6","214629","0.0-6.0-0.0","446.1649999720976","","","","37","","","","key","17.84167058823514","683","328.5","true","-1","180","30","0","-1","","","","","","","","","","","","","",""
"psychophysics","7","215835","0.0-6.0-0.1","201.69000001624227","","","","37","","","","key","16.665666666666866","683","328.5","true","-1","180","30","0","-1","-1","","","","","","","","","","","","",""
"psychophysics","8","216970","0.0-6.0-0.2","128.39999998686835","","","","37","","","","key","16.66514925373138","683","328.5","true","-1","150","30","0","-1","-1","","","","","","","","","","","","",""
"psychophysics","9","218080","0.0-6.0-0.3","99.30499998154119","","","","37","","","","key","16.665061538461863","683","328.5","true","-1","150","30","0","-1","-1","","","","","","","","","","","","",""
"psychophysics","10","220985","0.0-6.0-0.4","1900.7649999693967","","","","37","","","","key","16.76171676300579","683","328.5","true","-1","129","30","0","-1","-1","","","","","","","","","","","","",""
"psychophysics","11","222561","0.0-6.0-0.5","564.7100000060163","","","","37","","","","key","16.665311827957105","683","328.5","true","-1","129","30","0","-1","-1","","","","","","","","","","","","",""
"psychophysics","12","224602","0.0-6.0-0.6","1038.1399999605492","","","","39","","","","key","16.665196721311553","683","328.5","true","-1","129","24","1","1","-1","","","","","","","","","","","","",""
"psychophysics","13","226080","0.0-6.0-0.7","468.4850000194274","","","","39","","","","key","16.66510227272738","683","328.5","true","1","153","24","1","-1","1","","","","","","","","","","","","",""
"psychophysics","14","227435","0.0-6.0-0.8","351.1249999864958","","","","37","","","","key","16.665637499999868","683","328.5","true","-1","153","19.2","2","-1","-1","","","","","","","","","","","","",""
"psychophysics","15","228862","0.0-6.0-0.9","409.2749999836087","","","","39","","","","key","16.665023809523735","683","328.5","true","1","133.8","19.2","2","-1","-1","","","","","","","","","","","","",""
"psychophysics","16","230436","0.0-6.0-0.10","564.8849999997765","","","","39","","","","key","16.634892473118104","683","328.5","true","1","133.8","19.2","2","-1","-1","","","","","","","","","","","","",""
"psychophysics","17","232127","0.0-6.0-0.11","681.9999999715947","","","","39","","","","key","16.831659999999975","683","328.5","true","1","129","19.2","2","-1","-1","","","","","","","","","","","","",""
"psychophysics","18","234011","0.0-6.0-0.12","881.2200000393204","","","","39","","","","key","16.66578761061944","683","328.5","true","1","129","19.2","2","-1","-1","","","","","","","","","","","","",""
"psychophysics","19","235482","0.0-6.0-0.13","466.1049999995157","","","","37","","","","key","16.6651839080458","683","328.5","true","1","129","15.36","3","1","-1","","","","","","","","","","","","",""
"psychophysics","20","236927","0.0-6.0-0.14","441.74999999813735","","","","39","","","","key","16.665360465116507","683","328.5","true","1","144.36","15.36","3","-1","1","","","","","","","","","","","","",""
"psychophysics","21","238364","0.0-6.0-0.15","434.16499998420477","","","","39","","","","key","16.665440476190444","683","328.5","true","1","144.36","12.287999999999998","4","-1","-1","","","","","","","","","","","","",""
"psychophysics","22","240126","0.0-6.0-0.16","749.2099999799393","","","","37","","","","key","16.825682692307545","683","328.5","true","1","132.072","9.8304","5","1","-1","","","","","","","","","","","","",""
"psychophysics","23","241424","0.0-6.0-0.17","294.6850000298582","","","","39","","","","key","16.665142857142673","683","328.5","true","1","141.9024","9.8304","5","-1","1","","","","","","","","","","","","",""
"psychophysics","24","242923","0.0-6.0-0.18","493.3449999662116","","","","37","","","","key","16.66116853932565","683","328.5","true","-1","141.9024","7.864319999999999","6","-1","-1","","","","","","","","","","","","",""
"psychophysics","25","244828","0.0-6.0-0.19","901.1799999861978","","","","37","","","","key","16.665017543859697","683","328.5","true","1","134.03808","6.291456","7","1","-1","","","","","","","","","","","","",""
"psychophysics","26","246226","0.0-6.0-0.20","394.01000004727393","","","","37","","","","key","16.66491463414653","683","328.5","true","-1","140.32953600000002","6.291456","7","-1","1","","","","","","","","","","","","",""
"psychophysics","27","247632","0.0-6.0-0.21","401.40500001143664","","","","39","","","","key","16.66521428571425","683","328.5","true","1","140.32953600000002","5.033164800000001","8","-1","-1","","","","","","","","","","","","",""
"psychophysics","28","249325","0.0-6.0-0.22","682.570000004489","","","","39","","","","key","16.83360606060608","683","328.5","true","1","135.2963712","5.033164800000001","8","-1","-1","","","","","","","","","","","","",""
"psychophysics","29","251492","0.0-6.0-0.23","1162.7100000041537","","","","39","","","","key","16.665519379845065","683","328.5","true","1","135.2963712","5.033164800000001","8","-1","-1","","","","","","","","","","","","",""
"psychophysics","30","253592","0.0-6.0-0.24","1096.0349999950267","","","","39","","","","key","16.666150793650775","683","328.5","true","-1","130.2632064","4.0265318400000005","9","1","-1","","","","","","","","","","","","",""
"psychophysics","31","254976","0.0-6.0-0.25","381.3150000059977","","","","37","","","","key","16.665308641975482","683","328.5","true","-1","134.28973824","4.0265318400000005","9","-1","1","","","","","","","","","","","","",""
"psychophysics","32","257508","0.0-6.0-0.26","1528.3649999764748","","","","37","","","","key","16.665476821192204","683","328.5","true","-1","134.28973824","3.2212254720000004","10","-1","-1","","","","","","","","","","","","",""
"psychophysics","33","258895","0.0-6.0-0.27","377.0400000503287","","","","37","","","","key","16.868756097561125","683","328.5","true","-1","131.068512768","3.2212254720000004","10","-1","-1","","","","","","","","","","","","",""
"psychophysics","34","260680","0.0-6.0-0.28","781.4300000318326","","","","37","","","","key","16.66540566037732","683","328.5","true","1","131.068512768","2.5769803776000004","11","1","-1","","","","","","","","","","","","",""
"psychophysics","35","262127","0.0-6.0-0.29","416.9150000088848","","","","37","","","","key","16.86103529411724","683","328.5","true","-1","133.6454931456","2.5769803776000004","11","-1","1","","","","","","","","","","","","",""
"psychophysics","36","264011","0.0-6.0-0.30","879.590000025928","","","","37","","","","key","16.815414414414402","683","328.5","true","1","133.6454931456","2.0615843020800004","12","1","-1","","","","","","","","","","","","",""
"psychophysics","37","265391","0.0-6.0-0.31","375.80000003799796","","","","37","","","","key","16.665123456790123","683","328.5","true","-1","135.70707744768","2.0615843020800004","12","-1","1","","","","","","","","","","","","",""
"psychophysics","38","266910","0.0-6.0-0.32","515.4849999817088","","","","39","","","","key","16.6647142857143","683","328.5","true","1","135.70707744768","1.6492674416640005","13","-1","-1","","","","","","","","","","","","",""
"psychophysics","39","268898","0.0-6.0-0.33","983.5000000311993","","","","39","","","","key","16.665000000000255","683","328.5","true","-1","134.057810006016","1.3194139533312006","14","1","-1","","","","","","","","","","","","",""
"psychophysics","40","270166","0.0-6.0-0.34","258.60000000102445","","","","37","","","","key","16.664959999999652","683","328.5","true","-1","135.37722395934722","1.3194139533312006","14","-1","1","","","","","","","","","","","","",""
"psychophysics","41","271541","0.0-6.0-0.35","366.07499996898696","","","","37","","","","key","16.665085365853795","683","328.5","true","1","135.37722395934722","1.0555311626649604","15","1","-1","","","","","","","","","","","","",""
"psychophysics","42","273185","0.0-6.0-0.36","639.119999948889","","","","37","","","","key","16.66605154639134","683","328.5","true","-1","136.43275512201217","1.0555311626649604","15","-1","1","","","","","","","","","","","","",""
"psychophysics","43","275395","0.0-6.0-0.37","1204.1399999870919","","","","37","","","","key","16.665356060605987","683","328.5","true","1","136.43275512201217","1","16","1","-1","","","","","","","","","","","","",""
"psychophysics","44","277049","0.0-6.0-0.38","618.0599999497645","","","","37","","","","key","16.83659793814397","683","328.5","true","-1","137.43275512201217","1","16","-1","1","","","","","","","","","","","","",""
"psychophysics","45","278544","0.0-6.0-0.39","486.18000000715256","","","","39","","","","key","16.66539325842665","683","328.5","true","1","137.43275512201217","1","17","-1","-1","","","","","","","","","","","","",""
"html-keyboard-response","46","282409","0.0-7.0","3862.1450000209734","<p>Well Done !</p><p>Prepare for a new block.</p><p>DON'T EXIT THE FULL SCREEN MODE</p><p>Press the Spacebar to start.</p>","","","32","","","","","","","","","","","","","","","true","134.7976614410213","","","","","","","","","","",""
"psychophysics","47","283812","0.0-8.0-0.0","399.41000001272187","","","","37","","","","key","16.669166666666918","683","328.5","true","-1","180","30","0","-1","","","","","","","","","","","","","",""
"psychophysics","48","285189","0.0-8.0-0.1","369.3949999869801","","","","39","","","","key","16.665074074074603","683","328.5","true","1","180","30","0","-1","-1","","","","","","","","","","","","",""
"psychophysics","49","286673","0.0-8.0-0.2","480.27999995974824","","","","37","","","","key","16.665375000000164","683","328.5","true","-1","150","30","0","-1","-1","","","","","","","","","","","","",""
"psychophysics","50","288029","0.0-8.0-0.3","351.60500003257766","","","","37","","","","key","16.665172839505644","683","328.5","true","-1","150","30","0","-1","-1","","","","","","","","","","","","",""
"psychophysics","51","291660","0.0-8.0-0.4","2622.414999990724","","","","37","","","","key","16.66542857142851","683","328.5","true","-1","129","30","0","-1","-1","","","","","","","","","","","","",""
"psychophysics","52","293304","0.0-8.0-0.5","632.6249999692664","","","","37","","","","key","16.664907216494687","683","328.5","true","-1","129","30","0","-1","-1","","","","","","","","","","","","",""
"psychophysics","53","295124","0.0-8.0-0.6","815.6350000062957","","","","37","","","","key","16.66403669724775","683","328.5","true","-1","129","30","0","-1","-1","","","","","","","","","","","","",""
"psychophysics","54","296573","0.0-8.0-0.7","444.2999999737367","","","","37","","","","key","16.665337209302127","683","328.5","true","-1","129","30","0","-1","-1","","","","","","","","","","","","",""
"psychophysics","55","298190","0.0-8.0-0.8","611.2399999983609","","","","37","","","","key","16.66501041666682","683","328.5","true","-1","129","30","0","-1","-1","","","","","","","","","","","","",""
"psychophysics","56","299695","0.0-8.0-0.9","500.60000002849847","","","","37","","","","key","16.665719101123063","683","328.5","true","1","129","24","1","1","-1","","","","","","","","","","","","",""
"psychophysics","57","301364","0.0-8.0-0.10","658.9900000253692","","","","37","","","","key","16.66370707070702","683","328.5","true","-1","153","24","1","-1","1","","","","","","","","","","","","",""
"psychophysics","58","302743","0.0-8.0-0.11","369.1199999884702","","","","39","","","","key","16.665158536585427","683","328.5","true","1","153","19.2","2","-1","-1","","","","","","","","","","","","",""
"psychophysics","59","303873","0.0-8.0-0.12","126.96000002324581","","","","39","","","","key","16.66517910447733","683","328.5","true","1","133.8","19.2","2","-1","-1","","","","","","","","","","","","",""
"psychophysics","60","313880","0.0-8.0-0.13","9002.975000010338","","","","39","","","","key","16.69331605351171","683","328.5","true","1","133.8","19.2","2","-1","-1","","","","","","","","","","","","",""
"psychophysics","61","316462","0.0-8.0-0.14","1571.3199999881908","","","","39","","","","key","16.665274509803993","683","328.5","true","-1","129","15.36","3","1","-1","","","","","","","","","","","","",""
"psychophysics","62","317510","0.0-8.0-0.15","38.509999983944","","","","39","","","","key","16.659349206349045","683","328.5","true","1","144.36","15.36","3","-1","1","","","","","","","","","","","","",""
"psychophysics","63","333470","0.0-8.0-0.16","14950.715000042692","","","","39","","","","key","16.6654309623431","683","328.5","true","1","144.36","12.287999999999998","4","-1","-1","","","","","","","","","","","","",""
"psychophysics","64","335658","0.0-8.0-0.17","1182.3500000173226","","","","39","","","","key","16.665160305343502","683","328.5","true","-1","132.072","9.8304","5","1","-1","","","","","","","","","","","","",""
"psychophysics","65","337204","0.0-8.0-0.18","535.8250000281259","","","","39","","","","key","16.84838461538439","683","328.5","true","-1","141.9024","9.8304","5","1","1","","","","","","","","","","","","",""
"psychophysics","66","338321","0.0-8.0-0.19","113.65499999374151","","","","39","","","","key","16.66610606060589","683","328.5","true","1","151.7328","9.8304","5","-1","1","","","","","","","","","","","","",""
"psychophysics","67","340038","0.0-8.0-0.20","685.4699999676086","","","","39","","","","key","16.665490196077908","683","328.5","true","1","151.7328","7.864319999999999","6","-1","-1","","","","","","","","","","","","",""
"psychophysics","68","341559","0.0-8.0-0.21","518.0700000491925","","","","39","","","","key","16.665455555555592","683","328.5","true","1","143.86848","7.864319999999999","6","-1","-1","","","","","","","","","","","","",""
"psychophysics","69","346092","0.0-8.0-0.22","3522.8149999747984","","","","39","","","","key","16.66531365313649","683","328.5","true","1","143.86848","7.864319999999999","6","-1","-1","","","","","","","","","","","","",""
"psychophysics","70","347727","0.0-8.0-0.23","624.4600000209175","","","","37","","","","key","16.665072164948327","683","328.5","true","-1","136.00416","7.864319999999999","6","-1","-1","","","","","","","","","","","","",""
"psychophysics","71","349901","0.0-8.0-0.24","1165.0099999969825","","","","37","","","","key","16.66517829457334","683","328.5","true","1","136.00416","6.291456","7","1","-1","","","","","","","","","","","","",""
"psychophysics","72","351221","0.0-8.0-0.25","314.64499997673556","","","","37","","","","key","16.879205128205612","683","328.5","true","-1","142.29561600000002","6.291456","7","-1","1","","","","","","","","","","","","",""
"psychophysics","73","352668","0.0-8.0-0.26","440.70999999530613","","","","37","","","","key","16.665000000000273","683","328.5","true","-1","142.29561600000002","5.033164800000001","8","-1","-1","","","","","","","","","","","","",""
"psychophysics","74","353840","0.0-8.0-0.27","168.79000002518296","","","","37","","","","key","16.66564285714246","683","328.5","true","-1","137.26245120000002","5.033164800000001","8","-1","-1","","","","","","","","","","","","",""
"psychophysics","75","355157","0.0-8.0-0.28","315.5900000128895","","","","37","","","","key","16.66525641025659","683","328.5","true","-1","137.26245120000002","5.033164800000001","8","-1","-1","","","","","","","","","","","","",""
"psychophysics","76","356571","0.0-8.0-0.29","395.46500000869855","","","","37","","","","key","16.665226190476375","683","328.5","true","1","132.2292864","4.0265318400000005","9","1","-1","","","","","","","","","","","","",""
"psychophysics","77","358437","0.0-8.0-0.30","862.4999999883585","","","","39","","","","key","16.816809090909505","683","328.5","true","1","136.25581824","4.0265318400000005","9","-1","1","","","","","","","","","","","","",""
"psychophysics","78","359818","0.0-8.0-0.31","377.02499999431893","","","","39","","","","key","16.665292682926875","683","328.5","true","1","136.25581824","3.2212254720000004","10","-1","-1","","","","","","","","","","","","",""
"psychophysics","79","361238","0.0-8.0-0.32","415.2650000178255","","","","37","","","","key","16.665952380952408","683","328.5","true","1","133.03459276799998","2.5769803776000004","11","1","-1","","","","","","","","","","","","",""
"psychophysics","80","362622","0.0-8.0-0.33","370.80999999307096","","","","39","","","","key","16.870543209876846","683","328.5","true","1","135.61157314559998","2.5769803776000004","11","-1","1","","","","","","","","","","","","",""
"psychophysics","81","363959","0.0-8.0-0.34","333.600000012666","","","","37","","","","key","16.665341772152335","683","328.5","true","-1","135.61157314559998","2.0615843020800004","12","-1","-1","","","","","","","","","","","","",""
"psychophysics","82","365364","0.0-8.0-0.35","391.59999997355044","","","","39","","","","key","16.665168674698474","683","328.5","true","1","133.54998884351997","2.0615843020800004","12","-1","-1","","","","","","","","","","","","",""
"psychophysics","83","367259","0.0-8.0-0.36","889.7399999550544","","","","39","","","","key","16.665238938052763","683","328.5","true","1","133.54998884351997","2.0615843020800004","12","-1","-1","","","","","","","","","","","","",""
"psychophysics","84","369142","0.0-8.0-0.37","874.6099999989383","","","","39","","","","key","16.665098214286054","683","328.5","true","1","131.48840454143996","2.0615843020800004","12","-1","-1","","","","","","","","","","","","",""
"psychophysics","85","370568","0.0-8.0-0.38","417.8500000271015","","","","37","","","","key","16.665035294118226","683","328.5","true","-1","131.48840454143996","2.0615843020800004","12","-1","-1","","","","","","","","","","","","",""
"psychophysics","86","372221","0.0-8.0-0.39","648.1199999689125","","","","37","","","","key","16.664979591836786","683","328.5","true","-1","129.42682023935996","2.0615843020800004","12","-1","-1","","","","","","","","","","","","",""
"html-keyboard-response","87","374361","0.0-9.0","2136.5200000000186","<p>Well Done !</p><p>Prepare for a new block.</p><p>DON'T EXIT THE FULL SCREEN MODE</p><p>Press the Spacebar to start.</p>","","","32","","","","","","","","","","","","","","","true","135.174560223232","","","","","","","","","","",""
"psychophysics","88","376023","0.0-10.0-0.0","656.3050000113435","","","","39","","","","key","16.657252525252225","683","328.5","true","1","180","30","0","-1","","","","","","","","","","","","","",""
"psychophysics","89","377439","0.0-10.0-0.1","407.8900000313297","","","","39","","","","key","16.664855421686976","683","328.5","true","1","180","30","0","-1","-1","","","","","","","","","","","","",""
"psychophysics","90","378866","0.0-10.0-0.2","415.0550000485964","","","","39","","","","key","16.647352941176745","683","328.5","true","1","150","30","0","-1","-1","","","","","","","","","","","","",""
"psychophysics","91","380356","0.0-10.0-0.3","485.4449999984354","","","","37","","","","key","17.0478850574709","683","328.5","true","-1","150","30","0","-1","-1","","","","","","","","","","","","",""
"psychophysics","92","382097","0.0-10.0-0.4","732.190000009723","","","","37","","","","key","16.99551999999967","683","328.5","true","1","129","24","1","1","-1","","","","","","","","","","","","",""
"psychophysics","93","383522","0.0-10.0-0.5","419.81499997200444","","","","37","","","","key","16.861270588235108","683","328.5","true","-1","153","24","1","-1","1","","","","","","","","","","","","",""
"psychophysics","94","384923","0.0-10.0-0.6","392.8799999994226","","","","37","","","","key","18.6926351351352","683","328.5","true","-1","153","19.2","2","-1","-1","","","","","","","","","","","","",""
"psychophysics","95","386284","0.0-10.0-0.7","350.9200000553392","","","","37","","","","key","16.6656666666666","683","328.5","true","-1","133.8","19.2","2","-1","-1","","","","","","","","","","","","",""
"psychophysics","96","387915","0.0-10.0-0.8","582.6000000233762","","","","37","","","","key","17.580516483516377","683","328.5","true","-1","133.8","19.2","2","-1","-1","","","","","","","","","","","","",""
"psychophysics","97","390232","0.0-10.0-0.9","1313.3900000248104","","","","37","","","","key","16.665384057970833","683","328.5","true","1","129","15.36","3","1","-1","","","","","","","","","","","","",""
"psychophysics","98","391482","0.0-10.0-0.10","247.2950000083074","","","","37","","","","key","16.653760000000087","683","328.5","true","-1","144.36","15.36","3","-1","1","","","","","","","","","","","","",""
"psychophysics","99","393540","0.0-10.0-0.11","1055.0849999999627","","","","39","","","","key","16.66498360655759","683","328.5","true","1","144.36","12.287999999999998","4","-1","-1","","","","","","","","","","","","",""
"psychophysics","100","396214","0.0-10.0-0.12","1663.3199999923818","","","","39","","","","key","16.6653081761009","683","328.5","true","1","132.072","12.287999999999998","4","-1","-1","","","","","","","","","","","","",""
"psychophysics","101","398855","0.0-10.0-0.13","1637.7750000101514","","","","39","","","","key","16.66539873417741","683","328.5","true","-1","132.072","9.8304","5","1","-1","","","","","","","","","","","","",""
"psychophysics","102","400365","0.0-10.0-0.14","499.12999995285645","","","","39","","","","key","16.637651685393138","683","328.5","true","1","141.9024","9.8304","5","-1","1","","","","","","","","","","","","",""
"psychophysics","103","401502","0.0-10.0-0.15","134.2399999848567","","","","39","","","","key","16.613279411765262","683","328.5","true","1","141.9024","7.864319999999999","6","-1","-1","","","","","","","","","","","","",""
"psychophysics","104","403279","0.0-10.0-0.16","774.2749999742955","","","","37","","","","key","16.66540000000026","683","328.5","true","-1","134.03808","7.864319999999999","6","-1","-1","","","","","","","","","","","","",""
"psychophysics","105","404704","0.0-10.0-0.17","420.1049999683164","","","","39","","","","key","16.659705882353077","683","328.5","true","1","134.03808","7.864319999999999","6","-1","-1","","","","","","","","","","","","",""
"psychophysics","106","406201","0.0-10.0-0.18","487.8649999736808","","","","39","","","","key","16.660764044944035","683","328.5","true","1","129","7.864319999999999","6","-1","-1","","","","","","","","","","","","",""
"psychophysics","107","407847","0.0-10.0-0.19","642.3049999866635","","","","37","","","","key","16.66512371134013","683","328.5","true","-1","129","7.864319999999999","6","-1","-1","","","","","","","","","","","","",""
"psychophysics","108","409156","0.0-10.0-0.20","305.7600000174716","","","","39","","","","key","16.665243589743906","683","328.5","true","-1","129","6.291456","7","1","-1","","","","","","","","","","","","",""
"psychophysics","109","410702","0.0-10.0-0.21","537.1099999756552","","","","39","","","","key","16.664956521738887","683","328.5","true","1","135.291456","6.291456","7","-1","1","","","","","","","","","","","","",""
"psychophysics","110","424420","0.0-10.0-0.22","12715.619999973569","","","","39","","","","key","16.6654343065693","683","328.5","true","1","135.291456","5.033164800000001","8","-1","-1","","","","","","","","","","","","",""
"psychophysics","111","426064","0.0-10.0-0.23","633.170000044629","","","","39","","","","key","16.665102040816254","683","328.5","true","-1","130.2582912","4.0265318400000005","9","1","-1","","","","","","","","","","","","",""
"psychophysics","112","427344","0.0-10.0-0.24","274.74500000244007","","","","39","","","","key","16.665079999999918","683","328.5","true","1","134.28482304","4.0265318400000005","9","-1","1","","","","","","","","","","","","",""
"psychophysics","113","429162","0.0-10.0-0.25","812.6850000116974","","","","39","","","","key","16.653129629629635","683","328.5","true","1","134.28482304","3.2212254720000004","10","-1","-1","","","","","","","","","","","","",""
"psychophysics","114","434878","0.0-10.0-0.26","4713.059999980032","","","","39","","","","key","16.67670175438588","683","328.5","true","-1","131.06359756799998","2.5769803776000004","11","1","-1","","","","","","","","","","","","",""
"psychophysics","115","437401","0.0-10.0-0.27","1518.3250000118278","","","","39","","","","key","16.6655165562915","683","328.5","true","-1","133.64057794559997","2.5769803776000004","11","1","1","","","","","","","","","","","","",""
"psychophysics","116","440461","0.0-10.0-0.28","2050.329999998212","","","","39","","","","key","16.754740331491753","683","328.5","true","1","136.21755832319997","2.5769803776000004","11","-1","1","","","","","","","","","","","","",""
"psychophysics","117","441900","0.0-10.0-0.29","434.830000041984","","","","37","","","","key","16.665395348837063","683","328.5","true","-1","136.21755832319997","2.0615843020800004","12","-1","-1","","","","","","","","","","","","",""
"psychophysics","118","449382","0.0-10.0-0.30","6479.680000047665","","","","37","","","","key","16.665354910714345","683","328.5","true","-1","134.15597402111996","2.0615843020800004","12","-1","-1","","","","","","","","","","","","",""
"psychophysics","119","486640","0.0-10.0-0.31","36240.40499998955","","","","39","","","","key","16.665444941808413","683","328.5","true","1","134.15597402111996","2.0615843020800004","12","-1","-1","","","","","","","","","","","","",""
"psychophysics","120","488213","0.0-10.0-0.32","568.9400000264868","","","","39","","","","key","17.214582417582438","683","328.5","true","1","132.09438971903995","2.0615843020800004","12","-1","-1","","","","","","","","","","","","",""
"psychophysics","121","489591","0.0-10.0-0.33","374.889999977313","","","","37","","","","key","16.66546913580236","683","328.5","true","-1","132.09438971903995","2.0615843020800004","12","-1","-1","","","","","","","","","","","","",""
"psychophysics","122","491826","0.0-10.0-0.34","1232.060000009369","","","","37","","","","key","16.665395522388064","683","328.5","true","-1","130.03280541695995","2.0615843020800004","12","-1","-1","","","","","","","","","","","","",""
"psychophysics","123","493361","0.0-10.0-0.35","529.3350000283681","","","","37","","","","key","16.665373626373615","683","328.5","true","-1","130.03280541695995","2.0615843020800004","12","-1","-1","","","","","","","","","","","","",""
"psychophysics","124","495194","0.0-10.0-0.36","829.375000030268","","","","39","","","","key","16.665110091743415","683","328.5","true","1","129","2.0615843020800004","12","-1","-1","","","","","","","","","","","","",""
"psychophysics","125","496625","0.0-10.0-0.37","426.694999972824","","","","39","","","","key","16.665654761904513","683","328.5","true","-1","129","1.6492674416640005","13","1","-1","","","","","","","","","","","","",""
"psychophysics","126","498105","0.0-10.0-0.38","476.60500003257766","","","","39","","","","key","16.665193181817646","683","328.5","true","-1","130.649267441664","1.6492674416640005","13","1","1","","","","","","","","","","","","",""
"psychophysics","127","499291","0.0-10.0-0.39","181.6399999661371","","","","39","","","","key","16.66341428571447","683","328.5","true","1","132.298534883328","1.6492674416640005","13","-1","1","","","","","","","","","","","","",""
"html-keyboard-response","128","500689","0.0-11.0","1395.734999969136","<p>Well Done !</p><p>Prepare for a new block.</p><p>DON'T EXIT THE FULL SCREEN MODE</p><p>Press the Spacebar to start.</p>","","","32","","","","","","","","","","","","","","","true","132.3292170559488","","","","","","","","","","",""
"psychophysics","129","502909","0.0-12.0-0.0","1216.2699999753386","","","","37","","","","key","16.666150375939836","683","328.5","true","-1","180","30","0","-1","","","","","","","","","","","","","",""
"psychophysics","130","504355","0.0-12.0-0.1","442.5000000046566","","","","37","","","","key","16.665235294117455","683","328.5","true","-1","180","30","0","-1","-1","","","","","","","","","","","","",""
"psychophysics","131","505729","0.0-12.0-0.2","369.15500002214685","","","","39","","","","key","16.665268292682523","683","328.5","true","1","150","30","0","-1","-1","","","","","","","","","","","","",""
"psychophysics","132","507592","0.0-12.0-0.3","858.8750000344589","","","","39","","","","key","16.66531818181816","683","328.5","true","1","150","30","0","-1","-1","","","","","","","","","","","","",""
"psychophysics","133","509313","0.0-12.0-0.4","717.4500000546686","","","","39","","","","key","16.66542718446592","683","328.5","true","-1","129","24","1","1","-1","","","","","","","","","","","","",""
"psychophysics","134","510640","0.0-12.0-0.5","317.65500002074987","","","","37","","","","key","16.665474358974443","683","328.5","true","-1","153","24","1","-1","1","","","","","","","","","","","","",""
"psychophysics","135","511990","0.0-12.0-0.6","346.9349999795668","","","","39","","","","key","16.66507500000007","683","328.5","true","1","153","19.2","2","-1","-1","","","","","","","","","","","","",""
"psychophysics","136","513432","0.0-12.0-0.7","438.2800000021234","","","","39","","","","key","16.665465116278853","683","328.5","true","1","133.8","19.2","2","-1","-1","","","","","","","","","","","","",""
"psychophysics","137","515596","0.0-12.0-0.8","1156.2550000380725","","","","39","","","","key","16.66527906976741","683","328.5","true","-1","133.8","15.36","3","1","-1","","","","","","","","","","","","",""
"psychophysics","138","517065","0.0-12.0-0.9","455.47499996609986","","","","39","","","","key","16.858674418604203","683","328.5","true","1","149.16000000000003","15.36","3","-1","1","","","","","","","","","","","","",""
"psychophysics","139","518598","0.0-12.0-0.10","524.1200000164099","","","","39","","","","key","16.665714285714465","683","328.5","true","-1","149.16000000000003","12.287999999999998","4","1","-1","","","","","","","","","","","","",""
"psychophysics","140","520075","0.0-12.0-0.11","466.27999999327585","","","","39","","","","key","16.6650340909096","683","328.5","true","1","161.44800000000004","12.287999999999998","4","-1","1","","","","","","","","","","","","",""
"psychophysics","141","524008","0.0-12.0-0.12","2931.380000023637","","","","39","","","","key","16.665510638297455","683","328.5","true","-1","161.44800000000004","9.8304","5","1","-1","","","","","","","","","","","","",""
"psychophysics","142","525221","0.0-12.0-0.13","206.7300000344403","","","","39","","","","key","16.6656901408446","683","328.5","true","1","171.27840000000003","9.8304","5","-1","1","","","","","","","","","","","","",""
"psychophysics","143","528347","0.0-12.0-0.14","2123.4000000404194","","","","39","","","","key","16.665224598930465","683","328.5","true","1","171.27840000000003","7.864319999999999","6","-1","-1","","","","","","","","","","","","",""
"psychophysics","144","529707","0.0-12.0-0.15","350.2849999931641","","","","37","","","","key","16.6656666666666","683","328.5","true","-1","163.41408000000004","7.864319999999999","6","-1","-1","","","","","","","","","","","","",""
"psychophysics","145","531076","0.0-12.0-0.16","365.33000000054017","","","","37","","","","key","16.66548148148124","683","328.5","true","-1","163.41408000000004","7.864319999999999","6","-1","-1","","","","","","","","","","","","",""
"psychophysics","146","532439","0.0-12.0-0.17","358.1549999653362","","","","37","","","","key","16.6652345679022","683","328.5","true","-1","155.54976000000005","7.864319999999999","6","-1","-1","","","","","","","","","","","","",""
"psychophysics","147","533939","0.0-12.0-0.18","497.5500000291504","","","","39","","","","key","16.665280898877295","683","328.5","true","1","155.54976000000005","7.864319999999999","6","-1","-1","","","","","","","","","","","","",""
"psychophysics","148","535379","0.0-12.0-0.19","437.12499999674037","","","","39","","","","key","16.665552941176987","683","328.5","true","1","147.68544000000006","7.864319999999999","6","-1","-1","","","","","","","","","","","","",""
"psychophysics","149","536842","0.0-12.0-0.20","454.459999979008","","","","37","","","","key","16.66513793103413","683","328.5","true","-1","147.68544000000006","7.864319999999999","6","-1","-1","","","","","","","","","","","","",""
"psychophysics","150","539104","0.0-12.0-0.21","1257.6000000117347","","","","37","","","","key","16.91765151515155","683","328.5","true","-1","139.82112000000006","7.864319999999999","6","-1","-1","","","","","","","","","","","","",""
"psychophysics","151","540480","0.0-12.0-0.22","371.98500003432855","","","","37","","","","key","16.665487804877426","683","328.5","true","-1","139.82112000000006","7.864319999999999","6","-1","-1","","","","","","","","","","","","",""
"psychophysics","152","542073","0.0-12.0-0.23","584.0700000408106","","","","37","","","","key","16.842819148935924","683","328.5","true","1","131.95680000000007","6.291456","7","1","-1","","","","","","","","","","","","",""
"psychophysics","153","543496","0.0-12.0-0.24","418.7849999871105","","","","37","","","","key","16.665771084338292","683","328.5","true","-1","138.24825600000008","6.291456","7","-1","1","","","","","","","","","","","","",""
"psychophysics","154","546293","0.0-12.0-0.25","1788.3550000260584","","","","37","","","","key","16.665422619048122","683","328.5","true","-1","138.24825600000008","5.033164800000001","8","-1","-1","","","","","","","","","","","","",""
"psychophysics","155","547805","0.0-12.0-0.26","504.335000005085","","","","39","","","","key","16.665188888888547","683","328.5","true","1","133.21509120000007","5.033164800000001","8","-1","-1","","","","","","","","","","","","",""
"psychophysics","156","550139","0.0-12.0-0.27","1329.2149999761023","","","","39","","","","key","16.785956521738704","683","328.5","true","1","133.21509120000007","5.033164800000001","8","-1","-1","","","","","","","","","","","","",""
"psychophysics","157","551723","0.0-12.0-0.28","580.4150000330992","","","","39","","","","key","16.665680851064067","683","328.5","true","-1","129","4.0265318400000005","9","1","-1","","","","","","","","","","","","",""
"psychophysics","158","552806","0.0-12.0-0.29","77.9200000106357","","","","39","","","","key","16.665734374999374","683","328.5","true","1","133.02653184","4.0265318400000005","9","-1","1","","","","","","","","","","","","",""
"psychophysics","159","554336","0.0-12.0-0.30","526.3549999799579","","","","39","","","","key","16.66545555555624","683","328.5","true","-1","133.02653184","3.2212254720000004","10","1","-1","","","","","","","","","","","","",""
"psychophysics","160","555587","0.0-12.0-0.31","246.4950000285171","","","","39","","","","key","16.893958904109066","683","328.5","true","1","136.24775731199998","3.2212254720000004","10","-1","1","","","","","","","","","","","","",""
"psychophysics","161","556903","0.0-12.0-0.32","312.644999998156","","","","39","","","","key","16.665064102564102","683","328.5","true","1","136.24775731199998","2.5769803776000004","11","-1","-1","","","","","","","","","","","","",""
"psychophysics","162","558686","0.0-12.0-0.33","780.0549999810755","","","","39","","","","key","16.665679245283343","683","328.5","true","-1","133.67077693439998","2.0615843020800004","12","1","-1","","","","","","","","","","","","",""
"psychophysics","163","560103","0.0-12.0-0.34","413.85499999159947","","","","39","","","","key","16.665523809523577","683","328.5","true","1","135.73236123648","2.0615843020800004","12","-1","1","","","","","","","","","","","","",""
"psychophysics","164","562176","0.0-12.0-0.35","1069.2300000227988","","","","37","","","","key","16.665201612903115","683","328.5","true","-1","135.73236123648","1.6492674416640005","13","-1","-1","","","","","","","","","","","","",""
"psychophysics","165","564257","0.0-12.0-0.36","1071.7299999669194","","","","37","","","","key","16.66547580645138","683","328.5","true","-1","134.083093794816","1.6492674416640005","13","-1","-1","","","","","","","","","","","","",""
"psychophysics","166","566269","0.0-12.0-0.37","1009.0249999775551","","","","39","","","","key","16.665487394957733","683","328.5","true","1","134.083093794816","1.6492674416640005","13","-1","-1","","","","","","","","","","","","",""
"psychophysics","167","567969","0.0-12.0-0.38","697.0500000170432","","","","39","","","","key","16.665405940594116","683","328.5","true","1","132.433826353152","1.6492674416640005","13","-1","-1","","","","","","","","","","","","",""
"psychophysics","168","570152","0.0-12.0-0.39","1180.4450000054203","","","","39","","","","key","16.66367692307641","683","328.5","true","1","132.433826353152","1.6492674416640005","13","-1","-1","","","","","","","","","","","","",""
"html-keyboard-response","169","572780","0.0-13.0","2623.0450000148267","<p>Well Done !</p><p>Prepare for a new block.</p><p>DON'T EXIT THE FULL SCREEN MODE</p><p>Press the Spacebar to start.</p>","","","32","","","","","","","","","","","","","","","true","134.0264237604864","","","","","","","","","","",""
"html-keyboard-response","170","572883","0.0-14.0","null","","","","null","","","","","","","","","","","","","","","","","134.08196562017213","true","140.16393124034425","","","","","","","",""
"instructions","171","615241","0.0-15.0","42357.01999999583","","","","","","","[{""page_index"":0,""viewing_time"":34807.65500001144},{""page_index"":1,""viewing_time"":2329.7200000379235},{""page_index"":2,""viewing_time"":5218.949999951292}]","","","","","","","","","","","","","","","","","","","","","","","",""
"psychophysics","172","618339","0.0-16.0-0.0","null","","","","null","","","","key","16.66549230769205","683","328.5","","","","","","","","","","","","","","","","","","","",""
"psychophysics","173","618848","0.0-16.0-1.0","null","","","","null","","","","key","16.66490000000146","683","328.5","","","","","","","","","","","","","140","-1","2","false","","","",""
"psychophysics","174","620600","0.0-16.0-2.0","1748.5149999847636","","","","90","","","","key","16.654999999999955","683","328.5","","","","","","","","","","","","","","","","","","","",""
"psychophysics","175","621302","0.0-16.0-0.1","null","","","","null","","","","key","16.66563414634069","683","328.5","","","","","","","","","","","","","","","","","","","",""
"psychophysics","176","621806","0.0-16.0-1.1","null","","","","null","","","","key","16.66513793103413","683","328.5","","","","","","","","","","","","","140","1","2","false","","","",""
"psychophysics","177","622754","0.0-16.0-2.1","936.6249999729916","","","","90","","","","key","16.6649642857145","683","328.5","","","","","","","","","","","","","","","","","","","",""
"psychophysics","178","623580","0.0-16.0-0.2","null","","","","null","","","","key","16.664081632651445","683","328.5","","","","","","","","","","","","","","","","","","","",""
"psychophysics","179","624083","0.0-16.0-1.2","null","","","","null","","","","key","16.665206896550632","683","328.5","","","","","","","","","","","","","140","-1","3","false","","","",""
"psychophysics","180","624783","0.0-16.0-2.2","697.4599999957718","","","","90","","","","key","17.97871052631557","683","328.5","","","","","","","","","","","","","","","","","","","",""
"psychophysics","181","626029","0.0-16.0-0.3","null","","","","null","","","","key","16.665459459458756","683","328.5","","","","","","","","","","","","","","","","","","","",""
"psychophysics","182","626535","0.0-16.0-1.3","null","","","","null","","","","key","16.665068965517627","683","328.5","","","","","","","","","","","","","140","1","4","false","","","",""
"psychophysics","183","627378","0.0-16.0-2.3","840.570000000298","","","","90","","","","key","16.66481632653063","683","328.5","","","","","","","","","","","","","","","","","","","",""
"psychophysics","184","628014","0.0-16.0-0.4","null","","","","null","","","","key","16.643394736839628","683","328.5","","","","","","","","","","","","","","","","","","","",""
"psychophysics","185","628516","0.0-16.0-1.4","null","","","","null","","","","key","16.66462068965434","683","328.5","","","","","","","","","","","","","140","1","3","false","","","",""
"psychophysics","186","629432","0.0-16.0-2.4","913.399999961257","","","","77","","","","key","16.66555555555452","683","328.5","","","","","","","","","","","","","","","","","","","",""
"psychophysics","187","630106","0.0-16.0-0.5","null","","","","null","","","","key","17.103447368420586","683","328.5","","","","","","","","","","","","","","","","","","","",""
"psychophysics","188","630616","0.0-16.0-1.5","null","","","","null","","","","key","16.664500000001862","683","328.5","","","","","","","","","","","","","140","1","0","false","","","",""
"psychophysics","189","631097","0.0-16.0-2.5","477.79000003356487","","","","77","","","","key","16.664777777778607","683","328.5","","","","","","","","","","","","","","","","","","","",""
"psychophysics","190","632286","0.0-16.0-0.6","null","","","","null","","","","key","16.659394366197734","683","328.5","","","","","","","","","","","","","","","","","","","",""
"psychophysics","191","632795","0.0-16.0-1.6","null","","","","null","","","","key","16.66423333333029","683","328.5","","","","","","","","","","","","","140","-1","0","false","","","",""
"psychophysics","192","633634","0.0-16.0-2.6","834.9750000052154","","","","90","","","","key","16.66610204081564","683","328.5","","","","","","","","","","","","","","","","","","","",""
"psychophysics","193","634314","0.0-16.0-0.7","null","","","","null","","","","key","16.664275000002817","683","328.5","","","","","","","","","","","","","","","","","","","",""
"psychophysics","194","634817","0.0-16.0-1.7","null","","","","null","","","","key","16.665310344827393","683","328.5","","","","","","","","","","","","","140","-1","4","false","","","",""
"psychophysics","195","635283","0.0-16.0-2.7","463.31500000087544","","","","90","","","","key","16.664703703705325","683","328.5","","","","","","","","","","","","","","","","","","","",""
"psychophysics","196","636671","0.0-16.0-0.8","null","","","","null","","","","key","16.66539024390286","683","328.5","","","","","","","","","","","","","","","","","","","",""
"psychophysics","197","637181","0.0-16.0-1.8","null","","","","null","","","","key","16.66376666666862","683","328.5","","","","","","","","","","","","","140","1","5","false","","","",""
"psychophysics","198","637731","0.0-16.0-2.8","544.7750000166707","","","","90","","","","key","16.664612903225898","683","328.5","","","","","","","","","","","","","","","","","","","",""
"psychophysics","199","638288","0.0-16.0-0.9","null","","","","null","","","","key","16.66512121212189","683","328.5","","","","","","","","","","","","","","","","","","","",""
"psychophysics","200","638797","0.0-16.0-1.9","null","","","","null","","","","key","16.664366666666076","683","328.5","","","","","","","","","","","","","140","-1","5","false","","","",""
"psychophysics","201","639834","0.0-16.0-2.9","1033.7450000224635","","","","77","","","","key","16.665098360655676","683","328.5","","","","","","","","","","","","","","","","","","","",""
"psychophysics","202","641097","0.0-16.0-0.10","null","","","","null","","","","key","16.665106666665523","683","328.5","","","","","","","","","","","","","","","","","","","",""
"psychophysics","203","641602","0.0-16.0-1.10","null","","","","null","","","","key","16.665241379310892","683","328.5","","","","","","","","","","","","","140","1","6","false","","","",""
"psychophysics","204","641971","0.0-16.0-2.10","367.0399999828078","","","","77","","","","key","16.664857142859894","683","328.5","","","","","","","","","","","","","","","","","","","",""
"psychophysics","205","643139","0.0-16.0-0.11","null","","","","null","","","","key","16.658028985506963","683","328.5","","","","","","","","","","","","","","","","","","","",""
"psychophysics","206","643647","0.0-16.0-1.11","null","","","","null","","","","key","16.664766666665674","683","328.5","","","","","","","","","","","","","140","-1","6","false","","","",""
"psychophysics","207","644252","0.0-16.0-2.11","601.9300000043586","","","","77","","","","key","17.675515151512105","683","328.5","","","","","","","","","","","","","","","","","","","",""
"psychophysics","208","645545","0.0-16.0-0.12","null","","","","null","","","","key","16.664948051948063","683","328.5","","","","","","","","","","","","","","","","","","","",""
"psychophysics","209","646049","0.0-16.0-1.12","null","","","","null","","","","key","16.664482758621332","683","328.5","","","","","","","","","","","","","140","1","2","false","","","",""
"psychophysics","210","646905","0.0-16.0-2.12","853.0749999918044","","","","90","","","","key","16.66532000000123","683","328.5","","","","","","","","","","","","","","","","","","","",""
"psychophysics","211","648419","0.0-16.0-0.13","null","","","","null","","","","key","16.66522222222217","683","328.5","","","","","","","","","","","","","","","","","","","",""
"psychophysics","212","648929","0.0-16.0-1.13","null","","","","null","","","","key","16.665566666664866","683","328.5","","","","","","","","","","","","","140","-1","0","false","","","",""
"psychophysics","213","649050","0.0-16.0-2.13","118.2849999750033","","","","77","","","","key","16.665999999987736","683","328.5","","","","","","","","","","","","","","","","","","","",""
"psychophysics","214","649931","0.0-16.0-0.14","null","","","","null","","","","key","17.327939999999945","683","328.5","","","","","","","","","","","","","","","","","","","",""
"psychophysics","215","650433","0.0-16.0-1.14","null","","","","null","","","","key","16.665344827587653","683","328.5","","","","","","","","","","","","","140","1","6","false","","","",""
"psychophysics","216","650997","0.0-16.0-2.14","560.2949999738485","","","","77","","","","key","17.185687500001222","683","328.5","","","","","","","","","","","","","","","","","","","",""
"psychophysics","217","652114","0.0-16.0-0.15","null","","","","null","","","","key","16.664606060605198","683","328.5","","","","","","","","","","","","","","","","","","","",""
"psychophysics","218","652618","0.0-16.0-1.15","null","","","","null","","","","key","16.665172413790373","683","328.5","","","","","","","","","","","","","140","-1","5","false","","","",""
"psychophysics","219","653715","0.0-16.0-2.15","1093.735000002198","","","","77","","","","key","16.665169230769745","683","328.5","","","","","","","","","","","","","","","","","","","",""
"psychophysics","220","655096","0.0-16.0-0.16","null","","","","null","","","","key","16.66554878048724","683","328.5","","","","","","","","","","","","","","","","","","","",""
"psychophysics","221","655599","0.0-16.0-1.16","null","","","","null","","","","key","16.66427586206781","683","328.5","","","","","","","","","","","","","140","-1","2","false","","","",""
"psychophysics","222","656198","0.0-16.0-2.16","595.9400000283495","","","","90","","","","key","16.664942857140808","683","328.5","","","","","","","","","","","","","","","","","","","",""
"psychophysics","223","657054","0.0-16.0-0.17","null","","","","null","","","","key","16.666119999999648","683","328.5","","","","","","","","","","","","","","","","","","","",""
"psychophysics","224","657563","0.0-16.0-1.17","null","","","","null","","","","key","16.665499999998914","683","328.5","","","","","","","","","","","","","140","1","4","false","","","",""
"psychophysics","225","658030","0.0-16.0-2.17","464.3100000103004","","","","77","","","","key","16.66455555555445","683","328.5","","","","","","","","","","","","","","","","","","","",""
"psychophysics","226","659445","0.0-16.0-0.18","null","","","","null","","","","key","16.665261904761707","683","328.5","","","","","","","","","","","","","","","","","","","",""
"psychophysics","227","659949","0.0-16.0-1.18","null","","","","null","","","","key","16.66562068965768","683","328.5","","","","","","","","","","","","","140","-1","3","false","","","",""
"psychophysics","228","660150","0.0-16.0-2.18","198.65999999456108","","","","77","","","","key","16.664272727275435","683","328.5","","","","","","","","","","","","","","","","","","","",""
"psychophysics","229","661612","0.0-16.0-0.19","null","","","","null","","","","key","16.665563218391917","683","328.5","","","","","","","","","","","","","","","","","","","",""
"psychophysics","230","662120","0.0-16.0-1.19","null","","","","null","","","","key","16.663586206894752","683","328.5","","","","","","","","","","","","","140","1","5","false","","","",""
"psychophysics","231","662579","0.0-16.0-2.19","444.50000004144385","","","","77","","","","key","17.331120000001974","683","328.5","","","","","","","","","","","","","","","","","","","",""
"psychophysics","232","663779","0.0-16.0-0.20","null","","","","null","","","","key","16.657527777777027","683","328.5","","","","","","","","","","","","","","","","","","","",""
"psychophysics","233","664283","0.0-16.0-1.20","null","","","","null","","","","key","16.665241379310892","683","328.5","","","","","","","","","","","","","140","1","3","false","","","",""
"psychophysics","234","669419","0.0-16.0-2.20","5133.299999986775","","","","77","","","","key","16.66546905537459","683","328.5","","","","","","","","","","","","","","","","","","","",""
"psychophysics","235","670469","0.0-16.0-0.21","null","","","","null","","","","key","16.66295161290327","683","328.5","","","","","","","","","","","","","","","","","","","",""
"psychophysics","236","671001","0.0-16.0-1.21","null","","","","null","","","","key","17.219833333332403","683","328.5","","","","","","","","","","","","","140","1","0","false","","","",""
"psychophysics","237","671834","0.0-16.0-2.21","830.4399999906309","","","","90","","","","key","16.664204081634477","683","328.5","","","","","","","","","","","","","","","","","","","",""
"psychophysics","238","673119","0.0-16.0-0.22","null","","","","null","","","","key","16.66521052631556","683","328.5","","","","","","","","","","","","","","","","","","","",""
"psychophysics","239","673628","0.0-16.0-1.22","null","","","","null","","","","key","16.664199999999255","683","328.5","","","","","","","","","","","","","140","-1","6","false","","","",""
"psychophysics","240","674414","0.0-16.0-2.22","783.4999999613501","","","","77","","","","key","16.665422222222617","683","328.5","","","","","","","","","","","","","","","","","","","",""
"psychophysics","241","675662","0.0-16.0-0.23","null","","","","null","","","","key","16.66543999999917","683","328.5","","","","","","","","","","","","","","","","","","","",""
"psychophysics","242","676166","0.0-16.0-1.23","null","","","","null","","","","key","16.666241379310215","683","328.5","","","","","","","","","","","","","140","-1","4","false","","","",""
"psychophysics","243","676611","0.0-16.0-2.23","441.9149999739602","","","","77","","","","key","18.1144782608709","683","328.5","","","","","","","","","","","","","","","","","","","",""
"html-keyboard-response","244","682447","0.0-17.0","5834.030000027269","<p>Well Done !</p><p>Training Complete. Press the spacebar to start.</p><p>DON'T EXIT THE FULL SCREEN MODE</p>","","","32","","","","","","","","","","","","","","","","","","","","","","","","","","",""
"psychophysics","245","685797","0.0-18.0-0.0","null","","","","null","","","","key","16.667148148148023","683","328.5","","","","","","","","","","","","","","","","","","","",""
"psychophysics","246","686301","0.0-18.0-1.0","null","","","","null","","","","key","16.66558620689742","683","328.5","","","","","","","","","","","","","140","1","5","true","","","",""
"psychophysics","247","687099","0.0-18.0-2.0","783.4949999814853","","","","77","","","","key","17.02715217391454","683","328.5","","","","","","","","","","","","","","","","","","","",""
"psychophysics","248","687743","0.0-18.0-0.1","null","","","","null","","","","key","16.66552631578739","683","328.5","","","","","","","","","","","","","","","","","","","",""
"psychophysics","249","688247","0.0-18.0-1.1","null","","","","null","","","","key","17.259678571426775","683","328.5","","","","","","","","","","","","","140","1","6","true","","","",""
"psychophysics","250","688768","0.0-18.0-2.1","518.3349999715574","","","","77","","","","key","16.66489999999758","683","328.5","","","","","","","","","","","","","","","","","","","",""
"psychophysics","251","690059","0.0-18.0-0.2","null","","","","null","","","","key","16.665285714285133","683","328.5","","","","","","","","","","","","","","","","","","","",""
"psychophysics","252","690564","0.0-18.0-1.2","null","","","","null","","","","key","16.6647241379311","683","328.5","","","","","","","","","","","","","140","-1","4","true","","","",""
"psychophysics","253","691026","0.0-18.0-2.2","460.30499995686114","","","","77","","","","key","16.66446153846426","683","328.5","","","","","","","","","","","","","","","","","","","",""
"psychophysics","254","692151","0.0-18.0-0.3","null","","","","null","","","","key","16.666044776119403","683","328.5","","","","","","","","","","","","","","","","","","","",""
"psychophysics","255","692660","0.0-18.0-1.3","null","","","","null","","","","key","16.66440000000099","683","328.5","","","","","","","","","","","","","140","-1","5","true","","","",""
"psychophysics","256","693052","0.0-18.0-2.3","389.1299999668263","","","","77","","","","key","16.66513636363247","683","328.5","","","","","","","","","","","","","","","","","","","",""
"psychophysics","257","694213","0.0-18.0-0.4","null","","","","null","","","","key","16.66576811594153","683","328.5","","","","","","","","","","","","","","","","","","","",""
"psychophysics","258","694716","0.0-18.0-1.4","null","","","","null","","","","key","16.664551724137834","683","328.5","","","","","","","","","","","","","140","1","2","true","","","",""
"psychophysics","259","695464","0.0-18.0-2.4","745.2949999715202","","","","90","","","","key","16.664840909091502","683","328.5","","","","","","","","","","","","","","","","","","","",""
"psychophysics","260","696743","0.0-18.0-0.5","null","","","","null","","","","key","16.66500000000049","683","328.5","","","","","","","","","","","","","","","","","","","",""
"psychophysics","261","697246","0.0-18.0-1.5","null","","","","null","","","","key","16.666172413793714","683","328.5","","","","","","","","","","","","","140","-1","6","true","","","",""
"psychophysics","262","697830","0.0-18.0-2.5","581.2750000040978","","","","77","","","","key","16.665529411765473","683","328.5","","","","","","","","","","","","","","","","","","","",""
"psychophysics","263","698882","0.0-18.0-0.6","null","","","","null","","","","key","16.726225806452753","683","328.5","","","","","","","","","","","","","","","","","","","",""
"psychophysics","264","699385","0.0-18.0-1.6","null","","","","null","","","","key","19.331400000001302","683","328.5","","","","","","","","","","","","","140","-1","3","true","","","",""
"psychophysics","265","705459","0.0-18.0-2.6","6043.364999990445","","","","90","","","","key","16.66535537190076","683","328.5","","","","","","","","","","","","","","","","","","","",""
"psychophysics","266","706959","0.0-18.0-0.7","null","","","","null","","","","key","16.66568888888901","683","328.5","","","","","","","","","","","","","","","","","","","",""
"psychophysics","267","707465","0.0-18.0-1.7","null","","","","null","","","","key","16.665172413794387","683","328.5","","","","","","","","","","","","","140","1","0","true","","","",""
"psychophysics","268","728711","0.0-18.0-2.7","21243.52999997791","","","","77","","","","key","16.665434850863395","683","328.5","","","","","","","","","","","","","","","","","","","",""
"psychophysics","269","729806","0.0-18.0-0.8","null","","","","null","","","","key","16.664861538461768","683","328.5","","","","","","","","","","","","","","","","","","","",""
"psychophysics","270","730311","0.0-18.0-1.8","null","","","","null","","","","key","16.664965517240866","683","328.5","","","","","","","","","","","","","140","1","3","true","","","",""
"psychophysics","271","730711","0.0-18.0-2.8","395.5299999797717","","","","77","","","","key","16.663608695653714","683","328.5","","","","","","","","","","","","","","","","","","","",""
"psychophysics","272","732007","0.0-18.0-0.9","null","","","","null","","","","key","16.665831168832305","683","328.5","","","","","","","","","","","","","","","","","","","",""
"psychophysics","273","732511","0.0-18.0-1.9","null","","","","null","","","","key","16.664517241377578","683","328.5","","","","","","","","","","","","","140","-1","0","true","","","",""
"psychophysics","274","733131","0.0-18.0-2.9","617.4950000131503","","","","90","","","","key","16.665249999997386","683","328.5","","","","","","","","","","","","","","","","","","","",""
"psychophysics","275","734437","0.0-18.0-0.10","null","","","","null","","","","key","16.665168831168746","683","328.5","","","","","","","","","","","","","","","","","","","",""
"psychophysics","276","734956","0.0-18.0-1.10","null","","","","null","","","","key","16.666322580647595","683","328.5","","","","","","","","","","","","","140","1","4","true","","","",""
"psychophysics","277","735577","0.0-18.0-2.10","618.12999995891","","","","77","","","","key","16.665916666666615","683","328.5","","","","","","","","","","","","","","","","","","","",""
"psychophysics","278","736240","0.0-18.0-0.11","null","","","","null","","","","key","16.66482051281939","683","328.5","","","","","","","","","","","","","","","","","","","",""
"psychophysics","279","736744","0.0-18.0-1.11","null","","","","null","","","","key","16.665517241380915","683","328.5","","","","","","","","","","","","","140","-1","2","true","","","",""
"psychophysics","280","738972","0.0-18.0-2.11","2225.495000020601","","","","77","","","","key","16.665568181818042","683","328.5","","","","","","","","","","","","","","","","","","","",""
"psychophysics","281","739848","0.0-18.0-0.12","null","","","","null","","","","key","16.665000000001434","683","328.5","","","","","","","","","","","","","","","","","","","",""
"psychophysics","282","740360","0.0-18.0-1.12","null","","","","null","","","","key","16.664399999997112","683","328.5","","","","","","","","","","","","","140","-1","4","true","","","",""
"psychophysics","283","741760","0.0-18.0-2.12","1397.960000031162","","","","77","","","","key","16.664939759036873","683","328.5","","","","","","","","","","","","","","","","","","","",""
"psychophysics","284","742541","0.0-18.0-0.13","null","","","","null","","","","key","16.665195652172375","683","328.5","","","","","","","","","","","","","","","","","","","",""
"psychophysics","285","743044","0.0-18.0-1.13","null","","","","null","","","","key","16.665965517240192","683","328.5","","","","","","","","","","","","","140","-1","6","true","","","",""
"psychophysics","286","743272","0.0-18.0-2.13","225.5400000140071","","","","77","","","","key","16.66141666666954","683","328.5","","","","","","","","","","","","","","","","","","","",""
"psychophysics","287","744062","0.0-18.0-0.14","null","","","","null","","","","key","18.215744186046553","683","328.5","","","","","","","","","","","","","","","","","","","",""
"psychophysics","288","744569","0.0-18.0-1.14","null","","","","null","","","","key","16.664344827584312","683","328.5","","","","","","","","","","","","","140","1","3","true","","","",""
"psychophysics","289","745308","0.0-18.0-2.14","728.3600000082515","","","","77","","","","key","17.052953488372136","683","328.5","","","","","","","","","","","","","","","","","","","",""
"psychophysics","290","745839","0.0-18.0-0.15","null","","","","null","","","","key","16.664903225809066","683","328.5","","","","","","","","","","","","","","","","","","","",""
"psychophysics","291","746343","0.0-18.0-1.15","null","","","","null","","","","key","16.664862068964105","683","328.5","","","","","","","","","","","","","140","1","2","true","","","",""
"psychophysics","292","747281","0.0-18.0-2.15","935.5949999880977","","","","90","","","","key","16.664890909089113","683","328.5","","","","","","","","","","","","","","","","","","","",""
"psychophysics","293","748602","0.0-18.0-0.16","null","","","","null","","","","key","16.881610389609893","683","328.5","","","","","","","","","","","","","","","","","","","",""
"psychophysics","294","749109","0.0-18.0-1.16","null","","","","null","","","","key","16.665766666666606","683","328.5","","","","","","","","","","","","","140","-1","2","true","","","",""
"psychophysics","295","749780","0.0-18.0-2.16","667.650000017602","","","","90","","","","key","16.664948717947716","683","328.5","","","","","","","","","","","","","","","","","","","",""
"psychophysics","296","751172","0.0-18.0-0.17","null","","","","null","","","","key","16.66545783132539","683","328.5","","","","","","","","","","","","","","","","","","","",""
"psychophysics","297","751677","0.0-18.0-1.17","null","","","","null","","","","key","16.664448275865087","683","328.5","","","","","","","","","","","","","140","1","4","true","","","",""
"psychophysics","298","752555","0.0-18.0-2.17","875.4649999900721","","","","90","","","","key","16.664803921566893","683","328.5","","","","","","","","","","","","","","","","","","","",""
"psychophysics","299","754006","0.0-18.0-0.18","null","","","","null","","","","key","16.65297701149435","683","328.5","","","","","","","","","","","","","","","","","","","",""
"psychophysics","300","754509","0.0-18.0-1.18","null","","","","null","","","","key","16.66631034482672","683","328.5","","","","","","","","","","","","","140","-1","3","true","","","",""
"psychophysics","301","755144","0.0-18.0-2.18","632.3950000223704","","","","90","","","","key","16.664783783785595","683","328.5","","","","","","","","","","","","","","","","","","","",""
"psychophysics","302","755979","0.0-18.0-0.19","null","","","","null","","","","key","18.146711111112705","683","328.5","","","","","","","","","","","","","","","","","","","",""
"psychophysics","303","756487","0.0-18.0-1.19","null","","","","null","","","","key","16.66440000000099","683","328.5","","","","","","","","","","","","","140","1","5","true","","","",""
"psychophysics","304","757539","0.0-18.0-2.19","1049.044999992475","","","","90","","","","key","16.66512903225826","683","328.5","","","","","","","","","","","","","","","","","","","",""
"psychophysics","305","758755","0.0-18.0-0.20","null","","","","null","","","","key","16.665805555555078","683","328.5","","","","","","","","","","","","","","","","","","","",""
"psychophysics","306","759259","0.0-18.0-1.20","null","","","","null","","","","key","16.666275862070474","683","328.5","","","","","","","","","","","","","140","1","0","true","","","",""
"psychophysics","307","759878","0.0-18.0-2.20","617.3299999791197","","","","90","","","","key","16.664914285714207","683","328.5","","","","","","","","","","","","","","","","","","","",""
"psychophysics","308","760938","0.0-18.0-0.21","null","","","","null","","","","key","16.665437499999825","683","328.5","","","","","","","","","","","","","","","","","","","",""
"psychophysics","309","761441","0.0-18.0-1.21","null","","","","null","","","","key","16.664137931034805","683","328.5","","","","","","","","","","","","","140","1","6","true","","","",""
"psychophysics","310","763951","0.0-18.0-2.21","2503.0600000172853","","","","90","","","","key","16.665375838926586","683","328.5","","","","","","","","","","","","","","","","","","","",""
"psychophysics","311","764838","0.0-18.0-0.22","null","","","","null","","","","key","16.66509433962264","683","328.5","","","","","","","","","","","","","","","","","","","",""
"psychophysics","312","765342","0.0-18.0-1.22","null","","","","null","","","","key","16.66579310345094","683","328.5","","","","","","","","","","","","","140","-1","5","true","","","",""
"psychophysics","313","765788","0.0-18.0-2.22","442.4550000112504","","","","90","","","","key","16.664719999996013","683","328.5","","","","","","","","","","","","","","","","","","","",""
"psychophysics","314","766959","0.0-18.0-0.23","null","","","","null","","","","key","16.66575714285718","683","328.5","","","","","","","","","","","","","","","","","","","",""
"psychophysics","315","767462","0.0-18.0-1.23","null","","","","null","","","","key","16.665137931038142","683","328.5","","","","","","","","","","","","","140","-1","0","true","","","",""
"psychophysics","316","768020","0.0-18.0-2.23","545.079999952577","","","","77","","","","key","16.664531250000437","683","328.5","","","","","","","","","","","","","","","","","","","",""
"psychophysics","317","768988","0.0-18.0-0.24","null","","","","null","","","","key","16.664879310344233","683","328.5","","","","","","","","","","","","","","","","","","","",""
"psychophysics","318","769490","0.0-18.0-1.24","null","","","","null","","","","key","16.668379310345887","683","328.5","","","","","","","","","","","","","140","1","4","true","","","",""
"psychophysics","319","769995","0.0-18.0-2.24","500.5799999926239","","","","77","","","","key","17.260821428574022","683","328.5","","","","","","","","","","","","","","","","","","","",""
"psychophysics","320","771054","0.0-18.0-0.25","null","","","","null","","","","key","16.665333333332832","683","328.5","","","","","","","","","","","","","","","","","","","",""
"psychophysics","321","771558","0.0-18.0-1.25","null","","","","null","","","","key","16.665344827587653","683","328.5","","","","","","","","","","","","","140","-1","0","true","","","",""
"psychophysics","322","771987","0.0-18.0-2.25","426.26999999629334","","","","77","","","","key","16.66470833333248","683","328.5","","","","","","","","","","","","","","","","","","","",""
"psychophysics","323","772755","0.0-18.0-0.26","null","","","","null","","","","key","16.663065217392337","683","328.5","","","","","","","","","","","","","","","","","","","",""
"psychophysics","324","773260","0.0-18.0-1.26","null","","","","null","","","","key","16.66672413792975","683","328.5","","","","","","","","","","","","","140","1","3","true","","","",""
"psychophysics","325","773726","0.0-18.0-2.26","399.3999999947846","","","","77","","","","key","17.997080000001006","683","328.5","","","","","","","","","","","","","","","","","","","",""
"psychophysics","326","774470","0.0-18.0-0.27","null","","","","null","","","","key","16.66499999999935","683","328.5","","","","","","","","","","","","","","","","","","","",""
"psychophysics","327","774974","0.0-18.0-1.27","null","","","","null","","","","key","16.664000000001398","683","328.5","","","","","","","","","","","","","140","-1","4","true","","","",""
"psychophysics","328","775375","0.0-18.0-2.27","396.65000000968575","","","","77","","","","key","16.663217391307548","683","328.5","","","","","","","","","","","","","","","","","","","",""
"psychophysics","329","776208","0.0-18.0-0.28","null","","","","null","","","","key","16.665224489796316","683","328.5","","","","","","","","","","","","","","","","","","","",""
"psychophysics","330","776711","0.0-18.0-1.28","null","","","","null","","","","key","16.66475862069136","683","328.5","","","","","","","","","","","","","140","-1","5","true","","","",""
"psychophysics","331","777008","0.0-18.0-2.28","278.8999999756925","","","","77","","","","key","16.663588235298555","683","328.5","","","","","","","","","","","","","","","","","","","",""
"psychophysics","332","778088","0.0-18.0-0.29","null","","","","null","","","","key","16.665078124999127","683","328.5","","","","","","","","","","","","","","","","","","","",""
"psychophysics","333","778592","0.0-18.0-1.29","null","","","","null","","","","key","17.259892857142923","683","328.5","","","","","","","","","","","","","140","-1","6","true","","","",""
"psychophysics","334","779042","0.0-18.0-2.29","447.4900000495836","","","","77","","","","key","16.665115384613344","683","328.5","","","","","","","","","","","","","","","","","","","",""
"psychophysics","335","779910","0.0-18.0-0.30","null","","","","null","","","","key","16.66474509803925","683","328.5","","","","","","","","","","","","","","","","","","","",""
"psychophysics","336","780417","0.0-18.0-1.30","null","","","","null","","","","key","16.66482758620786","683","328.5","","","","","","","","","","","","","140","1","0","true","","","",""
"psychophysics","337","780834","0.0-18.0-2.30","354.72999996272847","","","","77","","","","key","18.17690909090875","683","328.5","","","","","","","","","","","","","","","","","","","",""
"psychophysics","338","782292","0.0-18.0-0.31","null","","","","null","","","","key","16.655264367816446","683","328.5","","","","","","","","","","","","","","","","","","","",""
"psychophysics","339","782802","0.0-18.0-1.31","null","","","","null","","","","key","16.664655172414594","683","328.5","","","","","","","","","","","","","140","1","5","true","","","",""
"psychophysics","340","783110","0.0-18.0-2.31","299.73000002792105","","","","77","","","","key","16.673777777779225","683","328.5","","","","","","","","","","","","","","","","","","","",""
"psychophysics","341","784570","0.0-18.0-0.32","null","","","","null","","","","key","16.66486206896544","683","328.5","","","","","","","","","","","","","","","","","","","",""
"psychophysics","342","785075","0.0-18.0-1.32","null","","","","null","","","","key","16.664655172414594","683","328.5","","","","","","","","","","","","","140","1","6","true","","","",""
"psychophysics","343","785769","0.0-18.0-2.32","691.6649999911897","","","","77","","","","key","16.664924999998767","683","328.5","","","","","","","","","","","","","","","","","","","",""
"psychophysics","344","786824","0.0-18.0-0.33","null","","","","null","","","","key","16.665714285715246","683","328.5","","","","","","","","","","","","","","","","","","","",""
"psychophysics","345","787328","0.0-18.0-1.33","null","","","","null","","","","key","16.665034482757367","683","328.5","","","","","","","","","","","","","140","-1","2","true","","","",""
"psychophysics","346","788406","0.0-18.0-2.33","1066.9750000233762","","","","90","","","","key","16.665312499999345","683","328.5","","","","","","","","","","","","","","","","","","","",""
"psychophysics","347","789159","0.0-18.0-0.34","null","","","","null","","","","key","16.666659090911377","683","328.5","","","","","","","","","","","","","","","","","","","",""
"psychophysics","348","789662","0.0-18.0-1.34","null","","","","null","","","","key","16.665068965517627","683","328.5","","","","","","","","","","","","","140","1","2","true","","","",""
"psychophysics","349","797293","0.0-18.0-2.34","7531.834999972489","","","","77","","","","key","16.812496688741952","683","328.5","","","","","","","","","","","","","","","","","","","",""
"psychophysics","350","798759","0.0-18.0-0.35","null","","","","null","","","","key","16.66517241379305","683","328.5","","","","","","","","","","","","","","","","","","","",""
"psychophysics","351","799269","0.0-18.0-1.35","null","","","","null","","","","key","16.664366666666076","683","328.5","","","","","","","","","","","","","140","-1","3","true","","","",""
"psychophysics","352","800159","0.0-18.0-2.35","887.300000002142","","","","90","","","","key","16.665576923076653","683","328.5","","","","","","","","","","","","","","","","","","","",""
"psychophysics","353","801069","0.0-18.0-0.36","null","","","","null","","","","key","16.662722222222428","683","328.5","","","","","","","","","","","","","","","","","","","",""
"psychophysics","354","801574","0.0-18.0-1.36","null","","","","null","","","","key","16.664448275861073","683","328.5","","","","","","","","","","","","","140","-1","6","true","","","",""
"psychophysics","355","802123","0.0-18.0-2.36","546.8100000289269","","","","77","","","","key","16.66431250000096","683","328.5","","","","","","","","","","","","","","","","","","","",""
"psychophysics","356","803027","0.0-18.0-0.37","null","","","","null","","","","key","16.66522641509622","683","328.5","","","","","","","","","","","","","","","","","","","",""
"psychophysics","357","803536","0.0-18.0-1.37","null","","","","null","","","","key","16.663899999996648","683","328.5","","","","","","","","","","","","","140","-1","5","true","","","",""
"psychophysics","358","804205","0.0-18.0-2.37","666.1150000290945","","","","90","","","","key","16.665743589741535","683","328.5","","","","","","","","","","","","","","","","","","","",""
"psychophysics","359","804832","0.0-18.0-0.38","null","","","","null","","","","key","16.665361111110542","683","328.5","","","","","","","","","","","","","","","","","","","",""
"psychophysics","360","805335","0.0-18.0-1.38","null","","","","null","","","","key","16.66543333333296","683","328.5","","","","","","","","","","","","","140","1","3","true","","","",""
"psychophysics","361","809882","0.0-18.0-2.38","4488.43999998644","","","","77","","","","key","16.7272037037036","683","328.5","","","","","","","","","","","","","","","","","","","",""
"psychophysics","362","810935","0.0-18.0-0.39","null","","","","null","","","","key","16.665206349207207","683","328.5","","","","","","","","","","","","","","","","","","","",""
"psychophysics","363","811441","0.0-18.0-1.39","null","","","","null","","","","key","16.664793103451615","683","328.5","","","","","","","","","","","","","140","-1","3","true","","","",""
"psychophysics","364","812172","0.0-18.0-2.39","728.754999989178","","","","77","","","","key","16.66555813953638","683","328.5","","","","","","","","","","","","","","","","","","","",""
"psychophysics","365","812818","0.0-18.0-0.40","null","","","","null","","","","key","16.66552631578739","683","328.5","","","","","","","","","","","","","","","","","","","",""
"psychophysics","366","813321","0.0-18.0-1.40","null","","","","null","","","","key","19.34848000000231","683","328.5","","","","","","","","","","","","","140","1","2","true","","","",""
"psychophysics","367","815025","0.0-18.0-2.40","1700.8999999961816","","","","77","","","","key","16.665524752475182","683","328.5","","","","","","","","","","","","","","","","","","","",""
"psychophysics","368","815568","0.0-18.0-0.41","null","","","","null","","","","key","16.66553125000064","683","328.5","","","","","","","","","","","","","","","","","","","",""
"psychophysics","369","816072","0.0-18.0-1.41","null","","","","null","","","","key","16.66555172413716","683","328.5","","","","","","","","","","","","","140","1","4","true","","","",""
"psychophysics","370","816183","0.0-18.0-2.41","108.07499999646097","","","","77","","","","key","16.667200000002047","683","328.5","","","","","","","","","","","","","","","","","","","",""
"psychophysics","371","817117","0.0-18.0-0.42","null","","","","null","","","","key","16.66010714285741","683","328.5","","","","","","","","","","","","","","","","","","","",""
"psychophysics","372","817621","0.0-18.0-1.42","null","","","","null","","","","key","16.667689655172833","683","328.5","","","","","","","","","","","","","140","1","6","true","","","",""
"psychophysics","373","817702","0.0-18.0-2.42","78.36500002304092","","","","77","","","","key","16.66349999999511","683","328.5","","","","","","","","","","","","","","","","","","","",""
"psychophysics","374","819149","0.0-18.0-0.43","null","","","","null","","","","key","16.665418604651446","683","328.5","","","","","","","","","","","","","","","","","","","",""
"psychophysics","375","819652","0.0-18.0-1.43","null","","","","null","","","","key","16.666068965520967","683","328.5","","","","","","","","","","","","","140","1","0","true","","","",""
"psychophysics","376","819769","0.0-18.0-2.43","113.82000002777204","","","","77","","","","key","16.66416666666434","683","328.5","","","","","","","","","","","","","","","","","","","",""
"psychophysics","377","820485","0.0-18.0-0.44","null","","","","null","","","","key","18.917891891890307","683","328.5","","","","","","","","","","","","","","","","","","","",""
"psychophysics","378","820989","0.0-18.0-1.44","null","","","","null","","","","key","16.665896551723687","683","328.5","","","","","","","","","","","","","140","-1","4","true","","","",""
"psychophysics","379","821973","0.0-18.0-2.44","980.6800000369549","","","","77","","","","key","16.66582456140436","683","328.5","","","","","","","","","","","","","","","","","","","",""
"psychophysics","380","822839","0.0-18.0-0.45","null","","","","null","","","","key","16.665365384616262","683","328.5","","","","","","","","","","","","","","","","","","","",""
"psychophysics","381","823349","0.0-18.0-1.45","null","","","","null","","","","key","16.66469999999972","683","328.5","","","","","","","","","","","","","140","-1","2","true","","","",""
"psychophysics","382","823971","0.0-18.0-2.45","619.4299999624491","","","","77","","","","key","16.665416666668737","683","328.5","","","","","","","","","","","","","","","","","","","",""
"psychophysics","383","824650","0.0-18.0-0.46","null","","","","null","","","","key","16.66469999999972","683","328.5","","","","","","","","","","","","","","","","","","","",""
"psychophysics","384","825154","0.0-18.0-1.46","null","","","","null","","","","key","16.66582758620317","683","328.5","","","","","","","","","","","","","140","1","5","true","","","",""
"psychophysics","385","825250","0.0-18.0-2.46","93.3649999788031","","","","77","","","","key","16.65875000000233","683","328.5","","","","","","","","","","","","","","","","","","","",""
"psychophysics","386","826367","0.0-18.0-0.47","null","","","","null","","","","key","16.918090909089766","683","328.5","","","","","","","","","","","","","","","","","","","",""
"psychophysics","387","826871","0.0-18.0-1.47","null","","","","null","","","","key","16.66548275862066","683","328.5","","","","","","","","","","","","","140","-1","0","true","","","",""
"psychophysics","388","827717","0.0-18.0-2.47","842.960000038147","","","","90","","","","key","16.66514285714413","683","328.5","","","","","","","","","","","","","","","","","","","",""
"psychophysics","389","828446","0.0-18.0-0.48","null","","","","null","","","","key","16.665906976743297","683","328.5","","","","","","","","","","","","","","","","","","","",""
"psychophysics","390","828951","0.0-18.0-1.48","null","","","","null","","","","key","16.66546666666788","683","328.5","","","","","","","","","","","","","140","1","4","true","","","",""
"psychophysics","391","829071","0.0-18.0-2.48","117.65999998897314","","","","90","","","","key","16.66940000001341","683","328.5","","","","","","","","","","","","","","","","","","","",""
"psychophysics","392","830532","0.0-18.0-0.49","null","","","","null","","","","key","16.66488636363647","683","328.5","","","","","","","","","","","","","","","","","","","",""
"psychophysics","393","831035","0.0-18.0-1.49","null","","","","null","","","","key","16.665103448277886","683","328.5","","","","","","","","","","","","","140","1","6","true","","","",""
"psychophysics","394","831800","0.0-18.0-2.49","762.6600000075996","","","","77","","","","key","16.665431818181375","683","328.5","","","","","","","","","","","","","","","","","","","",""
"psychophysics","395","833092","0.0-18.0-0.50","null","","","","null","","","","key","16.665402597403034","683","328.5","","","","","","","","","","","","","","","","","","","",""
"psychophysics","396","833601","0.0-18.0-1.50","null","","","","null","","","","key","16.664733333330755","683","328.5","","","","","","","","","","","","","140","1","2","true","","","",""
"psychophysics","397","834521","0.0-18.0-2.50","917.0800000429153","","","","90","","","","key","16.66537037037132","683","328.5","","","","","","","","","","","","","","","","","","","",""
"psychophysics","398","835299","0.0-18.0-0.51","null","","","","null","","","","key","16.664673913044997","683","328.5","","","","","","","","","","","","","","","","","","","",""
"psychophysics","399","835802","0.0-18.0-1.51","null","","","","null","","","","key","16.664965517240866","683","328.5","","","","","","","","","","","","","140","-1","5","true","","","",""
"psychophysics","400","837132","0.0-18.0-2.51","1325.269999972079","","","","77","","","","key","16.664797468354063","683","328.5","","","","","","","","","","","","","","","","","","","",""
"psychophysics","401","838482","0.0-18.0-0.52","null","","","","null","","","","key","16.665575000000537","683","328.5","","","","","","","","","","","","","","","","","","","",""
"psychophysics","402","838989","0.0-18.0-1.52","null","","","","null","","","","key","16.664448275861073","683","328.5","","","","","","","","","","","","","140","-1","2","true","","","",""
"psychophysics","403","839766","0.0-18.0-2.52","774.4100000127219","","","","90","","","","key","16.66456521739272","683","328.5","","","","","","","","","","","","","","","","","","","",""
"psychophysics","404","840782","0.0-18.0-0.53","null","","","","null","","","","key","16.66555000000129","683","328.5","","","","","","","","","","","","","","","","","","","",""
"psychophysics","405","841285","0.0-18.0-1.53","null","","","","null","","","","key","16.663862068968793","683","328.5","","","","","","","","","","","","","140","-1","4","true","","","",""
"psychophysics","406","841937","0.0-18.0-2.53","649.6700000134297","","","","90","","","","key","16.664578947367293","683","328.5","","","","","","","","","","","","","","","","","","","",""
"psychophysics","407","843432","0.0-18.0-0.54","null","","","","null","","","","key","17.048839080459224","683","328.5","","","","","","","","","","","","","","","","","","","",""
"psychophysics","408","843938","0.0-18.0-1.54","null","","","","null","","","","key","16.665379310343898","683","328.5","","","","","","","","","","","","","140","-1","6","true","","","",""
"psychophysics","409","844615","0.0-18.0-2.54","674.9299999792129","","","","77","","","","key","16.6651025641029","683","328.5","","","","","","","","","","","","","","","","","","","",""
"psychophysics","410","845166","0.0-18.0-0.55","null","","","","null","","","","key","17.186187499999505","683","328.5","","","","","","","","","","","","","","","","","","","",""
"psychophysics","411","845671","0.0-18.0-1.55","null","","","","null","","","","key","16.672241379310183","683","328.5","","","","","","","","","","","","","140","-1","0","true","","","",""
"psychophysics","412","845985","0.0-18.0-2.55","303.2149999635294","","","","77","","","","key","16.6648333333368","683","328.5","","","","","","","","","","","","","","","","","","","",""
"psychophysics","413","846931","0.0-18.0-0.56","null","","","","null","","","","key","16.664910714285465","683","328.5","","","","","","","","","","","","","","","","","","","",""
"psychophysics","414","847435","0.0-18.0-1.56","null","","","","null","","","","key","16.66437931034457","683","328.5","","","","","","","","","","","","","140","-1","3","true","","","",""
"psychophysics","415","847614","0.0-18.0-2.56","177.094999991823","","","","77","","","","key","16.66199999999824","683","328.5","","","","","","","","","","","","","","","","","","","",""
"psychophysics","416","848322","0.0-18.0-0.57","null","","","","null","","","","key","16.66514285714255","683","328.5","","","","","","","","","","","","","","","","","","","",""
"psychophysics","417","848832","0.0-18.0-1.57","null","","","","null","","","","key","17.23910344827615","683","328.5","","","","","","","","","","","","","140","1","0","true","","","",""
"psychophysics","418","850981","0.0-18.0-2.57","2145.474999968428","","","","77","","","","key","16.665354330708663","683","328.5","","","","","","","","","","","","","","","","","","","",""
"psychophysics","419","852170","0.0-18.0-0.58","null","","","","null","","","","key","16.66550704225419","683","328.5","","","","","","","","","","","","","","","","","","","",""
"psychophysics","420","852681","0.0-18.0-1.58","null","","","","null","","","","key","16.66369999999879","683","328.5","","","","","","","","","","","","","140","1","3","true","","","",""
"psychophysics","421","853247","0.0-18.0-2.58","562.7000000094995","","","","77","","","","key","16.66503124999872","683","328.5","","","","","","","","","","","","","","","","","","","",""
"psychophysics","422","853901","0.0-18.0-0.59","null","","","","null","","","","key","16.665512820511747","683","328.5","","","","","","","","","","","","","","","","","","","",""
"psychophysics","423","854403","0.0-18.0-1.59","null","","","","null","","","","key","18.58799999999778","683","328.5","","","","","","","","","","","","","140","1","5","true","","","",""
"psychophysics","424","855098","0.0-18.0-2.59","691.7499999981374","","","","77","","","","key","16.664874999999302","683","328.5","","","","","","","","","","","","","","","","","","","",""
"html-keyboard-response","425","892442","0.0-19.0","37341.980000026524","<p>Well Done !</p><p>Take a minute to rest and then press the spacebar to start the next block.</p><p>DON'T EXIT THE FULL SCREEN MODE</p>","","","32","","","","","","","","","","","","","","","","","","","","","","","","","","",""
"psychophysics","426","895952","0.0-20.0-0.0","null","","","","null","","","","key","16.667363636363667","683","328.5","","","","","","","","","","","","","","","","","","","",""
"psychophysics","427","896460","0.0-20.0-1.0","null","","","","null","","","","key","16.66543333333296","683","328.5","","","","","","","","","","","","","140","-1","3","true","","","",""
"psychophysics","428","898276","0.0-20.0-2.0","1811.5600000019185","","","","77","","","","key","16.66497196261684","683","328.5","","","","","","","","","","","","","","","","","","","",""
"psychophysics","429","898918","0.0-20.0-0.1","null","","","","null","","","","key","16.65844736841973","683","328.5","","","","","","","","","","","","","","","","","","","",""
"psychophysics","430","899429","0.0-20.0-1.1","null","","","","null","","","","key","16.664500000001862","683","328.5","","","","","","","","","","","","","140","1","6","true","","","",""
"psychophysics","431","900918","0.0-20.0-2.1","1486.4199999719858","","","","77","","","","key","16.665988636364503","683","328.5","","","","","","","","","","","","","","","","","","","",""
"psychophysics","432","901512","0.0-20.0-0.2","null","","","","null","","","","key","16.665114285713727","683","328.5","","","","","","","","","","","","","","","","","","","",""
"psychophysics","433","902042","0.0-20.0-1.2","null","","","","null","","","","key","17.239379310342162","683","328.5","","","","","","","","","","","","","140","-1","2","true","","","",""
"psychophysics","434","902720","0.0-20.0-2.2","671.6049999813549","","","","90","","","","key","16.665499999999884","683","328.5","","","","","","","","","","","","","","","","","","","",""
"psychophysics","435","903916","0.0-20.0-0.3","null","","","","null","","","","key","16.665450704226625","683","328.5","","","","","","","","","","","","","","","","","","","",""
"psychophysics","436","904427","0.0-20.0-1.3","null","","","","null","","","","key","16.665833333332557","683","328.5","","","","","","","","","","","","","140","1","5","true","","","",""
"psychophysics","437","905128","0.0-20.0-2.3","697.6750000030734","","","","77","","","","key","16.664875000002212","683","328.5","","","","","","","","","","","","","","","","","","","",""
"psychophysics","438","906370","0.0-20.0-0.4","null","","","","null","","","","key","16.66544594594617","683","328.5","","","","","","","","","","","","","","","","","","","",""
"psychophysics","439","906883","0.0-20.0-1.4","null","","","","null","","","","key","16.78776666666381","683","328.5","","","","","","","","","","","","","140","-1","5","true","","","",""
"psychophysics","440","907244","0.0-20.0-2.4","357.68499999539927","","","","77","","","","key","18.499388888885733","683","328.5","","","","","","","","","","","","","","","","","","","",""
"psychophysics","441","908718","0.0-20.0-0.5","null","","","","null","","","","key","16.665181818181406","683","328.5","","","","","","","","","","","","","","","","","","","",""
"psychophysics","442","909246","0.0-20.0-1.5","null","","","","null","","","","key","17.21996666666431","683","328.5","","","","","","","","","","","","","140","1","2","true","","","",""
"psychophysics","443","909297","0.0-20.0-2.5","48.16000000573695","","","","77","","","","key","16.67199999996228","683","328.5","","","","","","","","","","","","","","","","","","","",""
"psychophysics","444","910146","0.0-20.0-0.6","null","","","","null","","","","key","16.665560000000987","683","328.5","","","","","","","","","","","","","","","","","","","",""
"psychophysics","445","910650","0.0-20.0-1.6","null","","","","null","","","","key","16.665241379310892","683","328.5","","","","","","","","","","","","","140","1","4","true","","","",""
"psychophysics","446","912148","0.0-20.0-2.6","1495.3549999627285","","","","77","","","","key","16.66520224719078","683","328.5","","","","","","","","","","","","","","","","","","","",""
"psychophysics","447","912861","0.0-20.0-0.7","null","","","","null","","","","key","16.665357142858696","683","328.5","","","","","","","","","","","","","","","","","","","",""
"psychophysics","448","913365","0.0-20.0-1.7","null","","","","null","","","","key","16.571965517239356","683","328.5","","","","","","","","","","","","","140","-1","6","true","","","",""
"psychophysics","449","913527","0.0-20.0-2.7","158.60999998403713","","","","77","","","","key","16.66562500000873","683","328.5","","","","","","","","","","","","","","","","","","","",""
"psychophysics","450","914511","0.0-20.0-0.8","null","","","","null","","","","key","16.664474576269672","683","328.5","","","","","","","","","","","","","","","","","","","",""
"psychophysics","451","915015","0.0-20.0-1.8","null","","","","null","","","","key","16.664034482758044","683","328.5","","","","","","","","","","","","","140","-1","4","true","","","",""
"psychophysics","452","915027","0.0-20.0-2.8","9.135000000242144","","","","77","","","","key","NaN","683","328.5","","","","","","","","","","","","","","","","","","","",""
"psychophysics","453","916361","0.0-20.0-0.9","null","","","","null","","","","key","16.665224999999918","683","328.5","","","","","","","","","","","","","","","","","","","",""
"psychophysics","454","916866","0.0-20.0-1.9","null","","","","null","","","","key","16.663896551721024","683","328.5","","","","","","","","","","","","","140","1","0","true","","","",""
"psychophysics","455","917811","0.0-20.0-2.9","942.8400000324473","","","","90","","","","key","16.59785714285681","683","328.5","","","","","","","","","","","","","","","","","","","",""
"psychophysics","456","919099","0.0-20.0-0.10","null","","","","null","","","","key","16.66461842105185","683","328.5","","","","","","","","","","","","","","","","","","","",""
"psychophysics","457","919602","0.0-20.0-1.10","null","","","","null","","","","key","16.664172413791047","683","328.5","","","","","","","","","","","","","140","1","3","true","","","",""
"psychophysics","458","921076","0.0-20.0-2.10","1463.709999981802","","","","90","","","","key","16.66526436781639","683","328.5","","","","","","","","","","","","","","","","","","","",""
"psychophysics","459","922233","0.0-20.0-0.11","null","","","","null","","","","key","16.66650724637599","683","328.5","","","","","","","","","","","","","","","","","","","",""
"psychophysics","460","922736","0.0-20.0-1.11","null","","","","null","","","","key","19.33123999999836","683","328.5","","","","","","","","","","","","","140","-1","0","true","","","",""
"psychophysics","461","923243","0.0-20.0-2.11","493.43500001123175","","","","90","","","","key","16.665275862071148","683","328.5","","","","","","","","","","","","","","","","","","","",""
"psychophysics","462","923814","0.0-20.0-0.12","null","","","","null","","","","key","16.66517647058936","683","328.5","","","","","","","","","","","","","","","","","","","",""
"psychophysics","463","924317","0.0-20.0-1.12","null","","","","null","","","","key","16.6647241379311","683","328.5","","","","","","","","","","","","","140","-1","5","true","","","",""
"psychophysics","464","924675","0.0-20.0-2.12","345.3950000111945","","","","90","","","","key","16.664650000003167","683","328.5","","","","","","","","","","","","","","","","","","","",""
"psychophysics","465","926077","0.0-20.0-0.13","null","","","","null","","","","key","16.650261904761596","683","328.5","","","","","","","","","","","","","","","","","","","",""
"psychophysics","466","926580","0.0-20.0-1.13","null","","","","null","","","","key","16.665931034483947","683","328.5","","","","","","","","","","","","","140","-1","0","true","","","",""
"psychophysics","467","926993","0.0-20.0-2.13","410.44499998679385","","","","90","","","","key","19.165299999999114","683","328.5","","","","","","","","","","","","","","","","","","","",""
"psychophysics","468","927709","0.0-20.0-0.14","null","","","","null","","","","key","16.665697674418606","683","328.5","","","","","","","","","","","","","","","","","","","",""
"psychophysics","469","928214","0.0-20.0-1.14","null","","","","null","","","","key","16.66424137930755","683","328.5","","","","","","","","","","","","","140","-1","2","true","","","",""
"psychophysics","470","928572","0.0-20.0-2.14","351.7250000149943","","","","90","","","","key","16.664649999997344","683","328.5","","","","","","","","","","","","","","","","","","","",""
