"trial_type","trial_index","time_elapsed","internal_node_id","rt","stimulus","button_pressed","success","key_press","responses","isData","view_history","response_type","avg_frame_time","center_x","center_y","isSC","stim_side","trial_luminance","step_size","nReversal","correct","prev_ans","isThreshold","SC_threshold","final_threshold","isLuminance","FF_luminance","luminance","stimSide","ISInt","isFF","question_order","isSPQ","isCAPS","isAQ"
"pavlovia","0","21","0.0-0.0","","","","","","","","","","","","","","","","","","","","","","","","","","","","","","","",""
"html-button-response","1","3432","0.0-1.0","3408.624999981839","<div style='background-color: white; width:60%; margin: auto; padding: 50px; text-align: justify; text-justify: inter-word; margin-bottom: 20px;'><h1 style='text-align: center;'>Consent Form</h1><p>Please read this consent form carefully before deciding whether you would like to participate in this study. You have to be 18 years old or older to participate to this study.</p><p style='text-decoration: underline;'>Participation is voluntary:</p><p>It is your choice whether or not to participate in this research. If you choose to participate, you may change your mind and leave the study at any time. Refusal to participate or stopping your participation will involve no penalty or loss of benefits to which you are otherwise entitled.</p><p style='text-decoration: underline;'>Purpose of the Study:</p><p>To understand the mechanisms underlying human perception.</p><p style='text-decoration: underline;'>What you will do in this study:</p><p>You will be presented with a series of visual images and then you will press buttons on the keyboard of your computer to respond to simple questions about the images (e.g. Were one or two images presented?). In addition, you will be asked to complete a questionnaire concerning your beliefs and everyday mental and perceptual experiences.'</p><p style='text-decoration: underline;'> Time Required:</p><p>The study will take 40 minutes to complete. </p><p style='text-decoration: underline;'>Risks:</p><p>There are no anticipated risks associated with participating in this study that are beyond those experienced in everyday life. </p><p style='text-decoration: underline;'>Benefits:</p><p>There are no benefits to you in participating in the study. However, this study may lead to a better understanding of how different kinds of visual information are used.</p><p style='text-decoration: underline;'>Compensation:</p><p>You will be paid US$6.6/hour. </p><p style='text-decoration: underline;'>Privacy and Confidentiality:</p><p>Your participation in this study will be anonymous. No personal information about your name or identity will be asked or recorded. This anonymous data will be stored for several years and may be used for a variety of research purposes. The overall results of the study may be published, or the data files may be shared with other researchers, but your identity will not be revealed in any way. The online services we are using for this study may temporarily store your data, but this data will be downloaded and then promptly deleted from those services.Your data will not be permanently associated with your name, IP address, or any other identifiable information (e.g., your information will only be connected to your payment, not to any of your responses), though they may be temporarily stored together before we download and separate them. Even so, no guarantee of internet survey security can be given because, although unlikely, transmissions can be intercepted and IP addresses can be identified. The anonymous data may be shared publicly (for example, in conjunction with a resulting academic publication).</p><p style='text-decoration: underline;'>Participation and Withdrawal:</p><p>Your participation in this study is completely voluntary. You may stop responding to the stimuli or stop answering questions if you so choose and without penalty by exiting the full screen mode, closing this tab of your browser or redirecting it to a different website.</p><p style='text-decoration: underline;'>Contact Info of the Researcher: </p><p>If you have questions about this study, or if you would like to talk to the research team, please contact David Melcher (david.melcher@nyu.edu, md5050@nyu.edu) at the Perception and Active Cognition Laboratory, New York University Abu Dhabi, Computational Research Building, Saadiyat Island, Abu Dhabi, UAE.This research has been reviewed by the New York University Abu Dhabi Institutional Review Board (NYUAD IRB). To contact about your rights in this research, for questions, suggestions, or complaints that are not addressed by the researchers, please email IRBnyuad@nyu.edu, or call the NYUAD IRB at +971 2 628 4313. </p></div>","0","","","","","","","","","","","","","","","","","","","","","","","","","","","","",""
"fullscreen","2","5058","0.0-2.0","","","","true","","","","","","","","","","","","","","","","","","","","","","","","","","","",""
"html-keyboard-response","3","53300","0.0-3.0","48241.68000003556","<p>Welcome !</p><p>READ CAREFULLY THE FOLLOWING INDICATIONS:</p><p>From this moment you have ~40 minutes to complete the experiment.</p><p>During the experiment you will be prompted to take several breaks. Each break should not last longer than 2-3 minutes.</p><p>Make sure that your computer is plugged in and it's not running on battery power, even if the battery is already fully charged.</p><p>Turn off your phone and music, make sure that you are in a quiet room and that you will not be distracted for the next hour.</p><p>Failure to comply with the instructions and indications provided during the experiment will most likely result in the rejection of your data.<p>Press the spacebar to start.</p>","","","32","","","","","","","","","","","","","","","","","","","","","","","","","","",""
"survey-html-form","4","63855","0.0-4.0","10553.245000017341","","","","","{""age"":""23"",""sex"":""M""}","true","","","","","","","","","","","","","","","","","","","","","","","","",""
"instructions","5","108591","0.0-5.0","44734.98000000836","","","","","","","[{""page_index"":0,""viewing_time"":20238.610000000335},{""page_index"":1,""viewing_time"":21527.920000022277},{""page_index"":2,""viewing_time"":2968.044999986887}]","","","","","","","","","","","","","","","","","","","","","","","",""
"psychophysics","6","112000","0.0-6.0-0.0","2405.284999986179","","","","37","","","","key","16.66539512195123","960","484.5","true","-1","180","30","0","-1","","","","","","","","","","","","","",""
"psychophysics","7","113564","0.0-6.0-0.1","557.7950000297278","","","","37","","","","key","16.667580645161358","960","484.5","true","-1","180","30","0","-1","-1","","","","","","","","","","","","",""
"psychophysics","8","114714","0.0-6.0-0.2","139.3199999583885","","","","39","","","","key","16.66186764705879","960","484.5","true","1","150","30","0","-1","-1","","","","","","","","","","","","",""
"psychophysics","9","115834","0.0-6.0-0.3","111.8700000224635","","","","39","","","","key","16.668106060605858","960","484.5","true","1","150","30","0","-1","-1","","","","","","","","","","","","",""
"psychophysics","10","117491","0.0-6.0-0.4","646.245000010822","","","","39","","","","key","16.6660612244897","960","484.5","true","-1","129","24","1","1","-1","","","","","","","","","","","","",""
"psychophysics","11","118629","0.0-6.0-0.5","135.97499998286366","","","","39","","","","key","16.670117647058813","960","484.5","true","1","153","24","1","-1","1","","","","","","","","","","","","",""
"psychophysics","12","119740","0.0-6.0-0.6","104.08000001916662","","","","39","","","","key","16.66613846153845","960","484.5","true","1","153","19.2","2","-1","-1","","","","","","","","","","","","",""
"psychophysics","13","121436","0.0-6.0-0.7","693.2999999844469","","","","39","","","","key","16.664960396039678","960","484.5","true","-1","133.8","15.36","3","1","-1","","","","","","","","","","","","",""
"psychophysics","14","122625","0.0-6.0-0.8","182.78500001179054","","","","37","","","","key","16.662457142857185","960","484.5","true","-1","149.16000000000003","15.36","3","-1","1","","","","","","","","","","","","",""
"psychophysics","15","123782","0.0-6.0-0.9","141.20499999262393","","","","39","","","","key","16.67043478260883","960","484.5","true","1","149.16000000000003","12.287999999999998","4","-1","-1","","","","","","","","","","","","",""
"psychophysics","16","124961","0.0-6.0-0.10","168.27999998349696","","","","37","","","","key","16.661714285714385","960","484.5","true","-1","136.872","12.287999999999998","4","-1","-1","","","","","","","","","","","","",""
"psychophysics","17","126141","0.0-6.0-0.11","178.45499998657033","","","","37","","","","key","16.66810144927539","960","484.5","true","-1","136.872","12.287999999999998","4","-1","-1","","","","","","","","","","","","",""
"psychophysics","18","128095","0.0-6.0-0.12","949.8599999933504","","","","37","","","","key","16.66787179487182","960","484.5","true","-1","129","12.287999999999998","4","-1","-1","","","","","","","","","","","","",""
"psychophysics","19","129600","0.0-6.0-0.13","503.2599999685772","","","","37","","","","key","16.665898876404324","960","484.5","true","1","129","9.8304","5","1","-1","","","","","","","","","","","","",""
"psychophysics","20","130825","0.0-6.0-0.14","215.61000001383945","","","","39","","","","key","16.663541666666585","960","484.5","true","1","138.8304","9.8304","5","-1","1","","","","","","","","","","","","",""
"psychophysics","21","132030","0.0-6.0-0.15","190.4350000550039","","","","39","","","","key","16.668555555555535","960","484.5","true","1","138.8304","7.864319999999999","6","-1","-1","","","","","","","","","","","","",""
"psychophysics","22","133497","0.0-6.0-0.16","456.79999998537824","","","","39","","","","key","16.665850574712685","960","484.5","true","-1","130.96608","6.291456","7","1","-1","","","","","","","","","","","","",""
"psychophysics","23","134695","0.0-6.0-0.17","186.55500002205372","","","","37","","","","key","16.665661971830815","960","484.5","true","-1","137.25753600000002","6.291456","7","-1","1","","","","","","","","","","","","",""
"psychophysics","24","135933","0.0-6.0-0.18","230.57000001426786","","","","39","","","","key","16.666219178082468","960","484.5","true","1","137.25753600000002","5.033164800000001","8","-1","-1","","","","","","","","","","","","",""
"psychophysics","25","137555","0.0-6.0-0.19","618.5150000383146","","","","39","","","","key","16.665625000000244","960","484.5","true","1","132.2243712","5.033164800000001","8","-1","-1","","","","","","","","","","","","",""
"psychophysics","26","139090","0.0-6.0-0.20","533.1000000005588","","","","39","","","","key","16.66602197802174","960","484.5","true","-1","132.2243712","4.0265318400000005","9","1","-1","","","","","","","","","","","","",""
"psychophysics","27","140330","0.0-6.0-0.21","238.3150000241585","","","","39","","","","key","16.671445945945624","960","484.5","true","1","136.25090304","4.0265318400000005","9","-1","1","","","","","","","","","","","","",""
"psychophysics","28","141591","0.0-6.0-0.22","255.5300000240095","","","","39","","","","key","16.662405405405554","960","484.5","true","1","136.25090304","3.2212254720000004","10","-1","-1","","","","","","","","","","","","",""
"psychophysics","29","142884","0.0-6.0-0.23","284.91499996744096","","","","39","","","","key","16.66980519480497","960","484.5","true","1","133.029677568","3.2212254720000004","10","-1","-1","","","","","","","","","","","","",""
"psychophysics","30","144354","0.0-6.0-0.24","462.790000019595","","","","39","","","","key","16.665402298850402","960","484.5","true","1","133.029677568","3.2212254720000004","10","-1","-1","","","","","","","","","","","","",""
"psychophysics","31","145884","0.0-6.0-0.25","524.29500001017","","","","39","","","","key","16.66556043956035","960","484.5","true","-1","129.808452096","2.5769803776000004","11","1","-1","","","","","","","","","","","","",""
"psychophysics","32","147453","0.0-6.0-0.26","561.1350000253879","","","","39","","","","key","16.664086021505163","960","484.5","true","-1","132.3854324736","2.5769803776000004","11","1","1","","","","","","","","","","","","",""
"psychophysics","33","148797","0.0-6.0-0.27","340.96000000135973","","","","37","","","","key","16.669387499999722","960","484.5","true","-1","134.96241285119999","2.5769803776000004","11","-1","1","","","","","","","","","","","","",""
"psychophysics","34","150022","0.0-6.0-0.28","214.5200000377372","","","","37","","","","key","16.6613472222222","960","484.5","true","-1","134.96241285119999","2.0615843020800004","12","-1","-1","","","","","","","","","","","","",""
"psychophysics","35","151199","0.0-6.0-0.29","174.31500001112","","","","39","","","","key","16.671085714285645","960","484.5","true","1","132.90082854911998","2.0615843020800004","12","-1","-1","","","","","","","","","","","","",""
"psychophysics","36","152550","0.0-6.0-0.30","348.60999998636544","","","","37","","","","key","16.666112499999873","960","484.5","true","-1","132.90082854911998","2.0615843020800004","12","-1","-1","","","","","","","","","","","","",""
"psychophysics","37","153954","0.0-6.0-0.31","397.64000003924593","","","","37","","","","key","16.665530120481943","960","484.5","true","1","130.83924424703997","1.6492674416640005","13","1","-1","","","","","","","","","","","","",""
"psychophysics","38","155377","0.0-6.0-0.32","418.81499998271465","","","","37","","","","key","16.664047058823396","960","484.5","true","1","132.48851168870397","1.6492674416640005","13","1","1","","","","","","","","","","","","",""
"psychophysics","39","156654","0.0-6.0-0.33","268.7549999682233","","","","37","","","","key","16.661773333333354","960","484.5","true","-1","134.13777913036796","1.6492674416640005","13","-1","1","","","","","","","","","","","","",""
"psychophysics","40","157973","0.0-6.0-0.34","315.54500001948327","","","","37","","","","key","16.666256410256327","960","484.5","true","-1","134.13777913036796","1.3194139533312006","14","-1","-1","","","","","","","","","","","","",""
"psychophysics","41","159311","0.0-6.0-0.35","334.9150000140071","","","","37","","","","key","16.66899999999987","960","484.5","true","-1","132.81836517703675","1.3194139533312006","14","-1","-1","","","","","","","","","","","","",""
"psychophysics","42","160779","0.0-6.0-0.36","458.5850000148639","","","","39","","","","key","16.663770114942775","960","484.5","true","1","132.81836517703675","1.3194139533312006","14","-1","-1","","","","","","","","","","","","",""
"psychophysics","43","162281","0.0-6.0-0.37","496.599999954924","","","","39","","","","key","16.665606741572724","960","484.5","true","1","131.49895122370555","1.3194139533312006","14","-1","-1","","","","","","","","","","","","",""
"psychophysics","44","163771","0.0-6.0-0.38","480.32999999122694","","","","39","","","","key","16.665806818181988","960","484.5","true","-1","131.49895122370555","1.0555311626649604","15","1","-1","","","","","","","","","","","","",""
"psychophysics","45","165523","0.0-6.0-0.39","749.0749999997206","","","","39","","","","key","16.667048076923283","960","484.5","true","1","132.5544823863705","1.0555311626649604","15","-1","1","","","","","","","","","","","","",""
"html-keyboard-response","46","167751","0.0-7.0","2225.6349999806844","<p>Well Done !</p><p>Prepare for a new block.</p><p>DON'T EXIT THE FULL SCREEN MODE</p><p>Press the Spacebar to start.</p>","","","32","","","","","","","","","","","","","","","true","132.714186450305","","","","","","","","","","",""
"psychophysics","47","168895","0.0-8.0-0.0","142.33500004047528","","","","39","","","","key","16.665971014493035","960","484.5","true","1","180","30","0","-1","","","","","","","","","","","","","",""
"psychophysics","48","170039","0.0-8.0-0.1","141.39499998418614","","","","39","","","","key","16.670149253731257","960","484.5","true","1","180","30","0","-1","-1","","","","","","","","","","","","",""
"psychophysics","49","171199","0.0-8.0-0.2","156.6350000211969","","","","39","","","","key","16.6696086956523","960","484.5","true","1","150","30","0","-1","-1","","","","","","","","","","","","",""
"psychophysics","50","172330","0.0-8.0-0.3","129.26000001607463","","","","39","","","","key","16.663059701492365","960","484.5","true","1","150","30","0","-1","-1","","","","","","","","","","","","",""
"psychophysics","51","173719","0.0-8.0-0.4","388.2749999756925","","","","39","","","","key","16.66885365853647","960","484.5","true","1","129","30","0","-1","-1","","","","","","","","","","","","",""
"psychophysics","52","175244","0.0-8.0-0.5","523.9699999801815","","","","39","","","","key","16.665472527472417","960","484.5","true","-1","129","24","1","1","-1","","","","","","","","","","","","",""
"psychophysics","53","176364","0.0-8.0-0.6","116.73499998869374","","","","39","","","","key","16.664696969696898","960","484.5","true","1","153","24","1","-1","1","","","","","","","","","","","","",""
"psychophysics","54","177621","0.0-8.0-0.7","256.1850000056438","","","","39","","","","key","16.663378378378333","960","484.5","true","1","153","19.2","2","-1","-1","","","","","","","","","","","","",""
"psychophysics","55","178832","0.0-8.0-0.8","208.62500002840534","","","","39","","","","key","16.670736111111182","960","484.5","true","1","133.8","19.2","2","-1","-1","","","","","","","","","","","","",""
"psychophysics","56","179961","0.0-8.0-0.9","128.20999999530613","","","","37","","","","key","16.666328358208958","960","484.5","true","-1","133.8","19.2","2","-1","-1","","","","","","","","","","","","",""
"psychophysics","57","181997","0.0-8.0-0.10","1033.5099999792874","","","","37","","","","key","16.664190082644616","960","484.5","true","-1","129","19.2","2","-1","-1","","","","","","","","","","","","",""
"psychophysics","58","183415","0.0-8.0-0.11","416.6100000147708","","","","37","","","","key","16.66405952380938","960","484.5","true","-1","129","19.2","2","-1","-1","","","","","","","","","","","","",""
"psychophysics","59","184814","0.0-8.0-0.12","397.9850000469014","","","","37","","","","key","16.6664578313252","960","484.5","true","-1","129","19.2","2","-1","-1","","","","","","","","","","","","",""
"psychophysics","60","186275","0.0-8.0-0.13","459.7000000067055","","","","37","","","","key","16.664022988505625","960","484.5","true","-1","129","19.2","2","-1","-1","","","","","","","","","","","","",""
"psychophysics","61","187767","0.0-8.0-0.14","489.9999999906868","","","","37","","","","key","16.665818181818228","960","484.5","true","-1","129","19.2","2","-1","-1","","","","","","","","","","","","",""
"psychophysics","62","189235","0.0-8.0-0.15","465.94500000355765","","","","37","","","","key","16.6640689655173","960","484.5","true","1","129","15.36","3","1","-1","","","","","","","","","","","","",""
"psychophysics","63","190383","0.0-8.0-0.16","146.33000001776963","","","","37","","","","key","16.66666176470565","960","484.5","true","-1","144.36","15.36","3","-1","1","","","","","","","","","","","","",""
"psychophysics","64","191572","0.0-8.0-0.17","186.93999998504296","","","","37","","","","key","16.665114285714143","960","484.5","true","-1","144.36","12.287999999999998","4","-1","-1","","","","","","","","","","","","",""
"psychophysics","65","193232","0.0-8.0-0.18","657.984999998007","","","","37","","","","key","16.667777777777637","960","484.5","true","-1","132.072","12.287999999999998","4","-1","-1","","","","","","","","","","","","",""
"psychophysics","66","194621","0.0-8.0-0.19","387.589999998454","","","","37","","","","key","16.66779268292707","960","484.5","true","1","132.072","9.8304","5","1","-1","","","","","","","","","","","","",""
"psychophysics","67","195749","0.0-8.0-0.20","126.1349999695085","","","","39","","","","key","16.668402985074565","960","484.5","true","1","141.9024","9.8304","5","-1","1","","","","","","","","","","","","",""
"psychophysics","68","196940","0.0-8.0-0.21","189.00500005111098","","","","39","","","","key","16.667242857142785","960","484.5","true","1","141.9024","7.864319999999999","6","-1","-1","","","","","","","","","","","","",""
"psychophysics","69","198186","0.0-8.0-0.22","244.54500002320856","","","","39","","","","key","16.669108108108443","960","484.5","true","1","134.03808","7.864319999999999","6","-1","-1","","","","","","","","","","","","",""
"psychophysics","70","199322","0.0-8.0-0.23","134.04000003356487","","","","37","","","","key","16.667567164179307","960","484.5","true","-1","134.03808","7.864319999999999","6","-1","-1","","","","","","","","","","","","",""
"psychophysics","71","200729","0.0-8.0-0.24","404.22000002581626","","","","37","","","","key","16.66848809523799","960","484.5","true","-1","129","7.864319999999999","6","-1","-1","","","","","","","","","","","","",""
"psychophysics","72","202135","0.0-8.0-0.25","404.439999954775","","","","37","","","","key","16.663999999999923","960","484.5","true","-1","129","7.864319999999999","6","-1","-1","","","","","","","","","","","","",""
"psychophysics","73","203647","0.0-8.0-0.26","509.46000003023073","","","","37","","","","key","16.668344444444585","960","484.5","true","1","129","6.291456","7","1","-1","","","","","","","","","","","","",""
"psychophysics","74","204814","0.0-8.0-0.27","165.31999997096136","","","","37","","","","key","16.669217391304446","960","484.5","true","-1","135.291456","6.291456","7","-1","1","","","","","","","","","","","","",""
"psychophysics","75","205942","0.0-8.0-0.28","125.57999999262393","","","","37","","","","key","16.661268656716313","960","484.5","true","-1","135.291456","5.033164800000001","8","-1","-1","","","","","","","","","","","","",""
"psychophysics","76","207212","0.0-8.0-0.29","267.05999998375773","","","","37","","","","key","16.66849333333356","960","484.5","true","-1","130.2582912","5.033164800000001","8","-1","-1","","","","","","","","","","","","",""
"psychophysics","77","208576","0.0-8.0-0.30","361.6500000352971","","","","37","","","","key","16.66628395061707","960","484.5","true","-1","130.2582912","5.033164800000001","8","-1","-1","","","","","","","","","","","","",""
"psychophysics","78","209615","0.0-8.0-0.31","37.34999999869615","","","","39","","","","key","16.66290163934435","960","484.5","true","1","129","5.033164800000001","8","-1","-1","","","","","","","","","","","","",""
"psychophysics","79","211588","0.0-8.0-0.32","971.9199999817647","","","","39","","","","key","16.66383760683781","960","484.5","true","1","129","5.033164800000001","8","-1","-1","","","","","","","","","","","","",""
"psychophysics","80","212755","0.0-8.0-0.33","163.08500000741333","","","","37","","","","key","16.671724637680978","960","484.5","true","-1","129","5.033164800000001","8","-1","-1","","","","","","","","","","","","",""
"psychophysics","81","214147","0.0-8.0-0.34","389.6999999997206","","","","37","","","","key","16.669554216867166","960","484.5","true","1","129","4.0265318400000005","9","1","-1","","","","","","","","","","","","",""
"psychophysics","82","215193","0.0-8.0-0.35","45.160000037867576","","","","39","","","","key","16.663451612903078","960","484.5","true","1","133.02653184","4.0265318400000005","9","-1","1","","","","","","","","","","","","",""
"psychophysics","83","216994","0.0-8.0-0.36","799.7299999697134","","","","39","","","","key","16.668214953270855","960","484.5","true","1","133.02653184","3.2212254720000004","10","-1","-1","","","","","","","","","","","","",""
"psychophysics","84","218511","0.0-8.0-0.37","513.7400000239722","","","","39","","","","key","16.66385555555559","960","484.5","true","-1","129.805306368","2.5769803776000004","11","1","-1","","","","","","","","","","","","",""
"psychophysics","85","219920","0.0-8.0-0.38","407.5650000013411","","","","39","","","","key","16.66783132530112","960","484.5","true","1","132.3822867456","2.5769803776000004","11","-1","1","","","","","","","","","","","","",""
"psychophysics","86","221269","0.0-8.0-0.39","345.94500000821427","","","","39","","","","key","16.66396249999998","960","484.5","true","-1","132.3822867456","2.0615843020800004","12","1","-1","","","","","","","","","","","","",""
"html-keyboard-response","87","222659","0.0-9.0","1388.8399999705143","<p>Well Done !</p><p>Prepare for a new block.</p><p>DON'T EXIT THE FULL SCREEN MODE</p><p>Press the Spacebar to start.</p>","","","32","","","","","","","","","","","","","","","true","131.04816252927998","","","","","","","","","","",""
"psychophysics","88","223711","0.0-10.0-0.0","49.73999998765066","","","","39","","","","key","16.66719047619041","960","484.5","true","1","180","30","0","-1","","","","","","","","","","","","","",""
"psychophysics","89","226546","0.0-10.0-0.1","1834.244999976363","","","","37","","","","key","16.66525443786991","960","484.5","true","-1","180","30","0","-1","-1","","","","","","","","","","","","",""
"psychophysics","90","228054","0.0-10.0-0.2","504.51499997870997","","","","39","","","","key","16.667606741572886","960","484.5","true","1","150","30","0","-1","-1","","","","","","","","","","","","",""
"psychophysics","91","229221","0.0-10.0-0.3","165.63000000314787","","","","39","","","","key","16.66957971014494","960","484.5","true","1","150","30","0","-1","-1","","","","","","","","","","","","",""
"psychophysics","92","230686","0.0-10.0-0.4","463.94500002497807","","","","39","","","","key","16.664999999999786","960","484.5","true","1","129","30","0","-1","-1","","","","","","","","","","","","",""
"psychophysics","93","232110","0.0-10.0-0.5","422.0750000094995","","","","39","","","","key","16.666388235294246","960","484.5","true","1","129","30","0","-1","-1","","","","","","","","","","","","",""
"psychophysics","94","233557","0.0-10.0-0.6","444.3350000074133","","","","39","","","","key","16.669848837209177","960","484.5","true","-1","129","24","1","1","-1","","","","","","","","","","","","",""
"psychophysics","95","234686","0.0-10.0-0.7","126.96500000311062","","","","39","","","","key","16.661136363636064","960","484.5","true","1","153","24","1","-1","1","","","","","","","","","","","","",""
"psychophysics","96","238159","0.0-10.0-0.8","2470.5449999892153","","","","37","","","","key","16.666956730769297","960","484.5","true","1","153","19.2","2","1","-1","","","","","","","","","","","","",""
"psychophysics","97","239293","0.0-10.0-0.9","131.04499998735264","","","","37","","","","key","16.66711940298486","960","484.5","true","-1","172.2","19.2","2","-1","1","","","","","","","","","","","","",""
"psychophysics","98","240332","0.0-10.0-0.10","38.00499998033047","","","","39","","","","key","16.665737704917802","960","484.5","true","1","172.2","15.36","3","-1","-1","","","","","","","","","","","","",""
"psychophysics","99","241336","0.0-10.0-0.11","2.579999971203506","","","","37","","","","key","16.661864406779465","960","484.5","true","-1","156.83999999999997","15.36","3","-1","-1","","","","","","","","","","","","",""
"psychophysics","100","242391","0.0-10.0-0.12","53.70500002754852","","","","39","","","","key","16.667238095238442","960","484.5","true","1","156.83999999999997","15.36","3","-1","-1","","","","","","","","","","","","",""
"psychophysics","101","243460","0.0-10.0-0.13","66.57999998424202","","","","39","","","","key","16.66519047619058","960","484.5","true","1","141.47999999999996","15.36","3","-1","-1","","","","","","","","","","","","",""
"psychophysics","102","244473","0.0-10.0-0.14","10.590000019874424","","","","37","","","","key","16.667683333333116","960","484.5","true","-1","141.47999999999996","15.36","3","-1","-1","","","","","","","","","","","","",""
"psychophysics","103","246436","0.0-10.0-0.15","961.2900000065565","","","","39","","","","key","16.665948275862068","960","484.5","true","-1","129","12.287999999999998","4","1","-1","","","","","","","","","","","","",""
"psychophysics","104","247493","0.0-10.0-0.16","56.0399999958463","","","","37","","","","key","16.67088888888894","960","484.5","true","-1","141.288","12.287999999999998","4","-1","1","","","","","","","","","","","","",""
"psychophysics","105","250414","0.0-10.0-0.17","1919.9749999679625","","","","39","","","","key","16.664718390804556","960","484.5","true","1","141.288","9.8304","5","-1","-1","","","","","","","","","","","","",""
"psychophysics","106","251956","0.0-10.0-0.18","540.2650000178255","","","","39","","","","key","16.66817391304326","960","484.5","true","1","131.4576","9.8304","5","-1","-1","","","","","","","","","","","","",""
"psychophysics","107","253276","0.0-10.0-0.19","317.61999998707324","","","","39","","","","key","16.668756410256417","960","484.5","true","1","131.4576","9.8304","5","-1","-1","","","","","","","","","","","","",""
"psychophysics","108","254818","0.0-10.0-0.20","540.6400000210851","","","","39","","","","key","16.667571428571545","960","484.5","true","1","129","9.8304","5","-1","-1","","","","","","","","","","","","",""
"psychophysics","109","256268","0.0-10.0-0.21","447.83999997889623","","","","39","","","","key","16.668709302325816","960","484.5","true","-1","129","7.864319999999999","6","1","-1","","","","","","","","","","","","",""
"psychophysics","110","257287","0.0-10.0-0.22","18.08000000892207","","","","37","","","","key","16.669819672131094","960","484.5","true","-1","136.86432","7.864319999999999","6","-1","1","","","","","","","","","","","","",""
"psychophysics","111","258300","0.0-10.0-0.23","10.405000008177012","","","","37","","","","key","16.660661016949017","960","484.5","true","-1","136.86432","6.291456","7","-1","-1","","","","","","","","","","","","",""
"psychophysics","112","259956","0.0-10.0-0.24","653.6750000086613","","","","37","","","","key","16.664151515151406","960","484.5","true","1","130.57286399999998","5.033164800000001","8","1","-1","","","","","","","","","","","","",""
"psychophysics","113","260973","0.0-10.0-0.25","13.41000001411885","","","","37","","","","key","16.66543333333393","960","484.5","true","-1","135.6060288","5.033164800000001","8","-1","1","","","","","","","","","","","","",""
"psychophysics","114","262489","0.0-10.0-0.26","513.4199999738485","","","","37","","","","key","16.667844444444764","960","484.5","true","-1","135.6060288","4.0265318400000005","9","-1","-1","","","","","","","","","","","","",""
"psychophysics","115","264195","0.0-10.0-0.27","703.5299999988638","","","","37","","","","key","16.665603960395703","960","484.5","true","-1","131.57949696","4.0265318400000005","9","-1","-1","","","","","","","","","","","","",""
"psychophysics","116","265440","0.0-10.0-0.28","242.84000002080575","","","","37","","","","key","16.667418918919253","960","484.5","true","-1","131.57949696","4.0265318400000005","9","-1","-1","","","","","","","","","","","","",""
"psychophysics","117","266834","0.0-10.0-0.29","390.80999995348975","","","","37","","","","key","16.665475609756314","960","484.5","true","-1","129","4.0265318400000005","9","-1","-1","","","","","","","","","","","","",""
"psychophysics","118","268173","0.0-10.0-0.30","336.9650000240654","","","","37","","","","key","16.665375000000495","960","484.5","true","-1","129","4.0265318400000005","9","-1","-1","","","","","","","","","","","","",""
"psychophysics","119","269301","0.0-10.0-0.31","125.18999999156222","","","","37","","","","key","16.66925757575805","960","484.5","true","-1","129","4.0265318400000005","9","-1","-1","","","","","","","","","","","","",""
"psychophysics","120","270683","0.0-10.0-0.32","380.959999980405","","","","37","","","","key","16.66725609756129","960","484.5","true","-1","129","4.0265318400000005","9","-1","-1","","","","","","","","","","","","",""
"psychophysics","121","272243","0.0-10.0-0.33","558.7700000032783","","","","39","","","","key","16.66516129032243","960","484.5","true","1","129","4.0265318400000005","9","-1","-1","","","","","","","","","","","","",""
"psychophysics","122","273624","0.0-10.0-0.34","380.5999999749474","","","","39","","","","key","16.663646341463348","960","484.5","true","1","129","4.0265318400000005","9","-1","-1","","","","","","","","","","","","",""
"psychophysics","123","275013","0.0-10.0-0.35","387.700000021141","","","","39","","","","key","16.66267073170705","960","484.5","true","-1","129","3.2212254720000004","10","1","-1","","","","","","","","","","","","",""
"psychophysics","124","276308","0.0-10.0-0.36","292.3300000256859","","","","39","","","","key","16.66627272727216","960","484.5","true","1","132.22122547200001","3.2212254720000004","10","-1","1","","","","","","","","","","","","",""
"psychophysics","125","277739","0.0-10.0-0.37","429.56499999854714","","","","39","","","","key","16.662223529411644","960","484.5","true","1","132.22122547200001","2.5769803776000004","11","-1","-1","","","","","","","","","","","","",""
"psychophysics","126","279150","0.0-10.0-0.38","407.8000000445172","","","","39","","","","key","16.66672289156683","960","484.5","true","-1","129.64424509440002","2.0615843020800004","12","1","-1","","","","","","","","","","","","",""
"psychophysics","127","280311","0.0-10.0-0.39","159.43499997956678","","","","39","","","","key","16.66952173913107","960","484.5","true","1","131.70582939648003","2.0615843020800004","12","-1","1","","","","","","","","","","","","",""
"html-keyboard-response","128","281658","0.0-11.0","1346.4699999894947","<p>Well Done !</p><p>Prepare for a new block.</p><p>DON'T EXIT THE FULL SCREEN MODE</p><p>Press the Spacebar to start.</p>","","","32","","","","","","","","","","","","","","","true","130.87757179699202","","","","","","","","","","",""
"psychophysics","129","282709","0.0-12.0-0.0","49.06500002834946","","","","39","","","","key","16.667380952380693","960","484.5","true","1","180","30","0","-1","","","","","","","","","","","","","",""
"psychophysics","130","285060","0.0-12.0-0.1","1350.3700000001118","","","","37","","","","key","16.663471428571835","960","484.5","true","-1","180","30","0","-1","-1","","","","","","","","","","","","",""
"psychophysics","131","286065","0.0-12.0-0.2","2.964999992400408","","","","39","","","","key","16.662237288135348","960","484.5","true","1","150","30","0","-1","-1","","","","","","","","","","","","",""
"psychophysics","132","287187","0.0-12.0-0.3","119.60000003455207","","","","39","","","","key","16.666194029850885","960","484.5","true","1","150","30","0","-1","-1","","","","","","","","","","","","",""
"psychophysics","133","289232","0.0-12.0-0.4","1042.6050000241958","","","","39","","","","key","16.66551239669423","960","484.5","true","-1","129","24","1","1","-1","","","","","","","","","","","","",""
"psychophysics","134","291798","0.0-12.0-0.5","1565.119999984745","","","","39","","","","key","16.66792156862771","960","484.5","true","1","153","24","1","-1","1","","","","","","","","","","","","",""
"psychophysics","135","293312","0.0-12.0-0.6","511.7500000051223","","","","37","","","","key","16.665811111110575","960","484.5","true","-1","153","19.2","2","-1","-1","","","","","","","","","","","","",""
"psychophysics","136","295142","0.0-12.0-0.7","828.2449999824166","","","","37","","","","key","16.668165137614828","960","484.5","true","-1","133.8","19.2","2","-1","-1","","","","","","","","","","","","",""
"psychophysics","137","296517","0.0-12.0-0.8","373.78500000340864","","","","37","","","","key","16.664876543210365","960","484.5","true","-1","133.8","19.2","2","-1","-1","","","","","","","","","","","","",""
"psychophysics","138","298210","0.0-12.0-0.9","692.2050000284798","","","","37","","","","key","16.66802970297049","960","484.5","true","1","129","15.36","3","1","-1","","","","","","","","","","","","",""
"psychophysics","139","299349","0.0-12.0-0.10","137.8749999566935","","","","37","","","","key","16.666537313432773","960","484.5","true","-1","144.36","15.36","3","-1","1","","","","","","","","","","","","",""
"psychophysics","140","300552","0.0-12.0-0.11","200.64499997533858","","","","37","","","","key","16.67013888888889","960","484.5","true","-1","144.36","12.287999999999998","4","-1","-1","","","","","","","","","","","","",""
"psychophysics","141","302355","0.0-12.0-0.12","799.6849999763072","","","","37","","","","key","16.664906542056247","960","484.5","true","1","132.072","9.8304","5","1","-1","","","","","","","","","","","","",""
"psychophysics","142","303578","0.0-12.0-0.13","220.28499998850748","","","","39","","","","key","16.66920833333279","960","484.5","true","1","141.9024","9.8304","5","-1","1","","","","","","","","","","","","",""
"psychophysics","143","304874","0.0-12.0-0.14","293.4699999750592","","","","39","","","","key","16.668259740259813","960","484.5","true","1","141.9024","7.864319999999999","6","-1","-1","","","","","","","","","","","","",""
"psychophysics","144","306112","0.0-12.0-0.15","237.38499998580664","","","","37","","","","key","16.665684931506465","960","484.5","true","-1","134.03808","7.864319999999999","6","-1","-1","","","","","","","","","","","","",""
"psychophysics","145","307422","0.0-12.0-0.16","307.8150000073947","","","","37","","","","key","16.661987179487298","960","484.5","true","-1","134.03808","7.864319999999999","6","-1","-1","","","","","","","","","","","","",""
"psychophysics","146","308788","0.0-12.0-0.17","364.68499997863546","","","","39","","","","key","16.669790123457112","960","484.5","true","1","129","7.864319999999999","6","-1","-1","","","","","","","","","","","","",""
"psychophysics","147","310268","0.0-12.0-0.18","476.4899999718182","","","","39","","","","key","16.66385227272721","960","484.5","true","1","129","7.864319999999999","6","-1","-1","","","","","","","","","","","","",""
"psychophysics","148","311596","0.0-12.0-0.19","325.6800000090152","","","","39","","","","key","16.666692307692035","960","484.5","true","-1","129","6.291456","7","1","-1","","","","","","","","","","","","",""
"psychophysics","149","312777","0.0-12.0-0.20","178.99500002386048","","","","37","","","","key","16.6665000000004","960","484.5","true","-1","135.291456","6.291456","7","-1","1","","","","","","","","","","","","",""
"psychophysics","150","314094","0.0-12.0-0.21","315.0649999734014","","","","39","","","","key","16.666987179487478","960","484.5","true","1","135.291456","5.033164800000001","8","-1","-1","","","","","","","","","","","","",""
"psychophysics","151","315845","0.0-12.0-0.22","749.8950000153854","","","","37","","","","key","16.66318269230788","960","484.5","true","1","130.2582912","4.0265318400000005","9","1","-1","","","","","","","","","","","","",""
"psychophysics","152","317186","0.0-12.0-0.23","339.1399999964051","","","","39","","","","key","16.66452499999941","960","484.5","true","1","134.28482304","4.0265318400000005","9","-1","1","","","","","","","","","","","","",""
"psychophysics","153","318603","0.0-12.0-0.24","414.85000000102445","","","","39","","","","key","16.665369047619087","960","484.5","true","1","134.28482304","3.2212254720000004","10","-1","-1","","","","","","","","","","","","",""
"psychophysics","154","320581","0.0-12.0-0.25","974.9999999767169","","","","37","","","","key","16.664341880341905","960","484.5","true","1","131.06359756799998","2.5769803776000004","11","1","-1","","","","","","","","","","","","",""
"psychophysics","155","321980","0.0-12.0-0.26","398.334999976214","","","","37","","","","key","16.66967469879499","960","484.5","true","-1","133.64057794559997","2.5769803776000004","11","-1","1","","","","","","","","","","","","",""
"psychophysics","156","323284","0.0-12.0-0.27","302.44499997934327","","","","37","","","","key","16.667269230768746","960","484.5","true","-1","133.64057794559997","2.0615843020800004","12","-1","-1","","","","","","","","","","","","",""
"psychophysics","157","324746","0.0-12.0-0.28","458.16500001819804","","","","37","","","","key","16.66602325581385","960","484.5","true","-1","131.57899364351996","2.0615843020800004","12","-1","-1","","","","","","","","","","","","",""
"psychophysics","158","326222","0.0-12.0-0.29","474.18499999912456","","","","37","","","","key","16.66653409090941","960","484.5","true","-1","131.57899364351996","2.0615843020800004","12","-1","-1","","","","","","","","","","","","",""
"psychophysics","159","327680","0.0-12.0-0.30","456.644999969285","","","","37","","","","key","16.66686046511601","960","484.5","true","1","129.51740934143996","1.6492674416640005","13","1","-1","","","","","","","","","","","","",""
"psychophysics","160","328957","0.0-12.0-0.31","276.8899999791756","","","","39","","","","key","16.666513157895103","960","484.5","true","1","131.16667678310395","1.6492674416640005","13","-1","1","","","","","","","","","","","","",""
"psychophysics","161","330402","0.0-12.0-0.32","442.80000001890585","","","","39","","","","key","16.66895348837174","960","484.5","true","1","131.16667678310395","1.3194139533312006","14","-1","-1","","","","","","","","","","","","",""
"psychophysics","162","331776","0.0-12.0-0.33","373.19999997271225","","","","39","","","","key","16.668296296296088","960","484.5","true","1","129.84726282977275","1.3194139533312006","14","-1","-1","","","","","","","","","","","","",""
"psychophysics","163","333130","0.0-12.0-0.34","352.88000002037734","","","","39","","","","key","16.665987500000483","960","484.5","true","-1","129.84726282977275","1.0555311626649604","15","1","-1","","","","","","","","","","","","",""
"psychophysics","164","334596","0.0-12.0-0.35","463.5250000283122","","","","39","","","","key","16.667770114942755","960","484.5","true","-1","130.9027939924377","1.0555311626649604","15","1","1","","","","","","","","","","","","",""
"psychophysics","165","336105","0.0-12.0-0.36","506.61000004038215","","","","39","","","","key","16.668499999999767","960","484.5","true","-1","131.95832515510264","1.0555311626649604","15","1","1","","","","","","","","","","","","",""
"psychophysics","166","337519","0.0-12.0-0.37","411.3900000229478","","","","39","","","","key","16.665785714285448","960","484.5","true","1","133.0138563177676","1.0555311626649604","15","-1","1","","","","","","","","","","","","",""
"psychophysics","167","338992","0.0-12.0-0.38","469.745000009425","","","","39","","","","key","16.668724137931076","960","484.5","true","-1","133.0138563177676","1","16","1","-1","","","","","","","","","","","","",""
"psychophysics","168","340426","0.0-12.0-0.39","432.8850000165403","","","","39","","","","key","16.66501176470603","960","484.5","true","-1","134.0138563177676","1","16","1","1","","","","","","","","","","","","",""
"html-keyboard-response","169","341580","0.0-13.0","1153.3050000434741","<p>Well Done !</p><p>Prepare for a new block.</p><p>DON'T EXIT THE FULL SCREEN MODE</p><p>Press the Spacebar to start.</p>","","","32","","","","","","","","","","","","","","","true","131.7300478276184","","","","","","","","","","",""
"html-keyboard-response","170","341686","0.0-14.0","null","","","","null","","","","","","","","","","","","","","","","","131.59249215104884","true","135.1849843020977","","","","","","","",""
"instructions","171","379239","0.0-15.0","37551.294999953825","","","","","","","[{""page_index"":0,""viewing_time"":18082.750000001397},{""page_index"":1,""viewing_time"":16233.944999985397},{""page_index"":2,""viewing_time"":3234.3499999842606}]","","","","","","","","","","","","","","","","","","","","","","","",""
"psychophysics","172","382397","0.0-16.0-0.0","null","","","","null","","","","key","16.66764705882387","960","484.5","","","","","","","","","","","","","","","","","","","",""
"psychophysics","173","382902","0.0-16.0-1.0","null","","","","null","","","","key","16.67483333333318","960","484.5","","","","","","","","","","","","","135","-1","2","false","","","",""
"psychophysics","174","384143","0.0-16.0-2.0","1238.2249999791384","","","","77","","","","key","16.66553424657498","960","484.5","","","","","","","","","","","","","","","","","","","",""
"psychophysics","175","385315","0.0-16.0-0.1","null","","","","null","","","","key","16.667757142857383","960","484.5","","","","","","","","","","","","","","","","","","","",""
"psychophysics","176","385818","0.0-16.0-1.1","null","","","","null","","","","key","16.66068965517153","960","484.5","","","","","","","","","","","","","135","-1","4","false","","","",""
"psychophysics","177","386112","0.0-16.0-2.1","290.57000001193956","","","","77","","","","key","16.67487500000061","960","484.5","","","","","","","","","","","","","","","","","","","",""
"psychophysics","178","386821","0.0-16.0-0.2","null","","","","null","","","","key","16.666309523810575","960","484.5","","","","","","","","","","","","","","","","","","","",""
"psychophysics","179","387323","0.0-16.0-1.2","null","","","","null","","","","key","16.665620689655672","960","484.5","","","","","","","","","","","","","135","1","0","false","","","",""
"psychophysics","180","387800","0.0-16.0-2.2","474.8849999741651","","","","77","","","","key","16.661678571428638","960","484.5","","","","","","","","","","","","","","","","","","","",""
"psychophysics","181","389265","0.0-16.0-0.3","null","","","","null","","","","key","16.66605747126487","960","484.5","","","","","","","","","","","","","","","","","","","",""
"psychophysics","182","389768","0.0-16.0-1.3","null","","","","null","","","","key","16.664655172414594","960","484.5","","","","","","","","","","","","","135","1","4","false","","","",""
"psychophysics","183","392177","0.0-16.0-2.3","2405.1500000059605","","","","90","","","","key","16.665363636363615","960","484.5","","","","","","","","","","","","","","","","","","","",""
"psychophysics","184","393120","0.0-16.0-0.4","null","","","","null","","","","key","16.667053571428237","960","484.5","","","","","","","","","","","","","","","","","","","",""
"psychophysics","185","393622","0.0-16.0-1.4","null","","","","null","","","","key","16.661689655170857","960","484.5","","","","","","","","","","","","","135","1","6","false","","","",""
"psychophysics","186","394050","0.0-16.0-2.4","424.9800000106916","","","","77","","","","key","16.66807999999961","960","484.5","","","","","","","","","","","","","","","","","","","",""
"psychophysics","187","394891","0.0-16.0-0.5","null","","","","null","","","","key","16.665408163266115","960","484.5","","","","","","","","","","","","","","","","","","","",""
"psychophysics","188","395393","0.0-16.0-1.5","null","","","","null","","","","key","16.66648275862199","960","484.5","","","","","","","","","","","","","135","1","3","false","","","",""
"psychophysics","189","395897","0.0-16.0-2.5","501.35500001488253","","","","77","","","","key","16.66803333333228","960","484.5","","","","","","","","","","","","","","","","","","","",""
"psychophysics","190","396699","0.0-16.0-0.6","null","","","","null","","","","key","16.664234042554064","960","484.5","","","","","","","","","","","","","","","","","","","",""
"psychophysics","191","397202","0.0-16.0-1.6","null","","","","null","","","","key","16.66068965517153","960","484.5","","","","","","","","","","","","","135","1","5","false","","","",""
"psychophysics","192","397660","0.0-16.0-2.6","454.75499995518476","","","","77","","","","key","16.664307692307585","960","484.5","","","","","","","","","","","","","","","","","","","",""
"psychophysics","193","399023","0.0-16.0-0.7","null","","","","null","","","","key","16.667827160493616","960","484.5","","","","","","","","","","","","","","","","","","","",""
"psychophysics","194","399524","0.0-16.0-1.7","null","","","","null","","","","key","16.655655172414644","960","484.5","","","","","","","","","","","","","135","-1","6","false","","","",""
"psychophysics","195","399919","0.0-16.0-2.7","391.9300000416115","","","","77","","","","key","16.67808695652006","960","484.5","","","","","","","","","","","","","","","","","","","",""
"psychophysics","196","401153","0.0-16.0-0.8","null","","","","null","","","","key","16.661876712328507","960","484.5","","","","","","","","","","","","","","","","","","","",""
"psychophysics","197","401654","0.0-16.0-1.8","null","","","","null","","","","key","16.66510344827588","960","484.5","","","","","","","","","","","","","135","-1","0","false","","","",""
"psychophysics","198","402038","0.0-16.0-2.8","381.35999999940395","","","","90","","","","key","16.675727272726363","960","484.5","","","","","","","","","","","","","","","","","","","",""
"psychophysics","199","402586","0.0-16.0-0.9","null","","","","null","","","","key","16.670843749998312","960","484.5","","","","","","","","","","","","","","","","","","","",""
"psychophysics","200","403087","0.0-16.0-1.9","null","","","","null","","","","key","16.671758620688642","960","484.5","","","","","","","","","","","","","135","-1","5","false","","","",""
"psychophysics","201","403568","0.0-16.0-2.9","479.3699999572709","","","","90","","","","key","16.661142857142426","960","484.5","","","","","","","","","","","","","","","","","","","",""
"psychophysics","202","404411","0.0-16.0-0.10","null","","","","null","","","","key","16.67057142857158","960","484.5","","","","","","","","","","","","","","","","","","","",""
"psychophysics","203","404912","0.0-16.0-1.10","null","","","","null","","","","key","16.668068965517612","960","484.5","","","","","","","","","","","","","135","1","2","false","","","",""
"psychophysics","204","405224","0.0-16.0-2.10","304.0649999747984","","","","77","","","","key","16.678666666667496","960","484.5","","","","","","","","","","","","","","","","","","","",""
"psychophysics","205","405958","0.0-16.0-0.11","null","","","","null","","","","key","16.65876744186024","960","484.5","","","","","","","","","","","","","","","","","","","",""
"psychophysics","206","406460","0.0-16.0-1.11","null","","","","null","","","","key","16.65824137930959","960","484.5","","","","","","","","","","","","","135","-1","3","false","","","",""
"psychophysics","207","406897","0.0-16.0-2.11","434.11999999079853","","","","77","","","","key","16.65719230769229","960","484.5","","","","","","","","","","","","","","","","","","","",""
"psychophysics","208","407990","0.0-16.0-0.12","null","","","","null","","","","key","16.66534374999992","960","484.5","","","","","","","","","","","","","","","","","","","",""
"psychophysics","209","408492","0.0-16.0-1.12","null","","","","null","","","","key","16.67137931034587","960","484.5","","","","","","","","","","","","","135","1","4","false","","","",""
"psychophysics","210","408870","0.0-16.0-2.12","375.8899999666028","","","","77","","","","key","16.673727272726616","960","484.5","","","","","","","","","","","","","","","","","","","",""
"psychophysics","211","410165","0.0-16.0-0.13","null","","","","null","","","","key","16.664376623376707","960","484.5","","","","","","","","","","","","","","","","","","","",""
"psychophysics","212","410667","0.0-16.0-1.13","null","","","","null","","","","key","16.66758620689607","960","484.5","","","","","","","","","","","","","135","1","3","false","","","",""
"psychophysics","213","411257","0.0-16.0-2.13","587.7300000283867","","","","90","","","","key","16.66617647058892","960","484.5","","","","","","","","","","","","","","","","","","","",""
"psychophysics","214","412448","0.0-16.0-0.14","null","","","","null","","","","key","16.667126760563097","960","484.5","","","","","","","","","","","","","","","","","","","",""
"psychophysics","215","412952","0.0-16.0-1.14","null","","","","null","","","","key","16.666655172415254","960","484.5","","","","","","","","","","","","","135","-1","4","false","","","",""
"psychophysics","216","413271","0.0-16.0-2.14","317.27499997941777","","","","77","","","","key","16.648611111110466","960","484.5","","","","","","","","","","","","","","","","","","","",""
"psychophysics","217","414320","0.0-16.0-0.15","null","","","","null","","","","key","16.664241935484178","960","484.5","","","","","","","","","","","","","","","","","","","",""
"psychophysics","218","414821","0.0-16.0-1.15","null","","","","null","","","","key","16.670862068964073","960","484.5","","","","","","","","","","","","","135","1","0","false","","","",""
"psychophysics","219","415399","0.0-16.0-2.15","574.5350000215694","","","","77","","","","key","16.66194117647041","960","484.5","","","","","","","","","","","","","","","","","","","",""
"psychophysics","220","416767","0.0-16.0-0.16","null","","","","null","","","","key","16.666061728395075","960","484.5","","","","","","","","","","","","","","","","","","","",""
"psychophysics","221","417270","0.0-16.0-1.16","null","","","","null","","","","key","16.67824137931015","960","484.5","","","","","","","","","","","","","135","-1","3","false","","","",""
"psychophysics","222","417882","0.0-16.0-2.16","610.1899999775924","","","","77","","","","key","16.673944444444107","960","484.5","","","","","","","","","","","","","","","","","","","",""
"psychophysics","223","419000","0.0-16.0-0.17","null","","","","null","","","","key","16.667484848484904","960","484.5","","","","","","","","","","","","","","","","","","","",""
"psychophysics","224","419502","0.0-16.0-1.17","null","","","","null","","","","key","16.66641379310348","960","484.5","","","","","","","","","","","","","135","-1","6","false","","","",""
"psychophysics","225","419900","0.0-16.0-2.17","395.4399999929592","","","","77","","","","key","16.6667826086961","960","484.5","","","","","","","","","","","","","","","","","","","",""
"psychophysics","226","420420","0.0-16.0-0.18","null","","","","null","","","","key","16.66663333333369","960","484.5","","","","","","","","","","","","","","","","","","","",""
"psychophysics","227","420921","0.0-16.0-1.18","null","","","","null","","","","key","16.6673448275863","960","484.5","","","","","","","","","","","","","135","1","2","false","","","",""
"psychophysics","228","421283","0.0-16.0-2.18","359.46000000694767","","","","90","","","","key","16.664666666665912","960","484.5","","","","","","","","","","","","","","","","","","","",""
"psychophysics","229","422666","0.0-16.0-0.19","null","","","","null","","","","key","16.66500000000034","960","484.5","","","","","","","","","","","","","","","","","","","",""
"psychophysics","230","423169","0.0-16.0-1.19","null","","","","null","","","","key","16.660137931035493","960","484.5","","","","","","","","","","","","","135","-1","2","false","","","",""
"psychophysics","231","423452","0.0-16.0-2.19","280.70000000298023","","","","77","","","","key","16.68162499999744","960","484.5","","","","","","","","","","","","","","","","","","","",""
"psychophysics","232","424418","0.0-16.0-0.20","null","","","","null","","","","key","16.668824561402865","960","484.5","","","","","","","","","","","","","","","","","","","",""
"psychophysics","233","424920","0.0-16.0-1.20","null","","","","null","","","","key","16.666689655173506","960","484.5","","","","","","","","","","","","","135","1","5","false","","","",""
"psychophysics","234","425347","0.0-16.0-2.20","425.6399999721907","","","","77","","","","key","16.660239999999757","960","484.5","","","","","","","","","","","","","","","","","","","",""
"psychophysics","235","426026","0.0-16.0-0.21","null","","","","null","","","","key","16.6750000000003","960","484.5","","","","","","","","","","","","","","","","","","","",""
"psychophysics","236","426527","0.0-16.0-1.21","null","","","","null","","","","key","16.66434482758632","960","484.5","","","","","","","","","","","","","135","-1","5","false","","","",""
"psychophysics","237","426871","0.0-16.0-2.21","340.24499997030944","","","","77","","","","key","16.67360000000044","960","484.5","","","","","","","","","","","","","","","","","","","",""
"psychophysics","238","427528","0.0-16.0-0.22","null","","","","null","","","","key","16.670128205128442","960","484.5","","","","","","","","","","","","","","","","","","","",""
"psychophysics","239","428032","0.0-16.0-1.22","null","","","","null","","","","key","16.66558620689742","960","484.5","","","","","","","","","","","","","135","-1","0","false","","","",""
"psychophysics","240","428484","0.0-16.0-2.22","449.2900000186637","","","","90","","","","key","16.659192307693257","960","484.5","","","","","","","","","","","","","","","","","","","",""
"psychophysics","241","429633","0.0-16.0-0.23","null","","","","null","","","","key","16.669102941175773","960","484.5","","","","","","","","","","","","","","","","","","","",""
"psychophysics","242","430135","0.0-16.0-1.23","null","","","","null","","","","key","16.66848275862064","960","484.5","","","","","","","","","","","","","135","1","6","false","","","",""
"psychophysics","243","430410","0.0-16.0-2.23","271.34499995736405","","","","77","","","","key","16.66599999999938","960","484.5","","","","","","","","","","","","","","","","","","","",""
"html-keyboard-response","244","432987","0.0-17.0","2575.8950000163168","<p>Well Done !</p><p>Training Complete. Press the spacebar to start.</p><p>DON'T EXIT THE FULL SCREEN MODE</p>","","","32","","","","","","","","","","","","","","","","","","","","","","","","","","",""
"psychophysics","245","435534","0.0-18.0-0.0","null","","","","null","","","","key","16.665812499999447","960","484.5","","","","","","","","","","","","","","","","","","","",""
"psychophysics","246","436036","0.0-18.0-1.0","null","","","","null","","","","key","16.67648275862127","960","484.5","","","","","","","","","","","","","135","1","5","true","","","",""
"psychophysics","247","436257","0.0-18.0-2.0","218.76499999780208","","","","77","","","","key","16.66874999999709","960","484.5","","","","","","","","","","","","","","","","","","","",""
"psychophysics","248","437219","0.0-18.0-0.1","null","","","","null","","","","key","16.667947368421633","960","484.5","","","","","","","","","","","","","","","","","","","",""
"psychophysics","249","437721","0.0-18.0-1.1","null","","","","null","","","","key","16.66231034482741","960","484.5","","","","","","","","","","","","","135","1","2","true","","","",""
"psychophysics","250","438074","0.0-18.0-2.1","350.63000000081956","","","","90","","","","key","16.675049999999466","960","484.5","","","","","","","","","","","","","","","","","","","",""
"psychophysics","251","439193","0.0-18.0-0.2","null","","","","null","","","","key","16.666469696970044","960","484.5","","","","","","","","","","","","","","","","","","","",""
"psychophysics","252","439695","0.0-18.0-1.2","null","","","","null","","","","key","16.663400000000063","960","484.5","","","","","","","","","","","","","135","-1","3","true","","","",""
"psychophysics","253","439883","0.0-18.0-2.2","183.51000000257045","","","","90","","","","key","16.627599999995436","960","484.5","","","","","","","","","","","","","","","","","","","",""
"psychophysics","254","440598","0.0-18.0-0.3","null","","","","null","","","","key","16.666666666666668","960","484.5","","","","","","","","","","","","","","","","","","","",""
"psychophysics","255","441100","0.0-18.0-1.3","null","","","","null","","","","key","16.673034482760002","960","484.5","","","","","","","","","","","","","135","-1","4","true","","","",""
"psychophysics","256","441411","0.0-18.0-2.3","308.30999999307096","","","","77","","","","key","16.650888888889718","960","484.5","","","","","","","","","","","","","","","","","","","",""
"psychophysics","257","442084","0.0-18.0-0.4","null","","","","null","","","","key","16.672692307693442","960","484.5","","","","","","","","","","","","","","","","","","","",""
"psychophysics","258","442586","0.0-18.0-1.4","null","","","","null","","","","key","16.66351724138026","960","484.5","","","","","","","","","","","","","135","-1","6","true","","","",""
"psychophysics","259","442868","0.0-18.0-2.4","279.75500002503395","","","","77","","","","key","16.65587500000038","960","484.5","","","","","","","","","","","","","","","","","","","",""
"psychophysics","260","444320","0.0-18.0-0.5","null","","","","null","","","","key","16.665348837208978","960","484.5","","","","","","","","","","","","","","","","","","","",""
"psychophysics","261","444821","0.0-18.0-1.5","null","","","","null","","","","key","16.665965517240192","960","484.5","","","","","","","","","","","","","135","-1","2","true","","","",""
"psychophysics","262","445030","0.0-18.0-2.5","206.77000004798174","","","","90","","","","key","16.637833333331702","960","484.5","","","","","","","","","","","","","","","","","","","",""
"psychophysics","263","445587","0.0-18.0-0.6","null","","","","null","","","","key","16.664749999999913","960","484.5","","","","","","","","","","","","","","","","","","","",""
"psychophysics","264","446088","0.0-18.0-1.6","null","","","","null","","","","key","16.669206896551948","960","484.5","","","","","","","","","","","","","135","-1","0","true","","","",""
"psychophysics","265","446359","0.0-18.0-2.6","267.56000000750646","","","","90","","","","key","16.66620000000112","960","484.5","","","","","","","","","","","","","","","","","","","",""
"psychophysics","266","447813","0.0-18.0-0.7","null","","","","null","","","","key","16.666908045977102","960","484.5","","","","","","","","","","","","","","","","","","","",""
"psychophysics","267","448317","0.0-18.0-1.7","null","","","","null","","","","key","16.675517241380195","960","484.5","","","","","","","","","","","","","135","1","0","true","","","",""
"psychophysics","268","448641","0.0-18.0-2.7","321.8099999940023","","","","77","","","","key","16.647777777779588","960","484.5","","","","","","","","","","","","","","","","","","","",""
"psychophysics","269","449568","0.0-18.0-0.8","null","","","","null","","","","key","16.673109090909236","960","484.5","","","","","","","","","","","","","","","","","","","",""
"psychophysics","270","450069","0.0-18.0-1.8","null","","","","null","","","","key","16.669965517241508","960","484.5","","","","","","","","","","","","","135","1","4","true","","","",""
"psychophysics","271","450366","0.0-18.0-2.8","294.0550000057556","","","","77","","","","key","16.676941176468972","960","484.5","","","","","","","","","","","","","","","","","","","",""
"psychophysics","272","451743","0.0-18.0-0.9","null","","","","null","","","","key","16.66541975308684","960","484.5","","","","","","","","","","","","","","","","","","","",""
"psychophysics","273","452245","0.0-18.0-1.9","null","","","","null","","","","key","16.66296666666749","960","484.5","","","","","","","","","","","","","135","-1","5","true","","","",""
"psychophysics","274","452400","0.0-18.0-2.9","151.19500004220754","","","","77","","","","key","16.6762499999968","960","484.5","","","","","","","","","","","","","","","","","","","",""
"psychophysics","275","453542","0.0-18.0-0.10","null","","","","null","","","","key","16.670134328357847","960","484.5","","","","","","","","","","","","","","","","","","","",""
"psychophysics","276","454043","0.0-18.0-1.10","null","","","","null","","","","key","16.67610344827649","960","484.5","","","","","","","","","","","","","135","1","6","true","","","",""
"psychophysics","277","454163","0.0-18.0-2.10","117.26999998791143","","","","77","","","","key","16.64728571427986","960","484.5","","","","","","","","","","","","","","","","","","","",""
"psychophysics","278","454684","0.0-18.0-0.11","null","","","","null","","","","key","16.669599999999626","960","484.5","","","","","","","","","","","","","","","","","","","",""
"psychophysics","279","455185","0.0-18.0-1.11","null","","","","null","","","","key","16.666034482756693","960","484.5","","","","","","","","","","","","","135","1","3","true","","","",""
"psychophysics","280","455568","0.0-18.0-2.11","380.06999995559454","","","","90","","","","key","16.66250000000053","960","484.5","","","","","","","","","","","","","","","","","","","",""
"psychophysics","281","456133","0.0-18.0-0.12","null","","","","null","","","","key","16.66875757575811","960","484.5","","","","","","","","","","","","","","","","","","","",""
"psychophysics","282","456635","0.0-18.0-1.12","null","","","","null","","","","key","16.663241379310232","960","484.5","","","","","","","","","","","","","135","-1","6","true","","","",""
"psychophysics","283","456888","0.0-18.0-2.12","251.22500001452863","","","","77","","","","key","16.668357142854283","960","484.5","","","","","","","","","","","","","","","","","","","",""
"psychophysics","284","457424","0.0-18.0-0.13","null","","","","null","","","","key","16.66700000000081","960","484.5","","","","","","","","","","","","","","","","","","","",""
"psychophysics","285","457926","0.0-18.0-1.13","null","","","","null","","","","key","16.664689655172847","960","484.5","","","","","","","","","","","","","135","1","4","true","","","",""
"psychophysics","286","458218","0.0-18.0-2.13","289.7499999962747","","","","77","","","","key","16.66647058823625","960","484.5","","","","","","","","","","","","","","","","","","","",""
"psychophysics","287","459080","0.0-18.0-0.14","null","","","","null","","","","key","16.6699411764709","960","484.5","","","","","","","","","","","","","","","","","","","",""
"psychophysics","288","459582","0.0-18.0-1.14","null","","","","null","","","","key","16.672103448275173","960","484.5","","","","","","","","","","","","","135","-1","5","true","","","",""
"psychophysics","289","459771","0.0-18.0-2.14","185.54500001482666","","","","77","","","","key","16.666700000001583","960","484.5","","","","","","","","","","","","","","","","","","","",""
"psychophysics","290","460971","0.0-18.0-0.15","null","","","","null","","","","key","16.667521126760978","960","484.5","","","","","","","","","","","","","","","","","","","",""
"psychophysics","291","461472","0.0-18.0-1.15","null","","","","null","","","","key","16.662517241378925","960","484.5","","","","","","","","","","","","","135","1","3","true","","","",""
"psychophysics","292","461700","0.0-18.0-2.15","225.25499999755993","","","","90","","","","key","16.64661538461671","960","484.5","","","","","","","","","","","","","","","","","","","",""
"psychophysics","293","463125","0.0-18.0-0.16","null","","","","null","","","","key","16.666011904761987","960","484.5","","","","","","","","","","","","","","","","","","","",""
"psychophysics","294","463626","0.0-18.0-1.16","null","","","","null","","","","key","16.67343333333265","960","484.5","","","","","","","","","","","","","135","-1","0","true","","","",""
"psychophysics","295","463893","0.0-18.0-2.16","263.9700000290759","","","","90","","","","key","16.653933333333892","960","484.5","","","","","","","","","","","","","","","","","","","",""
"psychophysics","296","465252","0.0-18.0-0.17","null","","","","null","","","","key","16.66973749999961","960","484.5","","","","","","","","","","","","","","","","","","","",""
"psychophysics","297","465753","0.0-18.0-1.17","null","","","","null","","","","key","16.661137931032812","960","484.5","","","","","","","","","","","","","135","1","5","true","","","",""
"psychophysics","298","465884","0.0-18.0-2.17","128.19000001763925","","","","77","","","","key","16.625999999997607","960","484.5","","","","","","","","","","","","","","","","","","","",""
"psychophysics","299","466438","0.0-18.0-0.18","null","","","","null","","","","key","16.65740624999853","960","484.5","","","","","","","","","","","","","","","","","","","",""
"psychophysics","300","466940","0.0-18.0-1.18","null","","","","null","","","","key","16.668999999998427","960","484.5","","","","","","","","","","","","","135","-1","4","true","","","",""
"psychophysics","301","467147","0.0-18.0-2.18","204.39500000793487","","","","77","","","","key","16.65091666666558","960","484.5","","","","","","","","","","","","","","","","","","","",""
"psychophysics","302","468477","0.0-18.0-0.19","null","","","","null","","","","key","16.667936708860665","960","484.5","","","","","","","","","","","","","","","","","","","",""
"psychophysics","303","468980","0.0-18.0-1.19","null","","","","null","","","","key","16.666241379312222","960","484.5","","","","","","","","","","","","","135","1","0","true","","","",""
"psychophysics","304","469253","0.0-18.0-2.19","269.9049999937415","","","","90","","","","key","16.65673333333107","960","484.5","","","","","","","","","","","","","","","","","","","",""
"psychophysics","305","470297","0.0-18.0-0.20","null","","","","null","","","","key","16.66130645161273","960","484.5","","","","","","","","","","","","","","","","","","","",""
"psychophysics","306","470799","0.0-18.0-1.20","null","","","","null","","","","key","16.666965517241525","960","484.5","","","","","","","","","","","","","135","-1","2","true","","","",""
"psychophysics","307","471118","0.0-18.0-2.20","315.69000001763925","","","","90","","","","key","16.660333333333256","960","484.5","","","","","","","","","","","","","","","","","","","",""
"psychophysics","308","472055","0.0-18.0-0.21","null","","","","null","","","","key","16.66601818181807","960","484.5","","","","","","","","","","","","","","","","","","","",""
"psychophysics","309","472564","0.0-18.0-1.21","null","","","","null","","","","key","16.672299999999815","960","484.5","","","","","","","","","","","","","135","-1","3","true","","","",""
"psychophysics","310","472624","0.0-18.0-2.21","57.93500004801899","","","","90","","","","key","16.66699999998673","960","484.5","","","","","","","","","","","","","","","","","","","",""
"psychophysics","311","473200","0.0-18.0-0.22","null","","","","null","","","","key","16.665411764706196","960","484.5","","","","","","","","","","","","","","","","","","","",""
"psychophysics","312","473702","0.0-18.0-1.22","null","","","","null","","","","key","16.657241379310264","960","484.5","","","","","","","","","","","","","135","1","2","true","","","",""
"psychophysics","313","474039","0.0-18.0-2.22","335.07999998982996","","","","90","","","","key","16.669421052633737","960","484.5","","","","","","","","","","","","","","","","","","","",""
"psychophysics","314","474879","0.0-18.0-0.23","null","","","","null","","","","key","16.66329999999958","960","484.5","","","","","","","","","","","","","","","","","","","",""
"psychophysics","315","475382","0.0-18.0-1.23","null","","","","null","","","","key","16.661310344828085","960","484.5","","","","","","","","","","","","","135","1","6","true","","","",""
"psychophysics","316","475885","0.0-18.0-2.23","498.63500002538785","","","","77","","","","key","16.674344827587603","960","484.5","","","","","","","","","","","","","","","","","","","",""
"psychophysics","317","476533","0.0-18.0-0.24","null","","","","null","","","","key","16.671184210526437","960","484.5","","","","","","","","","","","","","","","","","","","",""
"psychophysics","318","477034","0.0-18.0-1.24","null","","","","null","","","","key","16.67041379310279","960","484.5","","","","","","","","","","","","","135","1","3","true","","","",""
"psychophysics","319","477465","0.0-18.0-2.24","428.2600000151433","","","","77","","","","key","16.67903999999864","960","484.5","","","","","","","","","","","","","","","","","","","",""
"psychophysics","320","478375","0.0-18.0-0.25","null","","","","null","","","","key","16.663188679244826","960","484.5","","","","","","","","","","","","","","","","","","","",""
"psychophysics","321","478877","0.0-18.0-1.25","null","","","","null","","","","key","16.666466666666867","960","484.5","","","","","","","","","","","","","135","-1","4","true","","","",""
"psychophysics","322","479099","0.0-18.0-2.25","218.51999999489635","","","","90","","","","key","16.666500000001786","960","484.5","","","","","","","","","","","","","","","","","","","",""
"psychophysics","323","480389","0.0-18.0-0.26","null","","","","null","","","","key","16.664486842105124","960","484.5","","","","","","","","","","","","","","","","","","","",""
"psychophysics","324","480890","0.0-18.0-1.26","null","","","","null","","","","key","16.665620689653664","960","484.5","","","","","","","","","","","","","135","-1","3","true","","","",""
"psychophysics","325","481136","0.0-18.0-2.26","243.62500000279397","","","","90","","","","key","16.68314285714379","960","484.5","","","","","","","","","","","","","","","","","","","",""
"psychophysics","326","481684","0.0-18.0-0.27","null","","","","null","","","","key","16.658968749999985","960","484.5","","","","","","","","","","","","","","","","","","","",""
"psychophysics","327","482185","0.0-18.0-1.27","null","","","","null","","","","key","16.675586206896696","960","484.5","","","","","","","","","","","","","135","-1","2","true","","","",""
"psychophysics","328","482496","0.0-18.0-2.27","308.04999999236315","","","","90","","","","key","16.654388888891035","960","484.5","","","","","","","","","","","","","","","","","","","",""
"psychophysics","329","483298","0.0-18.0-0.28","null","","","","null","","","","key","16.663702127658713","960","484.5","","","","","","","","","","","","","","","","","","","",""
"psychophysics","330","483800","0.0-18.0-1.28","null","","","","null","","","","key","16.663068965516967","960","484.5","","","","","","","","","","","","","135","1","5","true","","","",""
"psychophysics","331","484105","0.0-18.0-2.28","303.0649999855086","","","","77","","","","key","16.67352941176539","960","484.5","","","","","","","","","","","","","","","","","","","",""
"psychophysics","332","484799","0.0-18.0-0.29","null","","","","null","","","","key","16.67070731707201","960","484.5","","","","","","","","","","","","","","","","","","","",""
"psychophysics","333","485301","0.0-18.0-1.29","null","","","","null","","","","key","16.67817241379365","960","484.5","","","","","","","","","","","","","135","1","0","true","","","",""
"psychophysics","334","485748","0.0-18.0-2.29","444.359999964945","","","","77","","","","key","16.667461538461232","960","484.5","","","","","","","","","","","","","","","","","","","",""
"psychophysics","335","486254","0.0-18.0-0.30","null","","","","null","","","","key","16.66672413792975","960","484.5","","","","","","","","","","","","","","","","","","","",""
"psychophysics","336","486755","0.0-18.0-1.30","null","","","","null","","","","key","16.65744827586178","960","484.5","","","","","","","","","","","","","135","-1","5","true","","","",""
"psychophysics","337","487103","0.0-18.0-2.30","345.9599999478087","","","","77","","","","key","16.667150000002586","960","484.5","","","","","","","","","","","","","","","","","","","",""
"psychophysics","338","488342","0.0-18.0-0.31","null","","","","null","","","","key","16.66782432432425","960","484.5","","","","","","","","","","","","","","","","","","","",""
"psychophysics","339","488846","0.0-18.0-1.31","null","","","","null","","","","key","16.669344827584954","960","484.5","","","","","","","","","","","","","135","1","6","true","","","",""
"psychophysics","340","488993","0.0-18.0-2.31","143.7399999704212","","","","77","","","","key","16.701124999999593","960","484.5","","","","","","","","","","","","","","","","","","","",""
"psychophysics","341","490313","0.0-18.0-0.32","null","","","","null","","","","key","16.667692307692516","960","484.5","","","","","","","","","","","","","","","","","","","",""
"psychophysics","342","490815","0.0-18.0-1.32","null","","","","null","","","","key","16.665724137930425","960","484.5","","","","","","","","","","","","","135","-1","6","true","","","",""
"psychophysics","343","491063","0.0-18.0-2.32","245.66000001505017","","","","77","","","","key","16.6574285714305","960","484.5","","","","","","","","","","","","","","","","","","","",""
"psychophysics","344","492454","0.0-18.0-0.33","null","","","","null","","","","key","16.66308536585321","960","484.5","","","","","","","","","","","","","","","","","","","",""
"psychophysics","345","492955","0.0-18.0-1.33","null","","","","null","","","","key","16.6628275862072","960","484.5","","","","","","","","","","","","","135","1","4","true","","","",""
"psychophysics","346","493091","0.0-18.0-2.33","133.1800000043586","","","","77","","","","key","16.660571428572958","960","484.5","","","","","","","","","","","","","","","","","","","",""
"psychophysics","347","494286","0.0-18.0-0.34","null","","","","null","","","","key","16.6642816901407","960","484.5","","","","","","","","","","","","","","","","","","","",""
"psychophysics","348","494788","0.0-18.0-1.34","null","","","","null","","","","key","16.66593103448194","960","484.5","","","","","","","","","","","","","135","-1","0","true","","","",""
"psychophysics","349","494964","0.0-18.0-2.34","174.2400000221096","","","","90","","","","key","16.6591999999946","960","484.5","","","","","","","","","","","","","","","","","","","",""
"psychophysics","350","495898","0.0-18.0-0.35","null","","","","null","","","","key","16.67201818181731","960","484.5","","","","","","","","","","","","","","","","","","","",""
"psychophysics","351","496400","0.0-18.0-1.35","null","","","","null","","","","key","16.659689655172205","960","484.5","","","","","","","","","","","","","135","1","2","true","","","",""
"psychophysics","352","496744","0.0-18.0-2.35","341.42999997129664","","","","90","","","","key","16.65560000000114","960","484.5","","","","","","","","","","","","","","","","","","","",""
"psychophysics","353","497364","0.0-18.0-0.36","null","","","","null","","","","key","16.676194444444263","960","484.5","","","","","","","","","","","","","","","","","","","",""
"psychophysics","354","497866","0.0-18.0-1.36","null","","","","null","","","","key","16.668068965517612","960","484.5","","","","","","","","","","","","","135","1","2","true","","","",""
"psychophysics","355","498165","0.0-18.0-2.36","296.51999997440726","","","","90","","","","key","16.660294117649112","960","484.5","","","","","","","","","","","","","","","","","","","",""
"psychophysics","356","499124","0.0-18.0-0.37","null","","","","null","","","","key","16.667660714285116","960","484.5","","","","","","","","","","","","","","","","","","","",""
"psychophysics","357","499626","0.0-18.0-1.37","null","","","","null","","","","key","16.66856666666766","960","484.5","","","","","","","","","","","","","135","-1","2","true","","","",""
"psychophysics","358","499779","0.0-18.0-2.37","149.6599999954924","","","","90","","","","key","16.66924999999901","960","484.5","","","","","","","","","","","","","","","","","","","",""
"psychophysics","359","501071","0.0-18.0-0.38","null","","","","null","","","","key","16.665118421052618","960","484.5","","","","","","","","","","","","","","","","","","","",""
"psychophysics","360","501573","0.0-18.0-1.38","null","","","","null","","","","key","16.65800000000183","960","484.5","","","","","","","","","","","","","135","1","3","true","","","",""
"psychophysics","361","501713","0.0-18.0-2.38","137.71499996073544","","","","77","","","","key","16.709999999999127","960","484.5","","","","","","","","","","","","","","","","","","","",""
"psychophysics","362","502763","0.0-18.0-0.39","null","","","","null","","","","key","16.666129032258816","960","484.5","","","","","","","","","","","","","","","","","","","",""
"psychophysics","363","503264","0.0-18.0-1.39","null","","","","null","","","","key","16.66679310344826","960","484.5","","","","","","","","","","","","","135","1","4","true","","","",""
"psychophysics","364","504536","0.0-18.0-2.39","1269.1800000029616","","","","77","","","","key","16.669813333333003","960","484.5","","","","","","","","","","","","","","","","","","","",""
"psychophysics","365","505857","0.0-18.0-0.40","null","","","","null","","","","key","16.66434615384638","960","484.5","","","","","","","","","","","","","","","","","","","",""
"psychophysics","366","506360","0.0-18.0-1.40","null","","","","null","","","","key","16.66176666666676","960","484.5","","","","","","","","","","","","","135","-1","6","true","","","",""
"psychophysics","367","506811","0.0-18.0-2.40","448.89999995939434","","","","90","","","","key","16.663653846154027","960","484.5","","","","","","","","","","","","","","","","","","","",""
"psychophysics","368","507563","0.0-18.0-0.41","null","","","","null","","","","key","16.66811363636357","960","484.5","","","","","","","","","","","","","","","","","","","",""
"psychophysics","369","508065","0.0-18.0-1.41","null","","","","null","","","","key","16.66803448275936","960","484.5","","","","","","","","","","","","","135","-1","3","true","","","",""
"psychophysics","370","508384","0.0-18.0-2.41","317.41499999770895","","","","90","","","","key","16.667833333330538","960","484.5","","","","","","","","","","","","","","","","","","","",""
"psychophysics","371","509639","0.0-18.0-0.42","null","","","","null","","","","key","16.662027027027687","960","484.5","","","","","","","","","","","","","","","","","","","",""
"psychophysics","372","510140","0.0-18.0-1.42","null","","","","null","","","","key","16.674724137930376","960","484.5","","","","","","","","","","","","","135","-1","4","true","","","",""
"psychophysics","373","510337","0.0-18.0-2.42","193.13999998848885","","","","90","","","","key","16.667454545454927","960","484.5","","","","","","","","","","","","","","","","","","","",""
"psychophysics","374","511211","0.0-18.0-0.43","null","","","","null","","","","key","16.66686538461475","960","484.5","","","","","","","","","","","","","","","","","","","",""
"psychophysics","375","511714","0.0-18.0-1.43","null","","","","null","","","","key","16.662172413792398","960","484.5","","","","","","","","","","","","","135","1","6","true","","","",""
"psychophysics","376","512008","0.0-18.0-2.43","291.83000000193715","","","","77","","","","key","16.65076470588375","960","484.5","","","","","","","","","","","","","","","","","","","",""
"psychophysics","377","513070","0.0-18.0-0.44","null","","","","null","","","","key","16.67040322580649","960","484.5","","","","","","","","","","","","","","","","","","","",""
"psychophysics","378","513573","0.0-18.0-1.44","null","","","","null","","","","key","16.677137931034064","960","484.5","","","","","","","","","","","","","135","1","0","true","","","",""
"psychophysics","379","513743","0.0-18.0-2.44","164.37499999301508","","","","77","","","","key","16.663099999999396","960","484.5","","","","","","","","","","","","","","","","","","","",""
"psychophysics","380","514252","0.0-18.0-0.45","null","","","","null","","","","key","16.666482758619985","960","484.5","","","","","","","","","","","","","","","","","","","",""
"psychophysics","381","514754","0.0-18.0-1.45","null","","","","null","","","","key","16.669793103448242","960","484.5","","","","","","","","","","","","","135","-1","0","true","","","",""
"psychophysics","382","515177","0.0-18.0-2.45","420.01499998150393","","","","90","","","","key","16.649599999999626","960","484.5","","","","","","","","","","","","","","","","","","","",""
"psychophysics","383","516465","0.0-18.0-0.46","null","","","","null","","","","key","16.670078947368893","960","484.5","","","","","","","","","","","","","","","","","","","",""
"psychophysics","384","516967","0.0-18.0-1.46","null","","","","null","","","","key","16.67131034482736","960","484.5","","","","","","","","","","","","","135","1","5","true","","","",""
"psychophysics","385","517098","0.0-18.0-2.46","128.41000000480562","","","","77","","","","key","16.70728571428585","960","484.5","","","","","","","","","","","","","","","","","","","",""
"psychophysics","386","517768","0.0-18.0-0.47","null","","","","null","","","","key","16.662128205129054","960","484.5","","","","","","","","","","","","","","","","","","","",""
"psychophysics","387","518270","0.0-18.0-1.47","null","","","","null","","","","key","16.666827586206512","960","484.5","","","","","","","","","","","","","135","-1","5","true","","","",""
"psychophysics","388","518617","0.0-18.0-2.47","345.27000004891306","","","","77","","","","key","16.665249999999652","960","484.5","","","","","","","","","","","","","","","","","","","",""
"psychophysics","389","519770","0.0-18.0-0.48","null","","","","null","","","","key","16.663838235294165","960","484.5","","","","","","","","","","","","","","","","","","","",""
"psychophysics","390","520271","0.0-18.0-1.48","null","","","","null","","","","key","16.67448275862061","960","484.5","","","","","","","","","","","","","135","1","2","true","","","",""
"psychophysics","391","520500","0.0-18.0-2.48","227.01500001130626","","","","90","","","","key","16.679692307693095","960","484.5","","","","","","","","","","","","","","","","","","","",""
"psychophysics","392","521975","0.0-18.0-0.49","null","","","","null","","","","key","16.66478409090897","960","484.5","","","","","","","","","","","","","","","","","","","",""
"psychophysics","393","522478","0.0-18.0-1.49","null","","","","null","","","","key","16.671724137930394","960","484.5","","","","","","","","","","","","","135","1","0","true","","","",""
"psychophysics","394","522713","0.0-18.0-2.49","232.38000000128523","","","","77","","","","key","16.6842307692322","960","484.5","","","","","","","","","","","","","","","","","","","",""
"psychophysics","395","523866","0.0-18.0-0.50","null","","","","null","","","","key","16.664441176471026","960","484.5","","","","","","","","","","","","","","","","","","","",""
"psychophysics","396","524368","0.0-18.0-1.50","null","","","","null","","","","key","16.66427586206781","960","484.5","","","","","","","","","","","","","135","-1","4","true","","","",""
"psychophysics","397","525080","0.0-18.0-2.50","709.740000020247","","","","90","","","","key","16.66492857142917","960","484.5","","","","","","","","","","","","","","","","","","","",""
"psychophysics","398","526132","0.0-18.0-0.51","null","","","","null","","","","key","16.661596774193082","960","484.5","","","","","","","","","","","","","","","","","","","",""
"psychophysics","399","526634","0.0-18.0-1.51","null","","","","null","","","","key","16.670689655174822","960","484.5","","","","","","","","","","","","","135","-1","6","true","","","",""
"psychophysics","400","526933","0.0-18.0-2.51","296.3400000007823","","","","77","","","","key","16.671176470590154","960","484.5","","","","","","","","","","","","","","","","","","","",""
"psychophysics","401","527463","0.0-18.0-0.52","null","","","","null","","","","key","16.670903225808644","960","484.5","","","","","","","","","","","","","","","","","","","",""
"psychophysics","402","527964","0.0-18.0-1.52","null","","","","null","","","","key","16.668413793102133","960","484.5","","","","","","","","","","","","","135","-1","2","true","","","",""
"psychophysics","403","528227","0.0-18.0-2.52","260.30500000342727","","","","90","","","","key","16.664466666670826","960","484.5","","","","","","","","","","","","","","","","","","","",""
"psychophysics","404","529339","0.0-18.0-0.53","null","","","","null","","","","key","16.66586153846091","960","484.5","","","","","","","","","","","","","","","","","","","",""
"psychophysics","405","529841","0.0-18.0-1.53","null","","","","null","","","","key","16.66679999999857","960","484.5","","","","","","","","","","","","","135","-1","5","true","","","",""
"psychophysics","406","530065","0.0-18.0-2.53","221.05499997269362","","","","77","","","","key","16.66983333333822","960","484.5","","","","","","","","","","","","","","","","","","","",""
"psychophysics","407","531420","0.0-18.0-0.54","null","","","","null","","","","key","16.6635374999998","960","484.5","","","","","","","","","","","","","","","","","","","",""
"psychophysics","408","531922","0.0-18.0-1.54","null","","","","null","","","","key","16.66162068965636","960","484.5","","","","","","","","","","","","","135","1","5","true","","","",""
"psychophysics","409","532703","0.0-18.0-2.54","778.3049999852665","","","","77","","","","key","16.67223913043373","960","484.5","","","","","","","","","","","","","","","","","","","",""
"psychophysics","410","533980","0.0-18.0-0.55","null","","","","null","","","","key","16.663000000000466","960","484.5","","","","","","","","","","","","","","","","","","","",""
"psychophysics","411","534481","0.0-18.0-1.55","null","","","","null","","","","key","16.67431034482935","960","484.5","","","","","","","","","","","","","135","-1","0","true","","","",""
"psychophysics","412","535101","0.0-18.0-2.55","618.1650000507943","","","","90","","","","key","16.667888888888733","960","484.5","","","","","","","","","","","","","","","","","","","",""
"psychophysics","413","535817","0.0-18.0-0.56","null","","","","null","","","","key","16.661142857143812","960","484.5","","","","","","","","","","","","","","","","","","","",""
"psychophysics","414","536319","0.0-18.0-1.56","null","","","","null","","","","key","16.656689655172222","960","484.5","","","","","","","","","","","","","135","1","3","true","","","",""
"psychophysics","415","536626","0.0-18.0-2.56","304.5900000142865","","","","90","","","","key","16.67366666666284","960","484.5","","","","","","","","","","","","","","","","","","","",""
"psychophysics","416","537390","0.0-18.0-0.57","null","","","","null","","","","key","16.66440000000099","960","484.5","","","","","","","","","","","","","","","","","","","",""
"psychophysics","417","537894","0.0-18.0-1.57","null","","","","null","","","","key","16.661827586209885","960","484.5","","","","","","","","","","","","","135","-1","3","true","","","",""
"psychophysics","418","538072","0.0-18.0-2.57","174.67500001657754","","","","90","","","","key","16.678888888887336","960","484.5","","","","","","","","","","","","","","","","","","","",""
"psychophysics","419","539389","0.0-18.0-0.58","null","","","","null","","","","key","16.669705128204676","960","484.5","","","","","","","","","","","","","","","","","","","",""
"psychophysics","420","539890","0.0-18.0-1.58","null","","","","null","","","","key","16.670100000000094","960","484.5","","","","","","","","","","","","","135","1","4","true","","","",""
"psychophysics","421","539996","0.0-18.0-2.58","101.82999999960884","","","","77","","","","key","16.687999999988826","960","484.5","","","","","","","","","","","","","","","","","","","",""
"psychophysics","422","541405","0.0-18.0-0.59","null","","","","null","","","","key","16.666048192771164","960","484.5","","","","","","","","","","","","","","","","","","","",""
"psychophysics","423","541907","0.0-18.0-1.59","null","","","","null","","","","key","16.664733333334638","960","484.5","","","","","","","","","","","","","135","1","6","true","","","",""
"psychophysics","424","542117","0.0-18.0-2.59","206.78000000771135","","","","77","","","","key","16.672181818179194","960","484.5","","","","","","","","","","","","","","","","","","","",""
"html-keyboard-response","425","585275","0.0-19.0","43157.60500001488","<p>Well Done !</p><p>Take a minute to rest and then press the spacebar to start the next block.</p><p>DON'T EXIT THE FULL SCREEN MODE</p>","","","32","","","","","","","","","","","","","","","","","","","","","","","","","","",""
"psychophysics","426","588217","0.0-20.0-0.0","null","","","","null","","","","key","16.664290909092365","960","484.5","","","","","","","","","","","","","","","","","","","",""
"psychophysics","427","588719","0.0-20.0-1.0","null","","","","null","","","","key","16.675482758617928","960","484.5","","","","","","","","","","","","","135","-1","6","true","","","",""
"psychophysics","428","588946","0.0-20.0-2.0","220.0099999899976","","","","77","","","","key","16.666230769227976","960","484.5","","","","","","","","","","","","","","","","","","","",""
"psychophysics","429","590143","0.0-20.0-0.1","null","","","","null","","","","key","16.667521126760157","960","484.5","","","","","","","","","","","","","","","","","","","",""
"psychophysics","430","590645","0.0-20.0-1.1","null","","","","null","","","","key","16.664103448274545","960","484.5","","","","","","","","","","","","","135","1","3","true","","","",""
"psychophysics","431","591012","0.0-20.0-2.1","365.1100000133738","","","","90","","","","key","16.66771428571415","960","484.5","","","","","","","","","","","","","","","","","","","",""
"psychophysics","432","591671","0.0-20.0-0.2","null","","","","null","","","","key","16.66305128205269","960","484.5","","","","","","","","","","","","","","","","","","","",""
"psychophysics","433","592174","0.0-20.0-1.2","null","","","","null","","","","key","16.656827586205228","960","484.5","","","","","","","","","","","","","135","1","0","true","","","",""
"psychophysics","434","592746","0.0-20.0-2.2","569.6599999791943","","","","90","","","","key","16.669636363636307","960","484.5","","","","","","","","","","","","","","","","","","","",""
"psychophysics","435","593524","0.0-20.0-0.3","null","","","","null","","","","key","16.66230434782641","960","484.5","","","","","","","","","","","","","","","","","","","",""
"psychophysics","436","594026","0.0-20.0-1.3","null","","","","null","","","","key","16.653724137934503","960","484.5","","","","","","","","","","","","","135","-1","5","true","","","",""
"psychophysics","437","594151","0.0-20.0-2.3","123.13500000163913","","","","77","","","","key","16.690999999991618","960","484.5","","","","","","","","","","","","","","","","","","","",""
"psychophysics","438","595007","0.0-20.0-0.4","null","","","","null","","","","key","16.66958823529364","960","484.5","","","","","","","","","","","","","","","","","","","",""
"psychophysics","439","595510","0.0-20.0-1.4","null","","","","null","","","","key","16.656620689651703","960","484.5","","","","","","","","","","","","","135","1","6","true","","","",""
"psychophysics","440","595647","0.0-20.0-2.4","135.12500002980232","","","","77","","","","key","16.669714285709365","960","484.5","","","","","","","","","","","","","","","","","","","",""
"psychophysics","441","596434","0.0-20.0-0.5","null","","","","null","","","","key","16.670652173912536","960","484.5","","","","","","","","","","","","","","","","","","","",""
"psychophysics","442","596936","0.0-20.0-1.5","null","","","","null","","","","key","16.668900000001305","960","484.5","","","","","","","","","","","","","135","-1","3","true","","","",""
"psychophysics","443","597942","0.0-20.0-2.5","1003.885000012815","","","","77","","","","key","16.669322033898148","960","484.5","","","","","","","","","","","","","","","","","","","",""
"psychophysics","444","599193","0.0-20.0-0.6","null","","","","null","","","","key","16.66455405405282","960","484.5","","","","","","","","","","","","","","","","","","","",""
"psychophysics","445","599694","0.0-20.0-1.6","null","","","","null","","","","key","16.658551724137865","960","484.5","","","","","","","","","","","","","135","-1","4","true","","","",""
"psychophysics","446","599897","0.0-20.0-2.6","199.93000000249594","","","","90","","","","key","16.644909090912815","960","484.5","","","","","","","","","","","","","","","","","","","",""
"psychophysics","447","601232","0.0-20.0-0.7","null","","","","null","","","","key","16.66808860759469","960","484.5","","","","","","","","","","","","","","","","","","","",""
"psychophysics","448","601732","0.0-20.0-1.7","null","","","","null","","","","key","16.66686206896677","960","484.5","","","","","","","","","","","","","135","1","5","true","","","",""
"psychophysics","449","601911","0.0-20.0-2.7","175.93999998643994","","","","77","","","","key","16.677199999999722","960","484.5","","","","","","","","","","","","","","","","","","","",""
"psychophysics","450","602663","0.0-20.0-0.8","null","","","","null","","","","key","16.668386363636024","960","484.5","","","","","","","","","","","","","","","","","","","",""
"psychophysics","451","603164","0.0-20.0-1.8","null","","","","null","","","","key","16.668931034481922","960","484.5","","","","","","","","","","","","","135","-1","0","true","","","",""
"psychophysics","452","603413","0.0-20.0-2.8","247.05000000540167","","","","90","","","","key","16.66278571428432","960","484.5","","","","","","","","","","","","","","","","","","","",""
"psychophysics","453","604008","0.0-20.0-0.9","null","","","","null","","","","key","16.66594285714174","960","484.5","","","","","","","","","","","","","","","","","","","",""
"psychophysics","454","604509","0.0-20.0-1.9","null","","","","null","","","","key","16.667310344826046","960","484.5","","","","","","","","","","","","","135","-1","2","true","","","",""
"psychophysics","455","604649","0.0-20.0-2.9","136.9249999988824","","","","90","","","","key","16.66042857143163","960","484.5","","","","","","","","","","","","","","","","","","","",""
"psychophysics","456","605892","0.0-20.0-0.10","null","","","","null","","","","key","16.668297297297663","960","484.5","","","","","","","","","","","","","","","","","","","",""
"psychophysics","457","606394","0.0-20.0-1.10","null","","","","null","","","","key","16.654448275863803","960","484.5","","","","","","","","","","","","","135","1","2","true","","","",""
"psychophysics","458","606540","0.0-20.0-2.10","143.42999999644235","","","","77","","","","key","16.698875000001863","960","484.5","","","","","","","","","","","","","","","","","","","",""
"psychophysics","459","607123","0.0-20.0-0.11","null","","","","null","","","","key","16.664441176471026","960","484.5","","","","","","","","","","","","","","","","","","","",""
"psychophysics","460","607625","0.0-20.0-1.11","null","","","","null","","","","key","16.655793103449657","960","484.5","","","","","","","","","","","","","135","1","4","true","","","",""
"psychophysics","461","607798","0.0-20.0-2.11","170.99499999312684","","","","77","","","","key","16.697777777767946","960","484.5","","","","","","","","","","","","","","","","","","","",""
"psychophysics","462","608761","0.0-20.0-0.12","null","","","","null","","","","key","16.661526315790404","960","484.5","","","","","","","","","","","","","","","","","","","",""
"psychophysics","463","609262","0.0-20.0-1.12","null","","","","null","","","","key","16.658172413791082","960","484.5","","","","","","","","","","","","","135","1","3","true","","","",""
"psychophysics","464","609425","0.0-20.0-2.12","160.730000003241","","","","77","","","","key","16.66488888888206","960","484.5","","","","","","","","","","","","","","","","","","","",""
"psychophysics","465","610288","0.0-20.0-0.13","null","","","","null","","","","key","16.662137254901396","960","484.5","","","","","","","","","","","","","","","","","","","",""
"psychophysics","466","610790","0.0-20.0-1.13","null","","","","null","","","","key","16.670344827588295","960","484.5","","","","","","","","","","","","","135","1","5","true","","","",""
"psychophysics","467","611101","0.0-20.0-2.13","308.06999997003004","","","","77","","","","key","16.67758823529242","960","484.5","","","","","","","","","","","","","","","","","","","",""
"psychophysics","468","611927","0.0-20.0-0.14","null","","","","null","","","","key","16.671714285714078","960","484.5","","","","","","","","","","","","","","","","","","","",""
"psychophysics","469","612428","0.0-20.0-1.14","null","","","","null","","","","key","16.672586206896714","960","484.5","","","","","","","","","","","","","135","-1","4","true","","","",""
"psychophysics","470","612585","0.0-20.0-2.14","153.6799999885261","","","","90","","","","key","16.665374999996857","960","484.5","","","","","","","","","","","","","","","","","","","",""
