"trial_type","trial_index","time_elapsed","internal_node_id","PROLIFIC_PID","STUDY_ID","SESSION_ID","rt","stimulus","button_pressed","success","key_press","responses","isData","view_history","response_type","avg_frame_time","center_x","center_y","isSC","stim_side","trial_luminance","step_size","nReversal","correct","prev_ans","isThreshold","SC_threshold","final_threshold","isLuminance","FF_luminance","luminance","stimSide","ISInt","isFF","question_order","isSPQ","isCAPS","isAQ"
"pavlovia","0","5","0.0-0.0","5dc151136bba9b0b6d979aa8","609a8bf73b2ac84e2732f618","60a244ea3e7deb6d03118c9d","","","","","","","","","","","","","","","","","","","","","","","","","","","","","","","",""
"html-button-response","1","20277","0.0-1.0","5dc151136bba9b0b6d979aa8","609a8bf73b2ac84e2732f618","60a244ea3e7deb6d03118c9d","20270.485000044573","<div style='background-color: white; width:60%; margin: auto; padding: 50px; text-align: justify; text-justify: inter-word; margin-bottom: 20px;'><h1 style='text-align: center;'>Consent Form</h1><p>Please read this consent form carefully before deciding whether you would like to participate in this study. You have to be 18 years old or older to participate to this study.</p><p style='text-decoration: underline;'>Participation is voluntary:</p><p>It is your choice whether or not to participate in this research. If you choose to participate, you may change your mind and leave the study at any time. Refusal to participate or stopping your participation will involve no penalty or loss of benefits to which you are otherwise entitled.</p><p style='text-decoration: underline;'>Purpose of the Study:</p><p>To understand the mechanisms underlying human perception.</p><p style='text-decoration: underline;'>What you will do in this study:</p><p>You will be presented with a series of visual images and then you will press buttons on the keyboard of your computer to respond to simple questions about the images (e.g. Were one or two images presented?). In addition, you will be asked to complete a questionnaire concerning your beliefs and everyday mental and perceptual experiences.'</p><p style='text-decoration: underline;'> Time Required:</p><p>The study will take 40 minutes to complete. </p><p style='text-decoration: underline;'>Risks:</p><p>There are no anticipated risks associated with participating in this study that are beyond those experienced in everyday life. </p><p style='text-decoration: underline;'>Benefits:</p><p>There are no benefits to you in participating in the study. However, this study may lead to a better understanding of how different kinds of visual information are used.</p><p style='text-decoration: underline;'>Compensation:</p><p>You will be paid US$6.6/hour. </p><p style='text-decoration: underline;'>Privacy and Confidentiality:</p><p>Your participation in this study will be anonymous. No personal information about your name or identity will be asked or recorded. This anonymous data will be stored for several years and may be used for a variety of research purposes. The overall results of the study may be published, or the data files may be shared with other researchers, but your identity will not be revealed in any way. The online services we are using for this study may temporarily store your data, but this data will be downloaded and then promptly deleted from those services.Your data will not be permanently associated with your name, IP address, or any other identifiable information (e.g., your information will only be connected to your payment, not to any of your responses), though they may be temporarily stored together before we download and separate them. Even so, no guarantee of internet survey security can be given because, although unlikely, transmissions can be intercepted and IP addresses can be identified. The anonymous data may be shared publicly (for example, in conjunction with a resulting academic publication).</p><p style='text-decoration: underline;'>Participation and Withdrawal:</p><p>Your participation in this study is completely voluntary. You may stop responding to the stimuli or stop answering questions if you so choose and without penalty by exiting the full screen mode, closing this tab of your browser or redirecting it to a different website.</p><p style='text-decoration: underline;'>Contact Info of the Researcher: </p><p>If you have questions about this study, or if you would like to talk to the research team, please contact David Melcher (david.melcher@nyu.edu, md5050@nyu.edu) at the Perception and Active Cognition Laboratory, New York University Abu Dhabi, Computational Research Building, Saadiyat Island, Abu Dhabi, UAE.This research has been reviewed by the New York University Abu Dhabi Institutional Review Board (NYUAD IRB). To contact about your rights in this research, for questions, suggestions, or complaints that are not addressed by the researchers, please email IRBnyuad@nyu.edu, or call the NYUAD IRB at +971 2 628 4313. </p></div>","0","","","","","","","","","","","","","","","","","","","","","","","","","","","","",""
"fullscreen","2","22581","0.0-2.0","5dc151136bba9b0b6d979aa8","609a8bf73b2ac84e2732f618","60a244ea3e7deb6d03118c9d","","","","true","","","","","","","","","","","","","","","","","","","","","","","","","","","",""
"html-keyboard-response","3","32541","0.0-3.0","5dc151136bba9b0b6d979aa8","609a8bf73b2ac84e2732f618","60a244ea3e7deb6d03118c9d","9958.419999980833","<p>Welcome !</p><p>READ CAREFULLY THE FOLLOWING INDICATIONS:</p><p>From this moment you have ~40 minutes to complete the experiment.</p><p>During the experiment you will be prompted to take several breaks. Each break should not last longer than 2-3 minutes.</p><p>Make sure that your computer is plugged in and it's not running on battery power, even if the battery is already fully charged.</p><p>Turn off your phone and music, make sure that you are in a quiet room and that you will not be distracted for the next hour.</p><p>Failure to comply with the instructions and indications provided during the experiment will most likely result in the rejection of your data.<p>Press the spacebar to start.</p>","","","32","","","","","","","","","","","","","","","","","","","","","","","","","","",""
"survey-html-form","4","40109","0.0-4.0","5dc151136bba9b0b6d979aa8","609a8bf73b2ac84e2732f618","60a244ea3e7deb6d03118c9d","7567.084999987856","","","","","{""age"":""58"",""sex"":""M""}","true","","","","","","","","","","","","","","","","","","","","","","","","",""
"instructions","5","77612","0.0-5.0","5dc151136bba9b0b6d979aa8","609a8bf73b2ac84e2732f618","60a244ea3e7deb6d03118c9d","37502.38499999978","","","","","","","[{""page_index"":0,""viewing_time"":20357.654999999795},{""page_index"":1,""viewing_time"":11768.284999998286},{""page_index"":2,""viewing_time"":5375.910000002477}]","","","","","","","","","","","","","","","","","","","","","","","",""
"psychophysics","6","80828","0.0-6.0-0.0","5dc151136bba9b0b6d979aa8","609a8bf73b2ac84e2732f618","60a244ea3e7deb6d03118c9d","2210.495000006631","","","","39","","","","key","16.6571658031088","751","373","true","1","180","30","0","-1","","","","","","","","","","","","","",""
"psychophysics","7","82052","0.0-6.0-0.1","5dc151136bba9b0b6d979aa8","609a8bf73b2ac84e2732f618","60a244ea3e7deb6d03118c9d","222.4350000033155","","","","39","","","","key","16.66298611111112","751","373","true","1","180","30","0","-1","-1","","","","","","","","","","","","",""
"psychophysics","8","87020","0.0-6.0-0.2","5dc151136bba9b0b6d979aa8","609a8bf73b2ac84e2732f618","60a244ea3e7deb6d03118c9d","3966.935000033118","","","","39","","","","key","16.6638888888889","751","373","true","1","150","30","0","-1","-1","","","","","","","","","","","","",""
"psychophysics","9","88195","0.0-6.0-0.3","5dc151136bba9b0b6d979aa8","609a8bf73b2ac84e2732f618","60a244ea3e7deb6d03118c9d","171.78999999305233","","","","37","","","","key","16.66348571428576","751","373","true","-1","150","30","0","-1","-1","","","","","","","","","","","","",""
"psychophysics","10","91267","0.0-6.0-0.4","5dc151136bba9b0b6d979aa8","609a8bf73b2ac84e2732f618","60a244ea3e7deb6d03118c9d","2069.0300000132993","","","","37","","","","key","16.662125683060157","751","373","true","-1","129","30","0","-1","-1","","","","","","","","","","","","",""
"psychophysics","11","95075","0.0-6.0-0.5","5dc151136bba9b0b6d979aa8","609a8bf73b2ac84e2732f618","60a244ea3e7deb6d03118c9d","2806.4400000148453","","","","37","","","","key","16.662583333333348","751","373","true","1","129","24","1","1","-1","","","","","","","","","","","","",""
"psychophysics","12","96259","0.0-6.0-0.6","5dc151136bba9b0b6d979aa8","609a8bf73b2ac84e2732f618","60a244ea3e7deb6d03118c9d","181.77500000456348","","","","37","","","","key","16.66177142857133","751","373","true","-1","153","24","1","-1","1","","","","","","","","","","","","",""
"psychophysics","13","99748","0.0-6.0-0.7","5dc151136bba9b0b6d979aa8","609a8bf73b2ac84e2732f618","60a244ea3e7deb6d03118c9d","2487.3249999945983","","","","37","","","","key","16.660927884615376","751","373","true","-1","153","19.2","2","-1","-1","","","","","","","","","","","","",""
"psychophysics","14","101500","0.0-6.0-0.8","5dc151136bba9b0b6d979aa8","609a8bf73b2ac84e2732f618","60a244ea3e7deb6d03118c9d","749.9699999461882","","","","39","","","","key","16.666769230769205","751","373","true","1","133.8","19.2","2","-1","-1","","","","","","","","","","","","",""
"psychophysics","15","103555","0.0-6.0-0.9","5dc151136bba9b0b6d979aa8","609a8bf73b2ac84e2732f618","60a244ea3e7deb6d03118c9d","1054.550000000745","","","","39","","","","key","16.6610573770491","751","373","true","-1","133.8","15.36","3","1","-1","","","","","","","","","","","","",""
"psychophysics","16","104787","0.0-6.0-0.10","5dc151136bba9b0b6d979aa8","609a8bf73b2ac84e2732f618","60a244ea3e7deb6d03118c9d","229.78999995393679","","","","39","","","","key","16.658671232876696","751","373","true","1","149.16000000000003","15.36","3","-1","1","","","","","","","","","","","","",""
"psychophysics","17","109027","0.0-6.0-0.11","5dc151136bba9b0b6d979aa8","609a8bf73b2ac84e2732f618","60a244ea3e7deb6d03118c9d","3237.780000024941","","","","39","","","","key","16.661877470355737","751","373","true","1","149.16000000000003","12.287999999999998","4","-1","-1","","","","","","","","","","","","",""
"psychophysics","18","110116","0.0-6.0-0.12","5dc151136bba9b0b6d979aa8","609a8bf73b2ac84e2732f618","60a244ea3e7deb6d03118c9d","85.20500001031905","","","","37","","","","key","16.666938461538386","751","373","true","-1","136.872","12.287999999999998","4","-1","-1","","","","","","","","","","","","",""
"psychophysics","19","111139","0.0-6.0-0.13","5dc151136bba9b0b6d979aa8","609a8bf73b2ac84e2732f618","60a244ea3e7deb6d03118c9d","22.0850000041537","","","","39","","","","key","16.66083333333348","751","373","true","1","136.872","12.287999999999998","4","-1","-1","","","","","","","","","","","","",""
"psychophysics","20","113380","0.0-6.0-0.14","5dc151136bba9b0b6d979aa8","609a8bf73b2ac84e2732f618","60a244ea3e7deb6d03118c9d","1237.5849999953061","","","","39","","","","key","16.66298507462684","751","373","true","1","129","12.287999999999998","4","-1","-1","","","","","","","","","","","","",""
"psychophysics","21","115564","0.0-6.0-0.15","5dc151136bba9b0b6d979aa8","609a8bf73b2ac84e2732f618","60a244ea3e7deb6d03118c9d","1181.3099999562837","","","","39","","","","key","16.6626615384616","751","373","true","-1","129","9.8304","5","1","-1","","","","","","","","","","","","",""
"psychophysics","22","116589","0.0-6.0-0.16","5dc151136bba9b0b6d979aa8","609a8bf73b2ac84e2732f618","60a244ea3e7deb6d03118c9d","23.68500002194196","","","","37","","","","key","16.665360655737697","751","373","true","-1","138.8304","9.8304","5","-1","1","","","","","","","","","","","","",""
"psychophysics","23","117595","0.0-6.0-0.17","5dc151136bba9b0b6d979aa8","609a8bf73b2ac84e2732f618","60a244ea3e7deb6d03118c9d","3.970000019762665","","","","39","","","","key","16.662050847457653","751","373","true","1","138.8304","7.864319999999999","6","-1","-1","","","","","","","","","","","","",""
"psychophysics","24","120619","0.0-6.0-0.18","5dc151136bba9b0b6d979aa8","609a8bf73b2ac84e2732f618","60a244ea3e7deb6d03118c9d","2021.6449999716133","","","","39","","","","key","16.663111111111114","751","373","true","-1","130.96608","6.291456","7","1","-1","","","","","","","","","","","","",""
"psychophysics","25","121634","0.0-6.0-0.19","5dc151136bba9b0b6d979aa8","609a8bf73b2ac84e2732f618","60a244ea3e7deb6d03118c9d","13.680000032763928","","","","37","","","","key","16.663283333333432","751","373","true","-1","137.25753600000002","6.291456","7","-1","1","","","","","","","","","","","","",""
"psychophysics","26","123955","0.0-6.0-0.20","5dc151136bba9b0b6d979aa8","609a8bf73b2ac84e2732f618","60a244ea3e7deb6d03118c9d","1317.4949999665841","","","","39","","","","key","16.66236956521744","751","373","true","1","137.25753600000002","5.033164800000001","8","-1","-1","","","","","","","","","","","","",""
"psychophysics","27","126123","0.0-6.0-0.21","5dc151136bba9b0b6d979aa8","609a8bf73b2ac84e2732f618","60a244ea3e7deb6d03118c9d","1166.5049999719486","","","","39","","","","key","16.791596899224764","751","373","true","-1","132.2243712","4.0265318400000005","9","1","-1","","","","","","","","","","","","",""
"psychophysics","28","127140","0.0-6.0-0.22","5dc151136bba9b0b6d979aa8","609a8bf73b2ac84e2732f618","60a244ea3e7deb6d03118c9d","14.619999972637743","","","","39","","","","key","16.66351666666669","751","373","true","1","136.25090304","4.0265318400000005","9","-1","1","","","","","","","","","","","","",""
"psychophysics","29","128219","0.0-6.0-0.23","5dc151136bba9b0b6d979aa8","609a8bf73b2ac84e2732f618","60a244ea3e7deb6d03118c9d","76.85000001220033","","","","37","","","","key","16.660968749999938","751","373","true","-1","136.25090304","3.2212254720000004","10","-1","-1","","","","","","","","","","","","",""
"psychophysics","30","130107","0.0-6.0-0.24","5dc151136bba9b0b6d979aa8","609a8bf73b2ac84e2732f618","60a244ea3e7deb6d03118c9d","887.1599999838509","","","","39","","","","key","16.66634821428579","751","373","true","-1","133.029677568","2.5769803776000004","11","1","-1","","","","","","","","","","","","",""
"psychophysics","31","131187","0.0-6.0-0.25","5dc151136bba9b0b6d979aa8","609a8bf73b2ac84e2732f618","60a244ea3e7deb6d03118c9d","77.41999998688698","","","","37","","","","key","16.66182812499983","751","373","true","-1","135.6066579456","2.5769803776000004","11","-1","1","","","","","","","","","","","","",""
"psychophysics","32","132204","0.0-6.0-0.26","5dc151136bba9b0b6d979aa8","609a8bf73b2ac84e2732f618","60a244ea3e7deb6d03118c9d","15.524999995250255","","","","37","","","","key","16.66088135593267","751","373","true","-1","135.6066579456","2.0615843020800004","12","-1","-1","","","","","","","","","","","","",""
"psychophysics","33","134443","0.0-6.0-0.27","5dc151136bba9b0b6d979aa8","609a8bf73b2ac84e2732f618","60a244ea3e7deb6d03118c9d","1234.2199999839067","","","","37","","","","key","16.662619402985055","751","373","true","-1","133.54507364352","2.0615843020800004","12","-1","-1","","","","","","","","","","","","",""
"psychophysics","34","135523","0.0-6.0-0.28","5dc151136bba9b0b6d979aa8","609a8bf73b2ac84e2732f618","60a244ea3e7deb6d03118c9d","78.6649999790825","","","","39","","","","key","16.664079365079356","751","373","true","1","133.54507364352","2.0615843020800004","12","-1","-1","","","","","","","","","","","","",""
"psychophysics","35","137971","0.0-6.0-0.29","5dc151136bba9b0b6d979aa8","609a8bf73b2ac84e2732f618","60a244ea3e7deb6d03118c9d","1446.750000002794","","","","37","","","","key","16.776821917808203","751","373","true","1","131.48348934144","1.6492674416640005","13","1","-1","","","","","","","","","","","","",""
"psychophysics","36","139539","0.0-6.0-0.30","5dc151136bba9b0b6d979aa8","609a8bf73b2ac84e2732f618","60a244ea3e7deb6d03118c9d","565.1700000162236","","","","37","","","","key","16.66222580645161","751","373","true","-1","133.13275678310399","1.6492674416640005","13","-1","1","","","","","","","","","","","","",""
"psychophysics","37","142355","0.0-6.0-0.31","5dc151136bba9b0b6d979aa8","609a8bf73b2ac84e2732f618","60a244ea3e7deb6d03118c9d","1814.1300000133924","","","","37","","","","key","16.663166666666733","751","373","true","1","133.13275678310399","1.3194139533312006","14","1","-1","","","","","","","","","","","","",""
"psychophysics","38","145307","0.0-6.0-0.32","5dc151136bba9b0b6d979aa8","609a8bf73b2ac84e2732f618","60a244ea3e7deb6d03118c9d","1949.9800000339746","","","","39","","","","key","16.66305681818184","751","373","true","-1","134.4521707364352","1.3194139533312006","14","1","1","","","","","","","","","","","","",""
"psychophysics","39","146427","0.0-6.0-0.33","5dc151136bba9b0b6d979aa8","609a8bf73b2ac84e2732f618","60a244ea3e7deb6d03118c9d","118.01499995635822","","","","39","","","","key","16.66287878787879","751","373","true","1","135.7715846897664","1.3194139533312006","14","-1","1","","","","","","","","","","","","",""
"psychophysics","40","148891","0.0-6.0-0.34","5dc151136bba9b0b6d979aa8","609a8bf73b2ac84e2732f618","60a244ea3e7deb6d03118c9d","1461.7549999966286","","","","37","","","","key","16.662292517006925","751","373","true","-1","135.7715846897664","1.0555311626649604","15","-1","-1","","","","","","","","","","","","",""
"psychophysics","41","149995","0.0-6.0-0.35","5dc151136bba9b0b6d979aa8","609a8bf73b2ac84e2732f618","60a244ea3e7deb6d03118c9d","102.14000003179535","","","","37","","","","key","16.662415384615397","751","373","true","-1","134.71605352710145","1.0555311626649604","15","-1","-1","","","","","","","","","","","","",""
"psychophysics","42","152019","0.0-6.0-0.36","5dc151136bba9b0b6d979aa8","609a8bf73b2ac84e2732f618","60a244ea3e7deb6d03118c9d","1022.5550000322983","","","","39","","","","key","16.66209166666643","751","373","true","1","134.71605352710145","1.0555311626649604","15","-1","-1","","","","","","","","","","","","",""
"psychophysics","43","153179","0.0-6.0-0.37","5dc151136bba9b0b6d979aa8","609a8bf73b2ac84e2732f618","60a244ea3e7deb6d03118c9d","158.66499999538064","","","","39","","","","key","16.911826086956484","751","373","true","1","133.6605223644365","1.0555311626649604","15","-1","-1","","","","","","","","","","","","",""
"psychophysics","44","155419","0.0-6.0-0.38","5dc151136bba9b0b6d979aa8","609a8bf73b2ac84e2732f618","60a244ea3e7deb6d03118c9d","1238.3450000197627","","","","39","","","","key","16.66271428571431","751","373","true","1","133.6605223644365","1.0555311626649604","15","-1","-1","","","","","","","","","","","","",""
"psychophysics","45","158308","0.0-6.0-0.39","5dc151136bba9b0b6d979aa8","609a8bf73b2ac84e2732f618","60a244ea3e7deb6d03118c9d","1886.5349999978207","","","","37","","","","key","16.662540697674388","751","373","true","1","132.60499120177155","1","16","1","-1","","","","","","","","","","","","",""
"html-keyboard-response","46","163476","0.0-7.0","5dc151136bba9b0b6d979aa8","609a8bf73b2ac84e2732f618","60a244ea3e7deb6d03118c9d","5167.249999998603","<p>Well Done !</p><p>Prepare for a new block.</p><p>DON'T EXIT THE FULL SCREEN MODE</p><p>Press the Spacebar to start.</p>","","","32","","","","","","","","","","","","","","","true","134.0937299457802","","","","","","","","","","",""
"psychophysics","47","165884","0.0-8.0-0.0","5dc151136bba9b0b6d979aa8","609a8bf73b2ac84e2732f618","60a244ea3e7deb6d03118c9d","1404.00000003865","","","","37","","","","key","16.65511111111098","751","373","true","-1","180","30","0","-1","","","","","","","","","","","","","",""
"psychophysics","48","169715","0.0-8.0-0.1","5dc151136bba9b0b6d979aa8","609a8bf73b2ac84e2732f618","60a244ea3e7deb6d03118c9d","2827.935000008438","","","","37","","","","key","16.662851528384174","751","373","true","-1","180","30","0","-1","-1","","","","","","","","","","","","",""
"psychophysics","49","172163","0.0-8.0-0.2","5dc151136bba9b0b6d979aa8","609a8bf73b2ac84e2732f618","60a244ea3e7deb6d03118c9d","1444.0600000089034","","","","39","","","","key","16.664212328767164","751","373","true","1","150","30","0","-1","-1","","","","","","","","","","","","",""
"psychophysics","50","174084","0.0-8.0-0.3","5dc151136bba9b0b6d979aa8","609a8bf73b2ac84e2732f618","60a244ea3e7deb6d03118c9d","919.3400000222027","","","","37","","","","key","16.658964912280727","751","373","true","-1","150","30","0","-1","-1","","","","","","","","","","","","",""
"psychophysics","51","175131","0.0-8.0-0.4","5dc151136bba9b0b6d979aa8","609a8bf73b2ac84e2732f618","60a244ea3e7deb6d03118c9d","45.84500001510605","","","","37","","","","key","16.663209677419452","751","373","true","-1","129","30","0","-1","-1","","","","","","","","","","","","",""
"psychophysics","52","176851","0.0-8.0-0.5","5dc151136bba9b0b6d979aa8","609a8bf73b2ac84e2732f618","60a244ea3e7deb6d03118c9d","719.0049999626353","","","","39","","","","key","16.659568627451105","751","373","true","1","129","30","0","-1","-1","","","","","","","","","","","","",""
"psychophysics","53","178116","0.0-8.0-0.6","5dc151136bba9b0b6d979aa8","609a8bf73b2ac84e2732f618","60a244ea3e7deb6d03118c9d","261.8450000300072","","","","37","","","","key","16.662600000000094","751","373","true","-1","129","30","0","-1","-1","","","","","","","","","","","","",""
"psychophysics","54","179330","0.0-8.0-0.7","5dc151136bba9b0b6d979aa8","609a8bf73b2ac84e2732f618","60a244ea3e7deb6d03118c9d","213.05999998003244","","","","37","","","","key","16.66209722222225","751","373","true","-1","129","30","0","-1","-1","","","","","","","","","","","","",""
"psychophysics","55","180786","0.0-8.0-0.8","5dc151136bba9b0b6d979aa8","609a8bf73b2ac84e2732f618","60a244ea3e7deb6d03118c9d","454.1849999804981","","","","37","","","","key","16.66288505747129","751","373","true","1","129","24","1","1","-1","","","","","","","","","","","","",""
"psychophysics","56","181884","0.0-8.0-0.9","5dc151136bba9b0b6d979aa8","609a8bf73b2ac84e2732f618","60a244ea3e7deb6d03118c9d","95.95500002615154","","","","37","","","","key","16.67004687499957","751","373","true","-1","153","24","1","-1","1","","","","","","","","","","","","",""
"psychophysics","57","182979","0.0-8.0-0.10","5dc151136bba9b0b6d979aa8","609a8bf73b2ac84e2732f618","60a244ea3e7deb6d03118c9d","92.16499998001382","","","","39","","","","key","16.67079999999976","751","373","true","1","153","19.2","2","-1","-1","","","","","","","","","","","","",""
"psychophysics","58","184018","0.0-8.0-0.11","5dc151136bba9b0b6d979aa8","609a8bf73b2ac84e2732f618","60a244ea3e7deb6d03118c9d","38.130000000819564","","","","37","","","","key","16.662516129032273","751","373","true","-1","133.8","19.2","2","-1","-1","","","","","","","","","","","","",""
"psychophysics","59","186034","0.0-8.0-0.12","5dc151136bba9b0b6d979aa8","609a8bf73b2ac84e2732f618","60a244ea3e7deb6d03118c9d","1014.9300000048243","","","","39","","","","key","16.6607666666668","751","373","true","-1","133.8","15.36","3","1","-1","","","","","","","","","","","","",""
"psychophysics","60","189355","0.0-8.0-0.13","5dc151136bba9b0b6d979aa8","609a8bf73b2ac84e2732f618","60a244ea3e7deb6d03118c9d","2319.160000013653","","","","37","","","","key","16.661388888888823","751","373","true","1","149.16000000000003","15.36","3","1","1","","","","","","","","","","","","",""
"psychophysics","61","191562","0.0-8.0-0.14","5dc151136bba9b0b6d979aa8","609a8bf73b2ac84e2732f618","60a244ea3e7deb6d03118c9d","1205.225000041537","","","","39","","","","key","16.662122137404673","751","373","true","1","164.52000000000004","15.36","3","-1","1","","","","","","","","","","","","",""
"psychophysics","62","193371","0.0-8.0-0.15","5dc151136bba9b0b6d979aa8","609a8bf73b2ac84e2732f618","60a244ea3e7deb6d03118c9d","806.4250000170432","","","","37","","","","key","16.662203703703806","751","373","true","-1","164.52000000000004","12.287999999999998","4","-1","-1","","","","","","","","","","","","",""
"psychophysics","63","195019","0.0-8.0-0.16","5dc151136bba9b0b6d979aa8","609a8bf73b2ac84e2732f618","60a244ea3e7deb6d03118c9d","645.5200000200421","","","","37","","","","key","16.66245918367349","751","373","true","1","152.23200000000003","9.8304","5","1","-1","","","","","","","","","","","","",""
"psychophysics","64","196027","0.0-8.0-0.17","5dc151136bba9b0b6d979aa8","609a8bf73b2ac84e2732f618","60a244ea3e7deb6d03118c9d","5.92500000493601","","","","39","","","","key","16.657576271186294","751","373","true","1","162.06240000000003","9.8304","5","-1","1","","","","","","","","","","","","",""
"psychophysics","65","198243","0.0-8.0-0.18","5dc151136bba9b0b6d979aa8","609a8bf73b2ac84e2732f618","60a244ea3e7deb6d03118c9d","1213.86999997776","","","","39","","","","key","16.663219696969794","751","373","true","-1","162.06240000000003","7.864319999999999","6","1","-1","","","","","","","","","","","","",""
"psychophysics","66","200346","0.0-8.0-0.19","5dc151136bba9b0b6d979aa8","609a8bf73b2ac84e2732f618","60a244ea3e7deb6d03118c9d","1100.5850000074133","","","","39","","","","key","16.662704000000144","751","373","true","-1","169.92672000000002","7.864319999999999","6","1","1","","","","","","","","","","","","",""
"psychophysics","67","202507","0.0-8.0-0.20","5dc151136bba9b0b6d979aa8","609a8bf73b2ac84e2732f618","60a244ea3e7deb6d03118c9d","1160.024999990128","","","","39","","","","key","16.662062015503786","751","373","true","-1","177.79104","7.864319999999999","6","1","1","","","","","","","","","","","","",""
"psychophysics","68","203714","0.0-8.0-0.21","5dc151136bba9b0b6d979aa8","609a8bf73b2ac84e2732f618","60a244ea3e7deb6d03118c9d","204.52999998815358","","","","39","","","","key","16.66264788732408","751","373","true","1","185.65536","7.864319999999999","6","-1","1","","","","","","","","","","","","",""
"psychophysics","69","205707","0.0-8.0-0.22","5dc151136bba9b0b6d979aa8","609a8bf73b2ac84e2732f618","60a244ea3e7deb6d03118c9d","991.1549999960698","","","","39","","","","key","16.662991596638722","751","373","true","-1","185.65536","6.291456","7","1","-1","","","","","","","","","","","","",""
"psychophysics","70","208428","0.0-8.0-0.23","5dc151136bba9b0b6d979aa8","609a8bf73b2ac84e2732f618","60a244ea3e7deb6d03118c9d","1719.130000041332","","","","39","","","","key","16.663209876543046","751","373","true","1","191.946816","6.291456","7","-1","1","","","","","","","","","","","","",""
"psychophysics","71","210123","0.0-8.0-0.24","5dc151136bba9b0b6d979aa8","609a8bf73b2ac84e2732f618","60a244ea3e7deb6d03118c9d","689.8849999997765","","","","39","","","","key","16.6592475247525","751","373","true","-1","191.946816","5.033164800000001","8","1","-1","","","","","","","","","","","","",""
"psychophysics","72","212050","0.0-8.0-0.25","5dc151136bba9b0b6d979aa8","609a8bf73b2ac84e2732f618","60a244ea3e7deb6d03118c9d","925.6399999721907","","","","39","","","","key","16.662243478260834","751","373","true","-1","196.97998080000002","5.033164800000001","8","1","1","","","","","","","","","","","","",""
"psychophysics","73","213914","0.0-8.0-0.26","5dc151136bba9b0b6d979aa8","609a8bf73b2ac84e2732f618","60a244ea3e7deb6d03118c9d","861.3550000009127","","","","39","","","","key","16.665518181818136","751","373","true","-1","202.01314560000003","5.033164800000001","8","1","1","","","","","","","","","","","","",""
"psychophysics","74","215771","0.0-8.0-0.27","5dc151136bba9b0b6d979aa8","609a8bf73b2ac84e2732f618","60a244ea3e7deb6d03118c9d","854.7249999828637","","","","39","","","","key","16.659234234234393","751","373","true","-1","207.04631040000004","5.033164800000001","8","1","1","","","","","","","","","","","","",""
"psychophysics","75","217642","0.0-8.0-0.28","5dc151136bba9b0b6d979aa8","609a8bf73b2ac84e2732f618","60a244ea3e7deb6d03118c9d","870.5099999788217","","","","39","","","","key","16.66574774774789","751","373","true","-1","212.07947520000005","5.033164800000001","8","1","1","","","","","","","","","","","","",""
"psychophysics","76","220003","0.0-8.0-0.29","5dc151136bba9b0b6d979aa8","609a8bf73b2ac84e2732f618","60a244ea3e7deb6d03118c9d","1357.7299999888055","","","","39","","","","key","16.781107142857216","751","373","true","1","217.11264000000006","5.033164800000001","8","-1","1","","","","","","","","","","","","",""
"psychophysics","77","222315","0.0-8.0-0.30","5dc151136bba9b0b6d979aa8","609a8bf73b2ac84e2732f618","60a244ea3e7deb6d03118c9d","1309.6549999900162","","","","39","","","","key","16.662876811594302","751","373","true","1","217.11264000000006","4.0265318400000005","9","-1","-1","","","","","","","","","","","","",""
"psychophysics","78","226035","0.0-8.0-0.31","5dc151136bba9b0b6d979aa8","609a8bf73b2ac84e2732f618","60a244ea3e7deb6d03118c9d","2718.330000003334","","","","37","","","","key","16.6632432432432","751","373","true","1","213.08610816000007","3.2212254720000004","10","1","-1","","","","","","","","","","","","",""
"psychophysics","79","227066","0.0-8.0-0.32","5dc151136bba9b0b6d979aa8","609a8bf73b2ac84e2732f618","60a244ea3e7deb6d03118c9d","28.9300000295043","","","","39","","","","key","16.662606557377433","751","373","true","1","216.30733363200005","3.2212254720000004","10","-1","1","","","","","","","","","","","","",""
"psychophysics","80","228115","0.0-8.0-0.33","5dc151136bba9b0b6d979aa8","609a8bf73b2ac84e2732f618","60a244ea3e7deb6d03118c9d","45.42999999830499","","","","37","","","","key","16.663672131147486","751","373","true","-1","216.30733363200005","2.5769803776000004","11","-1","-1","","","","","","","","","","","","",""
"psychophysics","81","230762","0.0-8.0-0.34","5dc151136bba9b0b6d979aa8","609a8bf73b2ac84e2732f618","60a244ea3e7deb6d03118c9d","1645.2200000057928","","","","37","","","","key","16.662563291139225","751","373","true","1","213.73035325440006","2.0615843020800004","12","1","-1","","","","","","","","","","","","",""
"psychophysics","82","232899","0.0-8.0-0.35","5dc151136bba9b0b6d979aa8","609a8bf73b2ac84e2732f618","60a244ea3e7deb6d03118c9d","1134.7850000020117","","","","39","","","","key","16.791897637795245","751","373","true","1","215.79193755648006","2.0615843020800004","12","-1","1","","","","","","","","","","","","",""
"psychophysics","83","234819","0.0-8.0-0.36","5dc151136bba9b0b6d979aa8","609a8bf73b2ac84e2732f618","60a244ea3e7deb6d03118c9d","918.3999999659136","","","","39","","","","key","16.663377192982455","751","373","true","1","215.79193755648006","1.6492674416640005","13","-1","-1","","","","","","","","","","","","",""
"psychophysics","84","236667","0.0-8.0-0.37","5dc151136bba9b0b6d979aa8","609a8bf73b2ac84e2732f618","60a244ea3e7deb6d03118c9d","845.6249999580905","","","","39","","","","key","16.662772727272717","751","373","true","1","214.14267011481607","1.6492674416640005","13","-1","-1","","","","","","","","","","","","",""
"psychophysics","85","238435","0.0-8.0-0.38","5dc151136bba9b0b6d979aa8","609a8bf73b2ac84e2732f618","60a244ea3e7deb6d03118c9d","766.0499999765307","","","","39","","","","key","16.664780952380916","751","373","true","1","214.14267011481607","1.6492674416640005","13","-1","-1","","","","","","","","","","","","",""
"psychophysics","86","240267","0.0-8.0-0.39","5dc151136bba9b0b6d979aa8","609a8bf73b2ac84e2732f618","60a244ea3e7deb6d03118c9d","829.2099999962375","","","","39","","","","key","16.66387155963297","751","373","true","1","212.49340267315208","1.6492674416640005","13","-1","-1","","","","","","","","","","","","",""
"html-keyboard-response","87","245564","0.0-9.0","5dc151136bba9b0b6d979aa8","609a8bf73b2ac84e2732f618","60a244ea3e7deb6d03118c9d","5296.115000033751","<p>Well Done !</p><p>Prepare for a new block.</p><p>DON'T EXIT THE FULL SCREEN MODE</p><p>Press the Spacebar to start.</p>","","","32","","","","","","","","","","","","","","","true","212.27586257960968","","","","","","","","","","",""
"psychophysics","88","247876","0.0-10.0-0.0","5dc151136bba9b0b6d979aa8","609a8bf73b2ac84e2732f618","60a244ea3e7deb6d03118c9d","1309.079999977257","","","","39","","","","key","16.655287769784113","751","373","true","-1","180","30","0","1","","","","","","","","","","","","","",""
"psychophysics","89","250668","0.0-10.0-0.1","5dc151136bba9b0b6d979aa8","609a8bf73b2ac84e2732f618","60a244ea3e7deb6d03118c9d","1790.485000004992","","","","39","","","","key","16.659994011975943","751","373","true","1","210","30","0","-1","1","","","","","","","","","","","","",""
"psychophysics","90","252355","0.0-10.0-0.2","5dc151136bba9b0b6d979aa8","609a8bf73b2ac84e2732f618","60a244ea3e7deb6d03118c9d","683.5350000183098","","","","39","","","","key","16.661069999999892","751","373","true","-1","210","24","1","1","-1","","","","","","","","","","","","",""
"psychophysics","91","254051","0.0-10.0-0.3","5dc151136bba9b0b6d979aa8","609a8bf73b2ac84e2732f618","60a244ea3e7deb6d03118c9d","694.3500000052154","","","","39","","","","key","16.662198019801814","751","373","true","-1","234","24","1","1","1","","","","","","","","","","","","",""
"psychophysics","92","256099","0.0-10.0-0.4","5dc151136bba9b0b6d979aa8","609a8bf73b2ac84e2732f618","60a244ea3e7deb6d03118c9d","1046.875","","","","39","","","","key","16.663099173553604","751","373","true","1","255","24","1","-1","1","","","","","","","","","","","","",""
"psychophysics","93","257835","0.0-10.0-0.5","5dc151136bba9b0b6d979aa8","609a8bf73b2ac84e2732f618","60a244ea3e7deb6d03118c9d","733.8899999740534","","","","39","","","","key","16.66310576923066","751","373","true","-1","255","19.2","2","1","-1","","","","","","","","","","","","",""
"psychophysics","94","259051","0.0-10.0-0.6","5dc151136bba9b0b6d979aa8","609a8bf73b2ac84e2732f618","60a244ea3e7deb6d03118c9d","214.2149999854155","","","","39","","","","key","16.661611111111092","751","373","true","1","255","19.2","2","-1","1","","","","","","","","","","","","",""
"psychophysics","95","260115","0.0-10.0-0.7","5dc151136bba9b0b6d979aa8","609a8bf73b2ac84e2732f618","60a244ea3e7deb6d03118c9d","63.30999999772757","","","","37","","","","key","16.66269841269841","751","373","true","-1","235.8","15.36","3","-1","-1","","","","","","","","","","","","",""
"psychophysics","96","261155","0.0-10.0-0.8","5dc151136bba9b0b6d979aa8","609a8bf73b2ac84e2732f618","60a244ea3e7deb6d03118c9d","37.40000003017485","","","","37","","","","key","16.66214754098366","751","373","true","-1","235.8","15.36","3","-1","-1","","","","","","","","","","","","",""
"psychophysics","97","263227","0.0-10.0-0.9","5dc151136bba9b0b6d979aa8","609a8bf73b2ac84e2732f618","60a244ea3e7deb6d03118c9d","1071.315000008326","","","","39","","","","key","16.658430894309127","751","373","true","-1","220.44","12.287999999999998","4","1","-1","","","","","","","","","","","","",""
"psychophysics","98","265564","0.0-10.0-0.10","5dc151136bba9b0b6d979aa8","609a8bf73b2ac84e2732f618","60a244ea3e7deb6d03118c9d","1334.885000018403","","","","39","","","","key","16.661021428571466","751","373","true","-1","232.728","12.287999999999998","4","1","1","","","","","","","","","","","","",""
"psychophysics","99","267579","0.0-10.0-0.11","5dc151136bba9b0b6d979aa8","609a8bf73b2ac84e2732f618","60a244ea3e7deb6d03118c9d","1013.3749999804422","","","","37","","","","key","16.66347058823512","751","373","true","1","245.01600000000002","12.287999999999998","4","1","1","","","","","","","","","","","","",""
"psychophysics","100","269451","0.0-10.0-0.12","5dc151136bba9b0b6d979aa8","609a8bf73b2ac84e2732f618","60a244ea3e7deb6d03118c9d","869.0899999928661","","","","39","","","","key","16.663107142857502","751","373","true","-1","255","12.287999999999998","4","1","1","","","","","","","","","","","","",""
"psychophysics","101","271595","0.0-10.0-0.13","5dc151136bba9b0b6d979aa8","609a8bf73b2ac84e2732f618","60a244ea3e7deb6d03118c9d","1142.0950000174344","","","","39","","","","key","16.658905511811344","751","373","true","1","255","12.287999999999998","4","-1","1","","","","","","","","","","","","",""
"psychophysics","102","273444","0.0-10.0-0.14","5dc151136bba9b0b6d979aa8","609a8bf73b2ac84e2732f618","60a244ea3e7deb6d03118c9d","847.7200000197627","","","","39","","","","key","16.662545454545498","751","373","true","-1","242.712","9.8304","5","1","-1","","","","","","","","","","","","",""
"psychophysics","103","275339","0.0-10.0-0.15","5dc151136bba9b0b6d979aa8","609a8bf73b2ac84e2732f618","60a244ea3e7deb6d03118c9d","891.7299999739043","","","","37","","","","key","16.665132743362605","751","373","true","1","252.5424","9.8304","5","1","1","","","","","","","","","","","","",""
"psychophysics","104","277259","0.0-10.0-0.16","5dc151136bba9b0b6d979aa8","609a8bf73b2ac84e2732f618","60a244ea3e7deb6d03118c9d","918.7849999871105","","","","37","","","","key","16.66477192982443","751","373","true","1","255","9.8304","5","1","1","","","","","","","","","","","","",""
"psychophysics","105","278923","0.0-10.0-0.17","5dc151136bba9b0b6d979aa8","609a8bf73b2ac84e2732f618","60a244ea3e7deb6d03118c9d","661.7499999701977","","","","39","","","","key","16.662848484848222","751","373","true","-1","255","9.8304","5","1","1","","","","","","","","","","","","",""
"psychophysics","106","280675","0.0-10.0-0.18","5dc151136bba9b0b6d979aa8","609a8bf73b2ac84e2732f618","60a244ea3e7deb6d03118c9d","748.844999994617","","","","39","","","","key","16.66259615384647","751","373","true","-1","255","9.8304","5","1","1","","","","","","","","","","","","",""
"psychophysics","107","282730","0.0-10.0-0.19","5dc151136bba9b0b6d979aa8","609a8bf73b2ac84e2732f618","60a244ea3e7deb6d03118c9d","1053.6599999759346","","","","39","","","","key","16.66409016393419","751","373","true","-1","255","9.8304","5","1","1","","","","","","","","","","","","",""
"psychophysics","108","284588","0.0-10.0-0.20","5dc151136bba9b0b6d979aa8","609a8bf73b2ac84e2732f618","60a244ea3e7deb6d03118c9d","855.6549999630079","","","","39","","","","key","16.66260909090898","751","373","true","1","255","9.8304","5","-1","1","","","","","","","","","","","","",""
"psychophysics","109","286442","0.0-10.0-0.21","5dc151136bba9b0b6d979aa8","609a8bf73b2ac84e2732f618","60a244ea3e7deb6d03118c9d","853.194999974221","","","","39","","","","key","16.66258035714262","751","373","true","1","245.1696","7.864319999999999","6","-1","-1","","","","","","","","","","","","",""
"psychophysics","110","288251","0.0-10.0-0.22","5dc151136bba9b0b6d979aa8","609a8bf73b2ac84e2732f618","60a244ea3e7deb6d03118c9d","807.3549999971874","","","","39","","","","key","16.66335514018684","751","373","true","1","245.1696","7.864319999999999","6","-1","-1","","","","","","","","","","","","",""
"psychophysics","111","290804","0.0-10.0-0.23","5dc151136bba9b0b6d979aa8","609a8bf73b2ac84e2732f618","60a244ea3e7deb6d03118c9d","1550.48999999417","","","","39","","","","key","16.661190789473615","751","373","true","1","237.30528","7.864319999999999","6","-1","-1","","","","","","","","","","","","",""
"psychophysics","112","292556","0.0-10.0-0.24","5dc151136bba9b0b6d979aa8","609a8bf73b2ac84e2732f618","60a244ea3e7deb6d03118c9d","749.9799999641255","","","","39","","","","key","16.662413461538492","751","373","true","1","237.30528","7.864319999999999","6","-1","-1","","","","","","","","","","","","",""
"psychophysics","113","294555","0.0-10.0-0.25","5dc151136bba9b0b6d979aa8","609a8bf73b2ac84e2732f618","60a244ea3e7deb6d03118c9d","996.0100000025705","","","","39","","","","key","16.661117647058415","751","373","true","-1","229.44096000000002","6.291456","7","1","-1","","","","","","","","","","","","",""
"psychophysics","114","295627","0.0-10.0-0.26","5dc151136bba9b0b6d979aa8","609a8bf73b2ac84e2732f618","60a244ea3e7deb6d03118c9d","70.04500000039116","","","","37","","","","key","18.074355932203186","751","373","true","-1","235.73241600000003","6.291456","7","-1","1","","","","","","","","","","","","",""
"psychophysics","115","297507","0.0-10.0-0.27","5dc151136bba9b0b6d979aa8","609a8bf73b2ac84e2732f618","60a244ea3e7deb6d03118c9d","878.0450000194833","","","","37","","","","key","16.662723214285506","751","373","true","1","235.73241600000003","5.033164800000001","8","1","-1","","","","","","","","","","","","",""
"psychophysics","116","299453","0.0-10.0-0.28","5dc151136bba9b0b6d979aa8","609a8bf73b2ac84e2732f618","60a244ea3e7deb6d03118c9d","943.5199999716133","","","","37","","","","key","16.662469565217464","751","373","true","1","240.76558080000004","5.033164800000001","8","1","1","","","","","","","","","","","","",""
"psychophysics","117","301142","0.0-10.0-0.29","5dc151136bba9b0b6d979aa8","609a8bf73b2ac84e2732f618","60a244ea3e7deb6d03118c9d","686.4049999858253","","","","37","","","","key","16.664950495049826","751","373","true","1","245.79874560000005","5.033164800000001","8","1","1","","","","","","","","","","","","",""
"psychophysics","118","302900","0.0-10.0-0.30","5dc151136bba9b0b6d979aa8","609a8bf73b2ac84e2732f618","60a244ea3e7deb6d03118c9d","755.5050000082701","","","","37","","","","key","16.662250000000103","751","373","true","1","250.83191040000006","5.033164800000001","8","1","1","","","","","","","","","","","","",""
"psychophysics","119","304588","0.0-10.0-0.31","5dc151136bba9b0b6d979aa8","609a8bf73b2ac84e2732f618","60a244ea3e7deb6d03118c9d","686.9200000073761","","","","37","","","","key","16.661520000000017","751","373","true","1","255","5.033164800000001","8","1","1","","","","","","","","","","","","",""
"psychophysics","120","305596","0.0-10.0-0.32","5dc151136bba9b0b6d979aa8","609a8bf73b2ac84e2732f618","60a244ea3e7deb6d03118c9d","6.660000013653189","","","","37","","","","key","16.664216666666714","751","373","true","-1","255","5.033164800000001","8","-1","1","","","","","","","","","","","","",""
"psychophysics","121","307340","0.0-10.0-0.33","5dc151136bba9b0b6d979aa8","609a8bf73b2ac84e2732f618","60a244ea3e7deb6d03118c9d","742.560000042431","","","","39","","","","key","16.663174757281844","751","373","true","-1","249.9668352","4.0265318400000005","9","1","-1","","","","","","","","","","","","",""
"psychophysics","122","309420","0.0-10.0-0.34","5dc151136bba9b0b6d979aa8","609a8bf73b2ac84e2732f618","60a244ea3e7deb6d03118c9d","1078.7700000219047","","","","37","","","","key","16.662056451612678","751","373","true","1","253.99336703999998","4.0265318400000005","9","1","1","","","","","","","","","","","","",""
"psychophysics","123","310580","0.0-10.0-0.35","5dc151136bba9b0b6d979aa8","609a8bf73b2ac84e2732f618","60a244ea3e7deb6d03118c9d","158.34999998332933","","","","37","","","","key","16.66216176470591","751","373","true","-1","255","4.0265318400000005","9","-1","1","","","","","","","","","","","","",""
"psychophysics","124","313797","0.0-10.0-0.36","5dc151136bba9b0b6d979aa8","609a8bf73b2ac84e2732f618","60a244ea3e7deb6d03118c9d","2213.8900000136346","","","","39","","","","key","16.74893229166658","751","373","true","1","255","3.2212254720000004","10","-1","-1","","","","","","","","","","","","",""
"psychophysics","125","316108","0.0-10.0-0.37","5dc151136bba9b0b6d979aa8","609a8bf73b2ac84e2732f618","60a244ea3e7deb6d03118c9d","1308.8049999787472","","","","39","","","","key","16.66292753623186","751","373","true","1","251.77877452799999","3.2212254720000004","10","-1","-1","","","","","","","","","","","","",""
"psychophysics","126","317949","0.0-10.0-0.38","5dc151136bba9b0b6d979aa8","609a8bf73b2ac84e2732f618","60a244ea3e7deb6d03118c9d","839.7649999824353","","","","39","","","","key","16.816694444444792","751","373","true","-1","251.77877452799999","2.5769803776000004","11","1","-1","","","","","","","","","","","","",""
"psychophysics","127","319773","0.0-10.0-0.39","5dc151136bba9b0b6d979aa8","609a8bf73b2ac84e2732f618","60a244ea3e7deb6d03118c9d","822.2100000130013","","","","39","","","","key","16.659247706422086","751","373","true","-1","254.35575490559998","2.5769803776000004","11","1","1","","","","","","","","","","","","",""
"html-keyboard-response","128","323982","0.0-11.0","5dc151136bba9b0b6d979aa8","609a8bf73b2ac84e2732f618","60a244ea3e7deb6d03118c9d","4208.175000036135","<p>Well Done !</p><p>Prepare for a new block.</p><p>DON'T EXIT THE FULL SCREEN MODE</p><p>Press the Spacebar to start.</p>","","","32","","","","","","","","","","","","","","","true","248.01170233344004","","","","","","","","","","",""
"psychophysics","129","326701","0.0-12.0-0.0","5dc151136bba9b0b6d979aa8","609a8bf73b2ac84e2732f618","60a244ea3e7deb6d03118c9d","1715.6600000453182","","","","39","","","","key","16.761957055214506","751","373","true","1","180","30","0","-1","","","","","","","","","","","","","",""
"psychophysics","130","328461","0.0-12.0-0.1","5dc151136bba9b0b6d979aa8","609a8bf73b2ac84e2732f618","60a244ea3e7deb6d03118c9d","757.1849999949336","","","","39","","","","key","16.66686538461531","751","373","true","-1","180","30","0","1","-1","","","","","","","","","","","","",""
"psychophysics","131","330436","0.0-12.0-0.2","5dc151136bba9b0b6d979aa8","609a8bf73b2ac84e2732f618","60a244ea3e7deb6d03118c9d","973.0750000453554","","","","39","","","","key","16.661957627118436","751","373","true","-1","210","30","0","1","1","","","","","","","","","","","","",""
"psychophysics","132","332028","0.0-12.0-0.3","5dc151136bba9b0b6d979aa8","609a8bf73b2ac84e2732f618","60a244ea3e7deb6d03118c9d","591.164999990724","","","","39","","","","key","16.657691489361433","751","373","true","-1","240","30","0","1","1","","","","","","","","","","","","",""
"psychophysics","133","333732","0.0-12.0-0.4","5dc151136bba9b0b6d979aa8","609a8bf73b2ac84e2732f618","60a244ea3e7deb6d03118c9d","701.5549999778159","","","","39","","","","key","16.661931372548946","751","373","true","-1","255","30","0","1","1","","","","","","","","","","","","",""
"psychophysics","134","335404","0.0-12.0-0.5","5dc151136bba9b0b6d979aa8","609a8bf73b2ac84e2732f618","60a244ea3e7deb6d03118c9d","669.9000000371598","","","","37","","","","key","16.662727272727718","751","373","true","1","255","30","0","1","1","","","","","","","","","","","","",""
"psychophysics","135","337141","0.0-12.0-0.6","5dc151136bba9b0b6d979aa8","609a8bf73b2ac84e2732f618","60a244ea3e7deb6d03118c9d","734.3649999820627","","","","39","","","","key","16.66174757281585","751","373","true","-1","255","30","0","1","1","","","","","","","","","","","","",""
"psychophysics","136","338764","0.0-12.0-0.7","5dc151136bba9b0b6d979aa8","609a8bf73b2ac84e2732f618","60a244ea3e7deb6d03118c9d","622.1500000101514","","","","37","","","","key","16.662103092783376","751","373","true","1","255","30","0","1","1","","","","","","","","","","","","",""
"psychophysics","137","340437","0.0-12.0-0.8","5dc151136bba9b0b6d979aa8","609a8bf73b2ac84e2732f618","60a244ea3e7deb6d03118c9d","670.0749999727122","","","","37","","","","key","16.66012121212135","751","373","true","1","255","30","0","1","1","","","","","","","","","","","","",""
"psychophysics","138","342148","0.0-12.0-0.9","5dc151136bba9b0b6d979aa8","609a8bf73b2ac84e2732f618","60a244ea3e7deb6d03118c9d","709.1099999961443","","","","39","","","","key","16.66811764705869","751","373","true","-1","255","30","0","1","1","","","","","","","","","","","","",""
"psychophysics","139","344172","0.0-12.0-0.10","5dc151136bba9b0b6d979aa8","609a8bf73b2ac84e2732f618","60a244ea3e7deb6d03118c9d","1022.2399999620393","","","","37","","","","key","16.66171666666681","751","373","true","1","255","30","0","1","1","","","","","","","","","","","","",""
"psychophysics","140","346529","0.0-12.0-0.11","5dc151136bba9b0b6d979aa8","609a8bf73b2ac84e2732f618","60a244ea3e7deb6d03118c9d","1355.0149999791756","","","","39","","","","key","16.66219285714282","751","373","true","-1","255","30","0","1","1","","","","","","","","","","","","",""
"psychophysics","141","348245","0.0-12.0-0.12","5dc151136bba9b0b6d979aa8","609a8bf73b2ac84e2732f618","60a244ea3e7deb6d03118c9d","714.3799999612384","","","","39","","","","key","16.66269902912651","751","373","true","1","255","30","0","-1","1","","","","","","","","","","","","",""
"psychophysics","142","349972","0.0-12.0-0.13","5dc151136bba9b0b6d979aa8","609a8bf73b2ac84e2732f618","60a244ea3e7deb6d03118c9d","726.3299999758601","","","","39","","","","key","16.662137254901964","751","373","true","1","225","24","1","-1","-1","","","","","","","","","","","","",""
"psychophysics","143","351732","0.0-12.0-0.14","5dc151136bba9b0b6d979aa8","609a8bf73b2ac84e2732f618","60a244ea3e7deb6d03118c9d","758.6000000010245","","","","39","","","","key","16.66198095238069","751","373","true","1","225","24","1","-1","-1","","","","","","","","","","","","",""
"psychophysics","144","353436","0.0-12.0-0.15","5dc151136bba9b0b6d979aa8","609a8bf73b2ac84e2732f618","60a244ea3e7deb6d03118c9d","702.2550000110641","","","","39","","","","key","16.66256435643559","751","373","true","1","201","24","1","-1","-1","","","","","","","","","","","","",""
"psychophysics","145","355269","0.0-12.0-0.16","5dc151136bba9b0b6d979aa8","609a8bf73b2ac84e2732f618","60a244ea3e7deb6d03118c9d","830.469999986235","","","","39","","","","key","16.6669633027525","751","373","true","1","201","24","1","-1","-1","","","","","","","","","","","","",""
"psychophysics","146","356957","0.0-12.0-0.17","5dc151136bba9b0b6d979aa8","609a8bf73b2ac84e2732f618","60a244ea3e7deb6d03118c9d","686.5550000220537","","","","39","","","","key","16.655419999999577","751","373","true","1","177","24","1","-1","-1","","","","","","","","","","","","",""
"psychophysics","147","358620","0.0-12.0-0.18","5dc151136bba9b0b6d979aa8","609a8bf73b2ac84e2732f618","60a244ea3e7deb6d03118c9d","661.6849999991246","","","","39","","","","key","16.66371717171701","751","373","true","1","177","24","1","-1","-1","","","","","","","","","","","","",""
"psychophysics","148","360320","0.0-12.0-0.19","5dc151136bba9b0b6d979aa8","609a8bf73b2ac84e2732f618","60a244ea3e7deb6d03118c9d","695.3349999967031","","","","39","","","","key","16.666603960396518","751","373","true","1","153","24","1","-1","-1","","","","","","","","","","","","",""
"psychophysics","149","361337","0.0-12.0-0.20","5dc151136bba9b0b6d979aa8","609a8bf73b2ac84e2732f618","60a244ea3e7deb6d03118c9d","14.655000006314367","","","","37","","","","key","16.669333333333878","751","373","true","-1","153","24","1","-1","-1","","","","","","","","","","","","",""
"psychophysics","150","363031","0.0-12.0-0.21","5dc151136bba9b0b6d979aa8","609a8bf73b2ac84e2732f618","60a244ea3e7deb6d03118c9d","692.7149999537505","","","","37","","","","key","16.66224752475293","751","373","true","1","129","19.2","2","1","-1","","","","","","","","","","","","",""
"psychophysics","151","364144","0.0-12.0-0.22","5dc151136bba9b0b6d979aa8","609a8bf73b2ac84e2732f618","60a244ea3e7deb6d03118c9d","109.73000002559274","","","","37","","","","key","16.660015151514955","751","373","true","-1","148.2","19.2","2","-1","1","","","","","","","","","","","","",""
"psychophysics","152","366080","0.0-12.0-0.23","5dc151136bba9b0b6d979aa8","609a8bf73b2ac84e2732f618","60a244ea3e7deb6d03118c9d","934.6399999922141","","","","39","","","","key","16.66085217391323","751","373","true","1","148.2","15.36","3","-1","-1","","","","","","","","","","","","",""
"psychophysics","153","367464","0.0-12.0-0.24","5dc151136bba9b0b6d979aa8","609a8bf73b2ac84e2732f618","60a244ea3e7deb6d03118c9d","382.3249999550171","","","","39","","","","key","16.66286585365831","751","373","true","1","132.83999999999997","15.36","3","-1","-1","","","","","","","","","","","","",""
"psychophysics","154","368599","0.0-12.0-0.25","5dc151136bba9b0b6d979aa8","609a8bf73b2ac84e2732f618","60a244ea3e7deb6d03118c9d","133.3199999644421","","","","37","","","","key","16.66725373134337","751","373","true","-1","132.83999999999997","15.36","3","-1","-1","","","","","","","","","","","","",""
"psychophysics","155","370224","0.0-12.0-0.26","5dc151136bba9b0b6d979aa8","609a8bf73b2ac84e2732f618","60a244ea3e7deb6d03118c9d","623.6949999583885","","","","39","","","","key","16.66608333333291","751","373","true","-1","129","12.287999999999998","4","1","-1","","","","","","","","","","","","",""
"psychophysics","156","371256","0.0-12.0-0.27","5dc151136bba9b0b6d979aa8","609a8bf73b2ac84e2732f618","60a244ea3e7deb6d03118c9d","29.66500003822148","","","","39","","","","key","16.66229508196664","751","373","true","1","141.288","12.287999999999998","4","-1","1","","","","","","","","","","","","",""
"psychophysics","157","372295","0.0-12.0-0.28","5dc151136bba9b0b6d979aa8","609a8bf73b2ac84e2732f618","60a244ea3e7deb6d03118c9d","37.570000044070184","","","","37","","","","key","16.66739344262312","751","373","true","-1","141.288","9.8304","5","-1","-1","","","","","","","","","","","","",""
"psychophysics","158","374335","0.0-12.0-0.29","5dc151136bba9b0b6d979aa8","609a8bf73b2ac84e2732f618","60a244ea3e7deb6d03118c9d","1036.2599999643862","","","","39","","","","key","16.65908196721308","751","373","true","-1","131.4576","7.864319999999999","6","1","-1","","","","","","","","","","","","",""
"psychophysics","159","375359","0.0-12.0-0.30","5dc151136bba9b0b6d979aa8","609a8bf73b2ac84e2732f618","60a244ea3e7deb6d03118c9d","23.28500000294298","","","","37","","","","key","16.66353333333391","751","373","true","-1","139.32192","7.864319999999999","6","-1","1","","","","","","","","","","","","",""
"psychophysics","160","377504","0.0-12.0-0.31","5dc151136bba9b0b6d979aa8","609a8bf73b2ac84e2732f618","60a244ea3e7deb6d03118c9d","1142.2949999687262","","","","39","","","","key","16.662710937499924","751","373","true","1","139.32192","6.291456","7","-1","-1","","","","","","","","","","","","",""
"psychophysics","161","378537","0.0-12.0-0.32","5dc151136bba9b0b6d979aa8","609a8bf73b2ac84e2732f618","60a244ea3e7deb6d03118c9d","31.259999959729612","","","","37","","","","key","16.662099999999434","751","373","true","-1","133.030464","6.291456","7","-1","-1","","","","","","","","","","","","",""
"psychophysics","162","379784","0.0-12.0-0.33","5dc151136bba9b0b6d979aa8","609a8bf73b2ac84e2732f618","60a244ea3e7deb6d03118c9d","244.84499997925013","","","","37","","","","key","16.88724324324269","751","373","true","-1","133.030464","6.291456","7","-1","-1","","","","","","","","","","","","",""
"psychophysics","163","381519","0.0-12.0-0.34","5dc151136bba9b0b6d979aa8","609a8bf73b2ac84e2732f618","60a244ea3e7deb6d03118c9d","733.6449999711476","","","","37","","","","key","16.662271844659983","751","373","true","-1","129","6.291456","7","-1","-1","","","","","","","","","","","","",""
"psychophysics","164","383208","0.0-12.0-0.35","5dc151136bba9b0b6d979aa8","609a8bf73b2ac84e2732f618","60a244ea3e7deb6d03118c9d","686.8949999916367","","","","37","","","","key","16.663940000000295","751","373","true","1","129","5.033164800000001","8","1","-1","","","","","","","","","","","","",""
"psychophysics","165","384344","0.0-12.0-0.36","5dc151136bba9b0b6d979aa8","609a8bf73b2ac84e2732f618","60a244ea3e7deb6d03118c9d","133.71500000357628","","","","37","","","","key","16.667500000000206","751","373","true","-1","134.0331648","5.033164800000001","8","-1","1","","","","","","","","","","","","",""
"psychophysics","166","386808","0.0-12.0-0.37","5dc151136bba9b0b6d979aa8","609a8bf73b2ac84e2732f618","60a244ea3e7deb6d03118c9d","1462.7899999613874","","","","39","","","","key","16.664650684931438","751","373","true","-1","134.0331648","4.0265318400000005","9","1","-1","","","","","","","","","","","","",""
"psychophysics","167","388783","0.0-12.0-0.38","5dc151136bba9b0b6d979aa8","609a8bf73b2ac84e2732f618","60a244ea3e7deb6d03118c9d","972.2999999648891","","","","39","","","","key","16.663288135593067","751","373","true","-1","138.05969664","4.0265318400000005","9","1","1","","","","","","","","","","","","",""
"psychophysics","168","390712","0.0-12.0-0.39","5dc151136bba9b0b6d979aa8","609a8bf73b2ac84e2732f618","60a244ea3e7deb6d03118c9d","926.2050000252202","","","","39","","","","key","16.661614035087712","751","373","true","1","142.08622848","4.0265318400000005","9","-1","1","","","","","","","","","","","","",""
"html-keyboard-response","169","402146","0.0-13.0","5dc151136bba9b0b6d979aa8","609a8bf73b2ac84e2732f618","60a244ea3e7deb6d03118c9d","11432.81999998726","<p>Well Done !</p><p>Prepare for a new block.</p><p>DON'T EXIT THE FULL SCREEN MODE</p><p>Press the Spacebar to start.</p>","","","32","","","","","","","","","","","","","","","true","135.11937484799998","","","","","","","","","","",""
"html-keyboard-response","170","402262","0.0-14.0","5dc151136bba9b0b6d979aa8","609a8bf73b2ac84e2732f618","60a244ea3e7deb6d03118c9d","null","","","","null","","","","","","","","","","","","","","","","","182.3751674267075","true","236.75033485341498","","","","","","","",""
"instructions","171","443548","0.0-15.0","5dc151136bba9b0b6d979aa8","609a8bf73b2ac84e2732f618","60a244ea3e7deb6d03118c9d","41280.16500000376","","","","","","","[{""page_index"":0,""viewing_time"":33000.22500002524},{""page_index"":1,""viewing_time"":4032.4849999742582},{""page_index"":2,""viewing_time"":4247.094999998808}]","","","","","","","","","","","","","","","","","","","","","","","",""
"psychophysics","172","446305","0.0-16.0-0.0","5dc151136bba9b0b6d979aa8","609a8bf73b2ac84e2732f618","60a244ea3e7deb6d03118c9d","null","","","","null","","","","key","16.639799999999298","751","373","","","","","","","","","","","","","","","","","","","",""
"psychophysics","173","446808","0.0-16.0-1.0","5dc151136bba9b0b6d979aa8","609a8bf73b2ac84e2732f618","60a244ea3e7deb6d03118c9d","null","","","","null","","","","key","16.65672413793047","751","373","","","","","","","","","","","","","237","-1","4","false","","","",""
"psychophysics","174","448268","0.0-16.0-2.0","5dc151136bba9b0b6d979aa8","609a8bf73b2ac84e2732f618","60a244ea3e7deb6d03118c9d","1456.1700000194833","","","","90","","","","key","16.66237931034525","751","373","","","","","","","","","","","","","","","","","","","",""
"psychophysics","175","448952","0.0-16.0-0.1","5dc151136bba9b0b6d979aa8","609a8bf73b2ac84e2732f618","60a244ea3e7deb6d03118c9d","null","","","","null","","","","key","16.672099999999045","751","373","","","","","","","","","","","","","","","","","","","",""
"psychophysics","176","449454","0.0-16.0-1.1","5dc151136bba9b0b6d979aa8","609a8bf73b2ac84e2732f618","60a244ea3e7deb6d03118c9d","null","","","","null","","","","key","16.67379310344956","751","373","","","","","","","","","","","","","237","-1","5","false","","","",""
"psychophysics","177","449996","0.0-16.0-2.1","5dc151136bba9b0b6d979aa8","609a8bf73b2ac84e2732f618","60a244ea3e7deb6d03118c9d","540.3150000493042","","","","90","","","","key","16.65990625000086","751","373","","","","","","","","","","","","","","","","","","","",""
"psychophysics","178","450574","0.0-16.0-0.2","5dc151136bba9b0b6d979aa8","609a8bf73b2ac84e2732f618","60a244ea3e7deb6d03118c9d","null","","","","null","","","","key","16.664090909090273","751","373","","","","","","","","","","","","","","","","","","","",""
"psychophysics","179","451076","0.0-16.0-1.2","5dc151136bba9b0b6d979aa8","609a8bf73b2ac84e2732f618","60a244ea3e7deb6d03118c9d","null","","","","null","","","","key","16.6814137931034","751","373","","","","","","","","","","","","","237","1","2","false","","","",""
"psychophysics","180","452140","0.0-16.0-2.2","5dc151136bba9b0b6d979aa8","609a8bf73b2ac84e2732f618","60a244ea3e7deb6d03118c9d","1062.8150000120513","","","","90","","","","key","16.662619047618975","751","373","","","","","","","","","","","","","","","","","","","",""
"psychophysics","181","452754","0.0-16.0-0.3","5dc151136bba9b0b6d979aa8","609a8bf73b2ac84e2732f618","60a244ea3e7deb6d03118c9d","null","","","","null","","","","key","16.673249999999015","751","373","","","","","","","","","","","","","","","","","","","",""
"psychophysics","182","453256","0.0-16.0-1.3","5dc151136bba9b0b6d979aa8","609a8bf73b2ac84e2732f618","60a244ea3e7deb6d03118c9d","null","","","","null","","","","key","16.66462068965434","751","373","","","","","","","","","","","","","237","-1","3","false","","","",""
"psychophysics","183","453893","0.0-16.0-2.3","5dc151136bba9b0b6d979aa8","609a8bf73b2ac84e2732f618","60a244ea3e7deb6d03118c9d","634.9700000137091","","","","90","","","","key","16.66147368421049","751","373","","","","","","","","","","","","","","","","","","","",""
"psychophysics","184","454875","0.0-16.0-0.4","5dc151136bba9b0b6d979aa8","609a8bf73b2ac84e2732f618","60a244ea3e7deb6d03118c9d","null","","","","null","","","","key","16.674280701754533","751","373","","","","","","","","","","","","","","","","","","","",""
"psychophysics","185","455377","0.0-16.0-1.4","5dc151136bba9b0b6d979aa8","609a8bf73b2ac84e2732f618","60a244ea3e7deb6d03118c9d","null","","","","null","","","","key","16.633200000001427","751","373","","","","","","","","","","","","","237","-1","0","false","","","",""
"psychophysics","186","455669","0.0-16.0-2.4","5dc151136bba9b0b6d979aa8","609a8bf73b2ac84e2732f618","60a244ea3e7deb6d03118c9d","289.51999999117106","","","","90","","","","key","16.66162500000064","751","373","","","","","","","","","","","","","","","","","","","",""
"psychophysics","187","457063","0.0-16.0-0.5","5dc151136bba9b0b6d979aa8","609a8bf73b2ac84e2732f618","60a244ea3e7deb6d03118c9d","null","","","","null","","","","key","16.661421686747527","751","373","","","","","","","","","","","","","","","","","","","",""
"psychophysics","188","457565","0.0-16.0-1.5","5dc151136bba9b0b6d979aa8","609a8bf73b2ac84e2732f618","60a244ea3e7deb6d03118c9d","null","","","","null","","","","key","16.66396551724154","751","373","","","","","","","","","","","","","237","1","0","false","","","",""
"psychophysics","189","458012","0.0-16.0-2.5","5dc151136bba9b0b6d979aa8","609a8bf73b2ac84e2732f618","60a244ea3e7deb6d03118c9d","445.1499999850057","","","","90","","","","key","16.659384615383505","751","373","","","","","","","","","","","","","","","","","","","",""
"psychophysics","190","459035","0.0-16.0-0.6","5dc151136bba9b0b6d979aa8","609a8bf73b2ac84e2732f618","60a244ea3e7deb6d03118c9d","null","","","","null","","","","key","16.662433333333077","751","373","","","","","","","","","","","","","","","","","","","",""
"psychophysics","191","459539","0.0-16.0-1.6","5dc151136bba9b0b6d979aa8","609a8bf73b2ac84e2732f618","60a244ea3e7deb6d03118c9d","null","","","","null","","","","key","16.641310344827524","751","373","","","","","","","","","","","","","237","1","6","false","","","",""
"psychophysics","192","459765","0.0-16.0-2.6","5dc151136bba9b0b6d979aa8","609a8bf73b2ac84e2732f618","60a244ea3e7deb6d03118c9d","220.26499995263293","","","","77","","","","key","16.66415384615091","751","373","","","","","","","","","","","","","","","","","","","",""
"psychophysics","193","460979","0.0-16.0-0.7","5dc151136bba9b0b6d979aa8","609a8bf73b2ac84e2732f618","60a244ea3e7deb6d03118c9d","null","","","","null","","","","key","16.664041666666485","751","373","","","","","","","","","","","","","","","","","","","",""
"psychophysics","194","461481","0.0-16.0-1.7","5dc151136bba9b0b6d979aa8","609a8bf73b2ac84e2732f618","60a244ea3e7deb6d03118c9d","null","","","","null","","","","key","16.661862068966126","751","373","","","","","","","","","","","","","237","1","5","false","","","",""
"psychophysics","195","461716","0.0-16.0-2.7","5dc151136bba9b0b6d979aa8","609a8bf73b2ac84e2732f618","60a244ea3e7deb6d03118c9d","233.73999999603257","","","","77","","","","key","16.662769230772167","751","373","","","","","","","","","","","","","","","","","","","",""
"psychophysics","196","462602","0.0-16.0-0.8","5dc151136bba9b0b6d979aa8","609a8bf73b2ac84e2732f618","60a244ea3e7deb6d03118c9d","null","","","","null","","","","key","16.660288461538865","751","373","","","","","","","","","","","","","","","","","","","",""
"psychophysics","197","463104","0.0-16.0-1.8","5dc151136bba9b0b6d979aa8","609a8bf73b2ac84e2732f618","60a244ea3e7deb6d03118c9d","null","","","","null","","","","key","16.660896551725052","751","373","","","","","","","","","","","","","237","1","3","false","","","",""
"psychophysics","198","463533","0.0-16.0-2.8","5dc151136bba9b0b6d979aa8","609a8bf73b2ac84e2732f618","60a244ea3e7deb6d03118c9d","427.30999999912456","","","","77","","","","key","16.66540000000037","751","373","","","","","","","","","","","","","","","","","","","",""
"psychophysics","199","464763","0.0-16.0-0.9","5dc151136bba9b0b6d979aa8","609a8bf73b2ac84e2732f618","60a244ea3e7deb6d03118c9d","null","","","","null","","","","key","16.664684931507608","751","373","","","","","","","","","","","","","","","","","","","",""
"psychophysics","200","465265","0.0-16.0-1.9","5dc151136bba9b0b6d979aa8","609a8bf73b2ac84e2732f618","60a244ea3e7deb6d03118c9d","null","","","","null","","","","key","16.670482758619293","751","373","","","","","","","","","","","","","237","-1","6","false","","","",""
"psychophysics","201","465524","0.0-16.0-2.9","5dc151136bba9b0b6d979aa8","609a8bf73b2ac84e2732f618","60a244ea3e7deb6d03118c9d","257.1650000172667","","","","77","","","","key","16.658866666668715","751","373","","","","","","","","","","","","","","","","","","","",""
"psychophysics","202","466307","0.0-16.0-0.10","5dc151136bba9b0b6d979aa8","609a8bf73b2ac84e2732f618","60a244ea3e7deb6d03118c9d","null","","","","null","","","","key","16.65552173913001","751","373","","","","","","","","","","","","","","","","","","","",""
"psychophysics","203","466809","0.0-16.0-1.10","5dc151136bba9b0b6d979aa8","609a8bf73b2ac84e2732f618","60a244ea3e7deb6d03118c9d","null","","","","null","","","","key","16.66079310344829","751","373","","","","","","","","","","","","","237","-1","2","false","","","",""
"psychophysics","204","467308","0.0-16.0-2.10","5dc151136bba9b0b6d979aa8","609a8bf73b2ac84e2732f618","60a244ea3e7deb6d03118c9d","496.9050000072457","","","","90","","","","key","16.662034482757385","751","373","","","","","","","","","","","","","","","","","","","",""
"psychophysics","205","468050","0.0-16.0-0.11","5dc151136bba9b0b6d979aa8","609a8bf73b2ac84e2732f618","60a244ea3e7deb6d03118c9d","null","","","","null","","","","key","16.67044186046439","751","373","","","","","","","","","","","","","","","","","","","",""
"psychophysics","206","468552","0.0-16.0-1.11","5dc151136bba9b0b6d979aa8","609a8bf73b2ac84e2732f618","60a244ea3e7deb6d03118c9d","null","","","","null","","","","key","16.66520689655264","751","373","","","","","","","","","","","","","237","1","4","false","","","",""
"psychophysics","207","468884","0.0-16.0-2.11","5dc151136bba9b0b6d979aa8","609a8bf73b2ac84e2732f618","60a244ea3e7deb6d03118c9d","330.09999996284023","","","","77","","","","key","16.64300000000022","751","373","","","","","","","","","","","","","","","","","","","",""
"psychophysics","208","469913","0.0-16.0-0.12","5dc151136bba9b0b6d979aa8","609a8bf73b2ac84e2732f618","60a244ea3e7deb6d03118c9d","null","","","","null","","","","key","16.66222950819685","751","373","","","","","","","","","","","","","","","","","","","",""
"psychophysics","209","470415","0.0-16.0-1.12","5dc151136bba9b0b6d979aa8","609a8bf73b2ac84e2732f618","60a244ea3e7deb6d03118c9d","null","","","","null","","","","key","16.643965517242986","751","373","","","","","","","","","","","","","237","-1","6","false","","","",""
"psychophysics","210","470918","0.0-16.0-2.12","5dc151136bba9b0b6d979aa8","609a8bf73b2ac84e2732f618","60a244ea3e7deb6d03118c9d","499.1800000425428","","","","77","","","","key","16.66196551724088","751","373","","","","","","","","","","","","","","","","","","","",""
"psychophysics","211","471904","0.0-16.0-0.13","5dc151136bba9b0b6d979aa8","609a8bf73b2ac84e2732f618","60a244ea3e7deb6d03118c9d","null","","","","null","","","","key","16.662137931034145","751","373","","","","","","","","","","","","","","","","","","","",""
"psychophysics","212","472405","0.0-16.0-1.13","5dc151136bba9b0b6d979aa8","609a8bf73b2ac84e2732f618","60a244ea3e7deb6d03118c9d","null","","","","null","","","","key","16.66240000000107","751","373","","","","","","","","","","","","","237","1","4","false","","","",""
"psychophysics","213","472749","0.0-16.0-2.13","5dc151136bba9b0b6d979aa8","609a8bf73b2ac84e2732f618","60a244ea3e7deb6d03118c9d","340.3050000197254","","","","77","","","","key","16.66205263158037","751","373","","","","","","","","","","","","","","","","","","","",""
"psychophysics","214","473857","0.0-16.0-0.14","5dc151136bba9b0b6d979aa8","609a8bf73b2ac84e2732f618","60a244ea3e7deb6d03118c9d","null","","","","null","","","","key","16.662272727273045","751","373","","","","","","","","","","","","","","","","","","","",""
"psychophysics","215","474358","0.0-16.0-1.14","5dc151136bba9b0b6d979aa8","609a8bf73b2ac84e2732f618","60a244ea3e7deb6d03118c9d","null","","","","null","","","","key","16.662965517240206","751","373","","","","","","","","","","","","","237","1","6","false","","","",""
"psychophysics","216","474621","0.0-16.0-2.14","5dc151136bba9b0b6d979aa8","609a8bf73b2ac84e2732f618","60a244ea3e7deb6d03118c9d","260.57000004220754","","","","77","","","","key","16.661933333333582","751","373","","","","","","","","","","","","","","","","","","","",""
"psychophysics","217","476050","0.0-16.0-0.15","5dc151136bba9b0b6d979aa8","609a8bf73b2ac84e2732f618","60a244ea3e7deb6d03118c9d","null","","","","null","","","","key","16.667119047619053","751","373","","","","","","","","","","","","","","","","","","","",""
"psychophysics","218","476552","0.0-16.0-1.15","5dc151136bba9b0b6d979aa8","609a8bf73b2ac84e2732f618","60a244ea3e7deb6d03118c9d","null","","","","null","","","","key","16.641137931034258","751","373","","","","","","","","","","","","","237","-1","2","false","","","",""
"psychophysics","219","476956","0.0-16.0-2.15","5dc151136bba9b0b6d979aa8","609a8bf73b2ac84e2732f618","60a244ea3e7deb6d03118c9d","402.2249999688938","","","","90","","","","key","16.678913043477856","751","373","","","","","","","","","","","","","","","","","","","",""
"psychophysics","220","477913","0.0-16.0-0.16","5dc151136bba9b0b6d979aa8","609a8bf73b2ac84e2732f618","60a244ea3e7deb6d03118c9d","null","","","","null","","","","key","16.663964912281045","751","373","","","","","","","","","","","","","","","","","","","",""
"psychophysics","221","478415","0.0-16.0-1.16","5dc151136bba9b0b6d979aa8","609a8bf73b2ac84e2732f618","60a244ea3e7deb6d03118c9d","null","","","","null","","","","key","16.664586206896086","751","373","","","","","","","","","","","","","237","1","0","false","","","",""
"psychophysics","222","478758","0.0-16.0-2.16","5dc151136bba9b0b6d979aa8","609a8bf73b2ac84e2732f618","60a244ea3e7deb6d03118c9d","340.42000002227724","","","","90","","","","key","16.66352631579043","751","373","","","","","","","","","","","","","","","","","","","",""
"psychophysics","223","479449","0.0-16.0-0.17","5dc151136bba9b0b6d979aa8","609a8bf73b2ac84e2732f618","60a244ea3e7deb6d03118c9d","null","","","","null","","","","key","16.662731707316155","751","373","","","","","","","","","","","","","","","","","","","",""
"psychophysics","224","479951","0.0-16.0-1.17","5dc151136bba9b0b6d979aa8","609a8bf73b2ac84e2732f618","60a244ea3e7deb6d03118c9d","null","","","","null","","","","key","16.663068965518974","751","373","","","","","","","","","","","","","237","1","2","false","","","",""
"psychophysics","225","480572","0.0-16.0-2.17","5dc151136bba9b0b6d979aa8","609a8bf73b2ac84e2732f618","60a244ea3e7deb6d03118c9d","618.9250000170432","","","","90","","","","key","16.66280555555487","751","373","","","","","","","","","","","","","","","","","","","",""
"psychophysics","226","481230","0.0-16.0-0.18","5dc151136bba9b0b6d979aa8","609a8bf73b2ac84e2732f618","60a244ea3e7deb6d03118c9d","null","","","","null","","","","key","16.661692307691855","751","373","","","","","","","","","","","","","","","","","","","",""
"psychophysics","227","481732","0.0-16.0-1.18","5dc151136bba9b0b6d979aa8","609a8bf73b2ac84e2732f618","60a244ea3e7deb6d03118c9d","null","","","","null","","","","key","16.663758620690025","751","373","","","","","","","","","","","","","237","1","3","false","","","",""
"psychophysics","228","482588","0.0-16.0-2.18","5dc151136bba9b0b6d979aa8","609a8bf73b2ac84e2732f618","60a244ea3e7deb6d03118c9d","854.2000000015832","","","","77","","","","key","16.66179999999935","751","373","","","","","","","","","","","","","","","","","","","",""
"psychophysics","229","483100","0.0-16.0-0.19","5dc151136bba9b0b6d979aa8","609a8bf73b2ac84e2732f618","60a244ea3e7deb6d03118c9d","null","","","","null","","","","key","16.66270000000174","751","373","","","","","","","","","","","","","","","","","","","",""
"psychophysics","230","483601","0.0-16.0-1.19","5dc151136bba9b0b6d979aa8","609a8bf73b2ac84e2732f618","60a244ea3e7deb6d03118c9d","null","","","","null","","","","key","16.66148275861934","751","373","","","","","","","","","","","","","237","1","5","false","","","",""
"psychophysics","231","483940","0.0-16.0-2.19","5dc151136bba9b0b6d979aa8","609a8bf73b2ac84e2732f618","60a244ea3e7deb6d03118c9d","337.26000000024214","","","","77","","","","key","16.662549999999463","751","373","","","","","","","","","","","","","","","","","","","",""
"psychophysics","232","484470","0.0-16.0-0.20","5dc151136bba9b0b6d979aa8","609a8bf73b2ac84e2732f618","60a244ea3e7deb6d03118c9d","null","","","","null","","","","key","16.663064516130685","751","373","","","","","","","","","","","","","","","","","","","",""
"psychophysics","233","484973","0.0-16.0-1.20","5dc151136bba9b0b6d979aa8","609a8bf73b2ac84e2732f618","60a244ea3e7deb6d03118c9d","null","","","","null","","","","key","16.66044827586377","751","373","","","","","","","","","","","","","237","-1","5","false","","","",""
"psychophysics","234","485252","0.0-16.0-2.20","5dc151136bba9b0b6d979aa8","609a8bf73b2ac84e2732f618","60a244ea3e7deb6d03118c9d","277.33000001171604","","","","77","","","","key","16.66949999999997","751","373","","","","","","","","","","","","","","","","","","","",""
"psychophysics","235","485810","0.0-16.0-0.21","5dc151136bba9b0b6d979aa8","609a8bf73b2ac84e2732f618","60a244ea3e7deb6d03118c9d","null","","","","null","","","","key","16.671218749999753","751","373","","","","","","","","","","","","","","","","","","","",""
"psychophysics","236","486311","0.0-16.0-1.21","5dc151136bba9b0b6d979aa8","609a8bf73b2ac84e2732f618","60a244ea3e7deb6d03118c9d","null","","","","null","","","","key","16.66120689655333","751","373","","","","","","","","","","","","","237","-1","0","false","","","",""
"psychophysics","237","486637","0.0-16.0-2.21","5dc151136bba9b0b6d979aa8","609a8bf73b2ac84e2732f618","60a244ea3e7deb6d03118c9d","323.0449999682605","","","","90","","","","key","16.664052631580393","751","373","","","","","","","","","","","","","","","","","","","",""
"psychophysics","238","487374","0.0-16.0-0.22","5dc151136bba9b0b6d979aa8","609a8bf73b2ac84e2732f618","60a244ea3e7deb6d03118c9d","null","","","","null","","","","key","16.662023255814052","751","373","","","","","","","","","","","","","","","","","","","",""
"psychophysics","239","487875","0.0-16.0-1.22","5dc151136bba9b0b6d979aa8","609a8bf73b2ac84e2732f618","60a244ea3e7deb6d03118c9d","null","","","","null","","","","key","16.662172413792398","751","373","","","","","","","","","","","","","237","-1","3","false","","","",""
"psychophysics","240","488340","0.0-16.0-2.22","5dc151136bba9b0b6d979aa8","609a8bf73b2ac84e2732f618","60a244ea3e7deb6d03118c9d","463.1350000272505","","","","90","","","","key","16.656777777778053","751","373","","","","","","","","","","","","","","","","","","","",""
"psychophysics","241","489773","0.0-16.0-0.23","5dc151136bba9b0b6d979aa8","609a8bf73b2ac84e2732f618","60a244ea3e7deb6d03118c9d","null","","","","null","","","","key","16.662423529411555","751","373","","","","","","","","","","","","","","","","","","","",""
"psychophysics","242","490276","0.0-16.0-1.23","5dc151136bba9b0b6d979aa8","609a8bf73b2ac84e2732f618","60a244ea3e7deb6d03118c9d","null","","","","null","","","","key","16.66396551724154","751","373","","","","","","","","","","","","","237","-1","4","false","","","",""
"psychophysics","243","490301","0.0-16.0-2.23","5dc151136bba9b0b6d979aa8","609a8bf73b2ac84e2732f618","60a244ea3e7deb6d03118c9d","22.930000035557896","","","","90","","","","key","NaN","751","373","","","","","","","","","","","","","","","","","","","",""
"html-keyboard-response","244","499917","0.0-17.0","5dc151136bba9b0b6d979aa8","609a8bf73b2ac84e2732f618","60a244ea3e7deb6d03118c9d","9623.810000019148","<p>Well Done !</p><p>Training Complete. Press the spacebar to start.</p><p>DON'T EXIT THE FULL SCREEN MODE</p>","","","32","","","","","","","","","","","","","","","","","","","","","","","","","","",""
"psychophysics","245","503417","0.0-18.0-0.0","5dc151136bba9b0b6d979aa8","609a8bf73b2ac84e2732f618","60a244ea3e7deb6d03118c9d","null","","","","null","","","","key","16.65695505617958","751","373","","","","","","","","","","","","","","","","","","","",""
"psychophysics","246","503919","0.0-18.0-1.0","5dc151136bba9b0b6d979aa8","609a8bf73b2ac84e2732f618","60a244ea3e7deb6d03118c9d","null","","","","null","","","","key","16.665137931036135","751","373","","","","","","","","","","","","","237","-1","2","true","","","",""
"psychophysics","247","504340","0.0-18.0-2.0","5dc151136bba9b0b6d979aa8","609a8bf73b2ac84e2732f618","60a244ea3e7deb6d03118c9d","418.61499997321516","","","","90","","","","key","16.678959999999496","751","373","","","","","","","","","","","","","","","","","","","",""
"psychophysics","248","505442","0.0-18.0-0.1","5dc151136bba9b0b6d979aa8","609a8bf73b2ac84e2732f618","60a244ea3e7deb6d03118c9d","null","","","","null","","","","key","16.655830769231006","751","373","","","","","","","","","","","","","","","","","","","",""
"psychophysics","249","505943","0.0-18.0-1.1","5dc151136bba9b0b6d979aa8","609a8bf73b2ac84e2732f618","60a244ea3e7deb6d03118c9d","null","","","","null","","","","key","16.657172413791756","751","373","","","","","","","","","","","","","237","1","0","true","","","",""
"psychophysics","250","506179","0.0-18.0-2.1","5dc151136bba9b0b6d979aa8","609a8bf73b2ac84e2732f618","60a244ea3e7deb6d03118c9d","233.89500001212582","","","","90","","","","key","16.661999999997743","751","373","","","","","","","","","","","","","","","","","","","",""
"psychophysics","251","507660","0.0-18.0-0.2","5dc151136bba9b0b6d979aa8","609a8bf73b2ac84e2732f618","60a244ea3e7deb6d03118c9d","null","","","","null","","","","key","16.66147727272751","751","373","","","","","","","","","","","","","","","","","","","",""
"psychophysics","252","508163","0.0-18.0-1.2","5dc151136bba9b0b6d979aa8","609a8bf73b2ac84e2732f618","60a244ea3e7deb6d03118c9d","null","","","","null","","","","key","16.663310344826733","751","373","","","","","","","","","","","","","237","1","2","true","","","",""
"psychophysics","253","508404","0.0-18.0-2.2","5dc151136bba9b0b6d979aa8","609a8bf73b2ac84e2732f618","60a244ea3e7deb6d03118c9d","239.449999993667","","","","90","","","","key","16.66421428571422","751","373","","","","","","","","","","","","","","","","","","","",""
"psychophysics","254","509576","0.0-18.0-0.3","5dc151136bba9b0b6d979aa8","609a8bf73b2ac84e2732f618","60a244ea3e7deb6d03118c9d","null","","","","null","","","","key","16.660594202898633","751","373","","","","","","","","","","","","","","","","","","","",""
"psychophysics","255","510078","0.0-18.0-1.3","5dc151136bba9b0b6d979aa8","609a8bf73b2ac84e2732f618","60a244ea3e7deb6d03118c9d","null","","","","null","","","","key","16.67558620689469","751","373","","","","","","","","","","","","","237","-1","5","true","","","",""
"psychophysics","256","510260","0.0-18.0-2.3","5dc151136bba9b0b6d979aa8","609a8bf73b2ac84e2732f618","60a244ea3e7deb6d03118c9d","180.53499999223277","","","","77","","","","key","16.627700000000186","751","373","","","","","","","","","","","","","","","","","","","",""
"psychophysics","257","511467","0.0-18.0-0.4","5dc151136bba9b0b6d979aa8","609a8bf73b2ac84e2732f618","60a244ea3e7deb6d03118c9d","null","","","","null","","","","key","16.661788732393866","751","373","","","","","","","","","","","","","","","","","","","",""
"psychophysics","258","511969","0.0-18.0-1.4","5dc151136bba9b0b6d979aa8","609a8bf73b2ac84e2732f618","60a244ea3e7deb6d03118c9d","null","","","","null","","","","key","16.664482758621332","751","373","","","","","","","","","","","","","237","-1","3","true","","","",""
"psychophysics","259","512228","0.0-18.0-2.4","5dc151136bba9b0b6d979aa8","609a8bf73b2ac84e2732f618","60a244ea3e7deb6d03118c9d","255.074999993667","","","","90","","","","key","16.664666666664804","751","373","","","","","","","","","","","","","","","","","","","",""
"psychophysics","260","513018","0.0-18.0-0.5","5dc151136bba9b0b6d979aa8","609a8bf73b2ac84e2732f618","60a244ea3e7deb6d03118c9d","null","","","","null","","","","key","16.660913043478303","751","373","","","","","","","","","","","","","","","","","","","",""
"psychophysics","261","513519","0.0-18.0-1.5","5dc151136bba9b0b6d979aa8","609a8bf73b2ac84e2732f618","60a244ea3e7deb6d03118c9d","null","","","","null","","","","key","16.656033333332743","751","373","","","","","","","","","","","","","237","1","6","true","","","",""
"psychophysics","262","513692","0.0-18.0-2.5","5dc151136bba9b0b6d979aa8","609a8bf73b2ac84e2732f618","60a244ea3e7deb6d03118c9d","169.99000002397224","","","","77","","","","key","16.660555555556332","751","373","","","","","","","","","","","","","","","","","","","",""
"psychophysics","263","515168","0.0-18.0-0.6","5dc151136bba9b0b6d979aa8","609a8bf73b2ac84e2732f618","60a244ea3e7deb6d03118c9d","null","","","","null","","","","key","16.662477272726722","751","373","","","","","","","","","","","","","","","","","","","",""
"psychophysics","264","515670","0.0-18.0-1.6","5dc151136bba9b0b6d979aa8","609a8bf73b2ac84e2732f618","60a244ea3e7deb6d03118c9d","null","","","","null","","","","key","16.677275862069077","751","373","","","","","","","","","","","","","237","1","4","true","","","",""
"psychophysics","265","515853","0.0-18.0-2.6","5dc151136bba9b0b6d979aa8","609a8bf73b2ac84e2732f618","60a244ea3e7deb6d03118c9d","179.5999999740161","","","","77","","","","key","16.68980000000447","751","373","","","","","","","","","","","","","","","","","","","",""
"psychophysics","266","516516","0.0-18.0-0.7","5dc151136bba9b0b6d979aa8","609a8bf73b2ac84e2732f618","60a244ea3e7deb6d03118c9d","null","","","","null","","","","key","16.661526315790404","751","373","","","","","","","","","","","","","","","","","","","",""
"psychophysics","267","517018","0.0-18.0-1.7","5dc151136bba9b0b6d979aa8","609a8bf73b2ac84e2732f618","60a244ea3e7deb6d03118c9d","null","","","","null","","","","key","16.661733333333782","751","373","","","","","","","","","","","","","237","-1","4","true","","","",""
"psychophysics","268","517204","0.0-18.0-2.7","5dc151136bba9b0b6d979aa8","609a8bf73b2ac84e2732f618","60a244ea3e7deb6d03118c9d","183.18500003078952","","","","77","","","","key","16.641600000002654","751","373","","","","","","","","","","","","","","","","","","","",""
"psychophysics","269","518022","0.0-18.0-0.8","5dc151136bba9b0b6d979aa8","609a8bf73b2ac84e2732f618","60a244ea3e7deb6d03118c9d","null","","","","null","","","","key","16.663020833332364","751","373","","","","","","","","","","","","","","","","","","","",""
"psychophysics","270","518524","0.0-18.0-1.8","5dc151136bba9b0b6d979aa8","609a8bf73b2ac84e2732f618","60a244ea3e7deb6d03118c9d","null","","","","null","","","","key","16.67379310344956","751","373","","","","","","","","","","","","","237","-1","6","true","","","",""
"psychophysics","271","518668","0.0-18.0-2.8","5dc151136bba9b0b6d979aa8","609a8bf73b2ac84e2732f618","60a244ea3e7deb6d03118c9d","140.76499996008351","","","","77","","","","key","16.680999999998935","751","373","","","","","","","","","","","","","","","","","","","",""
"psychophysics","272","519197","0.0-18.0-0.9","5dc151136bba9b0b6d979aa8","609a8bf73b2ac84e2732f618","60a244ea3e7deb6d03118c9d","null","","","","null","","","","key","16.665774193549183","751","373","","","","","","","","","","","","","","","","","","","",""
"psychophysics","273","519698","0.0-18.0-1.9","5dc151136bba9b0b6d979aa8","609a8bf73b2ac84e2732f618","60a244ea3e7deb6d03118c9d","null","","","","null","","","","key","16.66368965517352","751","373","","","","","","","","","","","","","237","-1","0","true","","","",""
"psychophysics","274","520053","0.0-18.0-2.9","5dc151136bba9b0b6d979aa8","609a8bf73b2ac84e2732f618","60a244ea3e7deb6d03118c9d","352.40000003250316","","","","90","","","","key","16.6868571428571","751","373","","","","","","","","","","","","","","","","","","","",""
"psychophysics","275","521065","0.0-18.0-0.10","5dc151136bba9b0b6d979aa8","609a8bf73b2ac84e2732f618","60a244ea3e7deb6d03118c9d","null","","","","null","","","","key","16.661440677966496","751","373","","","","","","","","","","","","","","","","","","","",""
"psychophysics","276","521566","0.0-18.0-1.10","5dc151136bba9b0b6d979aa8","609a8bf73b2ac84e2732f618","60a244ea3e7deb6d03118c9d","null","","","","null","","","","key","16.66686206896476","751","373","","","","","","","","","","","","","237","1","3","true","","","",""
"psychophysics","277","521996","0.0-18.0-2.10","5dc151136bba9b0b6d979aa8","609a8bf73b2ac84e2732f618","60a244ea3e7deb6d03118c9d","427.3699999903329","","","","77","","","","key","16.661520000000017","751","373","","","","","","","","","","","","","","","","","","","",""
"psychophysics","278","523279","0.0-18.0-0.11","5dc151136bba9b0b6d979aa8","609a8bf73b2ac84e2732f618","60a244ea3e7deb6d03118c9d","null","","","","null","","","","key","16.662684210526333","751","373","","","","","","","","","","","","","","","","","","","",""
"psychophysics","279","523781","0.0-18.0-1.11","5dc151136bba9b0b6d979aa8","609a8bf73b2ac84e2732f618","60a244ea3e7deb6d03118c9d","null","","","","null","","","","key","16.662379310341905","751","373","","","","","","","","","","","","","237","1","5","true","","","",""
"psychophysics","280","523987","0.0-18.0-2.11","5dc151136bba9b0b6d979aa8","609a8bf73b2ac84e2732f618","60a244ea3e7deb6d03118c9d","202.20999995945022","","","","77","","","","key","16.65625","751","373","","","","","","","","","","","","","","","","","","","",""
"psychophysics","281","525384","0.0-18.0-0.12","5dc151136bba9b0b6d979aa8","609a8bf73b2ac84e2732f618","60a244ea3e7deb6d03118c9d","null","","","","null","","","","key","16.662433734939277","751","373","","","","","","","","","","","","","","","","","","","",""
"psychophysics","282","525885","0.0-18.0-1.12","5dc151136bba9b0b6d979aa8","609a8bf73b2ac84e2732f618","60a244ea3e7deb6d03118c9d","null","","","","null","","","","key","16.663275862068485","751","373","","","","","","","","","","","","","237","-1","5","true","","","",""
"psychophysics","283","526075","0.0-18.0-2.12","5dc151136bba9b0b6d979aa8","609a8bf73b2ac84e2732f618","60a244ea3e7deb6d03118c9d","188.3549999911338","","","","77","","","","key","16.590200000000188","751","373","","","","","","","","","","","","","","","","","","","",""
"psychophysics","284","527529","0.0-18.0-0.13","5dc151136bba9b0b6d979aa8","609a8bf73b2ac84e2732f618","60a244ea3e7deb6d03118c9d","null","","","","null","","","","key","16.662279069767507","751","373","","","","","","","","","","","","","","","","","","","",""
"psychophysics","285","528031","0.0-18.0-1.13","5dc151136bba9b0b6d979aa8","609a8bf73b2ac84e2732f618","60a244ea3e7deb6d03118c9d","null","","","","null","","","","key","16.66575862069068","751","373","","","","","","","","","","","","","237","-1","3","true","","","",""
"psychophysics","286","528236","0.0-18.0-2.13","5dc151136bba9b0b6d979aa8","609a8bf73b2ac84e2732f618","60a244ea3e7deb6d03118c9d","202.64999999199063","","","","77","","","","key","16.68124999999418","751","373","","","","","","","","","","","","","","","","","","","",""
"psychophysics","287","528936","0.0-18.0-0.14","5dc151136bba9b0b6d979aa8","609a8bf73b2ac84e2732f618","60a244ea3e7deb6d03118c9d","null","","","","null","","","","key","16.67234146341443","751","373","","","","","","","","","","","","","","","","","","","",""
"psychophysics","288","529437","0.0-18.0-1.14","5dc151136bba9b0b6d979aa8","609a8bf73b2ac84e2732f618","60a244ea3e7deb6d03118c9d","null","","","","null","","","","key","16.656517241378957","751","373","","","","","","","","","","","","","237","-1","6","true","","","",""
"psychophysics","289","529635","0.0-18.0-2.14","5dc151136bba9b0b6d979aa8","609a8bf73b2ac84e2732f618","60a244ea3e7deb6d03118c9d","194.10500000230968","","","","77","","","","key","16.668545454539444","751","373","","","","","","","","","","","","","","","","","","","",""
"psychophysics","290","530646","0.0-18.0-0.15","5dc151136bba9b0b6d979aa8","609a8bf73b2ac84e2732f618","60a244ea3e7deb6d03118c9d","null","","","","null","","","","key","16.656288135593552","751","373","","","","","","","","","","","","","","","","","","","",""
"psychophysics","291","531148","0.0-18.0-1.15","5dc151136bba9b0b6d979aa8","609a8bf73b2ac84e2732f618","60a244ea3e7deb6d03118c9d","null","","","","null","","","","key","16.6687333333306","751","373","","","","","","","","","","","","","237","1","0","true","","","",""
"psychophysics","292","531324","0.0-18.0-2.15","5dc151136bba9b0b6d979aa8","609a8bf73b2ac84e2732f618","60a244ea3e7deb6d03118c9d","172.91000002296641","","","","90","","","","key","16.613888888891477","751","373","","","","","","","","","","","","","","","","","","","",""
"psychophysics","293","532811","0.0-18.0-0.16","5dc151136bba9b0b6d979aa8","609a8bf73b2ac84e2732f618","60a244ea3e7deb6d03118c9d","null","","","","null","","","","key","16.662522727273014","751","373","","","","","","","","","","","","","","","","","","","",""
"psychophysics","294","533313","0.0-18.0-1.16","5dc151136bba9b0b6d979aa8","609a8bf73b2ac84e2732f618","60a244ea3e7deb6d03118c9d","null","","","","null","","","","key","16.66313793103548","751","373","","","","","","","","","","","","","237","-1","2","true","","","",""
"psychophysics","295","533540","0.0-18.0-2.16","5dc151136bba9b0b6d979aa8","609a8bf73b2ac84e2732f618","60a244ea3e7deb6d03118c9d","225.0550000462681","","","","90","","","","key","16.660615384614523","751","373","","","","","","","","","","","","","","","","","","","",""
"psychophysics","296","534356","0.0-18.0-0.17","5dc151136bba9b0b6d979aa8","609a8bf73b2ac84e2732f618","60a244ea3e7deb6d03118c9d","null","","","","null","","","","key","16.662041666667694","751","373","","","","","","","","","","","","","","","","","","","",""
"psychophysics","297","534858","0.0-18.0-1.17","5dc151136bba9b0b6d979aa8","609a8bf73b2ac84e2732f618","60a244ea3e7deb6d03118c9d","null","","","","null","","","","key","16.66075862069004","751","373","","","","","","","","","","","","","237","1","2","true","","","",""
"psychophysics","298","535107","0.0-18.0-2.17","5dc151136bba9b0b6d979aa8","609a8bf73b2ac84e2732f618","60a244ea3e7deb6d03118c9d","246.7550000292249","","","","90","","","","key","16.68121428570677","751","373","","","","","","","","","","","","","","","","","","","",""
"psychophysics","299","536141","0.0-18.0-0.18","5dc151136bba9b0b6d979aa8","609a8bf73b2ac84e2732f618","60a244ea3e7deb6d03118c9d","null","","","","null","","","","key","16.662360655737384","751","373","","","","","","","","","","","","","","","","","","","",""
"psychophysics","300","536642","0.0-18.0-1.18","5dc151136bba9b0b6d979aa8","609a8bf73b2ac84e2732f618","60a244ea3e7deb6d03118c9d","null","","","","null","","","","key","16.662620689655686","751","373","","","","","","","","","","","","","237","1","3","true","","","",""
"psychophysics","301","536819","0.0-18.0-2.18","5dc151136bba9b0b6d979aa8","609a8bf73b2ac84e2732f618","60a244ea3e7deb6d03118c9d","174.58500002976507","","","","90","","","","key","16.64549999999581","751","373","","","","","","","","","","","","","","","","","","","",""
"psychophysics","302","537512","0.0-18.0-0.19","5dc151136bba9b0b6d979aa8","609a8bf73b2ac84e2732f618","60a244ea3e7deb6d03118c9d","null","","","","null","","","","key","16.66277499999851","751","373","","","","","","","","","","","","","","","","","","","",""
"psychophysics","303","538013","0.0-18.0-1.19","5dc151136bba9b0b6d979aa8","609a8bf73b2ac84e2732f618","60a244ea3e7deb6d03118c9d","null","","","","null","","","","key","16.66219999999739","751","373","","","","","","","","","","","","","237","1","5","true","","","",""
"psychophysics","304","538235","0.0-18.0-2.19","5dc151136bba9b0b6d979aa8","609a8bf73b2ac84e2732f618","60a244ea3e7deb6d03118c9d","218.92000001389533","","","","77","","","","key","16.661999999991775","751","373","","","","","","","","","","","","","","","","","","","",""
"psychophysics","305","539587","0.0-18.0-0.20","5dc151136bba9b0b6d979aa8","609a8bf73b2ac84e2732f618","60a244ea3e7deb6d03118c9d","null","","","","null","","","","key","16.66212499999965","751","373","","","","","","","","","","","","","","","","","","","",""
"psychophysics","306","540089","0.0-18.0-1.20","5dc151136bba9b0b6d979aa8","609a8bf73b2ac84e2732f618","60a244ea3e7deb6d03118c9d","null","","","","null","","","","key","16.661965517242887","751","373","","","","","","","","","","","","","237","1","4","true","","","",""
"psychophysics","307","540244","0.0-18.0-2.20","5dc151136bba9b0b6d979aa8","609a8bf73b2ac84e2732f618","60a244ea3e7deb6d03118c9d","153.44999998342246","","","","77","","","","key","16.660875000001397","751","373","","","","","","","","","","","","","","","","","","","",""
"psychophysics","308","540753","0.0-18.0-0.21","5dc151136bba9b0b6d979aa8","609a8bf73b2ac84e2732f618","60a244ea3e7deb6d03118c9d","null","","","","null","","","","key","16.659600000001955","751","373","","","","","","","","","","","","","","","","","","","",""
"psychophysics","309","541255","0.0-18.0-1.21","5dc151136bba9b0b6d979aa8","609a8bf73b2ac84e2732f618","60a244ea3e7deb6d03118c9d","null","","","","null","","","","key","16.660931034483305","751","373","","","","","","","","","","","","","237","-1","0","true","","","",""
"psychophysics","310","541492","0.0-18.0-2.21","5dc151136bba9b0b6d979aa8","609a8bf73b2ac84e2732f618","60a244ea3e7deb6d03118c9d","234.75000000325963","","","","90","","","","key","16.67261538462033","751","373","","","","","","","","","","","","","","","","","","","",""
"psychophysics","311","542485","0.0-18.0-0.22","5dc151136bba9b0b6d979aa8","609a8bf73b2ac84e2732f618","60a244ea3e7deb6d03118c9d","null","","","","null","","","","key","16.66969491525403","751","373","","","","","","","","","","","","","","","","","","","",""
"psychophysics","312","542987","0.0-18.0-1.22","5dc151136bba9b0b6d979aa8","609a8bf73b2ac84e2732f618","60a244ea3e7deb6d03118c9d","null","","","","null","","","","key","16.66179310344561","751","373","","","","","","","","","","","","","237","-1","4","true","","","",""
"psychophysics","313","543228","0.0-18.0-2.22","5dc151136bba9b0b6d979aa8","609a8bf73b2ac84e2732f618","60a244ea3e7deb6d03118c9d","239.40500000026077","","","","77","","","","key","16.689076923075707","751","373","","","","","","","","","","","","","","","","","","","",""
"psychophysics","314","543840","0.0-18.0-0.23","5dc151136bba9b0b6d979aa8","609a8bf73b2ac84e2732f618","60a244ea3e7deb6d03118c9d","null","","","","null","","","","key","16.675305555555195","751","373","","","","","","","","","","","","","","","","","","","",""
"psychophysics","315","544342","0.0-18.0-1.23","5dc151136bba9b0b6d979aa8","609a8bf73b2ac84e2732f618","60a244ea3e7deb6d03118c9d","null","","","","null","","","","key","16.663586206894752","751","373","","","","","","","","","","","","","237","1","6","true","","","",""
"psychophysics","316","544540","0.0-18.0-2.23","5dc151136bba9b0b6d979aa8","609a8bf73b2ac84e2732f618","60a244ea3e7deb6d03118c9d","195.82500000251457","","","","77","","","","key","16.665272727280602","751","373","","","","","","","","","","","","","","","","","","","",""
"psychophysics","317","545243","0.0-18.0-0.24","5dc151136bba9b0b6d979aa8","609a8bf73b2ac84e2732f618","60a244ea3e7deb6d03118c9d","null","","","","null","","","","key","16.671682926831856","751","373","","","","","","","","","","","","","","","","","","","",""
"psychophysics","318","545745","0.0-18.0-1.24","5dc151136bba9b0b6d979aa8","609a8bf73b2ac84e2732f618","60a244ea3e7deb6d03118c9d","null","","","","null","","","","key","16.67720689655057","751","373","","","","","","","","","","","","","237","1","0","true","","","",""
"psychophysics","319","546051","0.0-18.0-2.24","5dc151136bba9b0b6d979aa8","609a8bf73b2ac84e2732f618","60a244ea3e7deb6d03118c9d","304.5249999850057","","","","90","","","","key","16.658166666663924","751","373","","","","","","","","","","","","","","","","","","","",""
"psychophysics","320","547152","0.0-18.0-0.25","5dc151136bba9b0b6d979aa8","609a8bf73b2ac84e2732f618","60a244ea3e7deb6d03118c9d","null","","","","null","","","","key","16.6665846153843","751","373","","","","","","","","","","","","","","","","","","","",""
"psychophysics","321","547654","0.0-18.0-1.25","5dc151136bba9b0b6d979aa8","609a8bf73b2ac84e2732f618","60a244ea3e7deb6d03118c9d","null","","","","null","","","","key","16.659137931034163","751","373","","","","","","","","","","","","","237","-1","5","true","","","",""
"psychophysics","322","547915","0.0-18.0-2.25","5dc151136bba9b0b6d979aa8","609a8bf73b2ac84e2732f618","60a244ea3e7deb6d03118c9d","259.1849999735132","","","","77","","","","key","16.665785714285448","751","373","","","","","","","","","","","","","","","","","","","",""
"psychophysics","323","548536","0.0-18.0-0.26","5dc151136bba9b0b6d979aa8","609a8bf73b2ac84e2732f618","60a244ea3e7deb6d03118c9d","null","","","","null","","","","key","16.663999999999195","751","373","","","","","","","","","","","","","","","","","","","",""
"psychophysics","324","549038","0.0-18.0-1.26","5dc151136bba9b0b6d979aa8","609a8bf73b2ac84e2732f618","60a244ea3e7deb6d03118c9d","null","","","","null","","","","key","16.670655172410548","751","373","","","","","","","","","","","","","237","-1","6","true","","","",""
"psychophysics","325","549244","0.0-18.0-2.26","5dc151136bba9b0b6d979aa8","609a8bf73b2ac84e2732f618","60a244ea3e7deb6d03118c9d","203.70499999262393","","","","77","","","","key","16.663636363640595","751","373","","","","","","","","","","","","","","","","","","","",""
"psychophysics","326","550489","0.0-18.0-0.27","5dc151136bba9b0b6d979aa8","609a8bf73b2ac84e2732f618","60a244ea3e7deb6d03118c9d","null","","","","null","","","","key","16.66328378378357","751","373","","","","","","","","","","","","","","","","","","","",""
"psychophysics","327","550990","0.0-18.0-1.27","5dc151136bba9b0b6d979aa8","609a8bf73b2ac84e2732f618","60a244ea3e7deb6d03118c9d","null","","","","null","","","","key","16.663793103448278","751","373","","","","","","","","","","","","","237","-1","3","true","","","",""
"psychophysics","328","551323","0.0-18.0-2.27","5dc151136bba9b0b6d979aa8","609a8bf73b2ac84e2732f618","60a244ea3e7deb6d03118c9d","331.1799999792129","","","","77","","","","key","16.665736842110118","751","373","","","","","","","","","","","","","","","","","","","",""
"psychophysics","329","552270","0.0-18.0-0.28","5dc151136bba9b0b6d979aa8","609a8bf73b2ac84e2732f618","60a244ea3e7deb6d03118c9d","null","","","","null","","","","key","16.66278181818356","751","373","","","","","","","","","","","","","","","","","","","",""
"psychophysics","330","552773","0.0-18.0-1.28","5dc151136bba9b0b6d979aa8","609a8bf73b2ac84e2732f618","60a244ea3e7deb6d03118c9d","null","","","","null","","","","key","16.65937931034393","751","373","","","","","","","","","","","","","237","1","6","true","","","",""
"psychophysics","331","552924","0.0-18.0-2.28","5dc151136bba9b0b6d979aa8","609a8bf73b2ac84e2732f618","60a244ea3e7deb6d03118c9d","148.74999999301508","","","","77","","","","key","16.657333333329817","751","373","","","","","","","","","","","","","","","","","","","",""
"psychophysics","332","553778","0.0-18.0-0.29","5dc151136bba9b0b6d979aa8","609a8bf73b2ac84e2732f618","60a244ea3e7deb6d03118c9d","null","","","","null","","","","key","16.662843137255905","751","373","","","","","","","","","","","","","","","","","","","",""
