"trial_type","trial_index","time_elapsed","internal_node_id","PROLIFIC_PID","STUDY_ID","SESSION_ID","rt","stimulus","button_pressed","success","key_press","responses","isData","view_history","response_type","avg_frame_time","center_x","center_y","isSC","stim_side","trial_luminance","step_size","nReversal","correct","prev_ans","isThreshold","SC_threshold","final_threshold","isLuminance","FF_luminance","luminance","stimSide","ISInt","isFF","question_order","isSPQ","isCAPS","isAQ"
"pavlovia","0","10","0.0-0.0","5ebfaab9e63b7838c953ac35","609a8bf73b2ac84e2732f618","60a244f648605f8d405dc300","","","","","","","","","","","","","","","","","","","","","","","","","","","","","","","",""
"html-button-response","1","8533","0.0-1.0","5ebfaab9e63b7838c953ac35","609a8bf73b2ac84e2732f618","60a244f648605f8d405dc300","8519.840000022668","<div style='background-color: white; width:60%; margin: auto; padding: 50px; text-align: justify; text-justify: inter-word; margin-bottom: 20px;'><h1 style='text-align: center;'>Consent Form</h1><p>Please read this consent form carefully before deciding whether you would like to participate in this study. You have to be 18 years old or older to participate to this study.</p><p style='text-decoration: underline;'>Participation is voluntary:</p><p>It is your choice whether or not to participate in this research. If you choose to participate, you may change your mind and leave the study at any time. Refusal to participate or stopping your participation will involve no penalty or loss of benefits to which you are otherwise entitled.</p><p style='text-decoration: underline;'>Purpose of the Study:</p><p>To understand the mechanisms underlying human perception.</p><p style='text-decoration: underline;'>What you will do in this study:</p><p>You will be presented with a series of visual images and then you will press buttons on the keyboard of your computer to respond to simple questions about the images (e.g. Were one or two images presented?). In addition, you will be asked to complete a questionnaire concerning your beliefs and everyday mental and perceptual experiences.'</p><p style='text-decoration: underline;'> Time Required:</p><p>The study will take 40 minutes to complete. </p><p style='text-decoration: underline;'>Risks:</p><p>There are no anticipated risks associated with participating in this study that are beyond those experienced in everyday life. </p><p style='text-decoration: underline;'>Benefits:</p><p>There are no benefits to you in participating in the study. However, this study may lead to a better understanding of how different kinds of visual information are used.</p><p style='text-decoration: underline;'>Compensation:</p><p>You will be paid US$6.6/hour. </p><p style='text-decoration: underline;'>Privacy and Confidentiality:</p><p>Your participation in this study will be anonymous. No personal information about your name or identity will be asked or recorded. This anonymous data will be stored for several years and may be used for a variety of research purposes. The overall results of the study may be published, or the data files may be shared with other researchers, but your identity will not be revealed in any way. The online services we are using for this study may temporarily store your data, but this data will be downloaded and then promptly deleted from those services.Your data will not be permanently associated with your name, IP address, or any other identifiable information (e.g., your information will only be connected to your payment, not to any of your responses), though they may be temporarily stored together before we download and separate them. Even so, no guarantee of internet survey security can be given because, although unlikely, transmissions can be intercepted and IP addresses can be identified. The anonymous data may be shared publicly (for example, in conjunction with a resulting academic publication).</p><p style='text-decoration: underline;'>Participation and Withdrawal:</p><p>Your participation in this study is completely voluntary. You may stop responding to the stimuli or stop answering questions if you so choose and without penalty by exiting the full screen mode, closing this tab of your browser or redirecting it to a different website.</p><p style='text-decoration: underline;'>Contact Info of the Researcher: </p><p>If you have questions about this study, or if you would like to talk to the research team, please contact David Melcher (david.melcher@nyu.edu, md5050@nyu.edu) at the Perception and Active Cognition Laboratory, New York University Abu Dhabi, Computational Research Building, Saadiyat Island, Abu Dhabi, UAE.This research has been reviewed by the New York University Abu Dhabi Institutional Review Board (NYUAD IRB). To contact about your rights in this research, for questions, suggestions, or complaints that are not addressed by the researchers, please email IRBnyuad@nyu.edu, or call the NYUAD IRB at +971 2 628 4313. </p></div>","0","","","","","","","","","","","","","","","","","","","","","","","","","","","","",""
"fullscreen","2","9918","0.0-2.0","5ebfaab9e63b7838c953ac35","609a8bf73b2ac84e2732f618","60a244f648605f8d405dc300","","","","true","","","","","","","","","","","","","","","","","","","","","","","","","","","",""
"html-keyboard-response","3","19713","0.0-3.0","5ebfaab9e63b7838c953ac35","609a8bf73b2ac84e2732f618","60a244f648605f8d405dc300","9792.379999998957","<p>Welcome !</p><p>READ CAREFULLY THE FOLLOWING INDICATIONS:</p><p>From this moment you have ~40 minutes to complete the experiment.</p><p>During the experiment you will be prompted to take several breaks. Each break should not last longer than 2-3 minutes.</p><p>Make sure that your computer is plugged in and it's not running on battery power, even if the battery is already fully charged.</p><p>Turn off your phone and music, make sure that you are in a quiet room and that you will not be distracted for the next hour.</p><p>Failure to comply with the instructions and indications provided during the experiment will most likely result in the rejection of your data.<p>Press the spacebar to start.</p>","","","32","","","","","","","","","","","","","","","","","","","","","","","","","","",""
"survey-html-form","4","24509","0.0-4.0","5ebfaab9e63b7838c953ac35","609a8bf73b2ac84e2732f618","60a244f648605f8d405dc300","4793.100000009872","","","","","{""age"":""36"",""sex"":""F""}","true","","","","","","","","","","","","","","","","","","","","","","","","",""
"instructions","5","164702","0.0-5.0","5ebfaab9e63b7838c953ac35","609a8bf73b2ac84e2732f618","60a244f648605f8d405dc300","140192.50000000466","","","","","","","[{""page_index"":0,""viewing_time"":16110.050000017509},{""page_index"":1,""viewing_time"":115822.8699999745},{""page_index"":2,""viewing_time"":8259.039999975357}]","","","","","","","","","","","","","","","","","","","","","","","",""
"psychophysics","6","167842","0.0-6.0-0.0","5ebfaab9e63b7838c953ac35","609a8bf73b2ac84e2732f618","60a244f648605f8d405dc300","2121.8349999981","","","","39","","","","key","16.966394594594572","683","328.5","true","1","180","30","0","-1","","","","","","","","","","","","","",""
"psychophysics","7","168939","0.0-6.0-0.1","5ebfaab9e63b7838c953ac35","609a8bf73b2ac84e2732f618","60a244f648605f8d405dc300","91.26000001560897","","","","37","","","","key","16.749276923077055","683","328.5","true","-1","180","30","0","-1","-1","","","","","","","","","","","","",""
"psychophysics","8","169974","0.0-6.0-0.2","5ebfaab9e63b7838c953ac35","609a8bf73b2ac84e2732f618","60a244f648605f8d405dc300","29.845000011846423","","","","37","","","","key","16.74848333333357","683","328.5","true","-1","150","30","0","-1","-1","","","","","","","","","","","","",""
"psychophysics","9","175748","0.0-6.0-0.3","5ebfaab9e63b7838c953ac35","609a8bf73b2ac84e2732f618","60a244f648605f8d405dc300","4770.275000017136","","","","37","","","","key","16.749508720930248","683","328.5","true","1","150","24","1","1","-1","","","","","","","","","","","","",""
"psychophysics","10","180033","0.0-6.0-0.4","5ebfaab9e63b7838c953ac35","609a8bf73b2ac84e2732f618","60a244f648605f8d405dc300","3278.374999994412","","","","39","","","","key","16.750098039215665","683","328.5","true","1","174","24","1","-1","1","","","","","","","","","","","","",""
"psychophysics","11","184592","0.0-6.0-0.5","5ebfaab9e63b7838c953ac35","609a8bf73b2ac84e2732f618","60a244f648605f8d405dc300","3554.0949999704026","","","","37","","","","key","16.749509225092243","683","328.5","true","-1","174","19.2","2","-1","-1","","","","","","","","","","","","",""
"psychophysics","12","186394","0.0-6.0-0.6","5ebfaab9e63b7838c953ac35","609a8bf73b2ac84e2732f618","60a244f648605f8d405dc300","782.2749999468215","","","","39","","","","key","16.748869158878378","683","328.5","true","1","154.8","19.2","2","-1","-1","","","","","","","","","","","","",""
"psychophysics","13","188150","0.0-6.0-0.7","5ebfaab9e63b7838c953ac35","609a8bf73b2ac84e2732f618","60a244f648605f8d405dc300","753.9600000018254","","","","39","","","","key","16.749278846153736","683","328.5","true","1","154.8","19.2","2","-1","-1","","","","","","","","","","","","",""
"psychophysics","14","189644","0.0-6.0-0.8","5ebfaab9e63b7838c953ac35","609a8bf73b2ac84e2732f618","60a244f648605f8d405dc300","489.95000001741573","","","","37","","","","key","16.750136363636226","683","328.5","true","-1","135.60000000000002","19.2","2","-1","-1","","","","","","","","","","","","",""
"psychophysics","15","191042","0.0-6.0-0.9","5ebfaab9e63b7838c953ac35","609a8bf73b2ac84e2732f618","60a244f648605f8d405dc300","393.0500000133179","","","","39","","","","key","16.748146341463393","683","328.5","true","1","135.60000000000002","19.2","2","-1","-1","","","","","","","","","","","","",""
"psychophysics","16","193336","0.0-6.0-0.10","5ebfaab9e63b7838c953ac35","609a8bf73b2ac84e2732f618","60a244f648605f8d405dc300","1290.6950000324287","","","","39","","","","key","16.749779411764713","683","328.5","true","1","129","19.2","2","-1","-1","","","","","","","","","","","","",""
"psychophysics","17","195571","0.0-6.0-0.11","5ebfaab9e63b7838c953ac35","609a8bf73b2ac84e2732f618","60a244f648605f8d405dc300","1229.1850000037812","","","","39","","","","key","16.748984962406166","683","328.5","true","1","129","19.2","2","-1","-1","","","","","","","","","","","","",""
"psychophysics","18","197049","0.0-6.0-0.12","5ebfaab9e63b7838c953ac35","609a8bf73b2ac84e2732f618","60a244f648605f8d405dc300","474.70500000054017","","","","39","","","","key","16.748344827586205","683","328.5","true","1","129","19.2","2","-1","-1","","","","","","","","","","","","",""
"psychophysics","19","199423","0.0-6.0-0.13","5ebfaab9e63b7838c953ac35","609a8bf73b2ac84e2732f618","60a244f648605f8d405dc300","1370.2500000363216","","","","39","","","","key","16.74933333333325","683","328.5","true","-1","129","15.36","3","1","-1","","","","","","","","","","","","",""
"psychophysics","20","200512","0.0-6.0-0.14","5ebfaab9e63b7838c953ac35","609a8bf73b2ac84e2732f618","60a244f648605f8d405dc300","84.35499999905005","","","","37","","","","key","16.747749999999996","683","328.5","true","-1","144.36","15.36","3","-1","1","","","","","","","","","","","","",""
"psychophysics","21","203142","0.0-6.0-0.15","5ebfaab9e63b7838c953ac35","609a8bf73b2ac84e2732f618","60a244f648605f8d405dc300","1627.5299999979325","","","","37","","","","key","16.74987179487186","683","328.5","true","-1","144.36","12.287999999999998","4","-1","-1","","","","","","","","","","","","",""
"psychophysics","22","204920","0.0-6.0-0.16","5ebfaab9e63b7838c953ac35","609a8bf73b2ac84e2732f618","60a244f648605f8d405dc300","773.6700000241399","","","","37","","","","key","16.750847619047686","683","328.5","true","1","132.072","9.8304","5","1","-1","","","","","","","","","","","","",""
"psychophysics","23","208072","0.0-6.0-0.17","5ebfaab9e63b7838c953ac35","609a8bf73b2ac84e2732f618","60a244f648605f8d405dc300","2146.4949999935925","","","","37","","","","key","16.75019786096247","683","328.5","true","-1","141.9024","9.8304","5","-1","1","","","","","","","","","","","","",""
"psychophysics","24","209732","0.0-6.0-0.18","5ebfaab9e63b7838c953ac35","609a8bf73b2ac84e2732f618","60a244f648605f8d405dc300","656.0250000329688","","","","39","","","","key","16.748918367346942","683","328.5","true","1","141.9024","7.864319999999999","6","-1","-1","","","","","","","","","","","","",""
"psychophysics","25","211288","0.0-6.0-0.19","5ebfaab9e63b7838c953ac35","609a8bf73b2ac84e2732f618","60a244f648605f8d405dc300","552.2249999921769","","","","37","","","","key","16.748510869565347","683","328.5","true","-1","134.03808","7.864319999999999","6","-1","-1","","","","","","","","","","","","",""
"psychophysics","26","212356","0.0-6.0-0.20","5ebfaab9e63b7838c953ac35","609a8bf73b2ac84e2732f618","60a244f648605f8d405dc300","62.13499995646998","","","","39","","","","key","16.751126984126923","683","328.5","true","1","134.03808","7.864319999999999","6","-1","-1","","","","","","","","","","","","",""
"psychophysics","27","214267","0.0-6.0-0.21","5ebfaab9e63b7838c953ac35","609a8bf73b2ac84e2732f618","60a244f648605f8d405dc300","905.3849999909289","","","","37","","","","key","16.75075221238931","683","328.5","true","1","129","6.291456","7","1","-1","","","","","","","","","","","","",""
"psychophysics","28","215665","0.0-6.0-0.22","5ebfaab9e63b7838c953ac35","609a8bf73b2ac84e2732f618","60a244f648605f8d405dc300","392.1400000108406","","","","37","","","","key","16.748865853658614","683","328.5","true","-1","135.291456","6.291456","7","-1","1","","","","","","","","","","","","",""
"psychophysics","29","217297","0.0-6.0-0.23","5ebfaab9e63b7838c953ac35","609a8bf73b2ac84e2732f618","60a244f648605f8d405dc300","625.5349999992177","","","","39","","","","key","16.748783505154467","683","328.5","true","1","135.291456","5.033164800000001","8","-1","-1","","","","","","","","","","","","",""
"psychophysics","30","218823","0.0-6.0-0.24","5ebfaab9e63b7838c953ac35","609a8bf73b2ac84e2732f618","60a244f648605f8d405dc300","522.9300000355579","","","","39","","","","key","16.749277777777753","683","328.5","true","1","130.2582912","5.033164800000001","8","-1","-1","","","","","","","","","","","","",""
"psychophysics","31","220244","0.0-6.0-0.25","5ebfaab9e63b7838c953ac35","609a8bf73b2ac84e2732f618","60a244f648605f8d405dc300","417.5000000395812","","","","39","","","","key","16.747940476190358","683","328.5","true","1","130.2582912","5.033164800000001","8","-1","-1","","","","","","","","","","","","",""
"psychophysics","32","221472","0.0-6.0-0.26","5ebfaab9e63b7838c953ac35","609a8bf73b2ac84e2732f618","60a244f648605f8d405dc300","225.0550000462681","","","","37","","","","key","16.75031944444426","683","328.5","true","1","129","4.0265318400000005","9","1","-1","","","","","","","","","","","","",""
"psychophysics","33","224463","0.0-6.0-0.27","5ebfaab9e63b7838c953ac35","609a8bf73b2ac84e2732f618","60a244f648605f8d405dc300","1983.124999969732","","","","37","","","","key","16.74944382022479","683","328.5","true","-1","133.02653184","4.0265318400000005","9","-1","1","","","","","","","","","","","","",""
"psychophysics","34","226090","0.0-6.0-0.28","5ebfaab9e63b7838c953ac35","609a8bf73b2ac84e2732f618","60a244f648605f8d405dc300","623.3599999686703","","","","37","","","","key","16.749312500000087","683","328.5","true","-1","133.02653184","3.2212254720000004","10","-1","-1","","","","","","","","","","","","",""
"psychophysics","35","228102","0.0-6.0-0.29","5ebfaab9e63b7838c953ac35","609a8bf73b2ac84e2732f618","60a244f648605f8d405dc300","1007.1800000150688","","","","37","","","","key","16.749352941176554","683","328.5","true","-1","129.805306368","3.2212254720000004","10","-1","-1","","","","","","","","","","","","",""
"psychophysics","36","229985","0.0-6.0-0.30","5ebfaab9e63b7838c953ac35","609a8bf73b2ac84e2732f618","60a244f648605f8d405dc300","878.1650000018999","","","","37","","","","key","16.749837837838","683","328.5","true","1","129.805306368","2.5769803776000004","11","1","-1","","","","","","","","","","","","",""
"psychophysics","37","231918","0.0-6.0-0.31","5ebfaab9e63b7838c953ac35","609a8bf73b2ac84e2732f618","60a244f648605f8d405dc300","930.2249999600463","","","","37","","","","key","16.74967826086972","683","328.5","true","-1","132.3822867456","2.5769803776000004","11","-1","1","","","","","","","","","","","","",""
"psychophysics","38","233279","0.0-6.0-0.32","5ebfaab9e63b7838c953ac35","609a8bf73b2ac84e2732f618","60a244f648605f8d405dc300","357.29999997420236","","","","37","","","","key","16.749675000000206","683","328.5","true","-1","132.3822867456","2.0615843020800004","12","-1","-1","","","","","","","","","","","","",""
"psychophysics","39","234675","0.0-6.0-0.33","5ebfaab9e63b7838c953ac35","609a8bf73b2ac84e2732f618","60a244f648605f8d405dc300","392.28000002913177","","","","37","","","","key","16.749731707317107","683","328.5","true","-1","130.32070244352","2.0615843020800004","12","-1","-1","","","","","","","","","","","","",""
"psychophysics","40","236063","0.0-6.0-0.34","5ebfaab9e63b7838c953ac35","609a8bf73b2ac84e2732f618","60a244f648605f8d405dc300","379.78999997721985","","","","37","","","","key","16.75096341463412","683","328.5","true","-1","130.32070244352","2.0615843020800004","12","-1","-1","","","","","","","","","","","","",""
"psychophysics","41","237535","0.0-6.0-0.35","5ebfaab9e63b7838c953ac35","609a8bf73b2ac84e2732f618","60a244f648605f8d405dc300","468.555000028573","","","","37","","","","key","16.748413793103374","683","328.5","true","1","129","1.6492674416640005","13","1","-1","","","","","","","","","","","","",""
"psychophysics","42","238875","0.0-6.0-0.36","5ebfaab9e63b7838c953ac35","609a8bf73b2ac84e2732f618","60a244f648605f8d405dc300","336.3600000157021","","","","37","","","","key","16.749063291139326","683","328.5","true","-1","130.649267441664","1.6492674416640005","13","-1","1","","","","","","","","","","","","",""
"psychophysics","43","240414","0.0-6.0-0.37","5ebfaab9e63b7838c953ac35","609a8bf73b2ac84e2732f618","60a244f648605f8d405dc300","536.2099999911152","","","","37","","","","key","16.750945054944847","683","328.5","true","-1","130.649267441664","1.3194139533312006","14","-1","-1","","","","","","","","","","","","",""
"psychophysics","44","242108","0.0-6.0-0.38","5ebfaab9e63b7838c953ac35","609a8bf73b2ac84e2732f618","60a244f648605f8d405dc300","689.4200000097044","","","","37","","","","key","16.74992999999988","683","328.5","true","-1","129.3298534883328","1.3194139533312006","14","-1","-1","","","","","","","","","","","","",""
"psychophysics","45","243477","0.0-6.0-0.39","5ebfaab9e63b7838c953ac35","609a8bf73b2ac84e2732f618","60a244f648605f8d405dc300","365.14000000897795","","","","37","","","","key","16.74906172839505","683","328.5","true","1","129.3298534883328","1.0555311626649604","15","1","-1","","","","","","","","","","","","",""
"html-keyboard-response","46","245944","0.0-7.0","5ebfaab9e63b7838c953ac35","609a8bf73b2ac84e2732f618","60a244f648605f8d405dc300","2461.935000028461","<p>Well Done !</p><p>Prepare for a new block.</p><p>DON'T EXIT THE FULL SCREEN MODE</p><p>Press the Spacebar to start.</p>","","","32","","","","","","","","","","","","","","","true","130.61907919028226","","","","","","","","","","",""
"psychophysics","47","248624","0.0-8.0-0.0","5ebfaab9e63b7838c953ac35","609a8bf73b2ac84e2732f618","60a244f648605f8d405dc300","1673.5150000313297","","","","37","","","","key","16.71146874999995","683","328.5","true","-1","180","30","0","-1","","","","","","","","","","","","","",""
"psychophysics","48","250131","0.0-8.0-0.1","5ebfaab9e63b7838c953ac35","609a8bf73b2ac84e2732f618","60a244f648605f8d405dc300","503.06999997701496","","","","37","","","","key","16.749932584269732","683","328.5","true","-1","180","30","0","-1","-1","","","","","","","","","","","","",""
"psychophysics","49","251421","0.0-8.0-0.2","5ebfaab9e63b7838c953ac35","609a8bf73b2ac84e2732f618","60a244f648605f8d405dc300","286.2500000046566","","","","37","","","","key","16.750302631579153","683","328.5","true","-1","150","30","0","-1","-1","","","","","","","","","","","","",""
"psychophysics","50","252890","0.0-8.0-0.3","5ebfaab9e63b7838c953ac35","609a8bf73b2ac84e2732f618","60a244f648605f8d405dc300","465.81999998306856","","","","39","","","","key","16.74902298850584","683","328.5","true","1","150","30","0","-1","-1","","","","","","","","","","","","",""
"psychophysics","51","255413","0.0-8.0-0.4","5ebfaab9e63b7838c953ac35","609a8bf73b2ac84e2732f618","60a244f648605f8d405dc300","1520.0000000186265","","","","39","","","","key","16.749167785235024","683","328.5","true","1","129","30","0","-1","-1","","","","","","","","","","","","",""
"psychophysics","52","257208","0.0-8.0-0.5","5ebfaab9e63b7838c953ac35","609a8bf73b2ac84e2732f618","60a244f648605f8d405dc300","789.9949999991804","","","","39","","","","key","16.749584905660157","683","328.5","true","1","129","30","0","-1","-1","","","","","","","","","","","","",""
"psychophysics","53","258460","0.0-8.0-0.6","5ebfaab9e63b7838c953ac35","609a8bf73b2ac84e2732f618","60a244f648605f8d405dc300","246.48500001057982","","","","37","","","","key","16.749351351351613","683","328.5","true","-1","129","30","0","-1","-1","","","","","","","","","","","","",""
"psychophysics","54","259892","0.0-8.0-0.7","5ebfaab9e63b7838c953ac35","609a8bf73b2ac84e2732f618","60a244f648605f8d405dc300","427.060000016354","","","","37","","","","key","16.748658823529396","683","328.5","true","1","129","24","1","1","-1","","","","","","","","","","","","",""
"psychophysics","55","261371","0.0-8.0-0.8","5ebfaab9e63b7838c953ac35","609a8bf73b2ac84e2732f618","60a244f648605f8d405dc300","474.6000000159256","","","","37","","","","key","16.749678160919306","683","328.5","true","-1","153","24","1","-1","1","","","","","","","","","","","","",""
"psychophysics","56","262692","0.0-8.0-0.9","5ebfaab9e63b7838c953ac35","609a8bf73b2ac84e2732f618","60a244f648605f8d405dc300","319.0999999642372","","","","37","","","","key","16.750576923077087","683","328.5","true","-1","153","19.2","2","-1","-1","","","","","","","","","","","","",""
"psychophysics","57","264144","0.0-8.0-0.10","5ebfaab9e63b7838c953ac35","609a8bf73b2ac84e2732f618","60a244f648605f8d405dc300","449.1050000069663","","","","39","","","","key","16.750174418604814","683","328.5","true","1","133.8","19.2","2","-1","-1","","","","","","","","","","","","",""
"psychophysics","58","265581","0.0-8.0-0.11","5ebfaab9e63b7838c953ac35","609a8bf73b2ac84e2732f618","60a244f648605f8d405dc300","434.064999979455","","","","37","","","","key","16.748023809523495","683","328.5","true","-1","133.8","19.2","2","-1","-1","","","","","","","","","","","","",""
"psychophysics","59","267079","0.0-8.0-0.12","5ebfaab9e63b7838c953ac35","609a8bf73b2ac84e2732f618","60a244f648605f8d405dc300","489.4699999713339","","","","37","","","","key","16.93764772727313","683","328.5","true","1","129","15.36","3","1","-1","","","","","","","","","","","","",""
"psychophysics","60","268442","0.0-8.0-0.13","5ebfaab9e63b7838c953ac35","609a8bf73b2ac84e2732f618","60a244f648605f8d405dc300","359.14000001503155","","","","39","","","","key","16.74783749999988","683","328.5","true","1","144.36","15.36","3","-1","1","","","","","","","","","","","","",""
"psychophysics","61","269777","0.0-8.0-0.14","5ebfaab9e63b7838c953ac35","609a8bf73b2ac84e2732f618","60a244f648605f8d405dc300","329.8499999800697","","","","37","","","","key","16.74896202531652","683","328.5","true","-1","144.36","12.287999999999998","4","-1","-1","","","","","","","","","","","","",""
"psychophysics","62","271117","0.0-8.0-0.15","5ebfaab9e63b7838c953ac35","609a8bf73b2ac84e2732f618","60a244f648605f8d405dc300","335.5899999733083","","","","39","","","","key","16.74940506329088","683","328.5","true","1","132.072","12.287999999999998","4","-1","-1","","","","","","","","","","","","",""
"psychophysics","63","272644","0.0-8.0-0.16","5ebfaab9e63b7838c953ac35","609a8bf73b2ac84e2732f618","60a244f648605f8d405dc300","521.7650000122376","","","","37","","","","key","16.749888888889434","683","328.5","true","1","132.072","9.8304","5","1","-1","","","","","","","","","","","","",""
"psychophysics","64","273969","0.0-8.0-0.17","5ebfaab9e63b7838c953ac35","609a8bf73b2ac84e2732f618","60a244f648605f8d405dc300","320.3349999967031","","","","39","","","","key","16.749499999999387","683","328.5","true","1","141.9024","9.8304","5","-1","1","","","","","","","","","","","","",""
"psychophysics","65","275289","0.0-8.0-0.18","5ebfaab9e63b7838c953ac35","609a8bf73b2ac84e2732f618","60a244f648605f8d405dc300","312.79500003438443","","","","39","","","","key","16.751038461538535","683","328.5","true","1","141.9024","7.864319999999999","6","-1","-1","","","","","","","","","","","","",""
"psychophysics","66","276409","0.0-8.0-0.19","5ebfaab9e63b7838c953ac35","609a8bf73b2ac84e2732f618","60a244f648605f8d405dc300","115.93500000890344","","","","39","","","","key","16.750166666666644","683","328.5","true","1","134.03808","7.864319999999999","6","-1","-1","","","","","","","","","","","","",""
"psychophysics","67","277717","0.0-8.0-0.20","5ebfaab9e63b7838c953ac35","609a8bf73b2ac84e2732f618","60a244f648605f8d405dc300","303.4699999843724","","","","37","","","","key","16.75037662337637","683","328.5","true","-1","134.03808","7.864319999999999","6","-1","-1","","","","","","","","","","","","",""
"psychophysics","68","279745","0.0-8.0-0.21","5ebfaab9e63b7838c953ac35","609a8bf73b2ac84e2732f618","60a244f648605f8d405dc300","1024.0900000208057","","","","39","","","","key","16.750091666666655","683","328.5","true","-1","129","6.291456","7","1","-1","","","","","","","","","","","","",""
"psychophysics","69","281044","0.0-8.0-0.22","5ebfaab9e63b7838c953ac35","609a8bf73b2ac84e2732f618","60a244f648605f8d405dc300","295.60999997192994","","","","37","","","","key","16.749155844155815","683","328.5","true","-1","135.291456","6.291456","7","-1","1","","","","","","","","","","","","",""
"psychophysics","70","282365","0.0-8.0-0.23","5ebfaab9e63b7838c953ac35","609a8bf73b2ac84e2732f618","60a244f648605f8d405dc300","317.975000012666","","","","39","","","","key","17.189394736841724","683","328.5","true","1","135.291456","5.033164800000001","8","-1","-1","","","","","","","","","","","","",""
"psychophysics","71","283865","0.0-8.0-0.24","5ebfaab9e63b7838c953ac35","609a8bf73b2ac84e2732f618","60a244f648605f8d405dc300","496.27499998314306","","","","37","","","","key","16.75092045454552","683","328.5","true","-1","130.2582912","5.033164800000001","8","-1","-1","","","","","","","","","","","","",""
"psychophysics","72","285199","0.0-8.0-0.25","5ebfaab9e63b7838c953ac35","609a8bf73b2ac84e2732f618","60a244f648605f8d405dc300","330.78499999828637","","","","37","","","","key","16.751215189873665","683","328.5","true","1","130.2582912","4.0265318400000005","9","1","-1","","","","","","","","","","","","",""
"psychophysics","73","287769","0.0-8.0-0.26","5ebfaab9e63b7838c953ac35","609a8bf73b2ac84e2732f618","60a244f648605f8d405dc300","1561.2050000345334","","","","37","","","","key","16.749815789473743","683","328.5","true","-1","134.28482304","4.0265318400000005","9","-1","1","","","","","","","","","","","","",""
"psychophysics","74","288783","0.0-8.0-0.27","5ebfaab9e63b7838c953ac35","609a8bf73b2ac84e2732f618","60a244f648605f8d405dc300","4.784999997355044","","","","37","","","","key","16.747833333333254","683","328.5","true","-1","134.28482304","3.2212254720000004","10","-1","-1","","","","","","","","","","","","",""
"psychophysics","75","290049","0.0-8.0-0.28","5ebfaab9e63b7838c953ac35","609a8bf73b2ac84e2732f618","60a244f648605f8d405dc300","262.4700000160374","","","","37","","","","key","16.749229729729326","683","328.5","true","-1","131.06359756799998","3.2212254720000004","10","-1","-1","","","","","","","","","","","","",""
"psychophysics","76","291845","0.0-8.0-0.29","5ebfaab9e63b7838c953ac35","609a8bf73b2ac84e2732f618","60a244f648605f8d405dc300","789.3649999750778","","","","37","","","","key","16.748457943924887","683","328.5","true","-1","131.06359756799998","3.2212254720000004","10","-1","-1","","","","","","","","","","","","",""
"psychophysics","77","293621","0.0-8.0-0.30","5ebfaab9e63b7838c953ac35","609a8bf73b2ac84e2732f618","60a244f648605f8d405dc300","774.2000000434928","","","","37","","","","key","16.750266666666583","683","328.5","true","-1","129","3.2212254720000004","10","-1","-1","","","","","","","","","","","","",""
"psychophysics","78","295224","0.0-8.0-0.31","5ebfaab9e63b7838c953ac35","609a8bf73b2ac84e2732f618","60a244f648605f8d405dc300","600.0950000016019","","","","37","","","","key","16.749553191489195","683","328.5","true","-1","129","3.2212254720000004","10","-1","-1","","","","","","","","","","","","",""
"psychophysics","79","297041","0.0-8.0-0.32","5ebfaab9e63b7838c953ac35","609a8bf73b2ac84e2732f618","60a244f648605f8d405dc300","810.2300000027753","","","","37","","","","key","16.749296296296286","683","328.5","true","1","129","2.5769803776000004","11","1","-1","","","","","","","","","","","","",""
"psychophysics","80","298505","0.0-8.0-0.33","5ebfaab9e63b7838c953ac35","609a8bf73b2ac84e2732f618","60a244f648605f8d405dc300","455.3050000104122","","","","37","","","","key","16.747860465116183","683","328.5","true","1","131.5769803776","2.5769803776000004","11","1","1","","","","","","","","","","","","",""
"psychophysics","81","299848","0.0-8.0-0.34","5ebfaab9e63b7838c953ac35","609a8bf73b2ac84e2732f618","60a244f648605f8d405dc300","339.5149999996647","","","","37","","","","key","16.749126582278993","683","328.5","true","-1","134.1539607552","2.5769803776000004","11","-1","1","","","","","","","","","","","","",""
"psychophysics","82","301271","0.0-8.0-0.35","5ebfaab9e63b7838c953ac35","609a8bf73b2ac84e2732f618","60a244f648605f8d405dc300","417.6549999974668","","","","37","","","","key","16.748690476190642","683","328.5","true","-1","134.1539607552","2.0615843020800004","12","-1","-1","","","","","","","","","","","","",""
"psychophysics","83","303205","0.0-8.0-0.36","5ebfaab9e63b7838c953ac35","609a8bf73b2ac84e2732f618","60a244f648605f8d405dc300","932.2950000059791","","","","37","","","","key","16.75023478260871","683","328.5","true","1","132.09237645311998","1.6492674416640005","13","1","-1","","","","","","","","","","","","",""
"psychophysics","84","304548","0.0-8.0-0.37","5ebfaab9e63b7838c953ac35","609a8bf73b2ac84e2732f618","60a244f648605f8d405dc300","340.349999954924","","","","39","","","","key","16.96397435897439","683","328.5","true","1","133.74164389478398","1.6492674416640005","13","-1","1","","","","","","","","","","","","",""
"psychophysics","85","305917","0.0-8.0-0.38","5ebfaab9e63b7838c953ac35","609a8bf73b2ac84e2732f618","60a244f648605f8d405dc300","365.555000025779","","","","39","","","","key","16.750197530864238","683","328.5","true","1","133.74164389478398","1.3194139533312006","14","-1","-1","","","","","","","","","","","","",""
"psychophysics","86","308679","0.0-8.0-0.39","5ebfaab9e63b7838c953ac35","609a8bf73b2ac84e2732f618","60a244f648605f8d405dc300","1758.1899999640882","","","","39","","","","key","16.749798780487474","683","328.5","true","1","132.42222994145277","1.3194139533312006","14","-1","-1","","","","","","","","","","","","",""
"html-keyboard-response","87","310252","0.0-9.0","5ebfaab9e63b7838c953ac35","609a8bf73b2ac84e2732f618","60a244f648605f8d405dc300","1570.319999998901","<p>Well Done !</p><p>Prepare for a new block.</p><p>DON'T EXIT THE FULL SCREEN MODE</p><p>Press the Spacebar to start.</p>","","","32","","","","","","","","","","","","","","","true","131.9891952325427","","","","","","","","","","",""
"psychophysics","88","311665","0.0-10.0-0.0","5ebfaab9e63b7838c953ac35","609a8bf73b2ac84e2732f618","60a244f648605f8d405dc300","407.4900000123307","","","","37","","","","key","16.82847619047624","683","328.5","true","-1","180","30","0","-1","","","","","","","","","","","","","",""
"psychophysics","89","313018","0.0-10.0-0.1","5ebfaab9e63b7838c953ac35","609a8bf73b2ac84e2732f618","60a244f648605f8d405dc300","349.46499997749925","","","","37","","","","key","16.749212500000432","683","328.5","true","-1","180","30","0","-1","-1","","","","","","","","","","","","",""
"psychophysics","90","314361","0.0-10.0-0.2","5ebfaab9e63b7838c953ac35","609a8bf73b2ac84e2732f618","60a244f648605f8d405dc300","339.4049999769777","","","","39","","","","key","16.74954430379719","683","328.5","true","1","150","30","0","-1","-1","","","","","","","","","","","","",""
"psychophysics","91","315674","0.0-10.0-0.3","5ebfaab9e63b7838c953ac35","609a8bf73b2ac84e2732f618","60a244f648605f8d405dc300","309.6550000482239","","","","39","","","","key","16.74857142857161","683","328.5","true","1","150","30","0","-1","-1","","","","","","","","","","","","",""
"psychophysics","92","317409","0.0-10.0-0.4","5ebfaab9e63b7838c953ac35","609a8bf73b2ac84e2732f618","60a244f648605f8d405dc300","731.1849999823608","","","","37","","","","key","16.75131067961174","683","328.5","true","-1","129","30","0","-1","-1","","","","","","","","","","","","",""
"psychophysics","93","318868","0.0-10.0-0.5","5ebfaab9e63b7838c953ac35","609a8bf73b2ac84e2732f618","60a244f648605f8d405dc300","454.60499997716397","","","","37","","","","key","16.7502209302329","683","328.5","true","-1","129","30","0","-1","-1","","","","","","","","","","","","",""
"psychophysics","94","320174","0.0-10.0-0.6","5ebfaab9e63b7838c953ac35","609a8bf73b2ac84e2732f618","60a244f648605f8d405dc300","303.8749999832362","","","","37","","","","key","16.748467532467316","683","328.5","true","1","129","24","1","1","-1","","","","","","","","","","","","",""
"psychophysics","95","321484","0.0-10.0-0.7","5ebfaab9e63b7838c953ac35","609a8bf73b2ac84e2732f618","60a244f648605f8d405dc300","305.3749999962747","","","","39","","","","key","16.748753246752994","683","328.5","true","1","153","24","1","-1","1","","","","","","","","","","","","",""
"psychophysics","96","322779","0.0-10.0-0.8","5ebfaab9e63b7838c953ac35","609a8bf73b2ac84e2732f618","60a244f648605f8d405dc300","290.83000001264736","","","","39","","","","key","16.748710526315815","683","328.5","true","1","153","19.2","2","-1","-1","","","","","","","","","","","","",""
"psychophysics","97","324109","0.0-10.0-0.9","5ebfaab9e63b7838c953ac35","609a8bf73b2ac84e2732f618","60a244f648605f8d405dc300","323.9400000311434","","","","37","","","","key","16.750848101265582","683","328.5","true","-1","133.8","19.2","2","-1","-1","","","","","","","","","","","","",""
"psychophysics","98","325825","0.0-10.0-0.10","5ebfaab9e63b7838c953ac35","609a8bf73b2ac84e2732f618","60a244f648605f8d405dc300","710.3650000062771","","","","37","","","","key","16.74991089108949","683","328.5","true","-1","133.8","19.2","2","-1","-1","","","","","","","","","","","","",""
"psychophysics","99","327155","0.0-10.0-0.11","5ebfaab9e63b7838c953ac35","609a8bf73b2ac84e2732f618","60a244f648605f8d405dc300","323.67999997222796","","","","37","","","","key","16.750329113923474","683","328.5","true","-1","129","19.2","2","-1","-1","","","","","","","","","","","","",""
"psychophysics","100","328428","0.0-10.0-0.12","5ebfaab9e63b7838c953ac35","609a8bf73b2ac84e2732f618","60a244f648605f8d405dc300","269.67000000877306","","","","37","","","","key","16.7491333333333","683","328.5","true","-1","129","19.2","2","-1","-1","","","","","","","","","","","","",""
"psychophysics","101","329741","0.0-10.0-0.13","5ebfaab9e63b7838c953ac35","609a8bf73b2ac84e2732f618","60a244f648605f8d405dc300","308.6949999560602","","","","37","","","","key","16.750428571428518","683","328.5","true","-1","129","19.2","2","-1","-1","","","","","","","","","","","","",""
"psychophysics","102","330965","0.0-10.0-0.14","5ebfaab9e63b7838c953ac35","609a8bf73b2ac84e2732f618","60a244f648605f8d405dc300","221.42999997595325","","","","39","","","","key","16.749472222222217","683","328.5","true","1","129","19.2","2","-1","-1","","","","","","","","","","","","",""
"psychophysics","103","332870","0.0-10.0-0.15","5ebfaab9e63b7838c953ac35","609a8bf73b2ac84e2732f618","60a244f648605f8d405dc300","900.4800000111572","","","","37","","","","key","16.750380530973498","683","328.5","true","1","129","15.36","3","1","-1","","","","","","","","","","","","",""
"psychophysics","104","334364","0.0-10.0-0.16","5ebfaab9e63b7838c953ac35","609a8bf73b2ac84e2732f618","60a244f648605f8d405dc300","489.9149999837391","","","","37","","","","key","16.74948863636382","683","328.5","true","-1","144.36","15.36","3","-1","1","","","","","","","","","","","","",""
"psychophysics","105","335672","0.0-10.0-0.17","5ebfaab9e63b7838c953ac35","609a8bf73b2ac84e2732f618","60a244f648605f8d405dc300","303.8849999429658","","","","39","","","","key","16.750532467532057","683","328.5","true","1","144.36","12.287999999999998","4","-1","-1","","","","","","","","","","","","",""
"psychophysics","106","337406","0.0-10.0-0.18","5ebfaab9e63b7838c953ac35","609a8bf73b2ac84e2732f618","60a244f648605f8d405dc300","730.7349999900907","","","","37","","","","key","16.748174757281888","683","328.5","true","-1","132.072","12.287999999999998","4","-1","-1","","","","","","","","","","","","",""
"psychophysics","107","338764","0.0-10.0-0.19","5ebfaab9e63b7838c953ac35","609a8bf73b2ac84e2732f618","60a244f648605f8d405dc300","354.26499997265637","","","","39","","","","key","16.748762500000158","683","328.5","true","1","132.072","12.287999999999998","4","-1","-1","","","","","","","","","","","","",""
"psychophysics","108","340082","0.0-10.0-0.20","5ebfaab9e63b7838c953ac35","609a8bf73b2ac84e2732f618","60a244f648605f8d405dc300","311.5000000107102","","","","39","","","","key","16.74806493506525","683","328.5","true","1","129","12.287999999999998","4","-1","-1","","","","","","","","","","","","",""
"psychophysics","109","341811","0.0-10.0-0.21","5ebfaab9e63b7838c953ac35","609a8bf73b2ac84e2732f618","60a244f648605f8d405dc300","719.3900000420399","","","","39","","","","key","16.749388349514334","683","328.5","true","1","129","12.287999999999998","4","-1","-1","","","","","","","","","","","","",""
"psychophysics","110","343259","0.0-10.0-0.22","5ebfaab9e63b7838c953ac35","609a8bf73b2ac84e2732f618","60a244f648605f8d405dc300","442.9050000035204","","","","39","","","","key","16.74901176470551","683","328.5","true","-1","129","9.8304","5","1","-1","","","","","","","","","","","","",""
"psychophysics","111","344600","0.0-10.0-0.23","5ebfaab9e63b7838c953ac35","609a8bf73b2ac84e2732f618","60a244f648605f8d405dc300","336.940000008326","","","","37","","","","key","16.748278481012676","683","328.5","true","-1","138.8304","9.8304","5","-1","1","","","","","","","","","","","","",""
"psychophysics","112","345906","0.0-10.0-0.24","5ebfaab9e63b7838c953ac35","609a8bf73b2ac84e2732f618","60a244f648605f8d405dc300","302.31999995885417","","","","39","","","","key","16.747116883116767","683","328.5","true","1","138.8304","7.864319999999999","6","-1","-1","","","","","","","","","","","","",""
"psychophysics","113","347915","0.0-10.0-0.25","5ebfaab9e63b7838c953ac35","609a8bf73b2ac84e2732f618","60a244f648605f8d405dc300","1004.6999999904074","","","","37","","","","key","16.74948739495809","683","328.5","true","-1","130.96608","7.864319999999999","6","-1","-1","","","","","","","","","","","","",""
"psychophysics","114","350197","0.0-10.0-0.26","5ebfaab9e63b7838c953ac35","609a8bf73b2ac84e2732f618","60a244f648605f8d405dc300","1278.5600000061095","","","","37","","","","key","16.74973333333317","683","328.5","true","1","130.96608","6.291456","7","1","-1","","","","","","","","","","","","",""
"psychophysics","115","351467","0.0-10.0-0.27","5ebfaab9e63b7838c953ac35","609a8bf73b2ac84e2732f618","60a244f648605f8d405dc300","264.4649999565445","","","","39","","","","key","16.74854666666671","683","328.5","true","1","137.25753600000002","6.291456","7","-1","1","","","","","","","","","","","","",""
"psychophysics","116","352781","0.0-10.0-0.28","5ebfaab9e63b7838c953ac35","609a8bf73b2ac84e2732f618","60a244f648605f8d405dc300","311.165000020992","","","","39","","","","key","16.9664675324676","683","328.5","true","1","137.25753600000002","5.033164800000001","8","-1","-1","","","","","","","","","","","","",""
"psychophysics","117","354040","0.0-10.0-0.29","5ebfaab9e63b7838c953ac35","609a8bf73b2ac84e2732f618","60a244f648605f8d405dc300","254.5599999721162","","","","39","","","","key","16.748283783784075","683","328.5","true","1","132.2243712","5.033164800000001","8","-1","-1","","","","","","","","","","","","",""
"psychophysics","118","355981","0.0-10.0-0.30","5ebfaab9e63b7838c953ac35","609a8bf73b2ac84e2732f618","60a244f648605f8d405dc300","938.7649999698624","","","","39","","","","key","16.749321739130615","683","328.5","true","-1","132.2243712","4.0265318400000005","9","1","-1","","","","","","","","","","","","",""
"psychophysics","119","357272","0.0-10.0-0.31","5ebfaab9e63b7838c953ac35","609a8bf73b2ac84e2732f618","60a244f648605f8d405dc300","284.769999969285","","","","39","","","","key","16.7521842105259","683","328.5","true","1","136.25090304","4.0265318400000005","9","-1","1","","","","","","","","","","","","",""
"psychophysics","120","358572","0.0-10.0-0.32","5ebfaab9e63b7838c953ac35","609a8bf73b2ac84e2732f618","60a244f648605f8d405dc300","295.6000000122003","","","","37","","","","key","16.749052631579136","683","328.5","true","-1","136.25090304","3.2212254720000004","10","-1","-1","","","","","","","","","","","","",""
"psychophysics","121","360184","0.0-10.0-0.33","5ebfaab9e63b7838c953ac35","609a8bf73b2ac84e2732f618","60a244f648605f8d405dc300","606.1050000134856","","","","37","","","","key","16.74768749999991","683","328.5","true","-1","133.029677568","3.2212254720000004","10","-1","-1","","","","","","","","","","","","",""
"psychophysics","122","361499","0.0-10.0-0.34","5ebfaab9e63b7838c953ac35","609a8bf73b2ac84e2732f618","60a244f648605f8d405dc300","312.26500001503155","","","","39","","","","key","16.750480519479908","683","328.5","true","1","133.029677568","3.2212254720000004","10","-1","-1","","","","","","","","","","","","",""
"psychophysics","123","363068","0.0-10.0-0.35","5ebfaab9e63b7838c953ac35","609a8bf73b2ac84e2732f618","60a244f648605f8d405dc300","565.3549999697134","","","","39","","","","key","16.74878494623643","683","328.5","true","-1","129.808452096","2.5769803776000004","11","1","-1","","","","","","","","","","","","",""
"psychophysics","124","364379","0.0-10.0-0.36","5ebfaab9e63b7838c953ac35","609a8bf73b2ac84e2732f618","60a244f648605f8d405dc300","308.45999997109175","","","","39","","","","key","16.749714285714322","683","328.5","true","1","132.3854324736","2.5769803776000004","11","-1","1","","","","","","","","","","","","",""
"psychophysics","125","365752","0.0-10.0-0.37","5ebfaab9e63b7838c953ac35","609a8bf73b2ac84e2732f618","60a244f648605f8d405dc300","369.2750000045635","","","","37","","","","key","16.748691358025052","683","328.5","true","-1","132.3854324736","2.0615843020800004","12","-1","-1","","","","","","","","","","","","",""
"psychophysics","126","367163","0.0-10.0-0.38","5ebfaab9e63b7838c953ac35","609a8bf73b2ac84e2732f618","60a244f648605f8d405dc300","406.46500000730157","","","","39","","","","key","16.748927710842935","683","328.5","true","-1","130.32384817151998","1.6492674416640005","13","1","-1","","","","","","","","","","","","",""
"psychophysics","127","368681","0.0-10.0-0.39","5ebfaab9e63b7838c953ac35","609a8bf73b2ac84e2732f618","60a244f648605f8d405dc300","514.6250000107102","","","","39","","","","key","16.750255555555405","683","328.5","true","1","131.97311561318398","1.6492674416640005","13","-1","1","","","","","","","","","","","","",""
"html-keyboard-response","128","370277","0.0-11.0","5ebfaab9e63b7838c953ac35","609a8bf73b2ac84e2732f618","60a244f648605f8d405dc300","1593.6850000289269","<p>Well Done !</p><p>Prepare for a new block.</p><p>DON'T EXIT THE FULL SCREEN MODE</p><p>Press the Spacebar to start.</p>","","","32","","","","","","","","","","","","","","","true","133.0888944295936","","","","","","","","","","",""
"psychophysics","129","371532","0.0-12.0-0.0","5ebfaab9e63b7838c953ac35","609a8bf73b2ac84e2732f618","60a244f648605f8d405dc300","250.32000005012378","","","","37","","","","key","16.842999999999773","683","328.5","true","-1","180","30","0","-1","","","","","","","","","","","","","",""
"psychophysics","130","372566","0.0-12.0-0.1","5ebfaab9e63b7838c953ac35","609a8bf73b2ac84e2732f618","60a244f648605f8d405dc300","29.039999993983656","","","","39","","","","key","16.74857377049181","683","328.5","true","1","180","30","0","-1","-1","","","","","","","","","","","","",""
"psychophysics","131","373603","0.0-12.0-0.2","5ebfaab9e63b7838c953ac35","609a8bf73b2ac84e2732f618","60a244f648605f8d405dc300","33.26500003458932","","","","39","","","","key","16.750245901639573","683","328.5","true","1","150","30","0","-1","-1","","","","","","","","","","","","",""
"psychophysics","132","374802","0.0-12.0-0.3","5ebfaab9e63b7838c953ac35","609a8bf73b2ac84e2732f618","60a244f648605f8d405dc300","195.3499999945052","","","","37","","","","key","16.748828571428646","683","328.5","true","-1","150","30","0","-1","-1","","","","","","","","","","","","",""
"psychophysics","133","377326","0.0-12.0-0.4","5ebfaab9e63b7838c953ac35","609a8bf73b2ac84e2732f618","60a244f648605f8d405dc300","1518.770000024233","","","","39","","","","key","16.74902000000002","683","328.5","true","1","129","30","0","-1","-1","","","","","","","","","","","","",""
"psychophysics","134","378748","0.0-12.0-0.5","5ebfaab9e63b7838c953ac35","609a8bf73b2ac84e2732f618","60a244f648605f8d405dc300","419.1500000306405","","","","37","","","","key","16.749357142857793","683","328.5","true","1","129","24","1","1","-1","","","","","","","","","","","","",""
"psychophysics","135","380069","0.0-12.0-0.6","5ebfaab9e63b7838c953ac35","609a8bf73b2ac84e2732f618","60a244f648605f8d405dc300","317.33500002883375","","","","37","","","","key","16.751038461538535","683","328.5","true","-1","153","24","1","-1","1","","","","","","","","","","","","",""
"psychophysics","136","381395","0.0-12.0-0.7","5ebfaab9e63b7838c953ac35","609a8bf73b2ac84e2732f618","60a244f648605f8d405dc300","322.3950000246987","","","","37","","","","key","16.747974358974414","683","328.5","true","-1","153","19.2","2","-1","-1","","","","","","","","","","","","",""
"psychophysics","137","382768","0.0-12.0-0.8","5ebfaab9e63b7838c953ac35","609a8bf73b2ac84e2732f618","60a244f648605f8d405dc300","368.2849999750033","","","","37","","","","key","16.749777777778004","683","328.5","true","-1","133.8","19.2","2","-1","-1","","","","","","","","","","","","",""
"psychophysics","138","384059","0.0-12.0-0.9","5ebfaab9e63b7838c953ac35","609a8bf73b2ac84e2732f618","60a244f648605f8d405dc300","286.70999995665625","","","","37","","","","key","16.751618421052914","683","328.5","true","-1","133.8","19.2","2","-1","-1","","","","","","","","","","","","",""
"psychophysics","139","385382","0.0-12.0-0.10","5ebfaab9e63b7838c953ac35","609a8bf73b2ac84e2732f618","60a244f648605f8d405dc300","318.4849999961443","","","","37","","","","key","16.750243589743967","683","328.5","true","1","129","15.36","3","1","-1","","","","","","","","","","","","",""
"psychophysics","140","386655","0.0-12.0-0.11","5ebfaab9e63b7838c953ac35","609a8bf73b2ac84e2732f618","60a244f648605f8d405dc300","270.14500001678243","","","","37","","","","key","16.75098666666619","683","328.5","true","-1","144.36","15.36","3","-1","1","","","","","","","","","","","","",""
"psychophysics","141","387916","0.0-12.0-0.12","5ebfaab9e63b7838c953ac35","609a8bf73b2ac84e2732f618","60a244f648605f8d405dc300","256.26000005286187","","","","39","","","","key","16.749675675676002","683","328.5","true","1","144.36","12.287999999999998","4","-1","-1","","","","","","","","","","","","",""
"psychophysics","142","389922","0.0-12.0-0.13","5ebfaab9e63b7838c953ac35","609a8bf73b2ac84e2732f618","60a244f648605f8d405dc300","999.8250000062399","","","","37","","","","key","16.748873949579664","683","328.5","true","-1","132.072","12.287999999999998","4","-1","-1","","","","","","","","","","","","",""
"psychophysics","143","392115","0.0-12.0-0.14","5ebfaab9e63b7838c953ac35","609a8bf73b2ac84e2732f618","60a244f648605f8d405dc300","1189.1099999775179","","","","39","","","","key","16.749469230769094","683","328.5","true","-1","132.072","9.8304","5","1","-1","","","","","","","","","","","","",""
"psychophysics","144","393301","0.0-12.0-0.15","5ebfaab9e63b7838c953ac35","609a8bf73b2ac84e2732f618","60a244f648605f8d405dc300","181.64500000420958","","","","39","","","","key","16.7489999999999","683","328.5","true","1","141.9024","9.8304","5","-1","1","","","","","","","","","","","","",""
"psychophysics","145","394579","0.0-12.0-0.16","5ebfaab9e63b7838c953ac35","609a8bf73b2ac84e2732f618","60a244f648605f8d405dc300","271.0450000013225","","","","39","","","","key","16.74945333333298","683","328.5","true","1","141.9024","7.864319999999999","6","-1","-1","","","","","","","","","","","","",""
"psychophysics","146","395922","0.0-12.0-0.17","5ebfaab9e63b7838c953ac35","609a8bf73b2ac84e2732f618","60a244f648605f8d405dc300","339.4949999637902","","","","37","","","","key","16.75060759493683","683","328.5","true","-1","134.03808","7.864319999999999","6","-1","-1","","","","","","","","","","","","",""
"psychophysics","147","397196","0.0-12.0-0.18","5ebfaab9e63b7838c953ac35","609a8bf73b2ac84e2732f618","60a244f648605f8d405dc300","271.80999994743615","","","","37","","","","key","16.7508666666667","683","328.5","true","-1","134.03808","7.864319999999999","6","-1","-1","","","","","","","","","","","","",""
"psychophysics","148","398665","0.0-12.0-0.19","5ebfaab9e63b7838c953ac35","609a8bf73b2ac84e2732f618","60a244f648605f8d405dc300","465.3050000197254","","","","37","","","","key","16.750597701149715","683","328.5","true","-1","129","7.864319999999999","6","-1","-1","","","","","","","","","","","","",""
"psychophysics","149","399854","0.0-12.0-0.20","5ebfaab9e63b7838c953ac35","609a8bf73b2ac84e2732f618","60a244f648605f8d405dc300","183.75999998534098","","","","37","","","","key","16.751257142856982","683","328.5","true","1","129","6.291456","7","1","-1","","","","","","","","","","","","",""
"psychophysics","150","400913","0.0-12.0-0.21","5ebfaab9e63b7838c953ac35","609a8bf73b2ac84e2732f618","60a244f648605f8d405dc300","55.28500000946224","","","","37","","","","key","16.74798387096774","683","328.5","true","-1","135.291456","6.291456","7","-1","1","","","","","","","","","","","","",""
"psychophysics","151","402382","0.0-12.0-0.22","5ebfaab9e63b7838c953ac35","609a8bf73b2ac84e2732f618","60a244f648605f8d405dc300","465.4650000156835","","","","37","","","","key","16.747770114942327","683","328.5","true","1","135.291456","5.033164800000001","8","1","-1","","","","","","","","","","","","",""
"psychophysics","152","403527","0.0-12.0-0.23","5ebfaab9e63b7838c953ac35","609a8bf73b2ac84e2732f618","60a244f648605f8d405dc300","140.58499998645857","","","","37","","","","key","16.750194029851276","683","328.5","true","-1","140.32462080000002","5.033164800000001","8","-1","1","","","","","","","","","","","","",""
"psychophysics","153","404818","0.0-12.0-0.24","5ebfaab9e63b7838c953ac35","609a8bf73b2ac84e2732f618","60a244f648605f8d405dc300","286.8000000016764","","","","39","","","","key","16.75030263157877","683","328.5","true","1","140.32462080000002","4.0265318400000005","9","-1","-1","","","","","","","","","","","","",""
"psychophysics","154","405980","0.0-12.0-0.25","5ebfaab9e63b7838c953ac35","609a8bf73b2ac84e2732f618","60a244f648605f8d405dc300","155.70499998284504","","","","39","","","","key","16.748768115942568","683","328.5","true","1","136.29808896000003","4.0265318400000005","9","-1","-1","","","","","","","","","","","","",""
"psychophysics","155","407108","0.0-12.0-0.26","5ebfaab9e63b7838c953ac35","609a8bf73b2ac84e2732f618","60a244f648605f8d405dc300","122.8899999987334","","","","37","","","","key","16.75006060606084","683","328.5","true","-1","136.29808896000003","4.0265318400000005","9","-1","-1","","","","","","","","","","","","",""
"psychophysics","156","409335","0.0-12.0-0.27","5ebfaab9e63b7838c953ac35","609a8bf73b2ac84e2732f618","60a244f648605f8d405dc300","1222.90500003146","","","","37","","","","key","16.750325757575798","683","328.5","true","-1","132.27155712000004","4.0265318400000005","9","-1","-1","","","","","","","","","","","","",""
"psychophysics","157","410735","0.0-12.0-0.28","5ebfaab9e63b7838c953ac35","609a8bf73b2ac84e2732f618","60a244f648605f8d405dc300","396.07999997679144","","","","37","","","","key","16.750084337349197","683","328.5","true","-1","132.27155712000004","4.0265318400000005","9","-1","-1","","","","","","","","","","","","",""
"psychophysics","158","412010","0.0-12.0-0.29","5ebfaab9e63b7838c953ac35","609a8bf73b2ac84e2732f618","60a244f648605f8d405dc300","269.05500004068017","","","","37","","","","key","16.74927999999995","683","328.5","true","1","129","3.2212254720000004","10","1","-1","","","","","","","","","","","","",""
"psychophysics","159","413373","0.0-12.0-0.30","5ebfaab9e63b7838c953ac35","609a8bf73b2ac84e2732f618","60a244f648605f8d405dc300","358.1449999473989","","","","37","","","","key","16.749549999999726","683","328.5","true","1","132.22122547200001","3.2212254720000004","10","1","1","","","","","","","","","","","","",""
"psychophysics","160","414698","0.0-12.0-0.31","5ebfaab9e63b7838c953ac35","609a8bf73b2ac84e2732f618","60a244f648605f8d405dc300","319.9799999711104","","","","37","","","","key","16.74948717948745","683","328.5","true","-1","135.44245094400003","3.2212254720000004","10","-1","1","","","","","","","","","","","","",""
"psychophysics","161","416037","0.0-12.0-0.32","5ebfaab9e63b7838c953ac35","609a8bf73b2ac84e2732f618","60a244f648605f8d405dc300","337.3499999870546","","","","39","","","","key","16.748265822784962","683","328.5","true","1","135.44245094400003","2.5769803776000004","11","-1","-1","","","","","","","","","","","","",""
"psychophysics","162","417890","0.0-12.0-0.33","5ebfaab9e63b7838c953ac35","609a8bf73b2ac84e2732f618","60a244f648605f8d405dc300","850.3299999865703","","","","37","","","","key","16.74873636363614","683","328.5","true","1","132.86547056640003","2.0615843020800004","12","1","-1","","","","","","","","","","","","",""
"psychophysics","163","419068","0.0-12.0-0.34","5ebfaab9e63b7838c953ac35","609a8bf73b2ac84e2732f618","60a244f648605f8d405dc300","176.15999997360632","","","","39","","","","key","16.749521739130497","683","328.5","true","1","134.92705486848004","2.0615843020800004","12","-1","1","","","","","","","","","","","","",""
"psychophysics","164","420406","0.0-12.0-0.35","5ebfaab9e63b7838c953ac35","609a8bf73b2ac84e2732f618","60a244f648605f8d405dc300","333.96999997785315","","","","39","","","","key","16.74935443038003","683","328.5","true","1","134.92705486848004","1.6492674416640005","13","-1","-1","","","","","","","","","","","","",""
"psychophysics","165","422047","0.0-12.0-0.36","5ebfaab9e63b7838c953ac35","609a8bf73b2ac84e2732f618","60a244f648605f8d405dc300","637.7399999764748","","","","37","","","","key","16.74941237113371","683","328.5","true","1","133.27778742681605","1.3194139533312006","14","1","-1","","","","","","","","","","","","",""
"psychophysics","166","424368","0.0-12.0-0.37","5ebfaab9e63b7838c953ac35","609a8bf73b2ac84e2732f618","60a244f648605f8d405dc300","1317.5099999643862","","","","39","","","","key","16.749369565217396","683","328.5","true","-1","134.59720138014725","1.3194139533312006","14","1","1","","","","","","","","","","","","",""
"psychophysics","167","426441","0.0-12.0-0.38","5ebfaab9e63b7838c953ac35","609a8bf73b2ac84e2732f618","60a244f648605f8d405dc300","1066.6849999688566","","","","37","","","","key","16.749811475409945","683","328.5","true","-1","135.91661533347846","1.3194139533312006","14","-1","1","","","","","","","","","","","","",""
"psychophysics","168","427779","0.0-12.0-0.39","5ebfaab9e63b7838c953ac35","609a8bf73b2ac84e2732f618","60a244f648605f8d405dc300","331.609999993816","","","","39","","","","key","16.749974683544576","683","328.5","true","1","135.91661533347846","1.0555311626649604","15","-1","-1","","","","","","","","","","","","",""
"html-keyboard-response","169","431600","0.0-13.0","5ebfaab9e63b7838c953ac35","609a8bf73b2ac84e2732f618","60a244f648605f8d405dc300","3818.2699999888428","<p>Well Done !</p><p>Prepare for a new block.</p><p>DON'T EXIT THE FULL SCREEN MODE</p><p>Press the Spacebar to start.</p>","","","32","","","","","","","","","","","","","","","true","134.11154795315204","","","","","","","","","","",""
"html-keyboard-response","170","431705","0.0-14.0","5ebfaab9e63b7838c953ac35","609a8bf73b2ac84e2732f618","60a244f648605f8d405dc300","null","","","","null","","","","","","","","","","","","","","","","","132.45217920139265","true","136.9043584027853","","","","","","","",""
"instructions","171","459854","0.0-15.0","5ebfaab9e63b7838c953ac35","609a8bf73b2ac84e2732f618","60a244f648605f8d405dc300","28147.36499998253","","","","","","","[{""page_index"":0,""viewing_time"":18949.749999970663},{""page_index"":1,""viewing_time"":1551.7199999885634},{""page_index"":2,""viewing_time"":7645.215000025928}]","","","","","","","","","","","","","","","","","","","","","","","",""
"psychophysics","172","463020","0.0-16.0-0.0","5ebfaab9e63b7838c953ac35","609a8bf73b2ac84e2732f618","60a244f648605f8d405dc300","null","","","","null","","","","key","16.88017647058758","683","328.5","","","","","","","","","","","","","","","","","","","",""
"psychophysics","173","463523","0.0-16.0-1.0","5ebfaab9e63b7838c953ac35","609a8bf73b2ac84e2732f618","60a244f648605f8d405dc300","null","","","","null","","","","key","16.754241379311082","683","328.5","","","","","","","","","","","","","137","-1","0","false","","","",""
"psychophysics","174","467221","0.0-16.0-2.0","5ebfaab9e63b7838c953ac35","609a8bf73b2ac84e2732f618","60a244f648605f8d405dc300","3685.6600000173785","","","","90","","","","key","16.749809090909018","683","328.5","","","","","","","","","","","","","","","","","","","",""
"psychophysics","175","468605","0.0-16.0-0.1","5ebfaab9e63b7838c953ac35","609a8bf73b2ac84e2732f618","60a244f648605f8d405dc300","null","","","","null","","","","key","16.75169512195152","683","328.5","","","","","","","","","","","","","","","","","","","",""
"psychophysics","176","469111","0.0-16.0-1.1","5ebfaab9e63b7838c953ac35","609a8bf73b2ac84e2732f618","60a244f648605f8d405dc300","null","","","","null","","","","key","16.747655172412813","683","328.5","","","","","","","","","","","","","137","1","0","false","","","",""
"psychophysics","177","469662","0.0-16.0-2.1","5ebfaab9e63b7838c953ac35","609a8bf73b2ac84e2732f618","60a244f648605f8d405dc300","547.5250000017695","","","","90","","","","key","16.74565624999923","683","328.5","","","","","","","","","","","","","","","","","","","",""
"psychophysics","178","471012","0.0-16.0-0.2","5ebfaab9e63b7838c953ac35","609a8bf73b2ac84e2732f618","60a244f648605f8d405dc300","null","","","","null","","","","key","16.748088607594777","683","328.5","","","","","","","","","","","","","","","","","","","",""
"psychophysics","179","471517","0.0-16.0-1.2","5ebfaab9e63b7838c953ac35","609a8bf73b2ac84e2732f618","60a244f648605f8d405dc300","null","","","","null","","","","key","16.74523333333394","683","328.5","","","","","","","","","","","","","137","1","5","false","","","",""
"psychophysics","180","472480","0.0-16.0-2.2","5ebfaab9e63b7838c953ac35","609a8bf73b2ac84e2732f618","60a244f648605f8d405dc300","958.6550000240095","","","","77","","","","key","16.74783928571352","683","328.5","","","","","","","","","","","","","","","","","","","",""
"psychophysics","181","473510","0.0-16.0-0.3","5ebfaab9e63b7838c953ac35","609a8bf73b2ac84e2732f618","60a244f648605f8d405dc300","null","","","","null","","","","key","16.749606557377447","683","328.5","","","","","","","","","","","","","","","","","","","",""
"psychophysics","182","474014","0.0-16.0-1.3","5ebfaab9e63b7838c953ac35","609a8bf73b2ac84e2732f618","60a244f648605f8d405dc300","null","","","","null","","","","key","16.750689655173055","683","328.5","","","","","","","","","","","","","137","-1","4","false","","","",""
"psychophysics","183","474540","0.0-16.0-2.3","5ebfaab9e63b7838c953ac35","609a8bf73b2ac84e2732f618","60a244f648605f8d405dc300","506.7150000249967","","","","77","","","","key","16.751233333333705","683","328.5","","","","","","","","","","","","","","","","","","","",""
"psychophysics","184","475616","0.0-16.0-0.4","5ebfaab9e63b7838c953ac35","609a8bf73b2ac84e2732f618","60a244f648605f8d405dc300","null","","","","null","","","","key","16.74877777777793","683","328.5","","","","","","","","","","","","","","","","","","","",""
"psychophysics","185","476123","0.0-16.0-1.4","5ebfaab9e63b7838c953ac35","609a8bf73b2ac84e2732f618","60a244f648605f8d405dc300","null","","","","null","","","","key","16.74650000000062","683","328.5","","","","","","","","","","","","","137","-1","5","false","","","",""
"psychophysics","186","476591","0.0-16.0-2.4","5ebfaab9e63b7838c953ac35","609a8bf73b2ac84e2732f618","60a244f648605f8d405dc300","462.2700000181794","","","","77","","","","key","16.749115384615905","683","328.5","","","","","","","","","","","","","","","","","","","",""
"psychophysics","187","477878","0.0-16.0-0.5","5ebfaab9e63b7838c953ac35","609a8bf73b2ac84e2732f618","60a244f648605f8d405dc300","null","","","","null","","","","key","16.749710526315827","683","328.5","","","","","","","","","","","","","","","","","","","",""
"psychophysics","188","478386","0.0-16.0-1.5","5ebfaab9e63b7838c953ac35","609a8bf73b2ac84e2732f618","60a244f648605f8d405dc300","null","","","","null","","","","key","16.750500000000464","683","328.5","","","","","","","","","","","","","137","-1","2","false","","","",""
"psychophysics","189","478896","0.0-16.0-2.5","5ebfaab9e63b7838c953ac35","609a8bf73b2ac84e2732f618","60a244f648605f8d405dc300","505.3450000123121","","","","90","","","","key","16.751586206897628","683","328.5","","","","","","","","","","","","","","","","","","","",""
"psychophysics","190","480117","0.0-16.0-0.6","5ebfaab9e63b7838c953ac35","609a8bf73b2ac84e2732f618","60a244f648605f8d405dc300","null","","","","null","","","","key","16.748555555555665","683","328.5","","","","","","","","","","","","","","","","","","","",""
"psychophysics","191","480623","0.0-16.0-1.6","5ebfaab9e63b7838c953ac35","609a8bf73b2ac84e2732f618","60a244f648605f8d405dc300","null","","","","null","","","","key","16.7512413793111","683","328.5","","","","","","","","","","","","","137","1","4","false","","","",""
"psychophysics","192","480969","0.0-16.0-2.6","5ebfaab9e63b7838c953ac35","609a8bf73b2ac84e2732f618","60a244f648605f8d405dc300","341.454999987036","","","","77","","","","key","16.74825000000128","683","328.5","","","","","","","","","","","","","","","","","","","",""
"psychophysics","193","482276","0.0-16.0-0.7","5ebfaab9e63b7838c953ac35","609a8bf73b2ac84e2732f618","60a244f648605f8d405dc300","null","","","","null","","","","key","16.748246753246633","683","328.5","","","","","","","","","","","","","","","","","","","",""
"psychophysics","194","482780","0.0-16.0-1.7","5ebfaab9e63b7838c953ac35","609a8bf73b2ac84e2732f618","60a244f648605f8d405dc300","null","","","","null","","","","key","16.74989655172324","683","328.5","","","","","","","","","","","","","137","1","3","false","","","",""
"psychophysics","195","483232","0.0-16.0-2.7","5ebfaab9e63b7838c953ac35","609a8bf73b2ac84e2732f618","60a244f648605f8d405dc300","448.7199999857694","","","","90","","","","key","16.74865384615483","683","328.5","","","","","","","","","","","","","","","","","","","",""
"psychophysics","196","484045","0.0-16.0-0.8","5ebfaab9e63b7838c953ac35","609a8bf73b2ac84e2732f618","60a244f648605f8d405dc300","null","","","","null","","","","key","16.749895833333238","683","328.5","","","","","","","","","","","","","","","","","","","",""
"psychophysics","197","484550","0.0-16.0-1.8","5ebfaab9e63b7838c953ac35","609a8bf73b2ac84e2732f618","60a244f648605f8d405dc300","null","","","","null","","","","key","16.750206896551514","683","328.5","","","","","","","","","","","","","137","1","2","false","","","",""
"psychophysics","198","485946","0.0-16.0-2.8","5ebfaab9e63b7838c953ac35","609a8bf73b2ac84e2732f618","60a244f648605f8d405dc300","1391.6249999892898","","","","77","","","","key","16.749853658536733","683","328.5","","","","","","","","","","","","","","","","","","","",""
"psychophysics","199","487306","0.0-16.0-0.9","5ebfaab9e63b7838c953ac35","609a8bf73b2ac84e2732f618","60a244f648605f8d405dc300","null","","","","null","","","","key","16.749324999999953","683","328.5","","","","","","","","","","","","","","","","","","","",""
"psychophysics","200","487811","0.0-16.0-1.9","5ebfaab9e63b7838c953ac35","609a8bf73b2ac84e2732f618","60a244f648605f8d405dc300","null","","","","null","","","","key","16.748275862069367","683","328.5","","","","","","","","","","","","","137","-1","6","false","","","",""
"psychophysics","201","488295","0.0-16.0-2.9","5ebfaab9e63b7838c953ac35","609a8bf73b2ac84e2732f618","60a244f648605f8d405dc300","476.57499997876585","","","","77","","","","key","16.74592857142852","683","328.5","","","","","","","","","","","","","","","","","","","",""
"psychophysics","202","489361","0.0-16.0-0.10","5ebfaab9e63b7838c953ac35","609a8bf73b2ac84e2732f618","60a244f648605f8d405dc300","null","","","","null","","","","key","16.74884126984167","683","328.5","","","","","","","","","","","","","","","","","","","",""
"psychophysics","203","489865","0.0-16.0-1.10","5ebfaab9e63b7838c953ac35","609a8bf73b2ac84e2732f618","60a244f648605f8d405dc300","null","","","","null","","","","key","16.74631034482696","683","328.5","","","","","","","","","","","","","137","-1","3","false","","","",""
"psychophysics","204","490334","0.0-16.0-2.10","5ebfaab9e63b7838c953ac35","609a8bf73b2ac84e2732f618","60a244f648605f8d405dc300","465.23999999044463","","","","77","","","","key","16.748666666665855","683","328.5","","","","","","","","","","","","","","","","","","","",""
"psychophysics","205","491659","0.0-16.0-0.11","5ebfaab9e63b7838c953ac35","609a8bf73b2ac84e2732f618","60a244f648605f8d405dc300","null","","","","null","","","","key","16.74806410256394","683","328.5","","","","","","","","","","","","","","","","","","","",""
"psychophysics","206","492161","0.0-16.0-1.11","5ebfaab9e63b7838c953ac35","609a8bf73b2ac84e2732f618","60a244f648605f8d405dc300","null","","","","null","","","","key","16.747000000000018","683","328.5","","","","","","","","","","","","","137","1","6","false","","","",""
"psychophysics","207","492281","0.0-16.0-2.11","5ebfaab9e63b7838c953ac35","609a8bf73b2ac84e2732f618","60a244f648605f8d405dc300","115.7600000151433","","","","77","","","","key","16.746166666659217","683","328.5","","","","","","","","","","","","","","","","","","","",""
"psychophysics","208","493195","0.0-16.0-0.12","5ebfaab9e63b7838c953ac35","609a8bf73b2ac84e2732f618","60a244f648605f8d405dc300","null","","","","null","","","","key","16.74718518518515","683","328.5","","","","","","","","","","","","","","","","","","","",""
"psychophysics","209","493697","0.0-16.0-1.12","5ebfaab9e63b7838c953ac35","609a8bf73b2ac84e2732f618","60a244f648605f8d405dc300","null","","","","null","","","","key","16.75365517241278","683","328.5","","","","","","","","","","","","","137","1","3","false","","","",""
"psychophysics","210","493747","0.0-16.0-2.12","5ebfaab9e63b7838c953ac35","609a8bf73b2ac84e2732f618","60a244f648605f8d405dc300","46.34000000078231","","","","77","","","","key","16.79749999998603","683","328.5","","","","","","","","","","","","","","","","","","","",""
"psychophysics","211","495236","0.0-16.0-0.13","5ebfaab9e63b7838c953ac35","609a8bf73b2ac84e2732f618","60a244f648605f8d405dc300","null","","","","null","","","","key","16.7501022727275","683","328.5","","","","","","","","","","","","","","","","","","","",""
"psychophysics","212","495740","0.0-16.0-1.13","5ebfaab9e63b7838c953ac35","609a8bf73b2ac84e2732f618","60a244f648605f8d405dc300","null","","","","null","","","","key","16.74641379310372","683","328.5","","","","","","","","","","","","","137","-1","4","false","","","",""
"psychophysics","213","496837","0.0-16.0-2.13","5ebfaab9e63b7838c953ac35","609a8bf73b2ac84e2732f618","60a244f648605f8d405dc300","1091.6899999720044","","","","90","","","","key","16.749171875000684","683","328.5","","","","","","","","","","","","","","","","","","","",""
"psychophysics","214","498331","0.0-16.0-0.14","5ebfaab9e63b7838c953ac35","609a8bf73b2ac84e2732f618","60a244f648605f8d405dc300","null","","","","null","","","","key","16.748943181818255","683","328.5","","","","","","","","","","","","","","","","","","","",""
"psychophysics","215","498837","0.0-16.0-1.14","5ebfaab9e63b7838c953ac35","609a8bf73b2ac84e2732f618","60a244f648605f8d405dc300","null","","","","null","","","","key","16.749066666666963","683","328.5","","","","","","","","","","","","","137","-1","5","false","","","",""
"psychophysics","216","499367","0.0-16.0-2.14","5ebfaab9e63b7838c953ac35","609a8bf73b2ac84e2732f618","60a244f648605f8d405dc300","525.885000010021","","","","77","","","","key","16.746433333334668","683","328.5","","","","","","","","","","","","","","","","","","","",""
"psychophysics","217","499941","0.0-16.0-0.15","5ebfaab9e63b7838c953ac35","609a8bf73b2ac84e2732f618","60a244f648605f8d405dc300","null","","","","null","","","","key","16.749352941176554","683","328.5","","","","","","","","","","","","","","","","","","","",""
"psychophysics","218","500446","0.0-16.0-1.15","5ebfaab9e63b7838c953ac35","609a8bf73b2ac84e2732f618","60a244f648605f8d405dc300","null","","","","null","","","","key","16.747241379309784","683","328.5","","","","","","","","","","","","","137","1","5","false","","","",""
"psychophysics","219","500776","0.0-16.0-2.15","5ebfaab9e63b7838c953ac35","609a8bf73b2ac84e2732f618","60a244f648605f8d405dc300","326.24500000383705","","","","77","","","","key","16.749611111112042","683","328.5","","","","","","","","","","","","","","","","","","","",""
"psychophysics","220","501703","0.0-16.0-0.16","5ebfaab9e63b7838c953ac35","609a8bf73b2ac84e2732f618","60a244f648605f8d405dc300","null","","","","null","","","","key","16.750199999999975","683","328.5","","","","","","","","","","","","","","","","","","","",""
"psychophysics","221","502208","0.0-16.0-1.16","5ebfaab9e63b7838c953ac35","609a8bf73b2ac84e2732f618","60a244f648605f8d405dc300","null","","","","null","","","","key","16.75158620689562","683","328.5","","","","","","","","","","","","","137","1","6","false","","","",""
"psychophysics","222","502528","0.0-16.0-2.16","5ebfaab9e63b7838c953ac35","609a8bf73b2ac84e2732f618","60a244f648605f8d405dc300","316.48999999742955","","","","77","","","","key","16.7481666666669","683","328.5","","","","","","","","","","","","","","","","","","","",""
"psychophysics","223","503062","0.0-16.0-0.17","5ebfaab9e63b7838c953ac35","609a8bf73b2ac84e2732f618","60a244f648605f8d405dc300","null","","","","null","","","","key","16.748483870967082","683","328.5","","","","","","","","","","","","","","","","","","","",""
"psychophysics","224","503566","0.0-16.0-1.17","5ebfaab9e63b7838c953ac35","609a8bf73b2ac84e2732f618","60a244f648605f8d405dc300","null","","","","null","","","","key","16.75082758620606","683","328.5","","","","","","","","","","","","","137","-1","0","false","","","",""
"psychophysics","225","504399","0.0-16.0-2.17","5ebfaab9e63b7838c953ac35","609a8bf73b2ac84e2732f618","60a244f648605f8d405dc300","829.5750000397675","","","","77","","","","key","16.74942857142875","683","328.5","","","","","","","","","","","","","","","","","","","",""
"psychophysics","226","505390","0.0-16.0-0.18","5ebfaab9e63b7838c953ac35","609a8bf73b2ac84e2732f618","60a244f648605f8d405dc300","null","","","","null","","","","key","16.74722413793166","683","328.5","","","","","","","","","","","","","","","","","","","",""
"psychophysics","227","505893","0.0-16.0-1.18","5ebfaab9e63b7838c953ac35","609a8bf73b2ac84e2732f618","60a244f648605f8d405dc300","null","","","","null","","","","key","16.7512413793111","683","328.5","","","","","","","","","","","","","137","-1","2","false","","","",""
"psychophysics","228","506218","0.0-16.0-2.18","5ebfaab9e63b7838c953ac35","609a8bf73b2ac84e2732f618","60a244f648605f8d405dc300","321.7200000071898","","","","90","","","","key","16.746999999999794","683","328.5","","","","","","","","","","","","","","","","","","","",""
"psychophysics","229","506744","0.0-16.0-0.19","5ebfaab9e63b7838c953ac35","609a8bf73b2ac84e2732f618","60a244f648605f8d405dc300","null","","","","null","","","","key","16.74812903225745","683","328.5","","","","","","","","","","","","","","","","","","","",""
"psychophysics","230","507249","0.0-16.0-1.19","5ebfaab9e63b7838c953ac35","609a8bf73b2ac84e2732f618","60a244f648605f8d405dc300","null","","","","null","","","","key","16.754689655172367","683","328.5","","","","","","","","","","","","","137","1","2","false","","","",""
"psychophysics","231","507857","0.0-16.0-2.19","5ebfaab9e63b7838c953ac35","609a8bf73b2ac84e2732f618","60a244f648605f8d405dc300","605.4349999758415","","","","77","","","","key","16.748799999999548","683","328.5","","","","","","","","","","","","","","","","","","","",""
"psychophysics","232","508737","0.0-16.0-0.20","5ebfaab9e63b7838c953ac35","609a8bf73b2ac84e2732f618","60a244f648605f8d405dc300","null","","","","null","","","","key","16.74865384615371","683","328.5","","","","","","","","","","","","","","","","","","","",""
"psychophysics","233","509240","0.0-16.0-1.20","5ebfaab9e63b7838c953ac35","609a8bf73b2ac84e2732f618","60a244f648605f8d405dc300","null","","","","null","","","","key","16.747413793103046","683","328.5","","","","","","","","","","","","","137","-1","6","false","","","",""
"psychophysics","234","509570","0.0-16.0-2.20","5ebfaab9e63b7838c953ac35","609a8bf73b2ac84e2732f618","60a244f648605f8d405dc300","324.52000002376735","","","","77","","","","key","16.75188888888806","683","328.5","","","","","","","","","","","","","","","","","","","",""
"psychophysics","235","510423","0.0-16.0-0.21","5ebfaab9e63b7838c953ac35","609a8bf73b2ac84e2732f618","60a244f648605f8d405dc300","null","","","","null","","","","key","16.74820000000065","683","328.5","","","","","","","","","","","","","","","","","","","",""
"psychophysics","236","510928","0.0-16.0-1.21","5ebfaab9e63b7838c953ac35","609a8bf73b2ac84e2732f618","60a244f648605f8d405dc300","null","","","","null","","","","key","16.753600000000247","683","328.5","","","","","","","","","","","","","137","1","0","false","","","",""
"psychophysics","237","511312","0.0-16.0-2.21","5ebfaab9e63b7838c953ac35","609a8bf73b2ac84e2732f618","60a244f648605f8d405dc300","379.4150000321679","","","","77","","","","key","16.756999999999866","683","328.5","","","","","","","","","","","","","","","","","","","",""
"psychophysics","238","512546","0.0-16.0-0.22","5ebfaab9e63b7838c953ac35","609a8bf73b2ac84e2732f618","60a244f648605f8d405dc300","null","","","","null","","","","key","16.751356164383388","683","328.5","","","","","","","","","","","","","","","","","","","",""
"psychophysics","239","513051","0.0-16.0-1.22","5ebfaab9e63b7838c953ac35","609a8bf73b2ac84e2732f618","60a244f648605f8d405dc300","null","","","","null","","","","key","16.750137931035013","683","328.5","","","","","","","","","","","","","137","-1","3","false","","","",""
"psychophysics","240","513409","0.0-16.0-2.22","5ebfaab9e63b7838c953ac35","609a8bf73b2ac84e2732f618","60a244f648605f8d405dc300","354.64000003412366","","","","90","","","","key","16.739714285713575","683","328.5","","","","","","","","","","","","","","","","","","","",""
"psychophysics","241","514432","0.0-16.0-0.23","5ebfaab9e63b7838c953ac35","609a8bf73b2ac84e2732f618","60a244f648605f8d405dc300","null","","","","null","","","","key","16.748566666666495","683","328.5","","","","","","","","","","","","","","","","","","","",""
"psychophysics","242","514935","0.0-16.0-1.23","5ebfaab9e63b7838c953ac35","609a8bf73b2ac84e2732f618","60a244f648605f8d405dc300","null","","","","null","","","","key","16.75168965517238","683","328.5","","","","","","","","","","","","","137","1","4","false","","","",""
"psychophysics","243","515303","0.0-16.0-2.23","5ebfaab9e63b7838c953ac35","609a8bf73b2ac84e2732f618","60a244f648605f8d405dc300","363.3350000018254","","","","77","","","","key","16.748761904761306","683","328.5","","","","","","","","","","","","","","","","","","","",""
"html-keyboard-response","244","518463","0.0-17.0","5ebfaab9e63b7838c953ac35","609a8bf73b2ac84e2732f618","60a244f648605f8d405dc300","3156.970000010915","<p>Well Done !</p><p>Training Complete. Press the spacebar to start.</p><p>DON'T EXIT THE FULL SCREEN MODE</p>","","","32","","","","","","","","","","","","","","","","","","","","","","","","","","",""
"psychophysics","245","521699","0.0-18.0-0.0","5ebfaab9e63b7838c953ac35","609a8bf73b2ac84e2732f618","60a244f648605f8d405dc300","null","","","","null","","","","key","16.64601351351342","683","328.5","","","","","","","","","","","","","","","","","","","",""
"psychophysics","246","522207","0.0-18.0-1.0","5ebfaab9e63b7838c953ac35","609a8bf73b2ac84e2732f618","60a244f648605f8d405dc300","null","","","","null","","","","key","16.753448275861267","683","328.5","","","","","","","","","","","","","137","-1","2","true","","","",""
"psychophysics","247","522902","0.0-18.0-2.0","5ebfaab9e63b7838c953ac35","609a8bf73b2ac84e2732f618","60a244f648605f8d405dc300","691.7400000384077","","","","77","","","","key","16.751149999999324","683","328.5","","","","","","","","","","","","","","","","","","","",""
"psychophysics","248","523801","0.0-18.0-0.1","5ebfaab9e63b7838c953ac35","609a8bf73b2ac84e2732f618","60a244f648605f8d405dc300","null","","","","null","","","","key","16.75033962264007","683","328.5","","","","","","","","","","","","","","","","","","","",""
"psychophysics","249","524305","0.0-18.0-1.1","5ebfaab9e63b7838c953ac35","609a8bf73b2ac84e2732f618","60a244f648605f8d405dc300","null","","","","null","","","","key","16.745034482759618","683","328.5","","","","","","","","","","","","","137","1","3","true","","","",""
"psychophysics","250","524601","0.0-18.0-2.1","5ebfaab9e63b7838c953ac35","609a8bf73b2ac84e2732f618","60a244f648605f8d405dc300","290.915000019595","","","","77","","","","key","16.74129411764443","683","328.5","","","","","","","","","","","","","","","","","","","",""
"psychophysics","251","525425","0.0-18.0-0.2","5ebfaab9e63b7838c953ac35","609a8bf73b2ac84e2732f618","60a244f648605f8d405dc300","null","","","","null","","","","key","16.747437499999553","683","328.5","","","","","","","","","","","","","","","","","","","",""
"psychophysics","252","525929","0.0-18.0-1.2","5ebfaab9e63b7838c953ac35","609a8bf73b2ac84e2732f618","60a244f648605f8d405dc300","null","","","","null","","","","key","16.74906896551718","683","328.5","","","","","","","","","","","","","137","-1","4","true","","","",""
"psychophysics","253","526349","0.0-18.0-2.2","5ebfaab9e63b7838c953ac35","609a8bf73b2ac84e2732f618","60a244f648605f8d405dc300","416.10999999102205","","","","77","","","","key","16.750708333333023","683","328.5","","","","","","","","","","","","","","","","","","","",""
"psychophysics","254","527355","0.0-18.0-0.3","5ebfaab9e63b7838c953ac35","609a8bf73b2ac84e2732f618","60a244f648605f8d405dc300","null","","","","null","","","","key","16.748186440678644","683","328.5","","","","","","","","","","","","","","","","","","","",""
"psychophysics","255","527859","0.0-18.0-1.3","5ebfaab9e63b7838c953ac35","609a8bf73b2ac84e2732f618","60a244f648605f8d405dc300","null","","","","null","","","","key","16.75651724137976","683","328.5","","","","","","","","","","","","","137","1","4","true","","","",""
"psychophysics","256","528153","0.0-18.0-2.3","5ebfaab9e63b7838c953ac35","609a8bf73b2ac84e2732f618","60a244f648605f8d405dc300","284.58499995758757","","","","77","","","","key","16.747882352943314","683","328.5","","","","","","","","","","","","","","","","","","","",""
"psychophysics","257","529647","0.0-18.0-0.4","5ebfaab9e63b7838c953ac35","609a8bf73b2ac84e2732f618","60a244f648605f8d405dc300","null","","","","null","","","","key","16.751636363636035","683","328.5","","","","","","","","","","","","","","","","","","","",""
"psychophysics","258","530152","0.0-18.0-1.4","5ebfaab9e63b7838c953ac35","609a8bf73b2ac84e2732f618","60a244f648605f8d405dc300","null","","","","null","","","","key","16.74368965516975","683","328.5","","","","","","","","","","","","","137","-1","6","true","","","",""
"psychophysics","259","530604","0.0-18.0-2.4","5ebfaab9e63b7838c953ac35","609a8bf73b2ac84e2732f618","60a244f648605f8d405dc300","443.8899999950081","","","","77","","","","key","16.750961538462434","683","328.5","","","","","","","","","","","","","","","","","","","",""
"psychophysics","260","531139","0.0-18.0-0.5","5ebfaab9e63b7838c953ac35","609a8bf73b2ac84e2732f618","60a244f648605f8d405dc300","null","","","","null","","","","key","16.752161290323844","683","328.5","","","","","","","","","","","","","","","","","","","",""
"psychophysics","261","531643","0.0-18.0-1.5","5ebfaab9e63b7838c953ac35","609a8bf73b2ac84e2732f618","60a244f648605f8d405dc300","null","","","","null","","","","key","16.7460689655192","683","328.5","","","","","","","","","","","","","137","1","5","true","","","",""
"psychophysics","262","532825","0.0-18.0-2.5","5ebfaab9e63b7838c953ac35","609a8bf73b2ac84e2732f618","60a244f648605f8d405dc300","1170.6349999876693","","","","77","","","","key","16.749885714285274","683","328.5","","","","","","","","","","","","","","","","","","","",""
"psychophysics","263","534074","0.0-18.0-0.6","5ebfaab9e63b7838c953ac35","609a8bf73b2ac84e2732f618","60a244f648605f8d405dc300","null","","","","null","","","","key","16.75042465753528","683","328.5","","","","","","","","","","","","","","","","","","","",""
"psychophysics","264","534581","0.0-18.0-1.6","5ebfaab9e63b7838c953ac35","609a8bf73b2ac84e2732f618","60a244f648605f8d405dc300","null","","","","null","","","","key","16.753366666667475","683","328.5","","","","","","","","","","","","","137","1","6","true","","","",""
"psychophysics","265","534871","0.0-18.0-2.6","5ebfaab9e63b7838c953ac35","609a8bf73b2ac84e2732f618","60a244f648605f8d405dc300","285.36999999778345","","","","77","","","","key","16.75031250000029","683","328.5","","","","","","","","","","","","","","","","","","","",""
"psychophysics","266","536044","0.0-18.0-0.7","5ebfaab9e63b7838c953ac35","609a8bf73b2ac84e2732f618","60a244f648605f8d405dc300","null","","","","null","","","","key","16.748999999999743","683","328.5","","","","","","","","","","","","","","","","","","","",""
"psychophysics","267","536548","0.0-18.0-1.7","5ebfaab9e63b7838c953ac35","609a8bf73b2ac84e2732f618","60a244f648605f8d405dc300","null","","","","null","","","","key","16.748931034484173","683","328.5","","","","","","","","","","","","","137","1","0","true","","","",""
"psychophysics","268","536851","0.0-18.0-2.7","5ebfaab9e63b7838c953ac35","609a8bf73b2ac84e2732f618","60a244f648605f8d405dc300","298.77499997382984","","","","77","","","","key","16.74935294117313","683","328.5","","","","","","","","","","","","","","","","","","","",""
"psychophysics","269","537508","0.0-18.0-0.8","5ebfaab9e63b7838c953ac35","609a8bf73b2ac84e2732f618","60a244f648605f8d405dc300","null","","","","null","","","","key","16.748342105264065","683","328.5","","","","","","","","","","","","","","","","","","","",""
"psychophysics","270","538014","0.0-18.0-1.8","5ebfaab9e63b7838c953ac35","609a8bf73b2ac84e2732f618","60a244f648605f8d405dc300","null","","","","null","","","","key","16.75256666666828","683","328.5","","","","","","","","","","","","","137","1","2","true","","","",""
"psychophysics","271","538330","0.0-18.0-2.8","5ebfaab9e63b7838c953ac35","609a8bf73b2ac84e2732f618","60a244f648605f8d405dc300","311.0699999961071","","","","77","","","","key","16.75394117647289","683","328.5","","","","","","","","","","","","","","","","","","","",""
"psychophysics","272","539288","0.0-18.0-0.9","5ebfaab9e63b7838c953ac35","609a8bf73b2ac84e2732f618","60a244f648605f8d405dc300","null","","","","null","","","","key","16.748333333333825","683","328.5","","","","","","","","","","","","","","","","","","","",""
"psychophysics","273","539794","0.0-18.0-1.9","5ebfaab9e63b7838c953ac35","609a8bf73b2ac84e2732f618","60a244f648605f8d405dc300","null","","","","null","","","","key","16.746172413791946","683","328.5","","","","","","","","","","","","","137","-1","5","true","","","",""
"psychophysics","274","540193","0.0-18.0-2.9","5ebfaab9e63b7838c953ac35","609a8bf73b2ac84e2732f618","60a244f648605f8d405dc300","395.02499997615814","","","","77","","","","key","16.74399999999846","683","328.5","","","","","","","","","","","","","","","","","","","",""
"psychophysics","275","540836","0.0-18.0-0.10","5ebfaab9e63b7838c953ac35","609a8bf73b2ac84e2732f618","60a244f648605f8d405dc300","null","","","","null","","","","key","16.747891891892447","683","328.5","","","","","","","","","","","","","","","","","","","",""
"psychophysics","276","541339","0.0-18.0-1.10","5ebfaab9e63b7838c953ac35","609a8bf73b2ac84e2732f618","60a244f648605f8d405dc300","null","","","","null","","","","key","17.34403571428681","683","328.5","","","","","","","","","","","","","137","-1","3","true","","","",""
"psychophysics","277","541771","0.0-18.0-2.10","5ebfaab9e63b7838c953ac35","609a8bf73b2ac84e2732f618","60a244f648605f8d405dc300","428.1349999946542","","","","77","","","","key","16.74587999999989","683","328.5","","","","","","","","","","","","","","","","","","","",""
"psychophysics","278","542928","0.0-18.0-0.11","5ebfaab9e63b7838c953ac35","609a8bf73b2ac84e2732f618","60a244f648605f8d405dc300","null","","","","null","","","","key","16.750426470587946","683","328.5","","","","","","","","","","","","","","","","","","","",""
"psychophysics","279","543432","0.0-18.0-1.11","5ebfaab9e63b7838c953ac35","609a8bf73b2ac84e2732f618","60a244f648605f8d405dc300","null","","","","null","","","","key","16.751896551725903","683","328.5","","","","","","","","","","","","","137","-1","0","true","","","",""
"psychophysics","280","544066","0.0-18.0-2.11","5ebfaab9e63b7838c953ac35","609a8bf73b2ac84e2732f618","60a244f648605f8d405dc300","629.1949999867938","","","","77","","","","key","16.74821621621644","683","328.5","","","","","","","","","","","","","","","","","","","",""
"psychophysics","281","545301","0.0-18.0-0.12","5ebfaab9e63b7838c953ac35","609a8bf73b2ac84e2732f618","60a244f648605f8d405dc300","null","","","","null","","","","key","16.749657534246257","683","328.5","","","","","","","","","","","","","","","","","","","",""
"psychophysics","282","545805","0.0-18.0-1.12","5ebfaab9e63b7838c953ac35","609a8bf73b2ac84e2732f618","60a244f648605f8d405dc300","null","","","","null","","","","key","16.746275862068707","683","328.5","","","","","","","","","","","","","137","-1","6","true","","","",""
"psychophysics","283","546464","0.0-18.0-2.12","5ebfaab9e63b7838c953ac35","609a8bf73b2ac84e2732f618","60a244f648605f8d405dc300","655.544999986887","","","","90","","","","key","16.747157894736645","683","328.5","","","","","","","","","","","","","","","","","","","",""
"psychophysics","284","547394","0.0-18.0-0.13","5ebfaab9e63b7838c953ac35","609a8bf73b2ac84e2732f618","60a244f648605f8d405dc300","null","","","","null","","","","key","16.75005454545502","683","328.5","","","","","","","","","","","","","","","","","","","",""
"psychophysics","285","547901","0.0-18.0-1.13","5ebfaab9e63b7838c953ac35","609a8bf73b2ac84e2732f618","60a244f648605f8d405dc300","null","","","","null","","","","key","16.753103448278754","683","328.5","","","","","","","","","","","","","137","1","3","true","","","",""
"psychophysics","286","548044","0.0-18.0-2.13","5ebfaab9e63b7838c953ac35","609a8bf73b2ac84e2732f618","60a244f648605f8d405dc300","138.47000000532717","","","","77","","","","key","16.739857142857677","683","328.5","","","","","","","","","","","","","","","","","","","",""
"psychophysics","287","549260","0.0-18.0-0.14","5ebfaab9e63b7838c953ac35","609a8bf73b2ac84e2732f618","60a244f648605f8d405dc300","null","","","","null","","","","key","16.750666666665992","683","328.5","","","","","","","","","","","","","","","","","","","",""
"psychophysics","288","549762","0.0-18.0-1.14","5ebfaab9e63b7838c953ac35","609a8bf73b2ac84e2732f618","60a244f648605f8d405dc300","null","","","","null","","","","key","16.749206896550184","683","328.5","","","","","","","","","","","","","137","1","2","true","","","",""
"psychophysics","289","549882","0.0-18.0-2.14","5ebfaab9e63b7838c953ac35","609a8bf73b2ac84e2732f618","60a244f648605f8d405dc300","115.28999998699874","","","","77","","","","key","16.72483333334094","683","328.5","","","","","","","","","","","","","","","","","","","",""
"psychophysics","290","550692","0.0-18.0-0.15","5ebfaab9e63b7838c953ac35","609a8bf73b2ac84e2732f618","60a244f648605f8d405dc300","null","","","","null","","","","key","17.106340425529893","683","328.5","","","","","","","","","","","","","","","","","","","",""
"psychophysics","291","551198","0.0-18.0-1.15","5ebfaab9e63b7838c953ac35","609a8bf73b2ac84e2732f618","60a244f648605f8d405dc300","null","","","","null","","","","key","16.75489655172388","683","328.5","","","","","","","","","","","","","137","-1","0","true","","","",""
"psychophysics","292","551624","0.0-18.0-2.15","5ebfaab9e63b7838c953ac35","609a8bf73b2ac84e2732f618","60a244f648605f8d405dc300","423.3799999929033","","","","90","","","","key","16.749208333334536","683","328.5","","","","","","","","","","","","","","","","","","","",""
"psychophysics","293","552730","0.0-18.0-0.16","5ebfaab9e63b7838c953ac35","609a8bf73b2ac84e2732f618","60a244f648605f8d405dc300","null","","","","null","","","","key","16.751353846153673","683","328.5","","","","","","","","","","","","","","","","","","","",""
"psychophysics","294","553233","0.0-18.0-1.16","5ebfaab9e63b7838c953ac35","609a8bf73b2ac84e2732f618","60a244f648605f8d405dc300","null","","","","null","","","","key","16.751862068965647","683","328.5","","","","","","","","","","","","","137","1","6","true","","","",""
"psychophysics","295","553461","0.0-18.0-2.16","5ebfaab9e63b7838c953ac35","609a8bf73b2ac84e2732f618","60a244f648605f8d405dc300","216.1799999885261","","","","77","","","","key","16.750153846152198","683","328.5","","","","","","","","","","","","","","","","","","","",""
"psychophysics","296","554852","0.0-18.0-0.17","5ebfaab9e63b7838c953ac35","609a8bf73b2ac84e2732f618","60a244f648605f8d405dc300","null","","","","null","","","","key","16.749512195121497","683","328.5","","","","","","","","","","","","","","","","","","","",""
"psychophysics","297","555356","0.0-18.0-1.17","5ebfaab9e63b7838c953ac35","609a8bf73b2ac84e2732f618","60a244f648605f8d405dc300","null","","","","null","","","","key","16.751241379313107","683","328.5","","","","","","","","","","","","","137","-1","4","true","","","",""
"psychophysics","298","555695","0.0-18.0-2.17","5ebfaab9e63b7838c953ac35","609a8bf73b2ac84e2732f618","60a244f648605f8d405dc300","334.59500002209097","","","","77","","","","key","16.758736842109723","683","328.5","","","","","","","","","","","","","","","","","","","",""
"psychophysics","299","556849","0.0-18.0-0.18","5ebfaab9e63b7838c953ac35","609a8bf73b2ac84e2732f618","60a244f648605f8d405dc300","null","","","","null","","","","key","16.751132352940175","683","328.5","","","","","","","","","","","","","","","","","","","",""
"psychophysics","300","557354","0.0-18.0-1.18","5ebfaab9e63b7838c953ac35","609a8bf73b2ac84e2732f618","60a244f648605f8d405dc300","null","","","","null","","","","key","16.753551724138028","683","328.5","","","","","","","","","","","","","137","-1","2","true","","","",""
"psychophysics","301","558501","0.0-18.0-2.18","5ebfaab9e63b7838c953ac35","609a8bf73b2ac84e2732f618","60a244f648605f8d405dc300","1144.094999996014","","","","90","","","","key","16.74926470588338","683","328.5","","","","","","","","","","","","","","","","","","","",""
"psychophysics","302","559230","0.0-18.0-0.19","5ebfaab9e63b7838c953ac35","609a8bf73b2ac84e2732f618","60a244f648605f8d405dc300","null","","","","null","","","","key","16.75057142857085","683","328.5","","","","","","","","","","","","","","","","","","","",""
"psychophysics","303","559737","0.0-18.0-1.19","5ebfaab9e63b7838c953ac35","609a8bf73b2ac84e2732f618","60a244f648605f8d405dc300","null","","","","null","","","","key","16.74549999999969","683","328.5","","","","","","","","","","","","","137","1","0","true","","","",""
"psychophysics","304","560114","0.0-18.0-2.19","5ebfaab9e63b7838c953ac35","609a8bf73b2ac84e2732f618","60a244f648605f8d405dc300","371.7049999977462","","","","77","","","","key","16.751952380956418","683","328.5","","","","","","","","","","","","","","","","","","","",""
"psychophysics","305","561031","0.0-18.0-0.20","5ebfaab9e63b7838c953ac35","609a8bf73b2ac84e2732f618","60a244f648605f8d405dc300","null","","","","null","","","","key","16.74909259259261","683","328.5","","","","","","","","","","","","","","","","","","","",""
"psychophysics","306","561534","0.0-18.0-1.20","5ebfaab9e63b7838c953ac35","609a8bf73b2ac84e2732f618","60a244f648605f8d405dc300","null","","","","null","","","","key","16.7532068965515","683","328.5","","","","","","","","","","","","","137","-1","5","true","","","",""
"psychophysics","307","561813","0.0-18.0-2.20","5ebfaab9e63b7838c953ac35","609a8bf73b2ac84e2732f618","60a244f648605f8d405dc300","276.00499999243766","","","","77","","","","key","16.746875000004366","683","328.5","","","","","","","","","","","","","","","","","","","",""
"psychophysics","308","563169","0.0-18.0-0.21","5ebfaab9e63b7838c953ac35","609a8bf73b2ac84e2732f618","60a244f648605f8d405dc300","null","","","","null","","","","key","16.750587500000258","683","328.5","","","","","","","","","","","","","","","","","","","",""
"psychophysics","309","563673","0.0-18.0-1.21","5ebfaab9e63b7838c953ac35","609a8bf73b2ac84e2732f618","60a244f648605f8d405dc300","null","","","","null","","","","key","16.757793103445096","683","328.5","","","","","","","","","","","","","137","1","5","true","","","",""
"psychophysics","310","563963","0.0-18.0-2.21","5ebfaab9e63b7838c953ac35","609a8bf73b2ac84e2732f618","60a244f648605f8d405dc300","284.5550000201911","","","","77","","","","key","16.74187499999971","683","328.5","","","","","","","","","","","","","","","","","","","",""
"psychophysics","311","564603","0.0-18.0-0.22","5ebfaab9e63b7838c953ac35","609a8bf73b2ac84e2732f618","60a244f648605f8d405dc300","null","","","","null","","","","key","16.749027027024862","683","328.5","","","","","","","","","","","","","","","","","","","",""
"psychophysics","312","565106","0.0-18.0-1.22","5ebfaab9e63b7838c953ac35","609a8bf73b2ac84e2732f618","60a244f648605f8d405dc300","null","","","","null","","","","key","16.746137931035705","683","328.5","","","","","","","","","","","","","137","-1","3","true","","","",""
"psychophysics","313","565653","0.0-18.0-2.22","5ebfaab9e63b7838c953ac35","609a8bf73b2ac84e2732f618","60a244f648605f8d405dc300","542.6100000040606","","","","90","","","","key","16.748812499998166","683","328.5","","","","","","","","","","","","","","","","","","","",""
"psychophysics","314","566588","0.0-18.0-0.23","5ebfaab9e63b7838c953ac35","609a8bf73b2ac84e2732f618","60a244f648605f8d405dc300","null","","","","null","","","","key","16.75129090909084","683","328.5","","","","","","","","","","","","","","","","","","","",""
"psychophysics","315","567094","0.0-18.0-1.23","5ebfaab9e63b7838c953ac35","609a8bf73b2ac84e2732f618","60a244f648605f8d405dc300","null","","","","null","","","","key","16.747000000002025","683","328.5","","","","","","","","","","","","","137","1","4","true","","","",""
"psychophysics","316","567397","0.0-18.0-2.23","5ebfaab9e63b7838c953ac35","609a8bf73b2ac84e2732f618","60a244f648605f8d405dc300","299.1000000038184","","","","77","","","","key","16.757235294118907","683","328.5","","","","","","","","","","","","","","","","","","","",""
"psychophysics","317","568751","0.0-18.0-0.24","5ebfaab9e63b7838c953ac35","609a8bf73b2ac84e2732f618","60a244f648605f8d405dc300","null","","","","null","","","","key","16.749124999999186","683","328.5","","","","","","","","","","","","","","","","","","","",""
"psychophysics","318","569256","0.0-18.0-1.24","5ebfaab9e63b7838c953ac35","609a8bf73b2ac84e2732f618","60a244f648605f8d405dc300","null","","","","null","","","","key","16.74658620689498","683","328.5","","","","","","","","","","","","","137","-1","0","true","","","",""
"psychophysics","319","569635","0.0-18.0-2.24","5ebfaab9e63b7838c953ac35","609a8bf73b2ac84e2732f618","60a244f648605f8d405dc300","374.5300000300631","","","","90","","","","key","16.75090476190893","683","328.5","","","","","","","","","","","","","","","","","","","",""
"psychophysics","320","571085","0.0-18.0-0.25","5ebfaab9e63b7838c953ac35","609a8bf73b2ac84e2732f618","60a244f648605f8d405dc300","null","","","","null","","","","key","16.749058139534817","683","328.5","","","","","","","","","","","","","","","","","","","",""
"psychophysics","321","571588","0.0-18.0-1.25","5ebfaab9e63b7838c953ac35","609a8bf73b2ac84e2732f618","60a244f648605f8d405dc300","null","","","","null","","","","key","16.748034482761607","683","328.5","","","","","","","","","","","","","137","1","3","true","","","",""
"psychophysics","322","571917","0.0-18.0-2.25","5ebfaab9e63b7838c953ac35","609a8bf73b2ac84e2732f618","60a244f648605f8d405dc300","325.3499999991618","","","","77","","","","key","16.751736842108105","683","328.5","","","","","","","","","","","","","","","","","","","",""
"psychophysics","323","572787","0.0-18.0-0.26","5ebfaab9e63b7838c953ac35","609a8bf73b2ac84e2732f618","60a244f648605f8d405dc300","null","","","","null","","","","key","16.746666666668126","683","328.5","","","","","","","","","","","","","","","","","","","",""
"psychophysics","324","573291","0.0-18.0-1.26","5ebfaab9e63b7838c953ac35","609a8bf73b2ac84e2732f618","60a244f648605f8d405dc300","null","","","","null","","","","key","16.74796551724109","683","328.5","","","","","","","","","","","","","137","-1","5","true","","","",""
"psychophysics","325","573631","0.0-18.0-2.26","5ebfaab9e63b7838c953ac35","609a8bf73b2ac84e2732f618","60a244f648605f8d405dc300","337.2200000449084","","","","77","","","","key","16.741789473686367","683","328.5","","","","","","","","","","","","","","","","","","","",""
"psychophysics","326","574326","0.0-18.0-0.27","5ebfaab9e63b7838c953ac35","609a8bf73b2ac84e2732f618","60a244f648605f8d405dc300","null","","","","null","","","","key","16.74795121951142","683","328.5","","","","","","","","","","","","","","","","","","","",""
"psychophysics","327","574831","0.0-18.0-1.27","5ebfaab9e63b7838c953ac35","609a8bf73b2ac84e2732f618","60a244f648605f8d405dc300","null","","","","null","","","","key","16.744999999999358","683","328.5","","","","","","","","","","","","","137","1","2","true","","","",""
"psychophysics","328","575203","0.0-18.0-2.27","5ebfaab9e63b7838c953ac35","609a8bf73b2ac84e2732f618","60a244f648605f8d405dc300","368.3900000178255","","","","77","","","","key","16.746714285713445","683","328.5","","","","","","","","","","","","","","","","","","","",""
"psychophysics","329","576025","0.0-18.0-0.28","5ebfaab9e63b7838c953ac35","609a8bf73b2ac84e2732f618","60a244f648605f8d405dc300","null","","","","null","","","","key","16.748770833333158","683","328.5","","","","","","","","","","","","","","","","","","","",""
