"trial_type","trial_index","time_elapsed","internal_node_id","PROLIFIC_PID","STUDY_ID","SESSION_ID","rt","stimulus","button_pressed","success","key_press","responses","isData","view_history","response_type","avg_frame_time","center_x","center_y","isSC","stim_side","trial_luminance","step_size","nReversal","correct","prev_ans","isThreshold","SC_threshold","final_threshold","isLuminance","FF_luminance","luminance","stimSide","ISInt","isFF","question_order","isSPQ","isCAPS","isAQ"
"pavlovia","0","22","0.0-0.0","5ed556715b338d0d1597dad9","609a8bf73b2ac84e2732f618","60a2453392245cc4c9245858","","","","","","","","","","","","","","","","","","","","","","","","","","","","","","","",""
"html-button-response","1","18416","0.0-1.0","5ed556715b338d0d1597dad9","609a8bf73b2ac84e2732f618","60a2453392245cc4c9245858","18385.999999998603","<div style='background-color: white; width:60%; margin: auto; padding: 50px; text-align: justify; text-justify: inter-word; margin-bottom: 20px;'><h1 style='text-align: center;'>Consent Form</h1><p>Please read this consent form carefully before deciding whether you would like to participate in this study. You have to be 18 years old or older to participate to this study.</p><p style='text-decoration: underline;'>Participation is voluntary:</p><p>It is your choice whether or not to participate in this research. If you choose to participate, you may change your mind and leave the study at any time. Refusal to participate or stopping your participation will involve no penalty or loss of benefits to which you are otherwise entitled.</p><p style='text-decoration: underline;'>Purpose of the Study:</p><p>To understand the mechanisms underlying human perception.</p><p style='text-decoration: underline;'>What you will do in this study:</p><p>You will be presented with a series of visual images and then you will press buttons on the keyboard of your computer to respond to simple questions about the images (e.g. Were one or two images presented?). In addition, you will be asked to complete a questionnaire concerning your beliefs and everyday mental and perceptual experiences.'</p><p style='text-decoration: underline;'> Time Required:</p><p>The study will take 40 minutes to complete. </p><p style='text-decoration: underline;'>Risks:</p><p>There are no anticipated risks associated with participating in this study that are beyond those experienced in everyday life. </p><p style='text-decoration: underline;'>Benefits:</p><p>There are no benefits to you in participating in the study. However, this study may lead to a better understanding of how different kinds of visual information are used.</p><p style='text-decoration: underline;'>Compensation:</p><p>You will be paid US$6.6/hour. </p><p style='text-decoration: underline;'>Privacy and Confidentiality:</p><p>Your participation in this study will be anonymous. No personal information about your name or identity will be asked or recorded. This anonymous data will be stored for several years and may be used for a variety of research purposes. The overall results of the study may be published, or the data files may be shared with other researchers, but your identity will not be revealed in any way. The online services we are using for this study may temporarily store your data, but this data will be downloaded and then promptly deleted from those services.Your data will not be permanently associated with your name, IP address, or any other identifiable information (e.g., your information will only be connected to your payment, not to any of your responses), though they may be temporarily stored together before we download and separate them. Even so, no guarantee of internet survey security can be given because, although unlikely, transmissions can be intercepted and IP addresses can be identified. The anonymous data may be shared publicly (for example, in conjunction with a resulting academic publication).</p><p style='text-decoration: underline;'>Participation and Withdrawal:</p><p>Your participation in this study is completely voluntary. You may stop responding to the stimuli or stop answering questions if you so choose and without penalty by exiting the full screen mode, closing this tab of your browser or redirecting it to a different website.</p><p style='text-decoration: underline;'>Contact Info of the Researcher: </p><p>If you have questions about this study, or if you would like to talk to the research team, please contact David Melcher (david.melcher@nyu.edu, md5050@nyu.edu) at the Perception and Active Cognition Laboratory, New York University Abu Dhabi, Computational Research Building, Saadiyat Island, Abu Dhabi, UAE.This research has been reviewed by the New York University Abu Dhabi Institutional Review Board (NYUAD IRB). To contact about your rights in this research, for questions, suggestions, or complaints that are not addressed by the researchers, please email IRBnyuad@nyu.edu, or call the NYUAD IRB at +971 2 628 4313. </p></div>","0","","","","","","","","","","","","","","","","","","","","","","","","","","","","",""
"fullscreen","2","23199","0.0-2.0","5ed556715b338d0d1597dad9","609a8bf73b2ac84e2732f618","60a2453392245cc4c9245858","","","","true","","","","","","","","","","","","","","","","","","","","","","","","","","","",""
"html-keyboard-response","3","39004","0.0-3.0","5ed556715b338d0d1597dad9","609a8bf73b2ac84e2732f618","60a2453392245cc4c9245858","15804.000000003725","<p>Welcome !</p><p>READ CAREFULLY THE FOLLOWING INDICATIONS:</p><p>From this moment you have ~40 minutes to complete the experiment.</p><p>During the experiment you will be prompted to take several breaks. Each break should not last longer than 2-3 minutes.</p><p>Make sure that your computer is plugged in and it's not running on battery power, even if the battery is already fully charged.</p><p>Turn off your phone and music, make sure that you are in a quiet room and that you will not be distracted for the next hour.</p><p>Failure to comply with the instructions and indications provided during the experiment will most likely result in the rejection of your data.<p>Press the spacebar to start.</p>","","","32","","","","","","","","","","","","","","","","","","","","","","","","","","",""
"survey-html-form","4","48458","0.0-4.0","5ed556715b338d0d1597dad9","609a8bf73b2ac84e2732f618","60a2453392245cc4c9245858","9448.000000033062","","","","","{""age"":""59"",""sex"":""F""}","true","","","","","","","","","","","","","","","","","","","","","","","","",""
"instructions","5","116967","0.0-5.0","5ed556715b338d0d1597dad9","609a8bf73b2ac84e2732f618","60a2453392245cc4c9245858","68507.99999997253","","","","","","","[{""page_index"":0,""viewing_time"":47777.00000000186},{""page_index"":1,""viewing_time"":10057.999999960884},{""page_index"":2,""viewing_time"":10672.00000002049}]","","","","","","","","","","","","","","","","","","","","","","","",""
"psychophysics","6","119301","0.0-6.0-0.0","5ed556715b338d0d1597dad9","609a8bf73b2ac84e2732f618","60a2453392245cc4c9245858","1310.9999999869615","","","","37","","","","key","17.3936716417911","683","328.5","true","-1","180","30","0","-1","","","","","","","","","","","","","",""
"psychophysics","7","121867","0.0-6.0-0.1","5ed556715b338d0d1597dad9","609a8bf73b2ac84e2732f618","60a2453392245cc4c9245858","1562.000000034459","","","","37","","","","key","16.991573333333363","683","328.5","true","1","180","30","0","1","-1","","","","","","","","","","","","",""
"psychophysics","8","123125","0.0-6.0-0.2","5ed556715b338d0d1597dad9","609a8bf73b2ac84e2732f618","60a2453392245cc4c9245858","255.0000000046566","","","","39","","","","key","16.997698630136917","683","328.5","true","1","210","30","0","-1","1","","","","","","","","","","","","",""
"psychophysics","9","125438","0.0-6.0-0.3","5ed556715b338d0d1597dad9","609a8bf73b2ac84e2732f618","60a2453392245cc4c9245858","1309.9999999976717","","","","39","","","","key","17.01641481481471","683","328.5","true","1","210","24","1","-1","-1","","","","","","","","","","","","",""
"psychophysics","10","127361","0.0-6.0-0.4","5ed556715b338d0d1597dad9","609a8bf73b2ac84e2732f618","60a2453392245cc4c9245858","913.9999999897555","","","","37","","","","key","16.76799999999987","683","328.5","true","-1","186","24","1","-1","-1","","","","","","","","","","","","",""
"psychophysics","11","128643","0.0-6.0-0.5","5ed556715b338d0d1597dad9","609a8bf73b2ac84e2732f618","60a2453392245cc4c9245858","278.9999999804422","","","","39","","","","key","16.991573333333555","683","328.5","true","1","186","24","1","-1","-1","","","","","","","","","","","","",""
"psychophysics","12","130434","0.0-6.0-0.6","5ed556715b338d0d1597dad9","609a8bf73b2ac84e2732f618","60a2453392245cc4c9245858","784.9999999743886","","","","39","","","","key","17.090461538461497","683","328.5","true","1","162","24","1","-1","-1","","","","","","","","","","","","",""
"psychophysics","13","132134","0.0-6.0-0.7","5ed556715b338d0d1597dad9","609a8bf73b2ac84e2732f618","60a2453392245cc4c9245858","694.0000000176951","","","","37","","","","key","16.767999999999883","683","328.5","true","-1","162","24","1","-1","-1","","","","","","","","","","","","",""
"psychophysics","14","133889","0.0-6.0-0.8","5ed556715b338d0d1597dad9","609a8bf73b2ac84e2732f618","60a2453392245cc4c9245858","748.0000000214204","","","","37","","","","key","17.09678431372552","683","328.5","true","-1","138","24","1","-1","-1","","","","","","","","","","","","",""
"psychophysics","15","136100","0.0-6.0-0.9","5ed556715b338d0d1597dad9","609a8bf73b2ac84e2732f618","60a2453392245cc4c9245858","1199.9999999534339","","","","39","","","","key","16.89698461538467","683","328.5","true","1","138","24","1","-1","-1","","","","","","","","","","","","",""
"psychophysics","16","138834","0.0-6.0-0.10","5ed556715b338d0d1597dad9","609a8bf73b2ac84e2732f618","60a2453392245cc4c9245858","1722.9999999981374","","","","39","","","","key","16.977599999999985","683","328.5","true","1","129","24","1","-1","-1","","","","","","","","","","","","",""
"psychophysics","17","143439","0.0-6.0-0.11","5ed556715b338d0d1597dad9","609a8bf73b2ac84e2732f618","60a2453392245cc4c9245858","3596.000000019558","","","","37","","","","key","16.829647058823493","683","328.5","true","-1","129","24","1","-1","-1","","","","","","","","","","","","",""
"psychophysics","18","145328","0.0-6.0-0.12","5ed556715b338d0d1597dad9","609a8bf73b2ac84e2732f618","60a2453392245cc4c9245858","881.9999999832362","","","","37","","","","key","16.91906306306283","683","328.5","true","-1","129","24","1","-1","-1","","","","","","","","","","","","",""
"psychophysics","19","147455","0.0-6.0-0.13","5ed556715b338d0d1597dad9","609a8bf73b2ac84e2732f618","60a2453392245cc4c9245858","1120.9999999846332","","","","37","","","","key","16.90214400000009","683","328.5","true","1","129","19.2","2","1","-1","","","","","","","","","","","","",""
"psychophysics","20","148895","0.0-6.0-0.14","5ed556715b338d0d1597dad9","609a8bf73b2ac84e2732f618","60a2453392245cc4c9245858","429.0000000037253","","","","39","","","","key","17.17204819277107","683","328.5","true","1","148.2","19.2","2","-1","1","","","","","","","","","","","","",""
"psychophysics","21","150147","0.0-6.0-0.15","5ed556715b338d0d1597dad9","609a8bf73b2ac84e2732f618","60a2453392245cc4c9245858","249.0000000107102","","","","39","","","","key","17.00088888888907","683","328.5","true","1","148.2","15.36","3","-1","-1","","","","","","","","","","","","",""
"psychophysics","22","151695","0.0-6.0-0.16","5ed556715b338d0d1597dad9","609a8bf73b2ac84e2732f618","60a2453392245cc4c9245858","527.0000000018626","","","","39","","","","key","16.952263736263927","683","328.5","true","-1","132.83999999999997","12.287999999999998","4","1","-1","","","","","","","","","","","","",""
"psychophysics","23","153040","0.0-6.0-0.17","5ed556715b338d0d1597dad9","609a8bf73b2ac84e2732f618","60a2453392245cc4c9245858","342.99999999348074","","","","37","","","","key","17.203532467532355","683","328.5","true","-1","145.128","12.287999999999998","4","-1","1","","","","","","","","","","","","",""
"psychophysics","24","154875","0.0-6.0-0.18","5ed556715b338d0d1597dad9","609a8bf73b2ac84e2732f618","60a2453392245cc4c9245858","825.0000000116415","","","","39","","","","key","16.924710280373723","683","328.5","true","1","145.128","9.8304","5","-1","-1","","","","","","","","","","","","",""
"psychophysics","25","157295","0.0-6.0-0.19","5ed556715b338d0d1597dad9","609a8bf73b2ac84e2732f618","60a2453392245cc4c9245858","1417.0000000158325","","","","39","","","","key","16.88525874125877","683","328.5","true","1","135.2976","9.8304","5","-1","-1","","","","","","","","","","","","",""
"psychophysics","26","159137","0.0-6.0-0.20","5ed556715b338d0d1597dad9","609a8bf73b2ac84e2732f618","60a2453392245cc4c9245858","836.9999999995343","","","","39","","","","key","16.923259259259254","683","328.5","true","1","135.2976","9.8304","5","-1","-1","","","","","","","","","","","","",""
"psychophysics","27","160870","0.0-6.0-0.21","5ed556715b338d0d1597dad9","609a8bf73b2ac84e2732f618","60a2453392245cc4c9245858","727.0000000135042","","","","39","","","","key","16.9340198019803","683","328.5","true","-1","129","7.864319999999999","6","1","-1","","","","","","","","","","","","",""
"psychophysics","28","162609","0.0-6.0-0.22","5ed556715b338d0d1597dad9","609a8bf73b2ac84e2732f618","60a2453392245cc4c9245858","730.9999999706633","","","","37","","","","key","16.768000000000207","683","328.5","true","-1","136.86432","7.864319999999999","6","-1","1","","","","","","","","","","","","",""
"psychophysics","29","164433","0.0-6.0-0.23","5ed556715b338d0d1597dad9","609a8bf73b2ac84e2732f618","60a2453392245cc4c9245858","822.9999999748543","","","","37","","","","key","16.924710280373997","683","328.5","true","-1","136.86432","6.291456","7","-1","-1","","","","","","","","","","","","",""
"psychophysics","30","167015","0.0-6.0-0.24","5ed556715b338d0d1597dad9","609a8bf73b2ac84e2732f618","60a2453392245cc4c9245858","1579.0000000270084","","","","37","","","","key","16.878315789473785","683","328.5","true","-1","130.57286399999998","6.291456","7","-1","-1","","","","","","","","","","","","",""
"psychophysics","31","169030","0.0-6.0-0.25","5ed556715b338d0d1597dad9","609a8bf73b2ac84e2732f618","60a2453392245cc4c9245858","1007.0000000414439","","","","37","","","","key","16.91010169491519","683","328.5","true","-1","130.57286399999998","6.291456","7","-1","-1","","","","","","","","","","","","",""
"psychophysics","32","170796","0.0-6.0-0.26","5ed556715b338d0d1597dad9","609a8bf73b2ac84e2732f618","60a2453392245cc4c9245858","755.0000000046566","","","","39","","","","key","17.09678431372552","683","328.5","true","1","129","6.291456","7","-1","-1","","","","","","","","","","","","",""
"psychophysics","33","173507","0.0-6.0-0.27","5ed556715b338d0d1597dad9","609a8bf73b2ac84e2732f618","60a2453392245cc4c9245858","1706.9999999948777","","","","39","","","","key","16.978918238993625","683","328.5","true","1","129","6.291456","7","-1","-1","","","","","","","","","","","","",""
"psychophysics","34","175202","0.0-6.0-0.28","5ed556715b338d0d1597dad9","609a8bf73b2ac84e2732f618","60a2453392245cc4c9245858","679.9999999930151","","","","39","","","","key","17.28659793814421","683","328.5","true","-1","129","5.033164800000001","8","1","-1","","","","","","","","","","","","",""
"psychophysics","35","178230","0.0-6.0-0.29","5ed556715b338d0d1597dad9","609a8bf73b2ac84e2732f618","60a2453392245cc4c9245858","2006.9999999832362","","","","39","","","","key","16.86220224719106","683","328.5","true","-1","134.0331648","5.033164800000001","8","1","1","","","","","","","","","","","","",""
"psychophysics","36","180118","0.0-6.0-0.30","5ed556715b338d0d1597dad9","609a8bf73b2ac84e2732f618","60a2453392245cc4c9245858","879.0000000153668","","","","39","","","","key","17.229504587155994","683","328.5","true","1","139.06632960000002","5.033164800000001","8","-1","1","","","","","","","","","","","","",""
"psychophysics","37","182046","0.0-6.0-0.31","5ed556715b338d0d1597dad9","609a8bf73b2ac84e2732f618","60a2453392245cc4c9245858","914.9999999790452","","","","37","","","","key","16.767999999999965","683","328.5","true","-1","139.06632960000002","4.0265318400000005","9","-1","-1","","","","","","","","","","","","",""
"psychophysics","38","183815","0.0-6.0-0.32","5ed556715b338d0d1597dad9","609a8bf73b2ac84e2732f618","60a2453392245cc4c9245858","766.0000000032596","","","","37","","","","key","17.09678431372552","683","328.5","true","-1","135.03979776000003","4.0265318400000005","9","-1","-1","","","","","","","","","","","","",""
"psychophysics","39","185612","0.0-6.0-0.33","5ed556715b338d0d1597dad9","609a8bf73b2ac84e2732f618","60a2453392245cc4c9245858","792.0000000158325","","","","37","","","","key","16.926188679245346","683","328.5","true","-1","135.03979776000003","4.0265318400000005","9","-1","-1","","","","","","","","","","","","",""
"psychophysics","40","188631","0.0-6.0-0.34","5ed556715b338d0d1597dad9","609a8bf73b2ac84e2732f618","60a2453392245cc4c9245858","2016.9999999925494","","","","37","","","","key","16.862734463276823","683","328.5","true","1","131.01326592000004","3.2212254720000004","10","1","-1","","","","","","","","","","","","",""
"psychophysics","41","192909","0.0-6.0-0.35","5ed556715b338d0d1597dad9","609a8bf73b2ac84e2732f618","60a2453392245cc4c9245858","3274.9999999650754","","","","39","","","","key","16.901609561753002","683","328.5","true","1","134.23449139200005","3.2212254720000004","10","-1","1","","","","","","","","","","","","",""
"psychophysics","42","195180","0.0-6.0-0.36","5ed556715b338d0d1597dad9","609a8bf73b2ac84e2732f618","60a2453392245cc4c9245858","1261.9999999878928","","","","39","","","","key","17.82425196850411","683","328.5","true","-1","134.23449139200005","2.5769803776000004","11","1","-1","","","","","","","","","","","","",""
"psychophysics","43","197092","0.0-6.0-0.37","5ed556715b338d0d1597dad9","609a8bf73b2ac84e2732f618","60a2453392245cc4c9245858","902.0000000018626","","","","39","","","","key","16.768000000000125","683","328.5","true","1","136.81147176960005","2.5769803776000004","11","-1","1","","","","","","","","","","","","",""
"psychophysics","44","198780","0.0-6.0-0.38","5ed556715b338d0d1597dad9","609a8bf73b2ac84e2732f618","60a2453392245cc4c9245858","684.9999999976717","","","","37","","","","key","17.11020408163283","683","328.5","true","-1","136.81147176960005","2.0615843020800004","12","-1","-1","","","","","","","","","","","","",""
"psychophysics","45","200419","0.0-6.0-0.39","5ed556715b338d0d1597dad9","609a8bf73b2ac84e2732f618","60a2453392245cc4c9245858","629.0000000153668","","","","39","","","","key","16.768000000000143","683","328.5","true","1","134.74988746752004","2.0615843020800004","12","-1","-1","","","","","","","","","","","","",""
"html-keyboard-response","46","208851","0.0-7.0","5ed556715b338d0d1597dad9","609a8bf73b2ac84e2732f618","60a2453392245cc4c9245858","8427.999999956228","<p>Well Done !</p><p>Prepare for a new block.</p><p>DON'T EXIT THE FULL SCREEN MODE</p><p>Press the Spacebar to start.</p>","","","32","","","","","","","","","","","","","","","true","133.84489088204802","","","","","","","","","","",""
"psychophysics","47","211150","0.0-8.0-0.0","5ed556715b338d0d1597dad9","609a8bf73b2ac84e2732f618","60a2453392245cc4c9245858","1295.0000000419095","","","","39","","","","key","16.891294117646954","683","328.5","true","1","180","30","0","-1","","","","","","","","","","","","","",""
"psychophysics","48","212993","0.0-8.0-0.1","5ed556715b338d0d1597dad9","609a8bf73b2ac84e2732f618","60a2453392245cc4c9245858","839.0000000363216","","","","37","","","","key","17.247085714285607","683","328.5","true","-1","180","30","0","-1","-1","","","","","","","","","","","","",""
"psychophysics","49","214745","0.0-8.0-0.2","5ed556715b338d0d1597dad9","609a8bf73b2ac84e2732f618","60a2453392245cc4c9245858","749.0000000107102","","","","39","","","","key","16.930796116504883","683","328.5","true","1","150","30","0","-1","-1","","","","","","","","","","","","",""
"psychophysics","50","216402","0.0-8.0-0.3","5ed556715b338d0d1597dad9","609a8bf73b2ac84e2732f618","60a2453392245cc4c9245858","640.0000000139698","","","","39","","","","key","17.11733333333359","683","328.5","true","1","150","30","0","-1","-1","","","","","","","","","","","","",""
"psychophysics","51","218970","0.0-8.0-0.4","5ed556715b338d0d1597dad9","609a8bf73b2ac84e2732f618","60a2453392245cc4c9245858","1563.9999999548309","","","","37","","","","key","16.879046357615923","683","328.5","true","1","129","24","1","1","-1","","","","","","","","","","","","",""
"psychophysics","52","220721","0.0-8.0-0.5","5ed556715b338d0d1597dad9","609a8bf73b2ac84e2732f618","60a2453392245cc4c9245858","744.9999999953434","","","","37","","","","key","17.10003960396032","683","328.5","true","-1","153","24","1","-1","1","","","","","","","","","","","","",""
"psychophysics","53","221979","0.0-8.0-0.6","5ed556715b338d0d1597dad9","609a8bf73b2ac84e2732f618","60a2453392245cc4c9245858","255.9999999939464","","","","39","","","","key","16.76799999999993","683","328.5","true","1","153","19.2","2","-1","-1","","","","","","","","","","","","",""
"psychophysics","54","224022","0.0-8.0-0.7","5ed556715b338d0d1597dad9","609a8bf73b2ac84e2732f618","60a2453392245cc4c9245858","1038.0000000004657","","","","39","","","","key","17.049815126050543","683","328.5","true","1","133.8","19.2","2","-1","-1","","","","","","","","","","","","",""
"psychophysics","55","225808","0.0-8.0-0.8","5ed556715b338d0d1597dad9","609a8bf73b2ac84e2732f618","60a2453392245cc4c9245858","776.0000000125729","","","","39","","","","key","16.768000000000235","683","328.5","true","1","133.8","19.2","2","-1","-1","","","","","","","","","","","","",""
"psychophysics","56","227805","0.0-8.0-0.9","5ed556715b338d0d1597dad9","609a8bf73b2ac84e2732f618","60a2453392245cc4c9245858","986.9999999646097","","","","39","","","","key","16.91131623931633","683","328.5","true","-1","129","15.36","3","1","-1","","","","","","","","","","","","",""
"psychophysics","57","229476","0.0-8.0-0.10","5ed556715b338d0d1597dad9","609a8bf73b2ac84e2732f618","60a2453392245cc4c9245858","664.9999999790452","","","","39","","","","key","17.291999999999764","683","328.5","true","1","144.36","15.36","3","-1","1","","","","","","","","","","","","",""
"psychophysics","58","231141","0.0-8.0-0.11","5ed556715b338d0d1597dad9","609a8bf73b2ac84e2732f618","60a2453392245cc4c9245858","661.0000000218861","","","","37","","","","key","16.767999999999954","683","328.5","true","-1","144.36","12.287999999999998","4","-1","-1","","","","","","","","","","","","",""
"psychophysics","59","233529","0.0-8.0-0.12","5ed556715b338d0d1597dad9","609a8bf73b2ac84e2732f618","60a2453392245cc4c9245858","1383.9999999618158","","","","39","","","","key","17.009266187050365","683","328.5","true","-1","132.072","9.8304","5","1","-1","","","","","","","","","","","","",""
"psychophysics","60","235240","0.0-8.0-0.13","5ed556715b338d0d1597dad9","609a8bf73b2ac84e2732f618","60a2453392245cc4c9245858","701.9999999902211","","","","39","","","","key","16.935679999999994","683","328.5","true","1","141.9024","9.8304","5","-1","1","","","","","","","","","","","","",""
"psychophysics","61","237274","0.0-8.0-0.14","5ed556715b338d0d1597dad9","609a8bf73b2ac84e2732f618","60a2453392245cc4c9245858","1020.0000000186265","","","","37","","","","key","17.052203389830538","683","328.5","true","-1","141.9024","7.864319999999999","6","-1","-1","","","","","","","","","","","","",""
"psychophysics","62","239019","0.0-8.0-0.15","5ed556715b338d0d1597dad9","609a8bf73b2ac84e2732f618","60a2453392245cc4c9245858","741.0000000381842","","","","39","","","","key","16.932392156862953","683","328.5","true","1","134.03808","7.864319999999999","6","-1","-1","","","","","","","","","","","","",""
"psychophysics","63","240756","0.0-8.0-0.16","5ed556715b338d0d1597dad9","609a8bf73b2ac84e2732f618","60a2453392245cc4c9245858","727.0000000135042","","","","39","","","","key","16.932392156862953","683","328.5","true","-1","134.03808","6.291456","7","1","-1","","","","","","","","","","","","",""
"psychophysics","64","242430","0.0-8.0-0.17","5ed556715b338d0d1597dad9","609a8bf73b2ac84e2732f618","60a2453392245cc4c9245858","665.999999968335","","","","39","","","","key","17.113731958762955","683","328.5","true","1","140.32953600000002","6.291456","7","-1","1","","","","","","","","","","","","",""
"psychophysics","65","244284","0.0-8.0-0.18","5ed556715b338d0d1597dad9","609a8bf73b2ac84e2732f618","60a2453392245cc4c9245858","847.0000000088476","","","","39","","","","key","16.76799999999983","683","328.5","true","1","140.32953600000002","5.033164800000001","8","-1","-1","","","","","","","","","","","","",""
"psychophysics","66","245755","0.0-8.0-0.19","5ed556715b338d0d1597dad9","609a8bf73b2ac84e2732f618","60a2453392245cc4c9245858","467.99999999348074","","","","39","","","","key","17.374072289156743","683","328.5","true","1","135.2963712","5.033164800000001","8","-1","-1","","","","","","","","","","","","",""
"psychophysics","67","247432","0.0-8.0-0.20","5ed556715b338d0d1597dad9","609a8bf73b2ac84e2732f618","60a2453392245cc4c9245858","668.9999999944121","","","","37","","","","key","16.768000000000065","683","328.5","true","-1","135.2963712","5.033164800000001","8","-1","-1","","","","","","","","","","","","",""
"psychophysics","68","249129","0.0-8.0-0.21","5ed556715b338d0d1597dad9","609a8bf73b2ac84e2732f618","60a2453392245cc4c9245858","690.9999999916181","","","","39","","","","key","17.10674747474747","683","328.5","true","-1","130.2632064","4.0265318400000005","9","1","-1","","","","","","","","","","","","",""
"psychophysics","69","250719","0.0-8.0-0.22","5ed556715b338d0d1597dad9","609a8bf73b2ac84e2732f618","60a2453392245cc4c9245858","581.9999999948777","","","","39","","","","key","16.950260869565206","683","328.5","true","1","134.28973824","4.0265318400000005","9","-1","1","","","","","","","","","","","","",""
"psychophysics","70","252408","0.0-8.0-0.23","5ed556715b338d0d1597dad9","609a8bf73b2ac84e2732f618","60a2453392245cc4c9245858","686.9999999762513","","","","39","","","","key","17.110204081632535","683","328.5","true","-1","134.28973824","3.2212254720000004","10","1","-1","","","","","","","","","","","","",""
"psychophysics","71","253954","0.0-8.0-0.24","5ed556715b338d0d1597dad9","609a8bf73b2ac84e2732f618","60a2453392245cc4c9245858","536.0000000218861","","","","37","","","","key","16.768000000000068","683","328.5","true","-1","137.51096371199998","3.2212254720000004","10","-1","1","","","","","","","","","","","","",""
"psychophysics","72","255591","0.0-8.0-0.25","5ed556715b338d0d1597dad9","609a8bf73b2ac84e2732f618","60a2453392245cc4c9245858","635.0000000093132","","","","39","","","","key","16.94266666666681","683","328.5","true","1","137.51096371199998","2.5769803776000004","11","-1","-1","","","","","","","","","","","","",""
"psychophysics","73","257182","0.0-8.0-0.26","5ed556715b338d0d1597dad9","609a8bf73b2ac84e2732f618","60a2453392245cc4c9245858","585.0000000209548","","","","37","","","","key","16.948301075268926","683","328.5","true","-1","134.93398333439998","2.5769803776000004","11","-1","-1","","","","","","","","","","","","",""
"psychophysics","74","258730","0.0-8.0-0.27","5ed556715b338d0d1597dad9","609a8bf73b2ac84e2732f618","60a2453392245cc4c9245858","532.999999995809","","","","37","","","","key","16.954311111111505","683","328.5","true","-1","134.93398333439998","2.5769803776000004","11","-1","-1","","","","","","","","","","","","",""
"psychophysics","75","260432","0.0-8.0-0.28","5ed556715b338d0d1597dad9","609a8bf73b2ac84e2732f618","60a2453392245cc4c9245858","695.0000000069849","","","","37","","","","key","16.935680000000286","683","328.5","true","-1","132.3570029568","2.5769803776000004","11","-1","-1","","","","","","","","","","","","",""
"psychophysics","76","262465","0.0-8.0-0.29","5ed556715b338d0d1597dad9","609a8bf73b2ac84e2732f618","60a2453392245cc4c9245858","1032.0000000065193","","","","39","","","","key","16.908907563024997","683","328.5","true","1","132.3570029568","2.5769803776000004","11","-1","-1","","","","","","","","","","","","",""
"psychophysics","77","264195","0.0-8.0-0.30","5ed556715b338d0d1597dad9","609a8bf73b2ac84e2732f618","60a2453392245cc4c9245858","717.000000004191","","","","37","","","","key","16.934019801979723","683","328.5","true","-1","129.7800225792","2.5769803776000004","11","-1","-1","","","","","","","","","","","","",""
"psychophysics","78","266541","0.0-8.0-0.31","5ed556715b338d0d1597dad9","609a8bf73b2ac84e2732f618","60a2453392245cc4c9245858","1341.0000000149012","","","","37","","","","key","16.889507246376656","683","328.5","true","-1","129.7800225792","2.5769803776000004","11","-1","-1","","","","","","","","","","","","",""
"psychophysics","79","268432","0.0-8.0-0.32","5ed556715b338d0d1597dad9","609a8bf73b2ac84e2732f618","60a2453392245cc4c9245858","879.0000000153668","","","","39","","","","key","16.76799999999967","683","328.5","true","1","129","2.5769803776000004","11","-1","-1","","","","","","","","","","","","",""
"psychophysics","80","270601","0.0-8.0-0.33","5ed556715b338d0d1597dad9","609a8bf73b2ac84e2732f618","60a2453392245cc4c9245858","1162.0000000111759","","","","39","","","","key","16.901079365079077","683","328.5","true","1","129","2.5769803776000004","11","-1","-1","","","","","","","","","","","","",""
"psychophysics","81","272762","0.0-8.0-0.34","5ed556715b338d0d1597dad9","609a8bf73b2ac84e2732f618","60a2453392245cc4c9245858","1148.9999999757856","","","","39","","","","key","16.900031496063022","683","328.5","true","-1","129","2.0615843020800004","12","1","-1","","","","","","","","","","","","",""
"psychophysics","82","274660","0.0-8.0-0.35","5ed556715b338d0d1597dad9","609a8bf73b2ac84e2732f618","60a2453392245cc4c9245858","886.9999999878928","","","","39","","","","key","16.919063063063092","683","328.5","true","-1","131.06158430208","2.0615843020800004","12","1","1","","","","","","","","","","","","",""
"psychophysics","83","276341","0.0-8.0-0.36","5ed556715b338d0d1597dad9","609a8bf73b2ac84e2732f618","60a2453392245cc4c9245858","671.0000000311993","","","","39","","","","key","16.768000000000065","683","328.5","true","-1","133.12316860416","2.0615843020800004","12","1","1","","","","","","","","","","","","",""
"psychophysics","84","278308","0.0-8.0-0.37","5ed556715b338d0d1597dad9","609a8bf73b2ac84e2732f618","60a2453392245cc4c9245858","956.0000000055879","","","","37","","","","key","16.91255172413768","683","328.5","true","1","135.18475290624002","2.0615843020800004","12","1","1","","","","","","","","","","","","",""
"psychophysics","85","280040","0.0-8.0-0.38","5ed556715b338d0d1597dad9","609a8bf73b2ac84e2732f618","60a2453392245cc4c9245858","720.9999999613501","","","","37","","","","key","16.9340198019803","683","328.5","true","-1","137.24633720832003","2.0615843020800004","12","-1","1","","","","","","","","","","","","",""
"psychophysics","86","281625","0.0-8.0-0.39","5ed556715b338d0d1597dad9","609a8bf73b2ac84e2732f618","60a2453392245cc4c9245858","580.0000000162981","","","","39","","","","key","16.948301075268613","683","328.5","true","1","137.24633720832003","1.6492674416640005","13","-1","-1","","","","","","","","","","","","",""
"html-keyboard-response","87","284816","0.0-9.0","5ed556715b338d0d1597dad9","609a8bf73b2ac84e2732f618","60a2453392245cc4c9245858","3189.0000000130385","<p>Well Done !</p><p>Prepare for a new block.</p><p>DON'T EXIT THE FULL SCREEN MODE</p><p>Press the Spacebar to start.</p>","","","32","","","","","","","","","","","","","","","true","132.834344112128","","","","","","","","","","",""
"psychophysics","88","286621","0.0-10.0-0.0","5ed556715b338d0d1597dad9","609a8bf73b2ac84e2732f618","60a2453392245cc4c9245858","799.9999999883585","","","","37","","","","key","16.76799999999979","683","328.5","true","-1","180","30","0","-1","","","","","","","","","","","","","",""
"psychophysics","89","287762","0.0-10.0-0.1","5ed556715b338d0d1597dad9","609a8bf73b2ac84e2732f618","60a2453392245cc4c9245858","138.9999999664724","","","","37","","","","key","16.768000000000082","683","328.5","true","-1","180","30","0","-1","-1","","","","","","","","","","","","",""
"psychophysics","90","288802","0.0-10.0-0.2","5ed556715b338d0d1597dad9","609a8bf73b2ac84e2732f618","60a2453392245cc4c9245858","36.00000002188608","","","","37","","","","key","17.047466666666637","683","328.5","true","-1","150","30","0","-1","-1","","","","","","","","","","","","",""
"psychophysics","91","289955","0.0-10.0-0.3","5ed556715b338d0d1597dad9","609a8bf73b2ac84e2732f618","60a2453392245cc4c9245858","149.00000003399327","","","","39","","","","key","16.768000000000082","683","328.5","true","1","150","30","0","-1","-1","","","","","","","","","","","","",""
"psychophysics","92","291629","0.0-10.0-0.4","5ed556715b338d0d1597dad9","609a8bf73b2ac84e2732f618","60a2453392245cc4c9245858","662.0000000111759","","","","39","","","","key","17.47402105263165","683","328.5","true","-1","129","24","1","1","-1","","","","","","","","","","","","",""
"psychophysics","93","293201","0.0-10.0-0.5","5ed556715b338d0d1597dad9","609a8bf73b2ac84e2732f618","60a2453392245cc4c9245858","545.9999999729916","","","","37","","","","key","17.326933333333322","683","328.5","true","-1","153","24","1","-1","1","","","","","","","","","","","","",""
"psychophysics","94","313940","0.0-10.0-0.6","5ed556715b338d0d1597dad9","609a8bf73b2ac84e2732f618","60a2453392245cc4c9245858","19730.999999970663","","","","39","","","","key","16.82244155844153","683","328.5","true","-1","153","19.2","2","1","-1","","","","","","","","","","","","",""
"psychophysics","95","317399","0.0-10.0-0.7","5ed556715b338d0d1597dad9","609a8bf73b2ac84e2732f618","60a2453392245cc4c9245858","2456.000000005588","","","","37","","","","key","17.62789743589745","683","328.5","true","-1","172.2","19.2","2","-1","1","","","","","","","","","","","","",""
"psychophysics","96","318567","0.0-10.0-0.8","5ed556715b338d0d1597dad9","609a8bf73b2ac84e2732f618","60a2453392245cc4c9245858","157.00000000651926","","","","39","","","","key","16.767999999999553","683","328.5","true","1","172.2","15.36","3","-1","-1","","","","","","","","","","","","",""
"psychophysics","97","320342","0.0-10.0-0.9","5ed556715b338d0d1597dad9","609a8bf73b2ac84e2732f618","60a2453392245cc4c9245858","770.0000000186265","","","","37","","","","key","16.930796116504602","683","328.5","true","-1","156.83999999999997","15.36","3","-1","-1","","","","","","","","","","","","",""
"psychophysics","98","322056","0.0-10.0-0.10","5ed556715b338d0d1597dad9","609a8bf73b2ac84e2732f618","60a2453392245cc4c9245858","710.9999999520369","","","","39","","","","key","16.9340198019803","683","328.5","true","1","156.83999999999997","15.36","3","-1","-1","","","","","","","","","","","","",""
"psychophysics","99","323262","0.0-10.0-0.11","5ed556715b338d0d1597dad9","609a8bf73b2ac84e2732f618","60a2453392245cc4c9245858","202.9999999795109","","","","39","","","","key","17.00754285714273","683","328.5","true","1","141.47999999999996","15.36","3","-1","-1","","","","","","","","","","","","",""
"psychophysics","100","324852","0.0-10.0-0.12","5ed556715b338d0d1597dad9","609a8bf73b2ac84e2732f618","60a2453392245cc4c9245858","587.9999999888241","","","","39","","","","key","16.767999999999798","683","328.5","true","1","141.47999999999996","15.36","3","-1","-1","","","","","","","","","","","","",""
"psychophysics","101","326541","0.0-10.0-0.13","5ed556715b338d0d1597dad9","609a8bf73b2ac84e2732f618","60a2453392245cc4c9245858","684.0000000083819","","","","39","","","","key","16.9391020408158","683","328.5","true","1","129","15.36","3","-1","-1","","","","","","","","","","","","",""
"psychophysics","102","328609","0.0-10.0-0.14","5ed556715b338d0d1597dad9","609a8bf73b2ac84e2732f618","60a2453392245cc4c9245858","1065.999999991618","","","","39","","","","key","16.90544262295064","683","328.5","true","1","129","15.36","3","-1","-1","","","","","","","","","","","","",""
"psychophysics","103","330578","0.0-10.0-0.15","5ed556715b338d0d1597dad9","609a8bf73b2ac84e2732f618","60a2453392245cc4c9245858","965.9999999566935","","","","39","","","","key","16.913808695652584","683","328.5","true","1","129","15.36","3","-1","-1","","","","","","","","","","","","",""
"psychophysics","104","332379","0.0-10.0-0.16","5ed556715b338d0d1597dad9","609a8bf73b2ac84e2732f618","60a2453392245cc4c9245858","792.0000000158325","","","","39","","","","key","16.927695238095197","683","328.5","true","1","129","15.36","3","-1","-1","","","","","","","","","","","","",""
"psychophysics","105","333942","0.0-10.0-0.17","5ed556715b338d0d1597dad9","609a8bf73b2ac84e2732f618","60a2453392245cc4c9245858","559.0000000083819","","","","37","","","","key","16.950260869565206","683","328.5","true","-1","129","15.36","3","-1","-1","","","","","","","","","","","","",""
"psychophysics","106","336141","0.0-10.0-0.18","5ed556715b338d0d1597dad9","609a8bf73b2ac84e2732f618","60a2453392245cc4c9245858","1196.9999999855645","","","","39","","","","key","16.89798449612378","683","328.5","true","1","129","15.36","3","-1","-1","","","","","","","","","","","","",""
"psychophysics","107","337799","0.0-10.0-0.19","5ed556715b338d0d1597dad9","609a8bf73b2ac84e2732f618","60a2453392245cc4c9245858","652.0000000018626","","","","39","","","","key","16.940865979381098","683","328.5","true","1","129","15.36","3","-1","-1","","","","","","","","","","","","",""
"psychophysics","108","339652","0.0-10.0-0.20","5ed556715b338d0d1597dad9","609a8bf73b2ac84e2732f618","60a2453392245cc4c9245858","852.0000000135042","","","","39","","","","key","16.767999999999997","683","328.5","true","1","129","15.36","3","-1","-1","","","","","","","","","","","","",""
"psychophysics","109","341410","0.0-10.0-0.21","5ed556715b338d0d1597dad9","609a8bf73b2ac84e2732f618","60a2453392245cc4c9245858","747.0000000321306","","","","39","","","","key","17.096784313725234","683","328.5","true","-1","129","12.287999999999998","4","1","-1","","","","","","","","","","","","",""
"psychophysics","110","343004","0.0-10.0-0.22","5ed556715b338d0d1597dad9","609a8bf73b2ac84e2732f618","60a2453392245cc4c9245858","585.0000000209548","","","","39","","","","key","16.948301075268613","683","328.5","true","1","141.288","12.287999999999998","4","-1","1","","","","","","","","","","","","",""
"psychophysics","111","344243","0.0-10.0-0.23","5ed556715b338d0d1597dad9","609a8bf73b2ac84e2732f618","60a2453392245cc4c9245858","231.000000028871","","","","37","","","","key","16.76800000000018","683","328.5","true","-1","141.288","9.8304","5","-1","-1","","","","","","","","","","","","",""
"psychophysics","112","347037","0.0-10.0-0.24","5ed556715b338d0d1597dad9","609a8bf73b2ac84e2732f618","60a2453392245cc4c9245858","1792.0000000158325","","","","37","","","","key","16.972487804878124","683","328.5","true","1","131.4576","7.864319999999999","6","1","-1","","","","","","","","","","","","",""
"psychophysics","113","348627","0.0-10.0-0.25","5ed556715b338d0d1597dad9","609a8bf73b2ac84e2732f618","60a2453392245cc4c9245858","581.9999999948777","","","","37","","","","key","17.326933333333322","683","328.5","true","-1","139.32192","7.864319999999999","6","-1","1","","","","","","","","","","","","",""
"psychophysics","114","350427","0.0-10.0-0.26","5ed556715b338d0d1597dad9","609a8bf73b2ac84e2732f618","60a2453392245cc4c9245858","793.0000000051223","","","","39","","","","key","20.862511627906716","683","328.5","true","1","139.32192","6.291456","7","-1","-1","","","","","","","","","","","","",""
"psychophysics","115","352108","0.0-10.0-0.27","5ed556715b338d0d1597dad9","609a8bf73b2ac84e2732f618","60a2453392245cc4c9245858","679.0000000037253","","","","39","","","","key","16.768000000000065","683","328.5","true","1","133.030464","6.291456","7","-1","-1","","","","","","","","","","","","",""
"psychophysics","116","353966","0.0-10.0-0.28","5ed556715b338d0d1597dad9","609a8bf73b2ac84e2732f618","60a2453392245cc4c9245858","855.9999999706633","","","","39","","","","key","16.92183486238515","683","328.5","true","1","133.030464","6.291456","7","-1","-1","","","","","","","","","","","","",""
"psychophysics","117","356246","0.0-10.0-0.29","5ed556715b338d0d1597dad9","609a8bf73b2ac84e2732f618","60a2453392245cc4c9245858","1275.9999999543652","","","","39","","","","key","17.020150375939796","683","328.5","true","1","129","6.291456","7","-1","-1","","","","","","","","","","","","",""
"psychophysics","118","358044","0.0-10.0-0.30","5ed556715b338d0d1597dad9","609a8bf73b2ac84e2732f618","60a2453392245cc4c9245858","788.9999999897555","","","","39","","","","key","16.927695238095197","683","328.5","true","1","129","6.291456","7","-1","-1","","","","","","","","","","","","",""
"psychophysics","119","360289","0.0-10.0-0.31","5ed556715b338d0d1597dad9","609a8bf73b2ac84e2732f618","60a2453392245cc4c9245858","1231.9999999599531","","","","39","","","","key","16.895030303030524","683","328.5","true","-1","129","5.033164800000001","8","1","-1","","","","","","","","","","","","",""
"psychophysics","120","362268","0.0-10.0-0.32","5ed556715b338d0d1597dad9","609a8bf73b2ac84e2732f618","60a2453392245cc4c9245858","960.9999999520369","","","","39","","","","key","16.91255172413768","683","328.5","true","-1","134.0331648","5.033164800000001","8","1","1","","","","","","","","","","","","",""
"psychophysics","121","367208","0.0-10.0-0.33","5ed556715b338d0d1597dad9","609a8bf73b2ac84e2732f618","60a2453392245cc4c9245858","3934.9999999976717","","","","39","","","","key","16.825424657534164","683","328.5","true","-1","139.06632960000002","5.033164800000001","8","1","1","","","","","","","","","","","","",""
"psychophysics","122","368484","0.0-10.0-0.34","5ed556715b338d0d1597dad9","609a8bf73b2ac84e2732f618","60a2453392245cc4c9245858","270.00000001862645","","","","37","","","","key","16.991573333333555","683","328.5","true","-1","144.09949440000003","5.033164800000001","8","-1","1","","","","","","","","","","","","",""
"psychophysics","123","369756","0.0-10.0-0.35","5ed556715b338d0d1597dad9","609a8bf73b2ac84e2732f618","60a2453392245cc4c9245858","266.00000000325963","","","","37","","","","key","16.76800000000072","683","328.5","true","-1","144.09949440000003","4.0265318400000005","9","-1","-1","","","","","","","","","","","","",""
"psychophysics","124","371160","0.0-10.0-0.36","5ed556715b338d0d1597dad9","609a8bf73b2ac84e2732f618","60a2453392245cc4c9245858","396.00000000791624","","","","37","","","","key","17.396800000000077","683","328.5","true","-1","140.07296256000004","4.0265318400000005","9","-1","-1","","","","","","","","","","","","",""
"psychophysics","125","372673","0.0-10.0-0.37","5ed556715b338d0d1597dad9","609a8bf73b2ac84e2732f618","60a2453392245cc4c9245858","510.0000000093132","","","","37","","","","key","16.768000000000153","683","328.5","true","-1","140.07296256000004","4.0265318400000005","9","-1","-1","","","","","","","","","","","","",""
"psychophysics","126","374299","0.0-10.0-0.38","5ed556715b338d0d1597dad9","609a8bf73b2ac84e2732f618","60a2453392245cc4c9245858","620.9999999846332","","","","39","","","","key","17.124765957446836","683","328.5","true","1","136.04643072000005","4.0265318400000005","9","-1","-1","","","","","","","","","","","","",""
"psychophysics","127","376020","0.0-10.0-0.39","5ed556715b338d0d1597dad9","609a8bf73b2ac84e2732f618","60a2453392245cc4c9245858","714.0000000363216","","","","39","","","","key","16.9340198019803","683","328.5","true","-1","136.04643072000005","3.2212254720000004","10","1","-1","","","","","","","","","","","","",""
"html-keyboard-response","128","379588","0.0-11.0","5ed556715b338d0d1597dad9","609a8bf73b2ac84e2732f618","60a2453392245cc4c9245858","3565.999999991618","<p>Well Done !</p><p>Prepare for a new block.</p><p>DON'T EXIT THE FULL SCREEN MODE</p><p>Press the Spacebar to start.</p>","","","32","","","","","","","","","","","","","","","true","136.34946918400001","","","","","","","","","","",""
"psychophysics","129","382065","0.0-12.0-0.0","5ed556715b338d0d1597dad9","609a8bf73b2ac84e2732f618","60a2453392245cc4c9245858","1463.999999978114","","","","37","","","","key","16.882849315068547","683","328.5","true","-1","180","30","0","-1","","","","","","","","","","","","","",""
"psychophysics","130","383426","0.0-12.0-0.1","5ed556715b338d0d1597dad9","609a8bf73b2ac84e2732f618","60a2453392245cc4c9245858","353.99999999208376","","","","39","","","","key","16.982974358974623","683","328.5","true","1","180","30","0","-1","-1","","","","","","","","","","","","",""
"psychophysics","131","384701","0.0-12.0-0.2","5ed556715b338d0d1597dad9","609a8bf73b2ac84e2732f618","60a2453392245cc4c9245858","271.99999999720603","","","","39","","","","key","16.994594594595068","683","328.5","true","1","150","30","0","-1","-1","","","","","","","","","","","","",""
"psychophysics","132","386387","0.0-12.0-0.3","5ed556715b338d0d1597dad9","609a8bf73b2ac84e2732f618","60a2453392245cc4c9245858","673.9999999990687","","","","37","","","","key","16.93737373737362","683","328.5","true","-1","150","30","0","-1","-1","","","","","","","","","","","","",""
"psychophysics","133","388137","0.0-12.0-0.4","5ed556715b338d0d1597dad9","609a8bf73b2ac84e2732f618","60a2453392245cc4c9245858","747.9999999632128","","","","39","","","","key","16.767999999999923","683","328.5","true","-1","129","24","1","1","-1","","","","","","","","","","","","",""
"psychophysics","134","389812","0.0-12.0-0.5","5ed556715b338d0d1597dad9","609a8bf73b2ac84e2732f618","60a2453392245cc4c9245858","671.9999999622814","","","","37","","","","key","16.939102040816394","683","328.5","true","-1","153","24","1","-1","1","","","","","","","","","","","","",""
"psychophysics","135","391510","0.0-12.0-0.6","5ed556715b338d0d1597dad9","609a8bf73b2ac84e2732f618","60a2453392245cc4c9245858","695.9999999962747","","","","39","","","","key","16.93737373737362","683","328.5","true","1","153","19.2","2","-1","-1","","","","","","","","","","","","",""
"psychophysics","136","393182","0.0-12.0-0.7","5ed556715b338d0d1597dad9","609a8bf73b2ac84e2732f618","60a2453392245cc4c9245858","666.0000000265427","","","","39","","","","key","16.939102040816394","683","328.5","true","-1","133.8","15.36","3","1","-1","","","","","","","","","","","","",""
"psychophysics","137","394851","0.0-12.0-0.8","5ed556715b338d0d1597dad9","609a8bf73b2ac84e2732f618","60a2453392245cc4c9245858","663.9999999897555","","","","37","","","","key","17.11733333333359","683","328.5","true","-1","149.16000000000003","15.36","3","-1","1","","","","","","","","","","","","",""
"psychophysics","138","396678","0.0-12.0-0.9","5ed556715b338d0d1597dad9","609a8bf73b2ac84e2732f618","60a2453392245cc4c9245858","819.0000000176951","","","","39","","","","key","16.768000000000164","683","328.5","true","1","149.16000000000003","12.287999999999998","4","-1","-1","","","","","","","","","","","","",""
"psychophysics","139","398425","0.0-12.0-0.10","5ed556715b338d0d1597dad9","609a8bf73b2ac84e2732f618","60a2453392245cc4c9245858","744.9999999953434","","","","37","","","","key","16.93239215686267","683","328.5","true","-1","136.872","12.287999999999998","4","-1","-1","","","","","","","","","","","","",""
"psychophysics","140","400211","0.0-12.0-0.11","5ed556715b338d0d1597dad9","609a8bf73b2ac84e2732f618","60a2453392245cc4c9245858","780.0000000279397","","","","37","","","","key","17.090461538461497","683","328.5","true","-1","136.872","12.287999999999998","4","-1","-1","","","","","","","","","","","","",""
"psychophysics","141","402500","0.0-12.0-0.12","5ed556715b338d0d1597dad9","609a8bf73b2ac84e2732f618","60a2453392245cc4c9245858","1287.0000000111759","","","","37","","","","key","16.767999999999947","683","328.5","true","1","129","9.8304","5","1","-1","","","","","","","","","","","","",""
"psychophysics","142","404100","0.0-12.0-0.13","5ed556715b338d0d1597dad9","609a8bf73b2ac84e2732f618","60a2453392245cc4c9245858","586.9999999995343","","","","39","","","","key","16.76800000000022","683","328.5","true","1","138.8304","9.8304","5","-1","1","","","","","","","","","","","","",""
"psychophysics","143","405781","0.0-12.0-0.14","5ed556715b338d0d1597dad9","609a8bf73b2ac84e2732f618","60a2453392245cc4c9245858","678.0000000144355","","","","37","","","","key","16.939102040816394","683","328.5","true","-1","138.8304","7.864319999999999","6","-1","-1","","","","","","","","","","","","",""
"psychophysics","144","407874","0.0-12.0-0.15","5ed556715b338d0d1597dad9","609a8bf73b2ac84e2732f618","60a2453392245cc4c9245858","1081.000000005588","","","","37","","","","key","17.04515702479369","683","328.5","true","1","130.96608","6.291456","7","1","-1","","","","","","","","","","","","",""
"psychophysics","145","409521","0.0-12.0-0.16","5ed556715b338d0d1597dad9","609a8bf73b2ac84e2732f618","60a2453392245cc4c9245858","637.9999999771826","","","","39","","","","key","17.11733333333359","683","328.5","true","1","137.25753600000002","6.291456","7","-1","1","","","","","","","","","","","","",""
"psychophysics","146","411192","0.0-12.0-0.17","5ed556715b338d0d1597dad9","609a8bf73b2ac84e2732f618","60a2453392245cc4c9245858","666.9999999576248","","","","37","","","","key","16.939102040816394","683","328.5","true","-1","137.25753600000002","5.033164800000001","8","-1","-1","","","","","","","","","","","","",""
"psychophysics","147","413668","0.0-12.0-0.18","5ed556715b338d0d1597dad9","609a8bf73b2ac84e2732f618","60a2453392245cc4c9245858","1469.9999999720603","","","","37","","","","key","17.00088888888907","683","328.5","true","1","132.2243712","4.0265318400000005","9","1","-1","","","","","","","","","","","","",""
"psychophysics","148","415242","0.0-12.0-0.19","5ed556715b338d0d1597dad9","609a8bf73b2ac84e2732f618","60a2453392245cc4c9245858","571.9999999855645","","","","39","","","","key","16.76799999999999","683","328.5","true","1","136.25090304","4.0265318400000005","9","-1","1","","","","","","","","","","","","",""
"psychophysics","149","416885","0.0-12.0-0.20","5ed556715b338d0d1597dad9","609a8bf73b2ac84e2732f618","60a2453392245cc4c9245858","633.0000000307336","","","","39","","","","key","16.94266666666711","683","328.5","true","1","136.25090304","3.2212254720000004","10","-1","-1","","","","","","","","","","","","",""
"psychophysics","150","419196","0.0-12.0-0.21","5ed556715b338d0d1597dad9","609a8bf73b2ac84e2732f618","60a2453392245cc4c9245858","1301.999999966938","","","","39","","","","key","16.891294117647167","683","328.5","true","1","133.029677568","3.2212254720000004","10","-1","-1","","","","","","","","","","","","",""
"psychophysics","151","420991","0.0-12.0-0.22","5ed556715b338d0d1597dad9","609a8bf73b2ac84e2732f618","60a2453392245cc4c9245858","787.0000000111759","","","","39","","","","key","16.76799999999996","683","328.5","true","1","133.029677568","3.2212254720000004","10","-1","-1","","","","","","","","","","","","",""
"psychophysics","152","422738","0.0-12.0-0.23","5ed556715b338d0d1597dad9","609a8bf73b2ac84e2732f618","60a2453392245cc4c9245858","734.9999999860302","","","","37","","","","key","17.10003960396032","683","328.5","true","-1","129.808452096","3.2212254720000004","10","-1","-1","","","","","","","","","","","","",""
"psychophysics","153","424347","0.0-12.0-0.24","5ed556715b338d0d1597dad9","609a8bf73b2ac84e2732f618","60a2453392245cc4c9245858","605.9999999706633","","","","37","","","","key","16.94638297872301","683","328.5","true","-1","129.808452096","3.2212254720000004","10","-1","-1","","","","","","","","","","","","",""
"psychophysics","154","426189","0.0-12.0-0.25","5ed556715b338d0d1597dad9","609a8bf73b2ac84e2732f618","60a2453392245cc4c9245858","838.9999999781139","","","","37","","","","key","16.923259259259254","683","328.5","true","-1","129","3.2212254720000004","10","-1","-1","","","","","","","","","","","","",""
"psychophysics","155","428326","0.0-12.0-0.26","5ed556715b338d0d1597dad9","609a8bf73b2ac84e2732f618","60a2453392245cc4c9245858","1130.0000000046566","","","","39","","","","key","16.902143999999854","683","328.5","true","1","129","3.2212254720000004","10","-1","-1","","","","","","","","","","","","",""
"psychophysics","156","430031","0.0-12.0-0.27","5ed556715b338d0d1597dad9","609a8bf73b2ac84e2732f618","60a2453392245cc4c9245858","700.0000000116415","","","","39","","","","key","18.408347826086633","683","328.5","true","-1","129","2.5769803776000004","11","1","-1","","","","","","","","","","","","",""
"psychophysics","157","431851","0.0-12.0-0.28","5ed556715b338d0d1597dad9","609a8bf73b2ac84e2732f618","60a2453392245cc4c9245858","815.0000000023283","","","","39","","","","key","16.768000000000164","683","328.5","true","1","131.5769803776","2.5769803776000004","11","-1","1","","","","","","","","","","","","",""
"psychophysics","158","433837","0.0-12.0-0.29","5ed556715b338d0d1597dad9","609a8bf73b2ac84e2732f618","60a2453392245cc4c9245858","983.9999999967404","","","","39","","","","key","17.20926315789499","683","328.5","true","-1","131.5769803776","2.0615843020800004","12","1","-1","","","","","","","","","","","","",""
"psychophysics","159","435521","0.0-12.0-0.30","5ed556715b338d0d1597dad9","609a8bf73b2ac84e2732f618","60a2453392245cc4c9245858","669.9999999837019","","","","39","","","","key","16.93737373737362","683","328.5","true","-1","133.63856467968","2.0615843020800004","12","1","1","","","","","","","","","","","","",""
"psychophysics","160","437222","0.0-12.0-0.31","5ed556715b338d0d1597dad9","609a8bf73b2ac84e2732f618","60a2453392245cc4c9245858","696.9999999855645","","","","39","","","","key","17.110204081632535","683","328.5","true","1","135.70014898176","2.0615843020800004","12","-1","1","","","","","","","","","","","","",""
"psychophysics","161","438865","0.0-12.0-0.32","5ed556715b338d0d1597dad9","609a8bf73b2ac84e2732f618","60a2453392245cc4c9245858","638.9999999664724","","","","39","","","","key","16.76800000000044","683","328.5","true","1","135.70014898176","1.6492674416640005","13","-1","-1","","","","","","","","","","","","",""
"psychophysics","162","440427","0.0-12.0-0.33","5ed556715b338d0d1597dad9","609a8bf73b2ac84e2732f618","60a2453392245cc4c9245858","551.0000000358559","","","","37","","","","key","16.76800000000019","683","328.5","true","-1","134.05088154009601","1.6492674416640005","13","-1","-1","","","","","","","","","","","","",""
"psychophysics","163","442427","0.0-12.0-0.34","5ed556715b338d0d1597dad9","609a8bf73b2ac84e2732f618","60a2453392245cc4c9245858","998.0000000214204","","","","39","","","","key","17.057103448275953","683","328.5","true","1","134.05088154009601","1.6492674416640005","13","-1","-1","","","","","","","","","","","","",""
"psychophysics","164","451014","0.0-12.0-0.35","5ed556715b338d0d1597dad9","609a8bf73b2ac84e2732f618","60a2453392245cc4c9245858","7581.000000005588","","","","39","","","","key","16.90029191321494","683","328.5","true","1","132.40161409843202","1.6492674416640005","13","-1","-1","","","","","","","","","","","","",""
"psychophysics","165","452704","0.0-12.0-0.36","5ed556715b338d0d1597dad9","609a8bf73b2ac84e2732f618","60a2453392245cc4c9245858","686.0000000451691","","","","39","","","","key","17.110204081632535","683","328.5","true","-1","132.40161409843202","1.3194139533312006","14","1","-1","","","","","","","","","","","","",""
"psychophysics","166","454293","0.0-12.0-0.37","5ed556715b338d0d1597dad9","609a8bf73b2ac84e2732f618","60a2453392245cc4c9245858","581.0000000055879","","","","39","","","","key","16.768000000000416","683","328.5","true","-1","133.72102805176323","1.3194139533312006","14","1","1","","","","","","","","","","","","",""
"psychophysics","167","456600","0.0-12.0-0.38","5ed556715b338d0d1597dad9","609a8bf73b2ac84e2732f618","60a2453392245cc4c9245858","1304.0000000037253","","","","39","","","","key","16.89220740740722","683","328.5","true","1","135.04044200509443","1.3194139533312006","14","-1","1","","","","","","","","","","","","",""
"psychophysics","168","458580","0.0-12.0-0.39","5ed556715b338d0d1597dad9","609a8bf73b2ac84e2732f618","60a2453392245cc4c9245858","977.0000000135042","","","","39","","","","key","17.057103448275452","683","328.5","true","-1","135.04044200509443","1.0555311626649604","15","1","-1","","","","","","","","","","","","",""
"html-keyboard-response","169","463734","0.0-13.0","5ed556715b338d0d1597dad9","609a8bf73b2ac84e2732f618","60a2453392245cc4c9245858","5152.000000001863","<p>Well Done !</p><p>Prepare for a new block.</p><p>DON'T EXIT THE FULL SCREEN MODE</p><p>Press the Spacebar to start.</p>","","","32","","","","","","","","","","","","","","","true","132.7933151158272","","","","","","","","","","",""
"html-keyboard-response","170","463837","0.0-14.0","5ed556715b338d0d1597dad9","609a8bf73b2ac84e2732f618","60a2453392245cc4c9245858","null","","","","null","","","","","","","","","","","","","","","","","133.9555048235008","true","139.9110096470016","","","","","","","",""
"instructions","171","504774","0.0-15.0","5ed556715b338d0d1597dad9","609a8bf73b2ac84e2732f618","60a2453392245cc4c9245858","40934.00000000838","","","","","","","[{""page_index"":0,""viewing_time"":28041.999999957625},{""page_index"":1,""viewing_time"":6336.999999999534},{""page_index"":2,""viewing_time"":6553.0000000144355}]","","","","","","","","","","","","","","","","","","","","","","","",""
"psychophysics","172","507364","0.0-16.0-0.0","5ed556715b338d0d1597dad9","609a8bf73b2ac84e2732f618","60a2453392245cc4c9245858","null","","","","null","","","","key","16.768000000000672","683","328.5","","","","","","","","","","","","","","","","","","","",""
"psychophysics","173","507871","0.0-16.0-1.0","5ed556715b338d0d1597dad9","609a8bf73b2ac84e2732f618","60a2453392245cc4c9245858","null","","","","null","","","","key","16.767999999999905","683","328.5","","","","","","","","","","","","","140","1","0","false","","","",""
"psychophysics","174","511442","0.0-16.0-2.0","5ed556715b338d0d1597dad9","609a8bf73b2ac84e2732f618","60a2453392245cc4c9245858","3567.9999999701977","","","","90","","","","key","16.927695238095197","683","328.5","","","","","","","","","","","","","","","","","","","",""
"psychophysics","175","512848","0.0-16.0-0.1","5ed556715b338d0d1597dad9","609a8bf73b2ac84e2732f618","60a2453392245cc4c9245858","null","","","","null","","","","key","16.972487804878124","683","328.5","","","","","","","","","","","","","","","","","","","",""
"psychophysics","176","513354","0.0-16.0-1.1","5ed556715b338d0d1597dad9","609a8bf73b2ac84e2732f618","60a2453392245cc4c9245858","null","","","","null","","","","key","16.767999999999905","683","328.5","","","","","","","","","","","","","140","-1","2","false","","","",""
"psychophysics","177","514117","0.0-16.0-2.1","5ed556715b338d0d1597dad9","609a8bf73b2ac84e2732f618","60a2453392245cc4c9245858","760.999999998603","","","","90","","","","key","17.566476190476568","683","328.5","","","","","","","","","","","","","","","","","","","",""
"psychophysics","178","515137","0.0-16.0-0.2","5ed556715b338d0d1597dad9","609a8bf73b2ac84e2732f618","60a2453392245cc4c9245858","null","","","","null","","","","key","16.76799999999997","683","328.5","","","","","","","","","","","","","","","","","","","",""
"psychophysics","179","515653","0.0-16.0-1.2","5ed556715b338d0d1597dad9","609a8bf73b2ac84e2732f618","60a2453392245cc4c9245858","null","","","","null","","","","key","16.767999999999905","683","328.5","","","","","","","","","","","","","140","1","3","false","","","",""
"psychophysics","180","516585","0.0-16.0-2.2","5ed556715b338d0d1597dad9","609a8bf73b2ac84e2732f618","60a2453392245cc4c9245858","928.0000000144355","","","","77","","","","key","17.735384615384437","683","328.5","","","","","","","","","","","","","","","","","","","",""
"psychophysics","181","517582","0.0-16.0-0.3","5ed556715b338d0d1597dad9","609a8bf73b2ac84e2732f618","60a2453392245cc4c9245858","null","","","","null","","","","key","17.062175438596395","683","328.5","","","","","","","","","","","","","","","","","","","",""
"psychophysics","182","518087","0.0-16.0-1.3","5ed556715b338d0d1597dad9","609a8bf73b2ac84e2732f618","60a2453392245cc4c9245858","null","","","","null","","","","key","17.366857142857043","683","328.5","","","","","","","","","","","","","140","1","5","false","","","",""
"psychophysics","183","518796","0.0-16.0-2.3","5ed556715b338d0d1597dad9","609a8bf73b2ac84e2732f618","60a2453392245cc4c9245858","705.0000000162981","","","","77","","","","key","16.767999999998874","683","328.5","","","","","","","","","","","","","","","","","","","",""
"psychophysics","184","520049","0.0-16.0-0.4","5ed556715b338d0d1597dad9","609a8bf73b2ac84e2732f618","60a2453392245cc4c9245858","null","","","","null","","","","key","17.227397260273655","683","328.5","","","","","","","","","","","","","","","","","","","",""
"psychophysics","185","520560","0.0-16.0-1.4","5ed556715b338d0d1597dad9","609a8bf73b2ac84e2732f618","60a2453392245cc4c9245858","null","","","","null","","","","key","17.366857142857043","683","328.5","","","","","","","","","","","","","140","1","2","false","","","",""
"psychophysics","186","521078","0.0-16.0-2.4","5ed556715b338d0d1597dad9","609a8bf73b2ac84e2732f618","60a2453392245cc4c9245858","514.9999999557622","","","","90","","","","key","16.76800000000124","683","328.5","","","","","","","","","","","","","","","","","","","",""
"psychophysics","187","521604","0.0-16.0-0.5","5ed556715b338d0d1597dad9","609a8bf73b2ac84e2732f618","60a2453392245cc4c9245858","null","","","","null","","","","key","17.346206896548996","683","328.5","","","","","","","","","","","","","","","","","","","",""
"psychophysics","188","522115","0.0-16.0-1.5","5ed556715b338d0d1597dad9","609a8bf73b2ac84e2732f618","60a2453392245cc4c9245858","null","","","","null","","","","key","16.76800000000124","683","328.5","","","","","","","","","","","","","140","1","6","false","","","",""
"psychophysics","189","522553","0.0-16.0-2.5","5ed556715b338d0d1597dad9","609a8bf73b2ac84e2732f618","60a2453392245cc4c9245858","435.9999999869615","","","","77","","","","key","16.768000000002793","683","328.5","","","","","","","","","","","","","","","","","","","",""
"psychophysics","190","523630","0.0-16.0-0.6","5ed556715b338d0d1597dad9","609a8bf73b2ac84e2732f618","60a2453392245cc4c9245858","null","","","","null","","","","key","17.03845161290261","683","328.5","","","","","","","","","","","","","","","","","","","",""
"psychophysics","191","524133","0.0-16.0-1.6","5ed556715b338d0d1597dad9","609a8bf73b2ac84e2732f618","60a2453392245cc4c9245858","null","","","","null","","","","key","16.767999999999905","683","328.5","","","","","","","","","","","","","140","1","4","false","","","",""
"psychophysics","192","524382","0.0-16.0-2.6","5ed556715b338d0d1597dad9","609a8bf73b2ac84e2732f618","60a2453392245cc4c9245858","244.0000000060536","","","","77","","","","key","18.057846153844505","683","328.5","","","","","","","","","","","","","","","","","","","",""
"psychophysics","193","525825","0.0-16.0-0.7","5ed556715b338d0d1597dad9","609a8bf73b2ac84e2732f618","60a2453392245cc4c9245858","null","","","","null","","","","key","17.17204819277142","683","328.5","","","","","","","","","","","","","","","","","","","",""
"psychophysics","194","526329","0.0-16.0-1.7","5ed556715b338d0d1597dad9","609a8bf73b2ac84e2732f618","60a2453392245cc4c9245858","null","","","","null","","","","key","16.767999999999905","683","328.5","","","","","","","","","","","","","140","-1","3","false","","","",""
"psychophysics","195","526601","0.0-16.0-2.7","5ed556715b338d0d1597dad9","609a8bf73b2ac84e2732f618","60a2453392245cc4c9245858","270.00000001862645","","","","90","","","","key","16.76800000000124","683","328.5","","","","","","","","","","","","","","","","","","","",""
"psychophysics","196","527929","0.0-16.0-0.8","5ed556715b338d0d1597dad9","609a8bf73b2ac84e2732f618","60a2453392245cc4c9245858","null","","","","null","","","","key","17.203532467531222","683","328.5","","","","","","","","","","","","","","","","","","","",""
"psychophysics","197","528438","0.0-16.0-1.8","5ed556715b338d0d1597dad9","609a8bf73b2ac84e2732f618","60a2453392245cc4c9245858","null","","","","null","","","","key","16.767999999999905","683","328.5","","","","","","","","","","","","","140","-1","4","false","","","",""
"psychophysics","198","528744","0.0-16.0-2.8","5ed556715b338d0d1597dad9","609a8bf73b2ac84e2732f618","60a2453392245cc4c9245858","304.0000000037253","","","","90","","","","key","16.76799999999896","683","328.5","","","","","","","","","","","","","","","","","","","",""
"psychophysics","199","529333","0.0-16.0-0.9","5ed556715b338d0d1597dad9","609a8bf73b2ac84e2732f618","60a2453392245cc4c9245858","null","","","","null","","","","key","17.276121212120138","683","328.5","","","","","","","","","","","","","","","","","","","",""
"psychophysics","200","529843","0.0-16.0-1.9","5ed556715b338d0d1597dad9","609a8bf73b2ac84e2732f618","60a2453392245cc4c9245858","null","","","","null","","","","key","17.346206896548996","683","328.5","","","","","","","","","","","","","140","-1","0","false","","","",""
"psychophysics","201","530734","0.0-16.0-2.9","5ed556715b338d0d1597dad9","609a8bf73b2ac84e2732f618","60a2453392245cc4c9245858","887.9999999771826","","","","77","","","","key","18.551829787233764","683","328.5","","","","","","","","","","","","","","","","","","","",""
"psychophysics","202","531383","0.0-16.0-0.10","5ed556715b338d0d1597dad9","609a8bf73b2ac84e2732f618","60a2453392245cc4c9245858","null","","","","null","","","","key","17.221189189189417","683","328.5","","","","","","","","","","","","","","","","","","","",""
"psychophysics","203","531897","0.0-16.0-1.10","5ed556715b338d0d1597dad9","609a8bf73b2ac84e2732f618","60a2453392245cc4c9245858","null","","","","null","","","","key","16.767999999999905","683","328.5","","","","","","","","","","","","","140","-1","5","false","","","",""
"psychophysics","204","532433","0.0-16.0-2.10","5ed556715b338d0d1597dad9","609a8bf73b2ac84e2732f618","60a2453392245cc4c9245858","533.9999999850988","","","","77","","","","key","16.76799999999874","683","328.5","","","","","","","","","","","","","","","","","","","",""
"psychophysics","205","533631","0.0-16.0-0.11","5ed556715b338d0d1597dad9","609a8bf73b2ac84e2732f618","60a2453392245cc4c9245858","null","","","","null","","","","key","17.007542857143562","683","328.5","","","","","","","","","","","","","","","","","","","",""
"psychophysics","206","534141","0.0-16.0-1.11","5ed556715b338d0d1597dad9","609a8bf73b2ac84e2732f618","60a2453392245cc4c9245858","null","","","","null","","","","key","16.768000000002626","683","328.5","","","","","","","","","","","","","140","-1","6","false","","","",""
"psychophysics","207","534347","0.0-16.0-2.11","5ed556715b338d0d1597dad9","609a8bf73b2ac84e2732f618","60a2453392245cc4c9245858","201.9999999902211","","","","77","","","","key","16.767999999997713","683","328.5","","","","","","","","","","","","","","","","","","","",""
"psychophysics","208","535697","0.0-16.0-0.12","5ed556715b338d0d1597dad9","609a8bf73b2ac84e2732f618","60a2453392245cc4c9245858","null","","","","null","","","","key","16.980253164556256","683","328.5","","","","","","","","","","","","","","","","","","","",""
"psychophysics","209","536208","0.0-16.0-1.12","5ed556715b338d0d1597dad9","609a8bf73b2ac84e2732f618","60a2453392245cc4c9245858","null","","","","null","","","","key","18.01007407407397","683","328.5","","","","","","","","","","","","","140","-1","0","false","","","",""
"psychophysics","210","536555","0.0-16.0-2.12","5ed556715b338d0d1597dad9","609a8bf73b2ac84e2732f618","60a2453392245cc4c9245858","342.99999999348074","","","","77","","","","key","16.7679999999993","683","328.5","","","","","","","","","","","","","","","","","","","",""
"psychophysics","211","537189","0.0-16.0-0.13","5ed556715b338d0d1597dad9","609a8bf73b2ac84e2732f618","60a2453392245cc4c9245858","null","","","","null","","","","key","16.768000000002292","683","328.5","","","","","","","","","","","","","","","","","","","",""
"psychophysics","212","537704","0.0-16.0-1.13","5ed556715b338d0d1597dad9","609a8bf73b2ac84e2732f618","60a2453392245cc4c9245858","null","","","","null","","","","key","16.767999999999905","683","328.5","","","","","","","","","","","","","140","1","5","false","","","",""
"psychophysics","213","538284","0.0-16.0-2.13","5ed556715b338d0d1597dad9","609a8bf73b2ac84e2732f618","60a2453392245cc4c9245858","576.0000000009313","","","","77","","","","key","17.276121212120138","683","328.5","","","","","","","","","","","","","","","","","","","",""
"psychophysics","214","539497","0.0-16.0-0.14","5ed556715b338d0d1597dad9","609a8bf73b2ac84e2732f618","60a2453392245cc4c9245858","null","","","","null","","","","key","16.767999999999056","683","328.5","","","","","","","","","","","","","","","","","","","",""
"psychophysics","215","540004","0.0-16.0-1.14","5ed556715b338d0d1597dad9","609a8bf73b2ac84e2732f618","60a2453392245cc4c9245858","null","","","","null","","","","key","17.34620689655301","683","328.5","","","","","","","","","","","","","140","1","3","false","","","",""
"psychophysics","216","540379","0.0-16.0-2.14","5ed556715b338d0d1597dad9","609a8bf73b2ac84e2732f618","60a2453392245cc4c9245858","374.0000000107102","","","","90","","","","key","17.606400000001305","683","328.5","","","","","","","","","","","","","","","","","","","",""
"psychophysics","217","541718","0.0-16.0-0.15","5ed556715b338d0d1597dad9","609a8bf73b2ac84e2732f618","60a2453392245cc4c9245858","null","","","","null","","","","key","16.982974358974623","683","328.5","","","","","","","","","","","","","","","","","","","",""
"psychophysics","218","542223","0.0-16.0-1.15","5ed556715b338d0d1597dad9","609a8bf73b2ac84e2732f618","60a2453392245cc4c9245858","null","","","","null","","","","key","17.366857142857043","683","328.5","","","","","","","","","","","","","140","1","6","false","","","",""
"psychophysics","219","542722","0.0-16.0-2.15","5ed556715b338d0d1597dad9","609a8bf73b2ac84e2732f618","60a2453392245cc4c9245858","494.9999999953434","","","","77","","","","key","16.767999999999905","683","328.5","","","","","","","","","","","","","","","","","","","",""
"psychophysics","220","544134","0.0-16.0-0.16","5ed556715b338d0d1597dad9","609a8bf73b2ac84e2732f618","60a2453392245cc4c9245858","null","","","","null","","","","key","17.18202469135738","683","328.5","","","","","","","","","","","","","","","","","","","",""
"psychophysics","221","544645","0.0-16.0-1.16","5ed556715b338d0d1597dad9","609a8bf73b2ac84e2732f618","60a2453392245cc4c9245858","null","","","","null","","","","key","16.767999999999905","683","328.5","","","","","","","","","","","","","140","1","2","false","","","",""
"psychophysics","222","544744","0.0-16.0-2.16","5ed556715b338d0d1597dad9","609a8bf73b2ac84e2732f618","60a2453392245cc4c9245858","94.99999997206032","","","","77","","","","key","16.768000000016762","683","328.5","","","","","","","","","","","","","","","","","","","",""
"psychophysics","223","546007","0.0-16.0-0.17","5ed556715b338d0d1597dad9","609a8bf73b2ac84e2732f618","60a2453392245cc4c9245858","null","","","","null","","","","key","16.994594594595853","683","328.5","","","","","","","","","","","","","","","","","","","",""
"psychophysics","224","546509","0.0-16.0-1.17","5ed556715b338d0d1597dad9","609a8bf73b2ac84e2732f618","60a2453392245cc4c9245858","null","","","","null","","","","key","16.767999999999905","683","328.5","","","","","","","","","","","","","140","-1","6","false","","","",""
"psychophysics","225","546799","0.0-16.0-2.17","5ed556715b338d0d1597dad9","609a8bf73b2ac84e2732f618","60a2453392245cc4c9245858","286.0000000218861","","","","77","","","","key","17.885866666662817","683","328.5","","","","","","","","","","","","","","","","","","","",""
"psychophysics","226","548209","0.0-16.0-0.18","5ed556715b338d0d1597dad9","609a8bf73b2ac84e2732f618","60a2453392245cc4c9245858","null","","","","null","","","","key","16.768000000000775","683","328.5","","","","","","","","","","","","","","","","","","","",""
"psychophysics","227","548721","0.0-16.0-1.18","5ed556715b338d0d1597dad9","609a8bf73b2ac84e2732f618","60a2453392245cc4c9245858","null","","","","null","","","","key","16.76800000000124","683","328.5","","","","","","","","","","","","","140","1","0","false","","","",""
"psychophysics","228","549113","0.0-16.0-2.18","5ed556715b338d0d1597dad9","609a8bf73b2ac84e2732f618","60a2453392245cc4c9245858","390.00000001396984","","","","90","","","","key","17.60639999999548","683","328.5","","","","","","","","","","","","","","","","","","","",""
"psychophysics","229","550525","0.0-16.0-0.19","5ed556715b338d0d1597dad9","609a8bf73b2ac84e2732f618","60a2453392245cc4c9245858","null","","","","null","","","","key","16.970024096385398","683","328.5","","","","","","","","","","","","","","","","","","","",""
"psychophysics","230","551031","0.0-16.0-1.19","5ed556715b338d0d1597dad9","609a8bf73b2ac84e2732f618","60a2453392245cc4c9245858","null","","","","null","","","","key","16.767999999999905","683","328.5","","","","","","","","","","","","","140","-1","4","false","","","",""
"psychophysics","231","551328","0.0-16.0-2.19","5ed556715b338d0d1597dad9","609a8bf73b2ac84e2732f618","60a2453392245cc4c9245858","288.99999998975545","","","","77","","","","key","16.768000000003667","683","328.5","","","","","","","","","","","","","","","","","","","",""
"psychophysics","232","552662","0.0-16.0-0.20","5ed556715b338d0d1597dad9","609a8bf73b2ac84e2732f618","60a2453392245cc4c9245858","null","","","","null","","","","key","16.98297435897313","683","328.5","","","","","","","","","","","","","","","","","","","",""
"psychophysics","233","553172","0.0-16.0-1.20","5ed556715b338d0d1597dad9","609a8bf73b2ac84e2732f618","60a2453392245cc4c9245858","null","","","","null","","","","key","17.34620689655301","683","328.5","","","","","","","","","","","","","140","-1","3","false","","","",""
"psychophysics","234","553899","0.0-16.0-2.20","5ed556715b338d0d1597dad9","609a8bf73b2ac84e2732f618","60a2453392245cc4c9245858","724.0000000456348","","","","77","","","","key","16.76800000000124","683","328.5","","","","","","","","","","","","","","","","","","","",""
"psychophysics","235","554911","0.0-16.0-0.21","5ed556715b338d0d1597dad9","609a8bf73b2ac84e2732f618","60a2453392245cc4c9245858","null","","","","null","","","","key","17.0522033898298","683","328.5","","","","","","","","","","","","","","","","","","","",""
"psychophysics","236","555416","0.0-16.0-1.21","5ed556715b338d0d1597dad9","609a8bf73b2ac84e2732f618","60a2453392245cc4c9245858","null","","","","null","","","","key","16.767999999999905","683","328.5","","","","","","","","","","","","","140","1","4","false","","","",""
"psychophysics","237","555925","0.0-16.0-2.21","5ed556715b338d0d1597dad9","609a8bf73b2ac84e2732f618","60a2453392245cc4c9245858","505.9999999939464","","","","77","","","","key","16.767999999999905","683","328.5","","","","","","","","","","","","","","","","","","","",""
"psychophysics","238","556759","0.0-16.0-0.22","5ed556715b338d0d1597dad9","609a8bf73b2ac84e2732f618","60a2453392245cc4c9245858","null","","","","null","","","","key","16.76799999999966","683","328.5","","","","","","","","","","","","","","","","","","","",""
"psychophysics","239","557264","0.0-16.0-1.22","5ed556715b338d0d1597dad9","609a8bf73b2ac84e2732f618","60a2453392245cc4c9245858","null","","","","null","","","","key","16.767999999999905","683","328.5","","","","","","","","","","","","","140","-1","5","false","","","",""
"psychophysics","240","557982","0.0-16.0-2.22","5ed556715b338d0d1597dad9","609a8bf73b2ac84e2732f618","60a2453392245cc4c9245858","714.0000000363216","","","","77","","","","key","17.627897435897747","683","328.5","","","","","","","","","","","","","","","","","","","",""
"psychophysics","241","558708","0.0-16.0-0.23","5ed556715b338d0d1597dad9","609a8bf73b2ac84e2732f618","60a2453392245cc4c9245858","null","","","","null","","","","key","16.767999999999436","683","328.5","","","","","","","","","","","","","","","","","","","",""
"psychophysics","242","559214","0.0-16.0-1.23","5ed556715b338d0d1597dad9","609a8bf73b2ac84e2732f618","60a2453392245cc4c9245858","null","","","","null","","","","key","16.767999999999905","683","328.5","","","","","","","","","","","","","140","-1","2","false","","","",""
"psychophysics","243","559467","0.0-16.0-2.23","5ed556715b338d0d1597dad9","609a8bf73b2ac84e2732f618","60a2453392245cc4c9245858","249.0000000107102","","","","77","","","","key","16.76799999999847","683","328.5","","","","","","","","","","","","","","","","","","","",""
"html-keyboard-response","244","563413","0.0-17.0","5ed556715b338d0d1597dad9","609a8bf73b2ac84e2732f618","60a2453392245cc4c9245858","3944.000000017695","<p>Well Done !</p><p>Training Complete. Press the spacebar to start.</p><p>DON'T EXIT THE FULL SCREEN MODE</p>","","","32","","","","","","","","","","","","","","","","","","","","","","","","","","",""
"psychophysics","245","566731","0.0-18.0-0.0","5ed556715b338d0d1597dad9","609a8bf73b2ac84e2732f618","60a2453392245cc4c9245858","null","","","","null","","","","key","16.768000000000736","683","328.5","","","","","","","","","","","","","","","","","","","",""
"psychophysics","246","567236","0.0-18.0-1.0","5ed556715b338d0d1597dad9","609a8bf73b2ac84e2732f618","60a2453392245cc4c9245858","null","","","","null","","","","key","17.34620689655301","683","328.5","","","","","","","","","","","","","140","-1","4","true","","","",""
"psychophysics","247","572262","0.0-18.0-2.0","5ed556715b338d0d1597dad9","609a8bf73b2ac84e2732f618","60a2453392245cc4c9245858","5022.999999986496","","","","90","","","","key","16.881297297297106","683","328.5","","","","","","","","","","","","","","","","","","","",""
"psychophysics","248","573454","0.0-18.0-0.1","5ed556715b338d0d1597dad9","609a8bf73b2ac84e2732f618","60a2453392245cc4c9245858","null","","","","null","","","","key","17.01101449275376","683","328.5","","","","","","","","","","","","","","","","","","","",""
"psychophysics","249","573960","0.0-18.0-1.1","5ed556715b338d0d1597dad9","609a8bf73b2ac84e2732f618","60a2453392245cc4c9245858","null","","","","null","","","","key","17.346206896548996","683","328.5","","","","","","","","","","","","","140","-1","0","true","","","",""
"psychophysics","250","574811","0.0-18.0-2.1","5ed556715b338d0d1597dad9","609a8bf73b2ac84e2732f618","60a2453392245cc4c9245858","847.9999999981374","","","","90","","","","key","17.117333333332983","683","328.5","","","","","","","","","","","","","","","","","","","",""
"psychophysics","251","575662","0.0-18.0-0.2","5ed556715b338d0d1597dad9","609a8bf73b2ac84e2732f618","60a2453392245cc4c9245858","null","","","","null","","","","key","16.76799999999814","683","328.5","","","","","","","","","","","","","","","","","","","",""
"psychophysics","252","576172","0.0-18.0-1.2","5ed556715b338d0d1597dad9","609a8bf73b2ac84e2732f618","60a2453392245cc4c9245858","null","","","","null","","","","key","16.767999999999905","683","328.5","","","","","","","","","","","","","140","1","6","true","","","",""
"psychophysics","253","576698","0.0-18.0-2.2","5ed556715b338d0d1597dad9","609a8bf73b2ac84e2732f618","60a2453392245cc4c9245858","519.0000000293367","","","","77","","","","key","17.32693333333203","683","328.5","","","","","","","","","","","","","","","","","","","",""
"psychophysics","254","577369","0.0-18.0-0.3","5ed556715b338d0d1597dad9","609a8bf73b2ac84e2732f618","60a2453392245cc4c9245858","null","","","","null","","","","key","17.20926315789295","683","328.5","","","","","","","","","","","","","","","","","","","",""
"psychophysics","255","577874","0.0-18.0-1.3","5ed556715b338d0d1597dad9","609a8bf73b2ac84e2732f618","60a2453392245cc4c9245858","null","","","","null","","","","key","16.767999999999905","683","328.5","","","","","","","","","","","","","140","1","0","true","","","",""
"psychophysics","256","578251","0.0-18.0-2.3","5ed556715b338d0d1597dad9","609a8bf73b2ac84e2732f618","60a2453392245cc4c9245858","375","","","","90","","","","key","16.7679999999957","683","328.5","","","","","","","","","","","","","","","","","","","",""
"psychophysics","257","578821","0.0-18.0-0.4","5ed556715b338d0d1597dad9","609a8bf73b2ac84e2732f618","60a2453392245cc4c9245858","null","","","","null","","","","key","16.76799999999896","683","328.5","","","","","","","","","","","","","","","","","","","",""
"psychophysics","258","579325","0.0-18.0-1.4","5ed556715b338d0d1597dad9","609a8bf73b2ac84e2732f618","60a2453392245cc4c9245858","null","","","","null","","","","key","17.38903703703545","683","328.5","","","","","","","","","","","","","140","-1","5","true","","","",""
"psychophysics","259","579586","0.0-18.0-2.4","5ed556715b338d0d1597dad9","609a8bf73b2ac84e2732f618","60a2453392245cc4c9245858","255.9999999939464","","","","77","","","","key","16.76800000000124","683","328.5","","","","","","","","","","","","","","","","","","","",""
"psychophysics","260","580348","0.0-18.0-0.5","5ed556715b338d0d1597dad9","609a8bf73b2ac84e2732f618","60a2453392245cc4c9245858","null","","","","null","","","","key","16.767999999998654","683","328.5","","","","","","","","","","","","","","","","","","","",""
"psychophysics","261","580849","0.0-18.0-1.5","5ed556715b338d0d1597dad9","609a8bf73b2ac84e2732f618","60a2453392245cc4c9245858","null","","","","null","","","","key","16.76799999999847","683","328.5","","","","","","","","","","","","","140","1","3","true","","","",""
"psychophysics","262","581773","0.0-18.0-2.5","5ed556715b338d0d1597dad9","609a8bf73b2ac84e2732f618","60a2453392245cc4c9245858","919.9999999837019","","","","77","","","","key","17.078518518518347","683","328.5","","","","","","","","","","","","","","","","","","","",""
"psychophysics","263","583086","0.0-18.0-0.6","5ed556715b338d0d1597dad9","609a8bf73b2ac84e2732f618","60a2453392245cc4c9245858","null","","","","null","","","","key","17.215146666665873","683","328.5","","","","","","","","","","","","","","","","","","","",""
"psychophysics","264","583593","0.0-18.0-1.6","5ed556715b338d0d1597dad9","609a8bf73b2ac84e2732f618","60a2453392245cc4c9245858","null","","","","null","","","","key","16.767999999999905","683","328.5","","","","","","","","","","","","","140","-1","3","true","","","",""
"psychophysics","265","584089","0.0-18.0-2.6","5ed556715b338d0d1597dad9","609a8bf73b2ac84e2732f618","60a2453392245cc4c9245858","493.99999994784594","","","","77","","","","key","17.366857142857043","683","328.5","","","","","","","","","","","","","","","","","","","",""
"psychophysics","266","584797","0.0-18.0-0.7","5ed556715b338d0d1597dad9","609a8bf73b2ac84e2732f618","60a2453392245cc4c9245858","null","","","","null","","","","key","17.627897435897747","683","328.5","","","","","","","","","","","","","","","","","","","",""
"psychophysics","267","585304","0.0-18.0-1.7","5ed556715b338d0d1597dad9","609a8bf73b2ac84e2732f618","60a2453392245cc4c9245858","null","","","","null","","","","key","17.366857142857043","683","328.5","","","","","","","","","","","","","140","-1","6","true","","","",""
"psychophysics","268","585501","0.0-18.0-2.7","5ed556715b338d0d1597dad9","609a8bf73b2ac84e2732f618","60a2453392245cc4c9245858","194.00000001769513","","","","77","","","","key","16.768000000008296","683","328.5","","","","","","","","","","","","","","","","","","","",""
"psychophysics","269","586683","0.0-18.0-0.8","5ed556715b338d0d1597dad9","609a8bf73b2ac84e2732f618","60a2453392245cc4c9245858","null","","","","null","","","","key","16.767999999999553","683","328.5","","","","","","","","","","","","","","","","","","","",""
"psychophysics","270","587190","0.0-18.0-1.8","5ed556715b338d0d1597dad9","609a8bf73b2ac84e2732f618","60a2453392245cc4c9245858","null","","","","null","","","","key","16.76800000000124","683","328.5","","","","","","","","","","","","","140","1","4","true","","","",""
"psychophysics","271","587495","0.0-18.0-2.8","5ed556715b338d0d1597dad9","609a8bf73b2ac84e2732f618","60a2453392245cc4c9245858","303.0000000144355","","","","90","","","","key","19.163428571432764","683","328.5","","","","","","","","","","","","","","","","","","","",""
"psychophysics","272","588564","0.0-18.0-0.9","5ed556715b338d0d1597dad9","609a8bf73b2ac84e2732f618","60a2453392245cc4c9245858","null","","","","null","","","","key","17.03845161290261","683","328.5","","","","","","","","","","","","","","","","","","","",""
"psychophysics","273","589068","0.0-18.0-1.9","5ed556715b338d0d1597dad9","609a8bf73b2ac84e2732f618","60a2453392245cc4c9245858","null","","","","null","","","","key","16.76799999999736","683","328.5","","","","","","","","","","","","","140","1","2","true","","","",""
"psychophysics","274","589558","0.0-18.0-2.9","5ed556715b338d0d1597dad9","609a8bf73b2ac84e2732f618","60a2453392245cc4c9245858","486.0000000335276","","","","90","","","","key","16.76799999999847","683","328.5","","","","","","","","","","","","","","","","","","","",""
"psychophysics","275","590233","0.0-18.0-0.10","5ed556715b338d0d1597dad9","609a8bf73b2ac84e2732f618","60a2453392245cc4c9245858","null","","","","null","","","","key","16.76800000000124","683","328.5","","","","","","","","","","","","","","","","","","","",""
"psychophysics","276","590745","0.0-18.0-1.10","5ed556715b338d0d1597dad9","609a8bf73b2ac84e2732f618","60a2453392245cc4c9245858","null","","","","null","","","","key","16.76800000000124","683","328.5","","","","","","","","","","","","","140","1","5","true","","","",""
"psychophysics","277","591072","0.0-18.0-2.10","5ed556715b338d0d1597dad9","609a8bf73b2ac84e2732f618","60a2453392245cc4c9245858","321.9999999855645","","","","90","","","","key","17.754352941177785","683","328.5","","","","","","","","","","","","","","","","","","","",""
"psychophysics","278","591685","0.0-18.0-0.11","5ed556715b338d0d1597dad9","609a8bf73b2ac84e2732f618","60a2453392245cc4c9245858","null","","","","null","","","","key","17.247085714286992","683","328.5","","","","","","","","","","","","","","","","","","","",""
"psychophysics","279","592196","0.0-18.0-1.11","5ed556715b338d0d1597dad9","609a8bf73b2ac84e2732f618","60a2453392245cc4c9245858","null","","","","null","","","","key","16.767999999999905","683","328.5","","","","","","","","","","","","","140","-1","2","true","","","",""
"psychophysics","280","592562","0.0-18.0-2.11","5ed556715b338d0d1597dad9","609a8bf73b2ac84e2732f618","60a2453392245cc4c9245858","362.99999995389953","","","","77","","","","key","16.76800000000124","683","328.5","","","","","","","","","","","","","","","","","","","",""
"psychophysics","281","593333","0.0-18.0-0.12","5ed556715b338d0d1597dad9","609a8bf73b2ac84e2732f618","60a2453392245cc4c9245858","null","","","","null","","","","key","18.812878048782828","683","328.5","","","","","","","","","","","","","","","","","","","",""
"psychophysics","282","593836","0.0-18.0-1.12","5ed556715b338d0d1597dad9","609a8bf73b2ac84e2732f618","60a2453392245cc4c9245858","null","","","","null","","","","key","18.01007407407397","683","328.5","","","","","","","","","","","","","140","1","6","true","","","",""
"psychophysics","283","594242","0.0-18.0-2.12","5ed556715b338d0d1597dad9","609a8bf73b2ac84e2732f618","60a2453392245cc4c9245858","404.0000000386499","","","","90","","","","key","16.767999999999553","683","328.5","","","","","","","","","","","","","","","","","","","",""
"psychophysics","284","595670","0.0-18.0-0.13","5ed556715b338d0d1597dad9","609a8bf73b2ac84e2732f618","60a2453392245cc4c9245858","null","","","","null","","","","key","17.17697560975595","683","328.5","","","","","","","","","","","","","","","","","","","",""
"psychophysics","285","596180","0.0-18.0-1.13","5ed556715b338d0d1597dad9","609a8bf73b2ac84e2732f618","60a2453392245cc4c9245858","null","","","","null","","","","key","16.76799999999736","683","328.5","","","","","","","","","","","","","140","1","3","true","","","",""
"psychophysics","286","596437","0.0-18.0-2.13","5ed556715b338d0d1597dad9","609a8bf73b2ac84e2732f618","60a2453392245cc4c9245858","253.99999995715916","","","","77","","","","key","16.76799999999847","683","328.5","","","","","","","","","","","","","","","","","","","",""
"psychophysics","287","597342","0.0-18.0-0.14","5ed556715b338d0d1597dad9","609a8bf73b2ac84e2732f618","60a2453392245cc4c9245858","null","","","","null","","","","key","16.76800000000051","683","328.5","","","","","","","","","","","","","","","","","","","",""
"psychophysics","288","597851","0.0-18.0-1.14","5ed556715b338d0d1597dad9","609a8bf73b2ac84e2732f618","60a2453392245cc4c9245858","null","","","","null","","","","key","17.366857142857043","683","328.5","","","","","","","","","","","","","140","-1","0","true","","","",""
"psychophysics","289","598131","0.0-18.0-2.14","5ed556715b338d0d1597dad9","609a8bf73b2ac84e2732f618","60a2453392245cc4c9245858","266.00000000325963","","","","77","","","","key","16.76799999999639","683","328.5","","","","","","","","","","","","","","","","","","","",""
"psychophysics","290","599081","0.0-18.0-0.15","5ed556715b338d0d1597dad9","609a8bf73b2ac84e2732f618","60a2453392245cc4c9245858","null","","","","null","","","","key","17.389037037037607","683","328.5","","","","","","","","","","","","","","","","","","","",""
"psychophysics","291","599588","0.0-18.0-1.15","5ed556715b338d0d1597dad9","609a8bf73b2ac84e2732f618","60a2453392245cc4c9245858","null","","","","null","","","","key","16.767999999999905","683","328.5","","","","","","","","","","","","","140","-1","4","true","","","",""
"psychophysics","292","599741","0.0-18.0-2.15","5ed556715b338d0d1597dad9","609a8bf73b2ac84e2732f618","60a2453392245cc4c9245858","149.9999999650754","","","","77","","","","key","16.76799999999639","683","328.5","","","","","","","","","","","","","","","","","","","",""
"psychophysics","293","600990","0.0-18.0-0.16","5ed556715b338d0d1597dad9","609a8bf73b2ac84e2732f618","60a2453392245cc4c9245858","null","","","","null","","","","key","16.76800000000072","683","328.5","","","","","","","","","","","","","","","","","","","",""
"psychophysics","294","601495","0.0-18.0-1.16","5ed556715b338d0d1597dad9","609a8bf73b2ac84e2732f618","60a2453392245cc4c9245858","null","","","","null","","","","key","17.366857142857043","683","328.5","","","","","","","","","","","","","140","1","5","true","","","",""
"psychophysics","295","602125","0.0-18.0-2.16","5ed556715b338d0d1597dad9","609a8bf73b2ac84e2732f618","60a2453392245cc4c9245858","625.9999999892898","","","","77","","","","key","16.76800000000124","683","328.5","","","","","","","","","","","","","","","","","","","",""
"psychophysics","296","602893","0.0-18.0-0.17","5ed556715b338d0d1597dad9","609a8bf73b2ac84e2732f618","60a2453392245cc4c9245858","null","","","","null","","","","key","17.14909090909218","683","328.5","","","","","","","","","","","","","","","","","","","",""
"psychophysics","297","603402","0.0-18.0-1.17","5ed556715b338d0d1597dad9","609a8bf73b2ac84e2732f618","60a2453392245cc4c9245858","null","","","","null","","","","key","16.767999999999905","683","328.5","","","","","","","","","","","","","140","-1","3","true","","","",""
"psychophysics","298","603662","0.0-18.0-2.17","5ed556715b338d0d1597dad9","609a8bf73b2ac84e2732f618","60a2453392245cc4c9245858","255.0000000046566","","","","77","","","","key","16.76800000000124","683","328.5","","","","","","","","","","","","","","","","","","","",""
"psychophysics","299","604645","0.0-18.0-0.18","5ed556715b338d0d1597dad9","609a8bf73b2ac84e2732f618","60a2453392245cc4c9245858","null","","","","null","","","","key","17.062175438596395","683","328.5","","","","","","","","","","","","","","","","","","","",""
"psychophysics","300","605155","0.0-18.0-1.18","5ed556715b338d0d1597dad9","609a8bf73b2ac84e2732f618","60a2453392245cc4c9245858","null","","","","null","","","","key","17.366857142857043","683","328.5","","","","","","","","","","","","","140","-1","6","true","","","",""
"psychophysics","301","605454","0.0-18.0-2.18","5ed556715b338d0d1597dad9","609a8bf73b2ac84e2732f618","60a2453392245cc4c9245858","297.0000000204891","","","","77","","","","key","16.76799999999896","683","328.5","","","","","","","","","","","","","","","","","","","",""
"psychophysics","302","606489","0.0-18.0-0.19","5ed556715b338d0d1597dad9","609a8bf73b2ac84e2732f618","60a2453392245cc4c9245858","null","","","","null","","","","key","16.76799999999997","683","328.5","","","","","","","","","","","","","","","","","","","",""
"psychophysics","303","606998","0.0-18.0-1.19","5ed556715b338d0d1597dad9","609a8bf73b2ac84e2732f618","60a2453392245cc4c9245858","null","","","","null","","","","key","18.010074074078283","683","328.5","","","","","","","","","","","","","140","-1","2","true","","","",""
"psychophysics","304","607168","0.0-18.0-2.19","5ed556715b338d0d1597dad9","609a8bf73b2ac84e2732f618","60a2453392245cc4c9245858","167.00000001583248","","","","77","","","","key","18.864000000001397","683","328.5","","","","","","","","","","","","","","","","","","","",""
"psychophysics","305","608343","0.0-18.0-0.20","5ed556715b338d0d1597dad9","609a8bf73b2ac84e2732f618","60a2453392245cc4c9245858","null","","","","null","","","","key","17.014588235293665","683","328.5","","","","","","","","","","","","","","","","","","","",""
"psychophysics","306","608854","0.0-18.0-1.20","5ed556715b338d0d1597dad9","609a8bf73b2ac84e2732f618","60a2453392245cc4c9245858","null","","","","null","","","","key","17.366857142857043","683","328.5","","","","","","","","","","","","","140","-1","5","true","","","",""
"psychophysics","307","609401","0.0-18.0-2.20","5ed556715b338d0d1597dad9","609a8bf73b2ac84e2732f618","60a2453392245cc4c9245858","542.0000000158325","","","","77","","","","key","17.308903225806482","683","328.5","","","","","","","","","","","","","","","","","","","",""
"psychophysics","308","610842","0.0-18.0-0.21","5ed556715b338d0d1597dad9","609a8bf73b2ac84e2732f618","60a2453392245cc4c9245858","null","","","","null","","","","key","16.768000000000328","683","328.5","","","","","","","","","","","","","","","","","","","",""
"psychophysics","309","611346","0.0-18.0-1.21","5ed556715b338d0d1597dad9","609a8bf73b2ac84e2732f618","60a2453392245cc4c9245858","null","","","","null","","","","key","16.767999999999905","683","328.5","","","","","","","","","","","","","140","1","4","true","","","",""
"psychophysics","310","611619","0.0-18.0-2.21","5ed556715b338d0d1597dad9","609a8bf73b2ac84e2732f618","60a2453392245cc4c9245858","266.00000000325963","","","","90","","","","key","16.76800000000124","683","328.5","","","","","","","","","","","","","","","","","","","",""
"psychophysics","311","612142","0.0-18.0-0.22","5ed556715b338d0d1597dad9","609a8bf73b2ac84e2732f618","60a2453392245cc4c9245858","null","","","","null","","","","key","17.9244137931021","683","328.5","","","","","","","","","","","","","","","","","","","",""
"psychophysics","312","612655","0.0-18.0-1.22","5ed556715b338d0d1597dad9","609a8bf73b2ac84e2732f618","60a2453392245cc4c9245858","null","","","","null","","","","key","18.702769230769125","683","328.5","","","","","","","","","","","","","140","1","0","true","","","",""
"psychophysics","313","613028","0.0-18.0-2.22","5ed556715b338d0d1597dad9","609a8bf73b2ac84e2732f618","60a2453392245cc4c9245858","364.000000001397","","","","90","","","","key","17.606400000001305","683","328.5","","","","","","","","","","","","","","","","","","","",""
"psychophysics","314","614248","0.0-18.0-0.23","5ed556715b338d0d1597dad9","609a8bf73b2ac84e2732f618","60a2453392245cc4c9245858","null","","","","null","","","","key","17.004169014084127","683","328.5","","","","","","","","","","","","","","","","","","","",""
"psychophysics","315","614758","0.0-18.0-1.23","5ed556715b338d0d1597dad9","609a8bf73b2ac84e2732f618","60a2453392245cc4c9245858","null","","","","null","","","","key","17.346206896548996","683","328.5","","","","","","","","","","","","","140","1","2","true","","","",""
"psychophysics","316","615252","0.0-18.0-2.23","5ed556715b338d0d1597dad9","609a8bf73b2ac84e2732f618","60a2453392245cc4c9245858","492.99999995855615","","","","77","","","","key","18.780159999998286","683","328.5","","","","","","","","","","","","","","","","","","","",""
"psychophysics","317","616528","0.0-18.0-0.24","5ed556715b338d0d1597dad9","609a8bf73b2ac84e2732f618","60a2453392245cc4c9245858","null","","","","null","","","","key","16.767999999999688","683","328.5","","","","","","","","","","","","","","","","","","","",""
"psychophysics","318","617037","0.0-18.0-1.24","5ed556715b338d0d1597dad9","609a8bf73b2ac84e2732f618","60a2453392245cc4c9245858","null","","","","null","","","","key","17.346206896548996","683","328.5","","","","","","","","","","","","","140","1","4","true","","","",""
"psychophysics","319","618256","0.0-18.0-2.24","5ed556715b338d0d1597dad9","609a8bf73b2ac84e2732f618","60a2453392245cc4c9245858","1217.000000004191","","","","90","","","","key","16.768000000000693","683","328.5","","","","","","","","","","","","","","","","","","","",""
"psychophysics","320","619456","0.0-18.0-0.25","5ed556715b338d0d1597dad9","609a8bf73b2ac84e2732f618","60a2453392245cc4c9245858","null","","","","null","","","","key","16.768000000000693","683","328.5","","","","","","","","","","","","","","","","","","","",""
"psychophysics","321","619959","0.0-18.0-1.25","5ed556715b338d0d1597dad9","609a8bf73b2ac84e2732f618","60a2453392245cc4c9245858","null","","","","null","","","","key","17.366857142857043","683","328.5","","","","","","","","","","","","","140","1","3","true","","","",""
"psychophysics","322","620550","0.0-18.0-2.25","5ed556715b338d0d1597dad9","609a8bf73b2ac84e2732f618","60a2453392245cc4c9245858","588.9999999781139","","","","90","","","","key","16.76800000000124","683","328.5","","","","","","","","","","","","","","","","","","","",""
"psychophysics","323","621677","0.0-18.0-0.26","5ed556715b338d0d1597dad9","609a8bf73b2ac84e2732f618","60a2453392245cc4c9245858","null","","","","null","","","","key","16.76800000000124","683","328.5","","","","","","","","","","","","","","","","","","","",""
"psychophysics","324","622183","0.0-18.0-1.26","5ed556715b338d0d1597dad9","609a8bf73b2ac84e2732f618","60a2453392245cc4c9245858","null","","","","null","","","","key","16.76800000000124","683","328.5","","","","","","","","","","","","","140","1","5","true","","","",""
"psychophysics","325","623669","0.0-18.0-2.26","5ed556715b338d0d1597dad9","609a8bf73b2ac84e2732f618","60a2453392245cc4c9245858","1482.0000000181608","","","","90","","","","key","17.36685714285843","683","328.5","","","","","","","","","","","","","","","","","","","",""
"psychophysics","326","624748","0.0-18.0-0.27","5ed556715b338d0d1597dad9","609a8bf73b2ac84e2732f618","60a2453392245cc4c9245858","null","","","","null","","","","key","17.034158730158758","683","328.5","","","","","","","","","","","","","","","","","","","",""
"psychophysics","327","625254","0.0-18.0-1.27","5ed556715b338d0d1597dad9","609a8bf73b2ac84e2732f618","60a2453392245cc4c9245858","null","","","","null","","","","key","17.366857142857043","683","328.5","","","","","","","","","","","","","140","-1","6","true","","","",""
"psychophysics","328","625795","0.0-18.0-2.27","5ed556715b338d0d1597dad9","609a8bf73b2ac84e2732f618","60a2453392245cc4c9245858","538.0000000004657","","","","77","","","","key","17.346206896548996","683","328.5","","","","","","","","","","","","","","","","","","","",""
