"trial_type","trial_index","time_elapsed","internal_node_id","PROLIFIC_PID","STUDY_ID","SESSION_ID","rt","stimulus","button_pressed","success","key_press","responses","isData","view_history","response_type","avg_frame_time","center_x","center_y","isSC","stim_side","trial_luminance","step_size","nReversal","correct","prev_ans","isThreshold","SC_threshold","final_threshold","isLuminance","FF_luminance","luminance","stimSide","ISInt","isFF","question_order","isSPQ","isCAPS","isAQ"
"pavlovia","0","7","0.0-0.0","5f383c7bbd56880ee4aff419","609a8bf73b2ac84e2732f618","60a2450847c021139459fb2b","","","","","","","","","","","","","","","","","","","","","","","","","","","","","","","",""
"html-button-response","1","40672","0.0-1.0","5f383c7bbd56880ee4aff419","609a8bf73b2ac84e2732f618","60a2450847c021139459fb2b","40660.744999999224","<div style='background-color: white; width:60%; margin: auto; padding: 50px; text-align: justify; text-justify: inter-word; margin-bottom: 20px;'><h1 style='text-align: center;'>Consent Form</h1><p>Please read this consent form carefully before deciding whether you would like to participate in this study. You have to be 18 years old or older to participate to this study.</p><p style='text-decoration: underline;'>Participation is voluntary:</p><p>It is your choice whether or not to participate in this research. If you choose to participate, you may change your mind and leave the study at any time. Refusal to participate or stopping your participation will involve no penalty or loss of benefits to which you are otherwise entitled.</p><p style='text-decoration: underline;'>Purpose of the Study:</p><p>To understand the mechanisms underlying human perception.</p><p style='text-decoration: underline;'>What you will do in this study:</p><p>You will be presented with a series of visual images and then you will press buttons on the keyboard of your computer to respond to simple questions about the images (e.g. Were one or two images presented?). In addition, you will be asked to complete a questionnaire concerning your beliefs and everyday mental and perceptual experiences.'</p><p style='text-decoration: underline;'> Time Required:</p><p>The study will take 40 minutes to complete. </p><p style='text-decoration: underline;'>Risks:</p><p>There are no anticipated risks associated with participating in this study that are beyond those experienced in everyday life. </p><p style='text-decoration: underline;'>Benefits:</p><p>There are no benefits to you in participating in the study. However, this study may lead to a better understanding of how different kinds of visual information are used.</p><p style='text-decoration: underline;'>Compensation:</p><p>You will be paid US$6.6/hour. </p><p style='text-decoration: underline;'>Privacy and Confidentiality:</p><p>Your participation in this study will be anonymous. No personal information about your name or identity will be asked or recorded. This anonymous data will be stored for several years and may be used for a variety of research purposes. The overall results of the study may be published, or the data files may be shared with other researchers, but your identity will not be revealed in any way. The online services we are using for this study may temporarily store your data, but this data will be downloaded and then promptly deleted from those services.Your data will not be permanently associated with your name, IP address, or any other identifiable information (e.g., your information will only be connected to your payment, not to any of your responses), though they may be temporarily stored together before we download and separate them. Even so, no guarantee of internet survey security can be given because, although unlikely, transmissions can be intercepted and IP addresses can be identified. The anonymous data may be shared publicly (for example, in conjunction with a resulting academic publication).</p><p style='text-decoration: underline;'>Participation and Withdrawal:</p><p>Your participation in this study is completely voluntary. You may stop responding to the stimuli or stop answering questions if you so choose and without penalty by exiting the full screen mode, closing this tab of your browser or redirecting it to a different website.</p><p style='text-decoration: underline;'>Contact Info of the Researcher: </p><p>If you have questions about this study, or if you would like to talk to the research team, please contact David Melcher (david.melcher@nyu.edu, md5050@nyu.edu) at the Perception and Active Cognition Laboratory, New York University Abu Dhabi, Computational Research Building, Saadiyat Island, Abu Dhabi, UAE.This research has been reviewed by the New York University Abu Dhabi Institutional Review Board (NYUAD IRB). To contact about your rights in this research, for questions, suggestions, or complaints that are not addressed by the researchers, please email IRBnyuad@nyu.edu, or call the NYUAD IRB at +971 2 628 4313. </p></div>","0","","","","","","","","","","","","","","","","","","","","","","","","","","","","",""
"fullscreen","2","44324","0.0-2.0","5f383c7bbd56880ee4aff419","609a8bf73b2ac84e2732f618","60a2450847c021139459fb2b","","","","true","","","","","","","","","","","","","","","","","","","","","","","","","","","",""
"html-keyboard-response","3","67098","0.0-3.0","5f383c7bbd56880ee4aff419","609a8bf73b2ac84e2732f618","60a2450847c021139459fb2b","22771.60499999991","<p>Welcome !</p><p>READ CAREFULLY THE FOLLOWING INDICATIONS:</p><p>From this moment you have ~40 minutes to complete the experiment.</p><p>During the experiment you will be prompted to take several breaks. Each break should not last longer than 2-3 minutes.</p><p>Make sure that your computer is plugged in and it's not running on battery power, even if the battery is already fully charged.</p><p>Turn off your phone and music, make sure that you are in a quiet room and that you will not be distracted for the next hour.</p><p>Failure to comply with the instructions and indications provided during the experiment will most likely result in the rejection of your data.<p>Press the spacebar to start.</p>","","","32","","","","","","","","","","","","","","","","","","","","","","","","","","",""
"survey-html-form","4","76106","0.0-4.0","5f383c7bbd56880ee4aff419","609a8bf73b2ac84e2732f618","60a2450847c021139459fb2b","9003.67499999993","","","","","{""age"":""35"",""sex"":""F""}","true","","","","","","","","","","","","","","","","","","","","","","","","",""
"instructions","5","128857","0.0-5.0","5f383c7bbd56880ee4aff419","609a8bf73b2ac84e2732f618","60a2450847c021139459fb2b","52749.37499999942","","","","","","","[{""page_index"":0,""viewing_time"":31628.93499999882},{""page_index"":1,""viewing_time"":15774.600000000646},{""page_index"":2,""viewing_time"":5345.409999999902}]","","","","","","","","","","","","","","","","","","","","","","","",""
"psychophysics","6","144201","0.0-6.0-0.0","5f383c7bbd56880ee4aff419","609a8bf73b2ac84e2732f618","60a2450847c021139459fb2b","14339.355000000069","","","","39","","","","key","16.679086956521733","960","468.5","true","1","180","30","0","-1","","","","","","","","","","","","","",""
"psychophysics","7","146238","0.0-6.0-0.1","5f383c7bbd56880ee4aff419","609a8bf73b2ac84e2732f618","60a2450847c021139459fb2b","1026.8150000011083","","","","39","","","","key","16.66105785123953","960","468.5","true","1","180","30","0","-1","-1","","","","","","","","","","","","",""
"psychophysics","8","147393","0.0-6.0-0.2","5f383c7bbd56880ee4aff419","609a8bf73b2ac84e2732f618","60a2450847c021139459fb2b","150.8100000010163","","","","37","","","","key","16.66080882352938","960","468.5","true","-1","150","30","0","-1","-1","","","","","","","","","","","","",""
"psychophysics","9","148447","0.0-6.0-0.3","5f383c7bbd56880ee4aff419","609a8bf73b2ac84e2732f618","60a2450847c021139459fb2b","47.67999999970198","","","","39","","","","key","16.661380952380743","960","468.5","true","1","150","30","0","-1","-1","","","","","","","","","","","","",""
"psychophysics","10","154504","0.0-6.0-0.4","5f383c7bbd56880ee4aff419","609a8bf73b2ac84e2732f618","60a2450847c021139459fb2b","5054.454999999492","","","","39","","","","key","16.660941988950274","960","468.5","true","-1","129","24","1","1","-1","","","","","","","","","","","","",""
"psychophysics","11","155648","0.0-6.0-0.5","5f383c7bbd56880ee4aff419","609a8bf73b2ac84e2732f618","60a2450847c021139459fb2b","141.20999999978812","","","","37","","","","key","16.66110294117628","960","468.5","true","-1","153","24","1","-1","1","","","","","","","","","","","","",""
"psychophysics","12","156901","0.0-6.0-0.6","5f383c7bbd56880ee4aff419","609a8bf73b2ac84e2732f618","60a2450847c021139459fb2b","249.57499999980791","","","","37","","","","key","16.660986486486493","960","468.5","true","-1","153","19.2","2","-1","-1","","","","","","","","","","","","",""
"psychophysics","13","159221","0.0-6.0-0.7","5f383c7bbd56880ee4aff419","609a8bf73b2ac84e2732f618","60a2450847c021139459fb2b","1297.9549999999872","","","","39","","","","key","16.660833333333382","960","468.5","true","1","133.8","19.2","2","-1","-1","","","","","","","","","","","","",""
"psychophysics","14","160796","0.0-6.0-0.8","5f383c7bbd56880ee4aff419","609a8bf73b2ac84e2732f618","60a2450847c021139459fb2b","568.3649999991758","","","","39","","","","key","16.661351063829954","960","468.5","true","1","133.8","19.2","2","-1","-1","","","","","","","","","","","","",""
"psychophysics","15","164158","0.0-6.0-0.9","5f383c7bbd56880ee4aff419","609a8bf73b2ac84e2732f618","60a2450847c021139459fb2b","2359.664999999921","","","","37","","","","key","16.660567164179128","960","468.5","true","1","129","15.36","3","1","-1","","","","","","","","","","","","",""
"psychophysics","16","165768","0.0-6.0-0.10","5f383c7bbd56880ee4aff419","609a8bf73b2ac84e2732f618","60a2450847c021139459fb2b","606.5450000005658","","","","39","","","","key","16.661231578947167","960","468.5","true","1","144.36","15.36","3","-1","1","","","","","","","","","","","","",""
"psychophysics","17","167225","0.0-6.0-0.11","5f383c7bbd56880ee4aff419","609a8bf73b2ac84e2732f618","60a2450847c021139459fb2b","449.8550000007672","","","","39","","","","key","16.660827586206878","960","468.5","true","1","144.36","12.287999999999998","4","-1","-1","","","","","","","","","","","","",""
"psychophysics","18","169294","0.0-6.0-0.12","5f383c7bbd56880ee4aff419","609a8bf73b2ac84e2732f618","60a2450847c021139459fb2b","1067.0250000002852","","","","37","","","","key","16.660731707317225","960","468.5","true","-1","132.072","12.287999999999998","4","-1","-1","","","","","","","","","","","","",""
"psychophysics","19","171561","0.0-6.0-0.13","5f383c7bbd56880ee4aff419","609a8bf73b2ac84e2732f618","60a2450847c021139459fb2b","1264.619999999908","","","","39","","","","key","16.66096296296304","960","468.5","true","-1","132.072","9.8304","5","1","-1","","","","","","","","","","","","",""
"psychophysics","20","173030","0.0-6.0-0.14","5f383c7bbd56880ee4aff419","609a8bf73b2ac84e2732f618","60a2450847c021139459fb2b","466.935000000376","","","","37","","","","key","16.661068965517313","960","468.5","true","-1","141.9024","9.8304","5","-1","1","","","","","","","","","","","","",""
"psychophysics","21","174542","0.0-6.0-0.15","5f383c7bbd56880ee4aff419","609a8bf73b2ac84e2732f618","60a2450847c021139459fb2b","508.5450000005949","","","","37","","","","key","16.66091111111099","960","468.5","true","-1","141.9024","7.864319999999999","6","-1","-1","","","","","","","","","","","","",""
"psychophysics","22","176194","0.0-6.0-0.16","5f383c7bbd56880ee4aff419","609a8bf73b2ac84e2732f618","60a2450847c021139459fb2b","649.0750000011758","","","","37","","","","key","16.661163265306065","960","468.5","true","-1","134.03808","7.864319999999999","6","-1","-1","","","","","","","","","","","","",""
"psychophysics","23","177740","0.0-6.0-0.17","5f383c7bbd56880ee4aff419","609a8bf73b2ac84e2732f618","60a2450847c021139459fb2b","541.5099999991362","","","","39","","","","key","16.660271739130383","960","468.5","true","1","134.03808","7.864319999999999","6","-1","-1","","","","","","","","","","","","",""
"psychophysics","24","180212","0.0-6.0-0.18","5f383c7bbd56880ee4aff419","609a8bf73b2ac84e2732f618","60a2450847c021139459fb2b","1469.865000000922","","","","39","","","","key","16.660938775510175","960","468.5","true","1","129","7.864319999999999","6","-1","-1","","","","","","","","","","","","",""
"psychophysics","25","182069","0.0-6.0-0.19","5f383c7bbd56880ee4aff419","609a8bf73b2ac84e2732f618","60a2450847c021139459fb2b","853.8899999985006","","","","39","","","","key","16.660963963963948","960","468.5","true","-1","129","6.291456","7","1","-1","","","","","","","","","","","","",""
"psychophysics","26","183578","0.0-6.0-0.20","5f383c7bbd56880ee4aff419","609a8bf73b2ac84e2732f618","60a2450847c021139459fb2b","507.5999999989872","","","","39","","","","key","16.660528089887766","960","468.5","true","1","135.291456","6.291456","7","-1","1","","","","","","","","","","","","",""
"psychophysics","27","184737","0.0-6.0-0.21","5f383c7bbd56880ee4aff419","609a8bf73b2ac84e2732f618","60a2450847c021139459fb2b","155.6300000011106","","","","37","","","","key","16.66099999999995","960","468.5","true","-1","135.291456","5.033164800000001","8","-1","-1","","","","","","","","","","","","",""
"psychophysics","28","186606","0.0-6.0-0.22","5f383c7bbd56880ee4aff419","609a8bf73b2ac84e2732f618","60a2450847c021139459fb2b","867.0300000012503","","","","39","","","","key","16.660756756756864","960","468.5","true","-1","130.2582912","4.0265318400000005","9","1","-1","","","","","","","","","","","","",""
"psychophysics","29","188349","0.0-6.0-0.23","5f383c7bbd56880ee4aff419","609a8bf73b2ac84e2732f618","60a2450847c021139459fb2b","740.4399999995949","","","","39","","","","key","16.660990291262085","960","468.5","true","1","134.28482304","4.0265318400000005","9","-1","1","","","","","","","","","","","","",""
"psychophysics","30","190033","0.0-6.0-0.24","5f383c7bbd56880ee4aff419","609a8bf73b2ac84e2732f618","60a2450847c021139459fb2b","681.9199999990524","","","","39","","","","key","16.661000000000275","960","468.5","true","1","134.28482304","3.2212254720000004","10","-1","-1","","","","","","","","","","","","",""
"psychophysics","31","193835","0.0-6.0-0.25","5f383c7bbd56880ee4aff419","609a8bf73b2ac84e2732f618","60a2450847c021139459fb2b","2800.699999999779","","","","39","","","","key","16.66100881057268","960","468.5","true","1","131.06359756799998","3.2212254720000004","10","-1","-1","","","","","","","","","","","","",""
"psychophysics","32","196447","0.0-6.0-0.26","5f383c7bbd56880ee4aff419","609a8bf73b2ac84e2732f618","60a2450847c021139459fb2b","1610.0200000000768","","","","37","","","","key","16.661096153846113","960","468.5","true","1","131.06359756799998","2.5769803776000004","11","1","-1","","","","","","","","","","","","",""
"psychophysics","33","198865","0.0-6.0-0.27","5f383c7bbd56880ee4aff419","609a8bf73b2ac84e2732f618","60a2450847c021139459fb2b","1412.650000000198","","","","37","","","","key","16.66102777777774","960","468.5","true","1","133.64057794559997","2.5769803776000004","11","1","1","","","","","","","","","","","","",""
"psychophysics","34","200001","0.0-6.0-0.28","5f383c7bbd56880ee4aff419","609a8bf73b2ac84e2732f618","60a2450847c021139459fb2b","134.56000000040513","","","","39","","","","key","16.660895522388042","960","468.5","true","1","136.21755832319997","2.5769803776000004","11","-1","1","","","","","","","","","","","","",""
"psychophysics","35","201180","0.0-6.0-0.29","5f383c7bbd56880ee4aff419","609a8bf73b2ac84e2732f618","60a2450847c021139459fb2b","176.33500000013737","","","","37","","","","key","16.661085714285477","960","468.5","true","-1","136.21755832319997","2.0615843020800004","12","-1","-1","","","","","","","","","","","","",""
"psychophysics","36","203146","0.0-6.0-0.30","5f383c7bbd56880ee4aff419","609a8bf73b2ac84e2732f618","60a2450847c021139459fb2b","965.3400000006368","","","","37","","","","key","16.660991452991542","960","468.5","true","-1","134.15597402111996","2.0615843020800004","12","-1","-1","","","","","","","","","","","","",""
"psychophysics","37","204414","0.0-6.0-0.31","5f383c7bbd56880ee4aff419","609a8bf73b2ac84e2732f618","60a2450847c021139459fb2b","265.9499999990803","","","","37","","","","key","16.661133333333225","960","468.5","true","-1","134.15597402111996","2.0615843020800004","12","-1","-1","","","","","","","","","","","","",""
"psychophysics","38","206310","0.0-6.0-0.32","5f383c7bbd56880ee4aff419","609a8bf73b2ac84e2732f618","60a2450847c021139459fb2b","893.6350000003586","","","","39","","","","key","16.66095575221234","960","468.5","true","1","132.09438971903995","2.0615843020800004","12","-1","-1","","","","","","","","","","","","",""
"psychophysics","39","208566","0.0-6.0-0.33","5f383c7bbd56880ee4aff419","609a8bf73b2ac84e2732f618","60a2450847c021139459fb2b","1253.7049999991723","","","","39","","","","key","16.66098507462676","960","468.5","true","-1","132.09438971903995","1.6492674416640005","13","1","-1","","","","","","","","","","","","",""
"psychophysics","40","209744","0.0-6.0-0.34","5f383c7bbd56880ee4aff419","609a8bf73b2ac84e2732f618","60a2450847c021139459fb2b","175.4600000003993","","","","37","","","","key","16.661100000000026","960","468.5","true","-1","133.74365716070395","1.6492674416640005","13","-1","1","","","","","","","","","","","","",""
"psychophysics","41","212701","0.0-6.0-0.35","5f383c7bbd56880ee4aff419","609a8bf73b2ac84e2732f618","60a2450847c021139459fb2b","1955.234999999433","","","","39","","","","key","16.66098863636365","960","468.5","true","-1","133.74365716070395","1.3194139533312006","14","1","-1","","","","","","","","","","","","",""
"psychophysics","42","213828","0.0-6.0-0.36","5f383c7bbd56880ee4aff419","609a8bf73b2ac84e2732f618","60a2450847c021139459fb2b","122.69000000017695","","","","37","","","","key","16.66076119402997","960","468.5","true","-1","135.06307111403515","1.3194139533312006","14","-1","1","","","","","","","","","","","","",""
"psychophysics","43","215014","0.0-6.0-0.37","5f383c7bbd56880ee4aff419","609a8bf73b2ac84e2732f618","60a2450847c021139459fb2b","183.54000000000815","","","","39","","","","key","16.661242857143016","960","468.5","true","1","135.06307111403515","1.0555311626649604","15","-1","-1","","","","","","","","","","","","",""
"psychophysics","44","216210","0.0-6.0-0.38","5f383c7bbd56880ee4aff419","609a8bf73b2ac84e2732f618","60a2450847c021139459fb2b","192.55499999964377","","","","37","","","","key","16.66121126760558","960","468.5","true","-1","134.0075399513702","1.0555311626649604","15","-1","-1","","","","","","","","","","","","",""
"psychophysics","45","217496","0.0-6.0-0.39","5f383c7bbd56880ee4aff419","609a8bf73b2ac84e2732f618","60a2450847c021139459fb2b","283.9949999997916","","","","39","","","","key","16.6608157894738","960","468.5","true","1","134.0075399513702","1.0555311626649604","15","-1","-1","","","","","","","","","","","","",""
"html-keyboard-response","46","236299","0.0-7.0","5f383c7bbd56880ee4aff419","609a8bf73b2ac84e2732f618","60a2450847c021139459fb2b","18801.27499999979","<p>Well Done !</p><p>Prepare for a new block.</p><p>DON'T EXIT THE FULL SCREEN MODE</p><p>Press the Spacebar to start.</p>","","","32","","","","","","","","","","","","","","","true","133.75547691070258","","","","","","","","","","",""
"psychophysics","47","237320","0.0-8.0-0.0","5f383c7bbd56880ee4aff419","609a8bf73b2ac84e2732f618","60a2450847c021139459fb2b","17.19000000046799","","","","39","","","","key","16.679147540983365","960","468.5","true","1","180","30","0","-1","","","","","","","","","","","","","",""
"psychophysics","48","241231","0.0-8.0-0.1","5f383c7bbd56880ee4aff419","609a8bf73b2ac84e2732f618","60a2450847c021139459fb2b","2909.9349999997066","","","","39","","","","key","16.66103418803419","960","468.5","true","-1","180","30","0","1","-1","","","","","","","","","","","","",""
"psychophysics","49","244038","0.0-8.0-0.2","5f383c7bbd56880ee4aff419","609a8bf73b2ac84e2732f618","60a2450847c021139459fb2b","1794.8250000008557","","","","39","","","","key","16.661029940119715","960","468.5","true","1","210","30","0","-1","1","","","","","","","","","","","","",""
"psychophysics","50","245107","0.0-8.0-0.3","5f383c7bbd56880ee4aff419","609a8bf73b2ac84e2732f618","60a2450847c021139459fb2b","65.6499999986554","","","","39","","","","key","16.661349206349335","960","468.5","true","1","210","24","1","-1","-1","","","","","","","","","","","","",""
"psychophysics","51","246564","0.0-8.0-0.4","5f383c7bbd56880ee4aff419","609a8bf73b2ac84e2732f618","60a2450847c021139459fb2b","455.0249999992957","","","","39","","","","key","16.660839080459628","960","468.5","true","1","186","24","1","-1","-1","","","","","","","","","","","","",""
"psychophysics","52","247713","0.0-8.0-0.5","5f383c7bbd56880ee4aff419","609a8bf73b2ac84e2732f618","60a2450847c021139459fb2b","145.92000000085682","","","","37","","","","key","16.66132352941178","960","468.5","true","-1","186","24","1","-1","-1","","","","","","","","","","","","",""
"psychophysics","53","248718","0.0-8.0-0.6","5f383c7bbd56880ee4aff419","609a8bf73b2ac84e2732f618","60a2450847c021139459fb2b","1.815000001428416","","","","37","","","","key","16.660949152542113","960","468.5","true","-1","162","24","1","-1","-1","","","","","","","","","","","","",""
"psychophysics","54","249751","0.0-8.0-0.7","5f383c7bbd56880ee4aff419","609a8bf73b2ac84e2732f618","60a2450847c021139459fb2b","30.039999999658903","","","","39","","","","key","16.661180327869246","960","468.5","true","1","162","24","1","-1","-1","","","","","","","","","","","","",""
"psychophysics","55","250839","0.0-8.0-0.8","5f383c7bbd56880ee4aff419","609a8bf73b2ac84e2732f618","60a2450847c021139459fb2b","86.99999999953434","","","","37","","","","key","16.660718750000342","960","468.5","true","-1","138","24","1","-1","-1","","","","","","","","","","","","",""
"psychophysics","56","251868","0.0-8.0-0.9","5f383c7bbd56880ee4aff419","609a8bf73b2ac84e2732f618","60a2450847c021139459fb2b","26.0149999994901","","","","39","","","","key","16.660819672131108","960","468.5","true","1","138","24","1","-1","-1","","","","","","","","","","","","",""
"psychophysics","57","254760","0.0-8.0-0.10","5f383c7bbd56880ee4aff419","609a8bf73b2ac84e2732f618","60a2450847c021139459fb2b","1889.300000000745","","","","37","","","","key","16.661011560693535","960","468.5","true","-1","129","24","1","-1","-1","","","","","","","","","","","","",""
"psychophysics","58","256738","0.0-8.0-0.11","5f383c7bbd56880ee4aff419","609a8bf73b2ac84e2732f618","60a2450847c021139459fb2b","974.9850000007427","","","","39","","","","key","16.660794871794828","960","468.5","true","1","129","24","1","-1","-1","","","","","","","","","","","","",""
"psychophysics","59","258937","0.0-8.0-0.12","5f383c7bbd56880ee4aff419","609a8bf73b2ac84e2732f618","60a2450847c021139459fb2b","1195.5249999991793","","","","39","","","","key","16.660755725190903","960","468.5","true","-1","129","19.2","2","1","-1","","","","","","","","","","","","",""
"psychophysics","60","260016","0.0-8.0-0.13","5f383c7bbd56880ee4aff419","609a8bf73b2ac84e2732f618","60a2450847c021139459fb2b","77.3300000000745","","","","39","","","","key","16.66101562499989","960","468.5","true","1","148.2","19.2","2","-1","1","","","","","","","","","","","","",""
"psychophysics","61","261135","0.0-8.0-0.14","5f383c7bbd56880ee4aff419","609a8bf73b2ac84e2732f618","60a2450847c021139459fb2b","116.61499999900116","","","","37","","","","key","16.660696969696968","960","468.5","true","-1","148.2","15.36","3","-1","-1","","","","","","","","","","","","",""
"psychophysics","62","262210","0.0-8.0-0.15","5f383c7bbd56880ee4aff419","609a8bf73b2ac84e2732f618","60a2450847c021139459fb2b","72.91499999881489","","","","39","","","","key","16.66089062500032","960","468.5","true","1","132.83999999999997","15.36","3","-1","-1","","","","","","","","","","","","",""
"psychophysics","63","263403","0.0-8.0-0.16","5f383c7bbd56880ee4aff419","609a8bf73b2ac84e2732f618","60a2450847c021139459fb2b","190.1249999991851","","","","39","","","","key","16.66077142857165","960","468.5","true","1","132.83999999999997","15.36","3","-1","-1","","","","","","","","","","","","",""
"psychophysics","64","265643","0.0-8.0-0.17","5f383c7bbd56880ee4aff419","609a8bf73b2ac84e2732f618","60a2450847c021139459fb2b","1236.270000001241","","","","37","","","","key","16.66105223880601","960","468.5","true","-1","129","15.36","3","-1","-1","","","","","","","","","","","","",""
"psychophysics","65","269101","0.0-8.0-0.18","5f383c7bbd56880ee4aff419","609a8bf73b2ac84e2732f618","60a2450847c021139459fb2b","2455.635000000242","","","","37","","","","key","16.66094174757272","960","468.5","true","-1","129","15.36","3","-1","-1","","","","","","","","","","","","",""
"psychophysics","66","271180","0.0-8.0-0.19","5f383c7bbd56880ee4aff419","609a8bf73b2ac84e2732f618","60a2450847c021139459fb2b","1075.1249999993597","","","","37","","","","key","16.661064516129105","960","468.5","true","-1","129","15.36","3","-1","-1","","","","","","","","","","","","",""
"psychophysics","67","273306","0.0-8.0-0.20","5f383c7bbd56880ee4aff419","609a8bf73b2ac84e2732f618","60a2450847c021139459fb2b","1123.610000000568","","","","37","","","","key","16.66077952755901","960","468.5","true","-1","129","15.36","3","-1","-1","","","","","","","","","","","","",""
"psychophysics","68","277211","0.0-8.0-0.21","5f383c7bbd56880ee4aff419","609a8bf73b2ac84e2732f618","60a2450847c021139459fb2b","2903.144999998447","","","","37","","","","key","16.661570815450677","960","468.5","true","1","129","12.287999999999998","4","1","-1","","","","","","","","","","","","",""
"psychophysics","69","278369","0.0-8.0-0.22","5f383c7bbd56880ee4aff419","609a8bf73b2ac84e2732f618","60a2450847c021139459fb2b","147.49499999923864","","","","37","","","","key","16.659594202899218","960","468.5","true","-1","141.288","12.287999999999998","4","-1","1","","","","","","","","","","","","",""
"psychophysics","70","279377","0.0-8.0-0.23","5f383c7bbd56880ee4aff419","609a8bf73b2ac84e2732f618","60a2450847c021139459fb2b","4.090000000374857","","","","39","","","","key","16.662610169491234","960","468.5","true","1","141.288","9.8304","5","-1","-1","","","","","","","","","","","","",""
"psychophysics","71","282848","0.0-8.0-0.24","5f383c7bbd56880ee4aff419","609a8bf73b2ac84e2732f618","60a2450847c021139459fb2b","2470.204999999667","","","","39","","","","key","16.660975845410558","960","468.5","true","-1","131.4576","7.864319999999999","6","1","-1","","","","","","","","","","","","",""
"psychophysics","72","286457","0.0-8.0-0.25","5f383c7bbd56880ee4aff419","609a8bf73b2ac84e2732f618","60a2450847c021139459fb2b","2602.8950000000186","","","","39","","","","key","16.66094444444429","960","468.5","true","1","139.32192","7.864319999999999","6","-1","1","","","","","","","","","","","","",""
"psychophysics","73","289123","0.0-8.0-0.26","5f383c7bbd56880ee4aff419","609a8bf73b2ac84e2732f618","60a2450847c021139459fb2b","1655.640000000887","","","","39","","","","key","16.660729559748315","960","468.5","true","-1","139.32192","6.291456","7","1","-1","","","","","","","","","","","","",""
"psychophysics","74","292032","0.0-8.0-0.27","5f383c7bbd56880ee4aff419","609a8bf73b2ac84e2732f618","60a2450847c021139459fb2b","1907.2199999991572","","","","39","","","","key","16.660977011493973","960","468.5","true","-1","145.61337600000002","6.291456","7","1","1","","","","","","","","","","","","",""
"psychophysics","75","294392","0.0-8.0-0.28","5f383c7bbd56880ee4aff419","609a8bf73b2ac84e2732f618","60a2450847c021139459fb2b","1357.7550000008778","","","","39","","","","key","16.660828571428596","960","468.5","true","-1","151.90483200000003","6.291456","7","1","1","","","","","","","","","","","","",""
"psychophysics","76","295481","0.0-8.0-0.29","5f383c7bbd56880ee4aff419","609a8bf73b2ac84e2732f618","60a2450847c021139459fb2b","86.00999999907799","","","","39","","","","key","16.661307692307478","960","468.5","true","1","158.19628800000004","6.291456","7","-1","1","","","","","","","","","","","","",""
"psychophysics","77","296506","0.0-8.0-0.30","5f383c7bbd56880ee4aff419","609a8bf73b2ac84e2732f618","60a2450847c021139459fb2b","23.24500000028638","","","","39","","","","key","16.66091666666713","960","468.5","true","1","158.19628800000004","5.033164800000001","8","-1","-1","","","","","","","","","","","","",""
"psychophysics","78","298203","0.0-8.0-0.31","5f383c7bbd56880ee4aff419","609a8bf73b2ac84e2732f618","60a2450847c021139459fb2b","694.1549999992712","","","","39","","","","key","16.66122772277213","960","468.5","true","1","153.16312320000003","5.033164800000001","8","-1","-1","","","","","","","","","","","","",""
"psychophysics","79","299603","0.0-8.0-0.32","5f383c7bbd56880ee4aff419","609a8bf73b2ac84e2732f618","60a2450847c021139459fb2b","397.42499999917345","","","","39","","","","key","16.66054216867484","960","468.5","true","1","153.16312320000003","5.033164800000001","8","-1","-1","","","","","","","","","","","","",""
"psychophysics","80","300729","0.0-8.0-0.33","5f383c7bbd56880ee4aff419","609a8bf73b2ac84e2732f618","60a2450847c021139459fb2b","122.31000000063796","","","","37","","","","key","16.660746268656993","960","468.5","true","-1","148.12995840000002","5.033164800000001","8","-1","-1","","","","","","","","","","","","",""
"psychophysics","81","302255","0.0-8.0-0.34","5f383c7bbd56880ee4aff419","609a8bf73b2ac84e2732f618","60a2450847c021139459fb2b","523.6050000003306","","","","37","","","","key","16.661077777778136","960","468.5","true","-1","148.12995840000002","5.033164800000001","8","-1","-1","","","","","","","","","","","","",""
"psychophysics","82","303928","0.0-8.0-0.35","5f383c7bbd56880ee4aff419","609a8bf73b2ac84e2732f618","60a2450847c021139459fb2b","666.9450000008801","","","","39","","","","key","16.66113000000012","960","468.5","true","1","143.0967936","5.033164800000001","8","-1","-1","","","","","","","","","","","","",""
"psychophysics","83","305246","0.0-8.0-0.36","5f383c7bbd56880ee4aff419","609a8bf73b2ac84e2732f618","60a2450847c021139459fb2b","315.8850000000093","","","","39","","","","key","16.66220512820515","960","468.5","true","1","143.0967936","5.033164800000001","8","-1","-1","","","","","","","","","","","","",""
"psychophysics","84","306609","0.0-8.0-0.37","5f383c7bbd56880ee4aff419","609a8bf73b2ac84e2732f618","60a2450847c021139459fb2b","355.56999999971595","","","","37","","","","key","16.661493827160562","960","468.5","true","-1","138.0636288","5.033164800000001","8","-1","-1","","","","","","","","","","","","",""
"psychophysics","85","308012","0.0-8.0-0.38","5f383c7bbd56880ee4aff419","609a8bf73b2ac84e2732f618","60a2450847c021139459fb2b","399.6049999987008","","","","39","","","","key","16.66065060240932","960","468.5","true","1","138.0636288","5.033164800000001","8","-1","-1","","","","","","","","","","","","",""
"psychophysics","86","310377","0.0-8.0-0.39","5f383c7bbd56880ee4aff419","609a8bf73b2ac84e2732f618","60a2450847c021139459fb2b","1361.7099999992643","","","","39","","","","key","16.661191489361723","960","468.5","true","-1","133.030464","4.0265318400000005","9","1","-1","","","","","","","","","","","","",""
"html-keyboard-response","87","312098","0.0-9.0","5f383c7bbd56880ee4aff419","609a8bf73b2ac84e2732f618","60a2450847c021139459fb2b","1717.8350000013015","<p>Well Done !</p><p>Prepare for a new block.</p><p>DON'T EXIT THE FULL SCREEN MODE</p><p>Press the Spacebar to start.</p>","","","32","","","","","","","","","","","","","","","true","146.0328064","","","","","","","","","","",""
"psychophysics","88","313526","0.0-10.0-0.0","5f383c7bbd56880ee4aff419","609a8bf73b2ac84e2732f618","60a2450847c021139459fb2b","420.04499999893596","","","","37","","","","key","16.662348837209297","960","468.5","true","-1","180","30","0","-1","","","","","","","","","","","","","",""
"psychophysics","89","314670","0.0-10.0-0.1","5f383c7bbd56880ee4aff419","609a8bf73b2ac84e2732f618","60a2450847c021139459fb2b","139.96999999834225","","","","37","","","","key","16.66146268656672","960","468.5","true","-1","180","30","0","-1","-1","","","","","","","","","","","","",""
"psychophysics","90","315764","0.0-10.0-0.2","5f383c7bbd56880ee4aff419","609a8bf73b2ac84e2732f618","60a2450847c021139459fb2b","86.02000000065891","","","","39","","","","key","16.659815384615033","960","468.5","true","1","150","30","0","-1","-1","","","","","","","","","","","","",""
"psychophysics","91","316915","0.0-10.0-0.3","5f383c7bbd56880ee4aff419","609a8bf73b2ac84e2732f618","60a2450847c021139459fb2b","149.0799999992596","","","","39","","","","key","16.660779411764988","960","468.5","true","1","150","30","0","-1","-1","","","","","","","","","","","","",""
"psychophysics","92","320000","0.0-10.0-0.4","5f383c7bbd56880ee4aff419","609a8bf73b2ac84e2732f618","60a2450847c021139459fb2b","2080.749999999185","","","","37","","","","key","16.66071195652172","960","468.5","true","1","129","24","1","1","-1","","","","","","","","","","","","",""
"psychophysics","93","322617","0.0-10.0-0.5","5f383c7bbd56880ee4aff419","609a8bf73b2ac84e2732f618","60a2450847c021139459fb2b","1609.2050000006566","","","","39","","","","key","16.66075641025628","960","468.5","true","1","153","24","1","-1","1","","","","","","","","","","","","",""
"psychophysics","94","323722","0.0-10.0-0.6","5f383c7bbd56880ee4aff419","609a8bf73b2ac84e2732f618","60a2450847c021139459fb2b","91.80499999999302","","","","37","","","","key","16.661530303030634","960","468.5","true","-1","153","19.2","2","-1","-1","","","","","","","","","","","","",""
"psychophysics","95","324795","0.0-10.0-0.7","5f383c7bbd56880ee4aff419","609a8bf73b2ac84e2732f618","60a2450847c021139459fb2b","68.78499999945052","","","","39","","","","key","16.660809523809426","960","468.5","true","1","133.8","19.2","2","-1","-1","","","","","","","","","","","","",""
"psychophysics","96","326584","0.0-10.0-0.8","5f383c7bbd56880ee4aff419","609a8bf73b2ac84e2732f618","60a2450847c021139459fb2b","785.2000000002445","","","","39","","","","key","16.661273584905945","960","468.5","true","-1","133.8","15.36","3","1","-1","","","","","","","","","","","","",""
"psychophysics","97","328292","0.0-10.0-0.9","5f383c7bbd56880ee4aff419","609a8bf73b2ac84e2732f618","60a2450847c021139459fb2b","698.3700000000536","","","","37","","","","key","16.660196078431625","960","468.5","true","1","149.16000000000003","15.36","3","1","1","","","","","","","","","","","","",""
"psychophysics","98","332106","0.0-10.0-0.10","5f383c7bbd56880ee4aff419","609a8bf73b2ac84e2732f618","60a2450847c021139459fb2b","2810.9299999995856","","","","39","","","","key","16.660846491228114","960","468.5","true","-1","164.52000000000004","15.36","3","1","1","","","","","","","","","","","","",""
"psychophysics","99","335246","0.0-10.0-0.11","5f383c7bbd56880ee4aff419","609a8bf73b2ac84e2732f618","60a2450847c021139459fb2b","2134.379999999539","","","","39","","","","key","16.660951871657744","960","468.5","true","-1","179.88000000000005","15.36","3","1","1","","","","","","","","","","","","",""
"psychophysics","100","336386","0.0-10.0-0.12","5f383c7bbd56880ee4aff419","609a8bf73b2ac84e2732f618","60a2450847c021139459fb2b","131.41999999969266","","","","37","","","","key","16.660235294117765","960","468.5","true","-1","195.24000000000007","15.36","3","-1","1","","","","","","","","","","","","",""
"psychophysics","101","339416","0.0-10.0-0.13","5f383c7bbd56880ee4aff419","609a8bf73b2ac84e2732f618","60a2450847c021139459fb2b","2027.6199999989476","","","","39","","","","key","16.660922651933582","960","468.5","true","-1","195.24000000000007","12.287999999999998","4","1","-1","","","","","","","","","","","","",""
"psychophysics","102","342997","0.0-10.0-0.14","5f383c7bbd56880ee4aff419","609a8bf73b2ac84e2732f618","60a2450847c021139459fb2b","2576.305000000517","","","","39","","","","key","16.660985981308414","960","468.5","true","-1","207.52800000000008","12.287999999999998","4","1","1","","","","","","","","","","","","",""
"psychophysics","103","344039","0.0-10.0-0.15","5f383c7bbd56880ee4aff419","609a8bf73b2ac84e2732f618","60a2450847c021139459fb2b","37.70499999879394","","","","37","","","","key","16.661868852459193","960","468.5","true","-1","219.8160000000001","12.287999999999998","4","-1","1","","","","","","","","","","","","",""
"psychophysics","104","345065","0.0-10.0-0.16","5f383c7bbd56880ee4aff419","609a8bf73b2ac84e2732f618","60a2450847c021139459fb2b","19.244999999529682","","","","39","","","","key","16.65931147540973","960","468.5","true","1","219.8160000000001","9.8304","5","-1","-1","","","","","","","","","","","","",""
"psychophysics","105","346079","0.0-10.0-0.17","5f383c7bbd56880ee4aff419","609a8bf73b2ac84e2732f618","60a2450847c021139459fb2b","10.53499999945052","","","","39","","","","key","16.659766666666837","960","468.5","true","1","209.9856000000001","9.8304","5","-1","-1","","","","","","","","","","","","",""
"psychophysics","106","348715","0.0-10.0-0.18","5f383c7bbd56880ee4aff419","609a8bf73b2ac84e2732f618","60a2450847c021139459fb2b","1633.6449999999022","","","","39","","","","key","16.661299363057466","960","468.5","true","-1","209.9856000000001","7.864319999999999","6","1","-1","","","","","","","","","","","","",""
"psychophysics","107","353096","0.0-10.0-0.19","5f383c7bbd56880ee4aff419","609a8bf73b2ac84e2732f618","60a2450847c021139459fb2b","3375.9199999985867","","","","39","","","","key","16.660870229007806","960","468.5","true","1","217.84992000000008","7.864319999999999","6","-1","1","","","","","","","","","","","","",""
"psychophysics","108","354532","0.0-10.0-0.20","5f383c7bbd56880ee4aff419","609a8bf73b2ac84e2732f618","60a2450847c021139459fb2b","429.9649999993853","","","","39","","","","key","16.660952941176262","960","468.5","true","1","217.84992000000008","6.291456","7","-1","-1","","","","","","","","","","","","",""
"psychophysics","109","355665","0.0-10.0-0.21","5f383c7bbd56880ee4aff419","609a8bf73b2ac84e2732f618","60a2450847c021139459fb2b","129.45999999827472","","","","39","","","","key","16.661567164179278","960","468.5","true","1","211.55846400000007","6.291456","7","-1","-1","","","","","","","","","","","","",""
"psychophysics","110","357428","0.0-10.0-0.22","5f383c7bbd56880ee4aff419","609a8bf73b2ac84e2732f618","60a2450847c021139459fb2b","758.555000000284","","","","37","","","","key","16.66040000000004","960","468.5","true","-1","211.55846400000007","6.291456","7","-1","-1","","","","","","","","","","","","",""
"psychophysics","111","358444","0.0-10.0-0.23","5f383c7bbd56880ee4aff419","609a8bf73b2ac84e2732f618","60a2450847c021139459fb2b","13.334999999671709","","","","39","","","","key","16.661066666666496","960","468.5","true","1","205.26700800000006","6.291456","7","-1","-1","","","","","","","","","","","","",""
"psychophysics","112","359579","0.0-10.0-0.24","5f383c7bbd56880ee4aff419","609a8bf73b2ac84e2732f618","60a2450847c021139459fb2b","133.44499999948312","","","","39","","","","key","16.661268656716313","960","468.5","true","1","205.26700800000006","6.291456","7","-1","-1","","","","","","","","","","","","",""
"psychophysics","113","360748","0.0-10.0-0.25","5f383c7bbd56880ee4aff419","609a8bf73b2ac84e2732f618","60a2450847c021139459fb2b","159.4800000002724","","","","39","","","","key","16.662028985507146","960","468.5","true","1","198.97555200000005","6.291456","7","-1","-1","","","","","","","","","","","","",""
"psychophysics","114","363558","0.0-10.0-0.26","5f383c7bbd56880ee4aff419","609a8bf73b2ac84e2732f618","60a2450847c021139459fb2b","1800.6900000000023","","","","39","","","","key","16.66055952380945","960","468.5","true","-1","198.97555200000005","5.033164800000001","8","1","-1","","","","","","","","","","","","",""
"psychophysics","115","364709","0.0-10.0-0.27","5f383c7bbd56880ee4aff419","609a8bf73b2ac84e2732f618","60a2450847c021139459fb2b","147.71999999904074","","","","39","","","","key","16.662147058823713","960","468.5","true","1","204.00871680000006","5.033164800000001","8","-1","1","","","","","","","","","","","","",""
"psychophysics","116","367974","0.0-10.0-0.28","5f383c7bbd56880ee4aff419","609a8bf73b2ac84e2732f618","60a2450847c021139459fb2b","2261.215000000433","","","","39","","","","key","16.660953846153838","960","468.5","true","-1","204.00871680000006","4.0265318400000005","9","1","-1","","","","","","","","","","","","",""
"psychophysics","117","368992","0.0-10.0-0.29","5f383c7bbd56880ee4aff419","609a8bf73b2ac84e2732f618","60a2450847c021139459fb2b","10.929999998596031","","","","39","","","","key","16.660799999999774","960","468.5","true","1","208.03524864000005","4.0265318400000005","9","-1","1","","","","","","","","","","","","",""
"psychophysics","118","370257","0.0-10.0-0.30","5f383c7bbd56880ee4aff419","609a8bf73b2ac84e2732f618","60a2450847c021139459fb2b","260.9599999996135","","","","37","","","","key","16.660453333333912","960","468.5","true","-1","208.03524864000005","3.2212254720000004","10","-1","-1","","","","","","","","","","","","",""
"psychophysics","119","378513","0.0-10.0-0.31","5f383c7bbd56880ee4aff419","609a8bf73b2ac84e2732f618","60a2450847c021139459fb2b","7253.839999999385","","","","37","","","","key","16.661052631578944","960","468.5","true","1","204.81402316800006","2.5769803776000004","11","1","-1","","","","","","","","","","","","",""
"psychophysics","120","381371","0.0-10.0-0.32","5f383c7bbd56880ee4aff419","609a8bf73b2ac84e2732f618","60a2450847c021139459fb2b","1850.4249999987078","","","","39","","","","key","16.660748538011426","960","468.5","true","-1","207.39100354560006","2.5769803776000004","11","1","1","","","","","","","","","","","","",""
"psychophysics","121","382418","0.0-10.0-0.33","5f383c7bbd56880ee4aff419","609a8bf73b2ac84e2732f618","60a2450847c021139459fb2b","43.31999999890104","","","","37","","","","key","16.661000000000293","960","468.5","true","-1","209.96798392320005","2.5769803776000004","11","-1","1","","","","","","","","","","","","",""
"psychophysics","122","385240","0.0-10.0-0.34","5f383c7bbd56880ee4aff419","609a8bf73b2ac84e2732f618","60a2450847c021139459fb2b","1819.569999999716","","","","39","","","","key","16.660910714285688","960","468.5","true","-1","209.96798392320005","2.0615843020800004","12","1","-1","","","","","","","","","","","","",""
"psychophysics","123","386261","0.0-10.0-0.35","5f383c7bbd56880ee4aff419","609a8bf73b2ac84e2732f618","60a2450847c021139459fb2b","17.084999999497086","","","","37","","","","key","16.660966666666596","960","468.5","true","-1","212.02956822528006","2.0615843020800004","12","-1","1","","","","","","","","","","","","",""
"psychophysics","124","387435","0.0-10.0-0.36","5f383c7bbd56880ee4aff419","609a8bf73b2ac84e2732f618","60a2450847c021139459fb2b","165.93499999906635","","","","37","","","","key","16.660657142856923","960","468.5","true","-1","212.02956822528006","1.6492674416640005","13","-1","-1","","","","","","","","","","","","",""
"psychophysics","125","388451","0.0-10.0-0.37","5f383c7bbd56880ee4aff419","609a8bf73b2ac84e2732f618","60a2450847c021139459fb2b","12.31000000005588","","","","39","","","","key","16.661149999999907","960","468.5","true","1","210.38030078361606","1.6492674416640005","13","-1","-1","","","","","","","","","","","","",""
"psychophysics","126","389670","0.0-10.0-0.38","5f383c7bbd56880ee4aff419","609a8bf73b2ac84e2732f618","60a2450847c021139459fb2b","212.76499999838416","","","","39","","","","key","16.66170833333389","960","468.5","true","1","210.38030078361606","1.6492674416640005","13","-1","-1","","","","","","","","","","","","",""
"psychophysics","127","391151","0.0-10.0-0.39","5f383c7bbd56880ee4aff419","609a8bf73b2ac84e2732f618","60a2450847c021139459fb2b","473.9499999996042","","","","39","","","","key","16.660840909090687","960","468.5","true","1","208.73103334195207","1.6492674416640005","13","-1","-1","","","","","","","","","","","","",""
"html-keyboard-response","128","393381","0.0-11.0","5f383c7bbd56880ee4aff419","609a8bf73b2ac84e2732f618","60a2450847c021139459fb2b","2227.495000000985","<p>Well Done !</p><p>Prepare for a new block.</p><p>DON'T EXIT THE FULL SCREEN MODE</p><p>Press the Spacebar to start.</p>","","","32","","","","","","","","","","","","","","","true","207.18205338664964","","","","","","","","","","",""
"psychophysics","129","395165","0.0-12.0-0.0","5f383c7bbd56880ee4aff419","609a8bf73b2ac84e2732f618","60a2450847c021139459fb2b","775.724999999511","","","","37","","","","key","16.662224299064945","960","468.5","true","-1","180","30","0","-1","","","","","","","","","","","","","",""
"psychophysics","130","396820","0.0-12.0-0.1","5f383c7bbd56880ee4aff419","609a8bf73b2ac84e2732f618","60a2450847c021139459fb2b","652.8400000006659","","","","39","","","","key","16.660928571428652","960","468.5","true","1","180","30","0","-1","-1","","","","","","","","","","","","",""
"psychophysics","131","398087","0.0-12.0-0.2","5f383c7bbd56880ee4aff419","609a8bf73b2ac84e2732f618","60a2450847c021139459fb2b","264.13499999948544","","","","37","","","","key","16.660773333332813","960","468.5","true","-1","150","30","0","-1","-1","","","","","","","","","","","","",""
"psychophysics","132","399092","0.0-12.0-0.3","5f383c7bbd56880ee4aff419","609a8bf73b2ac84e2732f618","60a2450847c021139459fb2b","1.5800000001327135","","","","37","","","","key","16.66049152542344","960","468.5","true","-1","150","30","0","-1","-1","","","","","","","","","","","","",""
"psychophysics","133","401036","0.0-12.0-0.4","5f383c7bbd56880ee4aff419","609a8bf73b2ac84e2732f618","60a2450847c021139459fb2b","940.3849999998347","","","","39","","","","key","16.660818965517482","960","468.5","true","1","129","30","0","-1","-1","","","","","","","","","","","","",""
"psychophysics","134","402714","0.0-12.0-0.5","5f383c7bbd56880ee4aff419","609a8bf73b2ac84e2732f618","60a2450847c021139459fb2b","675.3100000005215","","","","39","","","","key","16.661299999999464","960","468.5","true","1","129","30","0","-1","-1","","","","","","","","","","","","",""
"psychophysics","135","405741","0.0-12.0-0.6","5f383c7bbd56880ee4aff419","609a8bf73b2ac84e2732f618","60a2450847c021139459fb2b","2020.1149999994086","","","","37","","","","key","16.660419889502563","960","468.5","true","1","129","24","1","1","-1","","","","","","","","","","","","",""
"psychophysics","136","407228","0.0-12.0-0.7","5f383c7bbd56880ee4aff419","609a8bf73b2ac84e2732f618","60a2450847c021139459fb2b","479.19000000006054","","","","39","","","","key","16.661136363636945","960","468.5","true","1","153","24","1","-1","1","","","","","","","","","","","","",""
"psychophysics","137","408279","0.0-12.0-0.8","5f383c7bbd56880ee4aff419","609a8bf73b2ac84e2732f618","60a2450847c021139459fb2b","47.07499999861466","","","","37","","","","key","16.661580645161937","960","468.5","true","-1","153","19.2","2","-1","-1","","","","","","","","","","","","",""
"psychophysics","138","409515","0.0-12.0-0.9","5f383c7bbd56880ee4aff419","609a8bf73b2ac84e2732f618","60a2450847c021139459fb2b","227.16000000032363","","","","37","","","","key","16.660452054794366","960","468.5","true","-1","133.8","19.2","2","-1","-1","","","","","","","","","","","","",""
"psychophysics","139","410764","0.0-12.0-0.10","5f383c7bbd56880ee4aff419","609a8bf73b2ac84e2732f618","60a2450847c021139459fb2b","246.83499999990454","","","","37","","","","key","16.6609459459456","960","468.5","true","-1","133.8","19.2","2","-1","-1","","","","","","","","","","","","",""
"psychophysics","140","412844","0.0-12.0-0.11","5f383c7bbd56880ee4aff419","609a8bf73b2ac84e2732f618","60a2450847c021139459fb2b","1077.5950000006706","","","","39","","","","key","16.660903225806372","960","468.5","true","-1","129","15.36","3","1","-1","","","","","","","","","","","","",""
"psychophysics","141","415704","0.0-12.0-0.12","5f383c7bbd56880ee4aff419","609a8bf73b2ac84e2732f618","60a2450847c021139459fb2b","1856.0250000009546","","","","37","","","","key","16.66114117647042","960","468.5","true","-1","144.36","15.36","3","-1","1","","","","","","","","","","","","",""
"psychophysics","142","418982","0.0-12.0-0.13","5f383c7bbd56880ee4aff419","609a8bf73b2ac84e2732f618","60a2450847c021139459fb2b","2269.5349999994505","","","","39","","","","key","16.660530612244788","960","468.5","true","-1","144.36","12.287999999999998","4","1","-1","","","","","","","","","","","","",""
"psychophysics","143","421971","0.0-12.0-0.14","5f383c7bbd56880ee4aff419","609a8bf73b2ac84e2732f618","60a2450847c021139459fb2b","1980.0949999989825","","","","39","","","","key","16.660743016760026","960","468.5","true","-1","156.64800000000002","12.287999999999998","4","1","1","","","","","","","","","","","","",""
"psychophysics","144","424290","0.0-12.0-0.15","5f383c7bbd56880ee4aff419","609a8bf73b2ac84e2732f618","60a2450847c021139459fb2b","1306.8999999996158","","","","39","","","","key","16.661152173913052","960","468.5","true","-1","168.93600000000004","12.287999999999998","4","1","1","","","","","","","","","","","","",""
"psychophysics","145","425699","0.0-12.0-0.16","5f383c7bbd56880ee4aff419","609a8bf73b2ac84e2732f618","60a2450847c021139459fb2b","405.49500000092667","","","","39","","","","key","16.66097560975624","960","468.5","true","1","181.22400000000005","12.287999999999998","4","-1","1","","","","","","","","","","","","",""
"psychophysics","146","429131","0.0-12.0-0.17","5f383c7bbd56880ee4aff419","609a8bf73b2ac84e2732f618","60a2450847c021139459fb2b","2427.9549999992014","","","","39","","","","key","16.660771844660225","960","468.5","true","-1","181.22400000000005","9.8304","5","1","-1","","","","","","","","","","","","",""
"psychophysics","147","431151","0.0-12.0-0.18","5f383c7bbd56880ee4aff419","609a8bf73b2ac84e2732f618","60a2450847c021139459fb2b","1015.5999999988126","","","","39","","","","key","16.660867768595253","960","468.5","true","1","191.05440000000004","9.8304","5","-1","1","","","","","","","","","","","","",""
"psychophysics","148","432719","0.0-12.0-0.19","5f383c7bbd56880ee4aff419","609a8bf73b2ac84e2732f618","60a2450847c021139459fb2b","566.4450000004144","","","","39","","","","key","16.66166666666639","960","468.5","true","1","191.05440000000004","7.864319999999999","6","-1","-1","","","","","","","","","","","","",""
"psychophysics","149","434293","0.0-12.0-0.20","5f383c7bbd56880ee4aff419","609a8bf73b2ac84e2732f618","60a2450847c021139459fb2b","569.9199999999255","","","","37","","","","key","16.660612903226177","960","468.5","true","-1","183.19008000000005","7.864319999999999","6","-1","-1","","","","","","","","","","","","",""
"psychophysics","150","436087","0.0-12.0-0.21","5f383c7bbd56880ee4aff419","609a8bf73b2ac84e2732f618","60a2450847c021139459fb2b","791.9499999989057","","","","39","","","","key","16.66107476635501","960","468.5","true","1","183.19008000000005","7.864319999999999","6","-1","-1","","","","","","","","","","","","",""
"psychophysics","151","438679","0.0-12.0-0.22","5f383c7bbd56880ee4aff419","609a8bf73b2ac84e2732f618","60a2450847c021139459fb2b","1589.7949999998673","","","","39","","","","key","16.660779220778902","960","468.5","true","1","175.32576000000006","7.864319999999999","6","-1","-1","","","","","","","","","","","","",""
"psychophysics","152","439967","0.0-12.0-0.23","5f383c7bbd56880ee4aff419","609a8bf73b2ac84e2732f618","60a2450847c021139459fb2b","283.9700000003795","","","","37","","","","key","16.658662337662392","960","468.5","true","-1","175.32576000000006","7.864319999999999","6","-1","-1","","","","","","","","","","","","",""
"psychophysics","153","442858","0.0-12.0-0.24","5f383c7bbd56880ee4aff419","609a8bf73b2ac84e2732f618","60a2450847c021139459fb2b","1888.5850000006612","","","","37","","","","key","16.660854651162882","960","468.5","true","-1","167.46144000000007","7.864319999999999","6","-1","-1","","","","","","","","","","","","",""
"psychophysics","154","444431","0.0-12.0-0.25","5f383c7bbd56880ee4aff419","609a8bf73b2ac84e2732f618","60a2450847c021139459fb2b","565.6849999995902","","","","39","","","","key","16.66090425531915","960","468.5","true","1","167.46144000000007","7.864319999999999","6","-1","-1","","","","","","","","","","","","",""
"psychophysics","155","446003","0.0-12.0-0.26","5f383c7bbd56880ee4aff419","609a8bf73b2ac84e2732f618","60a2450847c021139459fb2b","568.6750000003958","","","","39","","","","key","16.660720430107997","960","468.5","true","1","159.59712000000007","7.864319999999999","6","-1","-1","","","","","","","","","","","","",""
"psychophysics","156","447197","0.0-12.0-0.27","5f383c7bbd56880ee4aff419","609a8bf73b2ac84e2732f618","60a2450847c021139459fb2b","192.12499999959255","","","","39","","","","key","16.661225352112474","960","468.5","true","1","159.59712000000007","7.864319999999999","6","-1","-1","","","","","","","","","","","","",""
"psychophysics","157","448288","0.0-12.0-0.28","5f383c7bbd56880ee4aff419","609a8bf73b2ac84e2732f618","60a2450847c021139459fb2b","86.73500000080094","","","","39","","","","key","16.661171875000036","960","468.5","true","1","151.73280000000008","7.864319999999999","6","-1","-1","","","","","","","","","","","","",""
"psychophysics","158","449365","0.0-12.0-0.29","5f383c7bbd56880ee4aff419","609a8bf73b2ac84e2732f618","60a2450847c021139459fb2b","74.03500000142958","","","","39","","","","key","16.660781250000582","960","468.5","true","1","151.73280000000008","7.864319999999999","6","-1","-1","","","","","","","","","","","","",""
"psychophysics","159","450504","0.0-12.0-0.30","5f383c7bbd56880ee4aff419","609a8bf73b2ac84e2732f618","60a2450847c021139459fb2b","136.2300000000978","","","","37","","","","key","16.66098507462719","960","468.5","true","-1","143.8684800000001","7.864319999999999","6","-1","-1","","","","","","","","","","","","",""
"psychophysics","160","452041","0.0-12.0-0.31","5f383c7bbd56880ee4aff419","609a8bf73b2ac84e2732f618","60a2450847c021139459fb2b","533.3499999996857","","","","37","","","","key","16.66038461538431","960","468.5","true","-1","143.8684800000001","7.864319999999999","6","-1","-1","","","","","","","","","","","","",""
"psychophysics","161","453237","0.0-12.0-0.32","5f383c7bbd56880ee4aff419","609a8bf73b2ac84e2732f618","60a2450847c021139459fb2b","190.78999999869848","","","","39","","","","key","16.660577464788908","960","468.5","true","1","136.0041600000001","7.864319999999999","6","-1","-1","","","","","","","","","","","","",""
"psychophysics","162","454500","0.0-12.0-0.33","5f383c7bbd56880ee4aff419","609a8bf73b2ac84e2732f618","60a2450847c021139459fb2b","261.03499999956694","","","","39","","","","key","16.66136000000018","960","468.5","true","1","136.0041600000001","7.864319999999999","6","-1","-1","","","","","","","","","","","","",""
"psychophysics","163","456710","0.0-12.0-0.34","5f383c7bbd56880ee4aff419","609a8bf73b2ac84e2732f618","60a2450847c021139459fb2b","1204.0049999995972","","","","39","","","","key","16.660916666666516","960","468.5","true","-1","129","6.291456","7","1","-1","","","","","","","","","","","","",""
"psychophysics","164","457931","0.0-12.0-0.35","5f383c7bbd56880ee4aff419","609a8bf73b2ac84e2732f618","60a2450847c021139459fb2b","216.98999999894295","","","","39","","","","key","16.66058333333381","960","468.5","true","1","135.291456","6.291456","7","-1","1","","","","","","","","","","","","",""
"psychophysics","165","459415","0.0-12.0-0.36","5f383c7bbd56880ee4aff419","609a8bf73b2ac84e2732f618","60a2450847c021139459fb2b","480.7500000006403","","","","37","","","","key","16.66057954545448","960","468.5","true","-1","135.291456","5.033164800000001","8","-1","-1","","","","","","","","","","","","",""
"psychophysics","166","460879","0.0-12.0-0.37","5f383c7bbd56880ee4aff419","609a8bf73b2ac84e2732f618","60a2450847c021139459fb2b","460.70499999949243","","","","37","","","","key","16.66111494252865","960","468.5","true","1","130.2582912","4.0265318400000005","9","1","-1","","","","","","","","","","","","",""
"psychophysics","167","463175","0.0-12.0-0.38","5f383c7bbd56880ee4aff419","609a8bf73b2ac84e2732f618","60a2450847c021139459fb2b","1288.8050000001094","","","","39","","","","key","16.660919708029","960","468.5","true","-1","134.28482304","4.0265318400000005","9","1","1","","","","","","","","","","","","",""
"psychophysics","168","464491","0.0-12.0-0.39","5f383c7bbd56880ee4aff419","609a8bf73b2ac84e2732f618","60a2450847c021139459fb2b","312.3849999992526","","","","39","","","","key","16.66164102564112","960","468.5","true","1","138.31135487999998","4.0265318400000005","9","-1","1","","","","","","","","","","","","",""
"html-keyboard-response","169","466954","0.0-13.0","5f383c7bbd56880ee4aff419","609a8bf73b2ac84e2732f618","60a2450847c021139459fb2b","2461.030000000377","<p>Well Done !</p><p>Prepare for a new block.</p><p>DON'T EXIT THE FULL SCREEN MODE</p><p>Press the Spacebar to start.</p>","","","32","","","","","","","","","","","","","","","true","143.48692940800004","","","","","","","","","","",""
"html-keyboard-response","170","467059","0.0-14.0","5f383c7bbd56880ee4aff419","609a8bf73b2ac84e2732f618","60a2450847c021139459fb2b","null","","","","null","","","","","","","","","","","","","","","","","157.61431652633806","true","187.22863305267612","","","","","","","",""
"instructions","171","503963","0.0-15.0","5f383c7bbd56880ee4aff419","609a8bf73b2ac84e2732f618","60a2450847c021139459fb2b","36901.42999999988","","","","","","","[{""page_index"":0,""viewing_time"":29734.505000000354},{""page_index"":1,""viewing_time"":1833.6699999999255},{""page_index"":2,""viewing_time"":5332.854999998759}]","","","","","","","","","","","","","","","","","","","","","","","",""
"psychophysics","172","506891","0.0-16.0-0.0","5f383c7bbd56880ee4aff419","609a8bf73b2ac84e2732f618","60a2450847c021139459fb2b","null","","","","null","","","","key","16.66301818181845","960","468.5","","","","","","","","","","","","","","","","","","","",""
"psychophysics","173","507400","0.0-16.0-1.0","5f383c7bbd56880ee4aff419","609a8bf73b2ac84e2732f618","60a2450847c021139459fb2b","null","","","","null","","","","key","16.659300000001288","960","468.5","","","","","","","","","","","","","187","1","4","false","","","",""
"psychophysics","174","508329","0.0-16.0-2.0","5f383c7bbd56880ee4aff419","609a8bf73b2ac84e2732f618","60a2450847c021139459fb2b","926.554999999993","","","","77","","","","key","16.6607818181817","960","468.5","","","","","","","","","","","","","","","","","","","",""
"psychophysics","175","509011","0.0-16.0-0.1","5f383c7bbd56880ee4aff419","609a8bf73b2ac84e2732f618","60a2450847c021139459fb2b","null","","","","null","","","","key","16.66335000000108","960","468.5","","","","","","","","","","","","","","","","","","","",""
"psychophysics","176","509514","0.0-16.0-1.1","5f383c7bbd56880ee4aff419","609a8bf73b2ac84e2732f618","60a2450847c021139459fb2b","null","","","","null","","","","key","16.659241379308916","960","468.5","","","","","","","","","","","","","187","-1","0","false","","","",""
"psychophysics","177","509720","0.0-16.0-2.1","5f383c7bbd56880ee4aff419","609a8bf73b2ac84e2732f618","60a2450847c021139459fb2b","202.57000000134576","","","","90","","","","key","16.66027272727065","960","468.5","","","","","","","","","","","","","","","","","","","",""
"psychophysics","178","511116","0.0-16.0-0.2","5f383c7bbd56880ee4aff419","609a8bf73b2ac84e2732f618","60a2450847c021139459fb2b","null","","","","null","","","","key","16.661469879518094","960","468.5","","","","","","","","","","","","","","","","","","","",""
"psychophysics","179","511622","0.0-16.0-1.2","5f383c7bbd56880ee4aff419","609a8bf73b2ac84e2732f618","60a2450847c021139459fb2b","null","","","","null","","","","key","16.661733333331842","960","468.5","","","","","","","","","","","","","187","1","5","false","","","",""
"psychophysics","180","512383","0.0-16.0-2.2","5f383c7bbd56880ee4aff419","609a8bf73b2ac84e2732f618","60a2450847c021139459fb2b","755.7400000005146","","","","77","","","","key","16.65879545454465","960","468.5","","","","","","","","","","","","","","","","","","","",""
"psychophysics","181","513143","0.0-16.0-0.3","5f383c7bbd56880ee4aff419","609a8bf73b2ac84e2732f618","60a2450847c021139459fb2b","null","","","","null","","","","key","16.66228888888921","960","468.5","","","","","","","","","","","","","","","","","","","",""
"psychophysics","182","513644","0.0-16.0-1.3","5f383c7bbd56880ee4aff419","609a8bf73b2ac84e2732f618","60a2450847c021139459fb2b","null","","","","null","","","","key","16.662793103446944","960","468.5","","","","","","","","","","","","","187","-1","5","false","","","",""
"psychophysics","183","513892","0.0-16.0-2.3","5f383c7bbd56880ee4aff419","609a8bf73b2ac84e2732f618","60a2450847c021139459fb2b","244.78000000090105","","","","90","","","","key","16.660499999998137","960","468.5","","","","","","","","","","","","","","","","","","","",""
"psychophysics","184","515190","0.0-16.0-0.4","5f383c7bbd56880ee4aff419","609a8bf73b2ac84e2732f618","60a2450847c021139459fb2b","null","","","","null","","","","key","16.661350649350638","960","468.5","","","","","","","","","","","","","","","","","","","",""
"psychophysics","185","515694","0.0-16.0-1.4","5f383c7bbd56880ee4aff419","609a8bf73b2ac84e2732f618","60a2450847c021139459fb2b","null","","","","null","","","","key","16.661793103447618","960","468.5","","","","","","","","","","","","","187","1","2","false","","","",""
"psychophysics","186","516318","0.0-16.0-2.4","5f383c7bbd56880ee4aff419","609a8bf73b2ac84e2732f618","60a2450847c021139459fb2b","620.7249999988708","","","","77","","","","key","16.660666666666252","960","468.5","","","","","","","","","","","","","","","","","","","",""
"psychophysics","187","516993","0.0-16.0-0.5","5f383c7bbd56880ee4aff419","609a8bf73b2ac84e2732f618","60a2450847c021139459fb2b","null","","","","null","","","","key","16.662049999999","960","468.5","","","","","","","","","","","","","","","","","","","",""
"psychophysics","188","517496","0.0-16.0-1.5","5f383c7bbd56880ee4aff419","609a8bf73b2ac84e2732f618","60a2450847c021139459fb2b","null","","","","null","","","","key","17.253392857141858","960","468.5","","","","","","","","","","","","","187","1","3","false","","","",""
"psychophysics","189","518655","0.0-16.0-2.5","5f383c7bbd56880ee4aff419","609a8bf73b2ac84e2732f618","60a2450847c021139459fb2b","1157.0250000004307","","","","77","","","","key","16.661101449275915","960","468.5","","","","","","","","","","","","","","","","","","","",""
"psychophysics","190","519323","0.0-16.0-0.6","5f383c7bbd56880ee4aff419","609a8bf73b2ac84e2732f618","60a2450847c021139459fb2b","null","","","","null","","","","key","16.66066666666675","960","468.5","","","","","","","","","","","","","","","","","","","",""
"psychophysics","191","519826","0.0-16.0-1.6","5f383c7bbd56880ee4aff419","609a8bf73b2ac84e2732f618","60a2450847c021139459fb2b","null","","","","null","","","","key","16.661310344828085","960","468.5","","","","","","","","","","","","","187","1","6","false","","","",""
"psychophysics","192","520290","0.0-16.0-2.6","5f383c7bbd56880ee4aff419","609a8bf73b2ac84e2732f618","60a2450847c021139459fb2b","461.33499999996275","","","","77","","","","key","16.658629629629473","960","468.5","","","","","","","","","","","","","","","","","","","",""
"psychophysics","193","521319","0.0-16.0-0.7","5f383c7bbd56880ee4aff419","609a8bf73b2ac84e2732f618","60a2450847c021139459fb2b","null","","","","null","","","","key","16.660344262295364","960","468.5","","","","","","","","","","","","","","","","","","","",""
"psychophysics","194","521821","0.0-16.0-1.7","5f383c7bbd56880ee4aff419","609a8bf73b2ac84e2732f618","60a2450847c021139459fb2b","null","","","","null","","","","key","16.661827586207878","960","468.5","","","","","","","","","","","","","187","-1","3","false","","","",""
"psychophysics","195","522649","0.0-16.0-2.7","5f383c7bbd56880ee4aff419","609a8bf73b2ac84e2732f618","60a2450847c021139459fb2b","824.5100000004168","","","","90","","","","key","16.65985416666687","960","468.5","","","","","","","","","","","","","","","","","","","",""
"psychophysics","196","523725","0.0-16.0-0.8","5f383c7bbd56880ee4aff419","609a8bf73b2ac84e2732f618","60a2450847c021139459fb2b","null","","","","null","","","","key","16.66064062500027","960","468.5","","","","","","","","","","","","","","","","","","","",""
"psychophysics","197","524227","0.0-16.0-1.8","5f383c7bbd56880ee4aff419","609a8bf73b2ac84e2732f618","60a2450847c021139459fb2b","null","","","","null","","","","key","16.66162068965636","960","468.5","","","","","","","","","","","","","187","-1","6","false","","","",""
"psychophysics","198","538239","0.0-16.0-2.8","5f383c7bbd56880ee4aff419","609a8bf73b2ac84e2732f618","60a2450847c021139459fb2b","14008.060000000056","","","","77","","","","key","16.66102976190478","960","468.5","","","","","","","","","","","","","","","","","","","",""
"psychophysics","199","539397","0.0-16.0-0.9","5f383c7bbd56880ee4aff419","609a8bf73b2ac84e2732f618","60a2450847c021139459fb2b","null","","","","null","","","","key","16.65902898550722","960","468.5","","","","","","","","","","","","","","","","","","","",""
"psychophysics","200","539900","0.0-16.0-1.9","5f383c7bbd56880ee4aff419","609a8bf73b2ac84e2732f618","60a2450847c021139459fb2b","null","","","","null","","","","key","16.660896551723045","960","468.5","","","","","","","","","","","","","187","1","0","false","","","",""
"psychophysics","201","540667","0.0-16.0-2.9","5f383c7bbd56880ee4aff419","609a8bf73b2ac84e2732f618","60a2450847c021139459fb2b","763.34499999939","","","","90","","","","key","16.66088888888868","960","468.5","","","","","","","","","","","","","","","","","","","",""
"psychophysics","202","541746","0.0-16.0-0.10","5f383c7bbd56880ee4aff419","609a8bf73b2ac84e2732f618","60a2450847c021139459fb2b","null","","","","null","","","","key","16.66235937500096","960","468.5","","","","","","","","","","","","","","","","","","","",""
"psychophysics","203","542253","0.0-16.0-1.10","5f383c7bbd56880ee4aff419","609a8bf73b2ac84e2732f618","60a2450847c021139459fb2b","null","","","","null","","","","key","16.660689655173538","960","468.5","","","","","","","","","","","","","187","-1","2","false","","","",""
"psychophysics","204","544380","0.0-16.0-2.10","5f383c7bbd56880ee4aff419","609a8bf73b2ac84e2732f618","60a2450847c021139459fb2b","2121.1300000014016","","","","77","","","","key","16.66022047244093","960","468.5","","","","","","","","","","","","","","","","","","","",""
"psychophysics","205","545578","0.0-16.0-0.11","5f383c7bbd56880ee4aff419","609a8bf73b2ac84e2732f618","60a2450847c021139459fb2b","null","","","","null","","","","key","16.66060563380187","960","468.5","","","","","","","","","","","","","","","","","","","",""
"psychophysics","206","546082","0.0-16.0-1.11","5f383c7bbd56880ee4aff419","609a8bf73b2ac84e2732f618","60a2450847c021139459fb2b","null","","","","null","","","","key","16.660068965516984","960","468.5","","","","","","","","","","","","","187","-1","4","false","","","",""
"psychophysics","207","546645","0.0-16.0-2.11","5f383c7bbd56880ee4aff419","609a8bf73b2ac84e2732f618","60a2450847c021139459fb2b","559.8599999992875","","","","77","","","","key","16.660545454543985","960","468.5","","","","","","","","","","","","","","","","","","","",""
"psychophysics","208","547961","0.0-16.0-0.12","5f383c7bbd56880ee4aff419","609a8bf73b2ac84e2732f618","60a2450847c021139459fb2b","null","","","","null","","","","key","16.661012820512926","960","468.5","","","","","","","","","","","","","","","","","","","",""
"psychophysics","209","548464","0.0-16.0-1.12","5f383c7bbd56880ee4aff419","609a8bf73b2ac84e2732f618","60a2450847c021139459fb2b","null","","","","null","","","","key","16.661862068966126","960","468.5","","","","","","","","","","","","","187","-1","4","false","","","",""
"psychophysics","210","549074","0.0-16.0-2.12","5f383c7bbd56880ee4aff419","609a8bf73b2ac84e2732f618","60a2450847c021139459fb2b","606.9950000001118","","","","77","","","","key","16.661685714285287","960","468.5","","","","","","","","","","","","","","","","","","","",""
"psychophysics","211","550327","0.0-16.0-0.13","5f383c7bbd56880ee4aff419","609a8bf73b2ac84e2732f618","60a2450847c021139459fb2b","null","","","","null","","","","key","16.661973333332377","960","468.5","","","","","","","","","","","","","","","","","","","",""
"psychophysics","212","550838","0.0-16.0-1.13","5f383c7bbd56880ee4aff419","609a8bf73b2ac84e2732f618","60a2450847c021139459fb2b","null","","","","null","","","","key","16.66137931034258","960","468.5","","","","","","","","","","","","","187","-1","0","false","","","",""
"psychophysics","213","551197","0.0-16.0-2.13","5f383c7bbd56880ee4aff419","609a8bf73b2ac84e2732f618","60a2450847c021139459fb2b","351.54499999945983","","","","90","","","","key","16.65890476190197","960","468.5","","","","","","","","","","","","","","","","","","","",""
"psychophysics","214","552671","0.0-16.0-0.14","5f383c7bbd56880ee4aff419","609a8bf73b2ac84e2732f618","60a2450847c021139459fb2b","null","","","","null","","","","key","16.66102298850531","960","468.5","","","","","","","","","","","","","","","","","","","",""
"psychophysics","215","553178","0.0-16.0-1.14","5f383c7bbd56880ee4aff419","609a8bf73b2ac84e2732f618","60a2450847c021139459fb2b","null","","","","null","","","","key","16.661133333330508","960","468.5","","","","","","","","","","","","","187","-1","2","false","","","",""
"psychophysics","216","553399","0.0-16.0-2.14","5f383c7bbd56880ee4aff419","609a8bf73b2ac84e2732f618","60a2450847c021139459fb2b","219.3200000000652","","","","90","","","","key","16.660583333335428","960","468.5","","","","","","","","","","","","","","","","","","","",""
"psychophysics","217","554126","0.0-16.0-0.15","5f383c7bbd56880ee4aff419","609a8bf73b2ac84e2732f618","60a2450847c021139459fb2b","null","","","","null","","","","key","16.660720930231715","960","468.5","","","","","","","","","","","","","","","","","","","",""
"psychophysics","218","554629","0.0-16.0-1.15","5f383c7bbd56880ee4aff419","609a8bf73b2ac84e2732f618","60a2450847c021139459fb2b","null","","","","null","","","","key","16.660103448277244","960","468.5","","","","","","","","","","","","","187","1","0","false","","","",""
"psychophysics","219","555076","0.0-16.0-2.15","5f383c7bbd56880ee4aff419","609a8bf73b2ac84e2732f618","60a2450847c021139459fb2b","445.22499999951106","","","","90","","","","key","16.66226923076633","960","468.5","","","","","","","","","","","","","","","","","","","",""
"psychophysics","220","555654","0.0-16.0-0.16","5f383c7bbd56880ee4aff419","609a8bf73b2ac84e2732f618","60a2450847c021139459fb2b","null","","","","null","","","","key","16.660060606060803","960","468.5","","","","","","","","","","","","","","","","","","","",""
"psychophysics","221","556160","0.0-16.0-1.16","5f383c7bbd56880ee4aff419","609a8bf73b2ac84e2732f618","60a2450847c021139459fb2b","null","","","","null","","","","key","16.658466666665237","960","468.5","","","","","","","","","","","","","187","-1","5","false","","","",""
"psychophysics","222","556388","0.0-16.0-2.16","5f383c7bbd56880ee4aff419","609a8bf73b2ac84e2732f618","60a2450847c021139459fb2b","224.6049999995157","","","","77","","","","key","16.65700000000652","960","468.5","","","","","","","","","","","","","","","","","","","",""
"psychophysics","223","557674","0.0-16.0-0.17","5f383c7bbd56880ee4aff419","609a8bf73b2ac84e2732f618","60a2450847c021139459fb2b","null","","","","null","","","","key","16.660701298700683","960","468.5","","","","","","","","","","","","","","","","","","","",""
"psychophysics","224","558175","0.0-16.0-1.17","5f383c7bbd56880ee4aff419","609a8bf73b2ac84e2732f618","60a2450847c021139459fb2b","null","","","","null","","","","key","16.662206896548643","960","468.5","","","","","","","","","","","","","187","-1","3","false","","","",""
"psychophysics","225","559227","0.0-16.0-2.17","5f383c7bbd56880ee4aff419","609a8bf73b2ac84e2732f618","60a2450847c021139459fb2b","1050.4400000008754","","","","77","","","","key","16.66025806451592","960","468.5","","","","","","","","","","","","","","","","","","","",""
"psychophysics","226","560272","0.0-16.0-0.18","5f383c7bbd56880ee4aff419","609a8bf73b2ac84e2732f618","60a2450847c021139459fb2b","null","","","","null","","","","key","16.66124193548533","960","468.5","","","","","","","","","","","","","","","","","","","",""
"psychophysics","227","560775","0.0-16.0-1.18","5f383c7bbd56880ee4aff419","609a8bf73b2ac84e2732f618","60a2450847c021139459fb2b","null","","","","null","","","","key","16.660689655169524","960","468.5","","","","","","","","","","","","","187","1","4","false","","","",""
"psychophysics","228","561273","0.0-16.0-2.18","5f383c7bbd56880ee4aff419","609a8bf73b2ac84e2732f618","60a2450847c021139459fb2b","496.0100000007078","","","","77","","","","key","16.660206896554005","960","468.5","","","","","","","","","","","","","","","","","","","",""
"psychophysics","229","562092","0.0-16.0-0.19","5f383c7bbd56880ee4aff419","609a8bf73b2ac84e2732f618","60a2450847c021139459fb2b","null","","","","null","","","","key","16.660541666666784","960","468.5","","","","","","","","","","","","","","","","","","","",""
"psychophysics","230","562594","0.0-16.0-1.19","5f383c7bbd56880ee4aff419","609a8bf73b2ac84e2732f618","60a2450847c021139459fb2b","null","","","","null","","","","key","16.661344827586337","960","468.5","","","","","","","","","","","","","187","1","3","false","","","",""
"psychophysics","231","563207","0.0-16.0-2.19","5f383c7bbd56880ee4aff419","609a8bf73b2ac84e2732f618","60a2450847c021139459fb2b","611.0699999990175","","","","77","","","","key","16.660416666667313","960","468.5","","","","","","","","","","","","","","","","","","","",""
"psychophysics","232","564177","0.0-16.0-0.20","5f383c7bbd56880ee4aff419","609a8bf73b2ac84e2732f618","60a2450847c021139459fb2b","null","","","","null","","","","key","16.661438596490036","960","468.5","","","","","","","","","","","","","","","","","","","",""
"psychophysics","233","564679","0.0-16.0-1.20","5f383c7bbd56880ee4aff419","609a8bf73b2ac84e2732f618","60a2450847c021139459fb2b","null","","","","null","","","","key","16.662862068965453","960","468.5","","","","","","","","","","","","","187","-1","6","false","","","",""
"psychophysics","234","565029","0.0-16.0-2.20","5f383c7bbd56880ee4aff419","609a8bf73b2ac84e2732f618","60a2450847c021139459fb2b","347.3200000007637","","","","77","","","","key","16.66284999999916","960","468.5","","","","","","","","","","","","","","","","","","","",""
"psychophysics","235","566329","0.0-16.0-0.21","5f383c7bbd56880ee4aff419","609a8bf73b2ac84e2732f618","60a2450847c021139459fb2b","null","","","","null","","","","key","16.659870129870857","960","468.5","","","","","","","","","","","","","","","","","","","",""
"psychophysics","236","566831","0.0-16.0-1.21","5f383c7bbd56880ee4aff419","609a8bf73b2ac84e2732f618","60a2450847c021139459fb2b","null","","","","null","","","","key","16.659758620690717","960","468.5","","","","","","","","","","","","","187","1","5","false","","","",""
"psychophysics","237","567259","0.0-16.0-2.21","5f383c7bbd56880ee4aff419","609a8bf73b2ac84e2732f618","60a2450847c021139459fb2b","425.6249999998836","","","","77","","","","key","16.66304166666426","960","468.5","","","","","","","","","","","","","","","","","","","",""
"psychophysics","238","568300","0.0-16.0-0.22","5f383c7bbd56880ee4aff419","609a8bf73b2ac84e2732f618","60a2450847c021139459fb2b","null","","","","null","","","","key","16.659634920633547","960","468.5","","","","","","","","","","","","","","","","","","","",""
"psychophysics","239","568804","0.0-16.0-1.22","5f383c7bbd56880ee4aff419","609a8bf73b2ac84e2732f618","60a2450847c021139459fb2b","null","","","","null","","","","key","16.662931034481957","960","468.5","","","","","","","","","","","","","187","1","6","false","","","",""
"psychophysics","240","569121","0.0-16.0-2.22","5f383c7bbd56880ee4aff419","609a8bf73b2ac84e2732f618","60a2450847c021139459fb2b","312.14000000001397","","","","77","","","","key","16.673777777779225","960","468.5","","","","","","","","","","","","","","","","","","","",""
"psychophysics","241","570437","0.0-16.0-0.23","5f383c7bbd56880ee4aff419","609a8bf73b2ac84e2732f618","60a2450847c021139459fb2b","null","","","","null","","","","key","16.6613974358979","960","468.5","","","","","","","","","","","","","","","","","","","",""
"psychophysics","242","570943","0.0-16.0-1.23","5f383c7bbd56880ee4aff419","609a8bf73b2ac84e2732f618","60a2450847c021139459fb2b","null","","","","null","","","","key","16.659724137930457","960","468.5","","","","","","","","","","","","","187","1","2","false","","","",""
"psychophysics","243","571531","0.0-16.0-2.23","5f383c7bbd56880ee4aff419","609a8bf73b2ac84e2732f618","60a2450847c021139459fb2b","584.8550000009127","","","","90","","","","key","16.66202941176701","960","468.5","","","","","","","","","","","","","","","","","","","",""
"html-keyboard-response","244","575150","0.0-17.0","5f383c7bbd56880ee4aff419","609a8bf73b2ac84e2732f618","60a2450847c021139459fb2b","3613.395000000368","<p>Well Done !</p><p>Training Complete. Press the spacebar to start.</p><p>DON'T EXIT THE FULL SCREEN MODE</p>","","","32","","","","","","","","","","","","","","","","","","","","","","","","","","",""
"psychophysics","245","577980","0.0-18.0-0.0","5f383c7bbd56880ee4aff419","609a8bf73b2ac84e2732f618","60a2450847c021139459fb2b","null","","","","null","","","","key","16.661877551021018","960","468.5","","","","","","","","","","","","","","","","","","","",""
"psychophysics","246","578484","0.0-18.0-1.0","5f383c7bbd56880ee4aff419","609a8bf73b2ac84e2732f618","60a2450847c021139459fb2b","null","","","","null","","","","key","16.661899999998663","960","468.5","","","","","","","","","","","","","187","-1","2","true","","","",""
"psychophysics","247","578767","0.0-18.0-2.0","5f383c7bbd56880ee4aff419","609a8bf73b2ac84e2732f618","60a2450847c021139459fb2b","279.8600000005681","","","","77","","","","key","16.660312500003783","960","468.5","","","","","","","","","","","","","","","","","","","",""
"psychophysics","248","580148","0.0-18.0-0.1","5f383c7bbd56880ee4aff419","609a8bf73b2ac84e2732f618","60a2450847c021139459fb2b","null","","","","null","","","","key","16.66102439024281","960","468.5","","","","","","","","","","","","","","","","","","","",""
"psychophysics","249","580653","0.0-18.0-1.1","5f383c7bbd56880ee4aff419","609a8bf73b2ac84e2732f618","60a2450847c021139459fb2b","null","","","","null","","","","key","16.660586206896777","960","468.5","","","","","","","","","","","","","187","1","6","true","","","",""
"psychophysics","250","580920","0.0-18.0-2.1","5f383c7bbd56880ee4aff419","609a8bf73b2ac84e2732f618","60a2450847c021139459fb2b","263.8499999992782","","","","77","","","","key","16.658799999998884","960","468.5","","","","","","","","","","","","","","","","","","","",""
"psychophysics","251","581618","0.0-18.0-0.2","5f383c7bbd56880ee4aff419","609a8bf73b2ac84e2732f618","60a2450847c021139459fb2b","null","","","","null","","","","key","16.659853658536676","960","468.5","","","","","","","","","","","","","","","","","","","",""
"psychophysics","252","582121","0.0-18.0-1.2","5f383c7bbd56880ee4aff419","609a8bf73b2ac84e2732f618","60a2450847c021139459fb2b","null","","","","null","","","","key","16.65937931034393","960","468.5","","","","","","","","","","","","","187","1","5","true","","","",""
"psychophysics","253","582626","0.0-18.0-2.2","5f383c7bbd56880ee4aff419","609a8bf73b2ac84e2732f618","60a2450847c021139459fb2b","502.6699999998091","","","","77","","","","key","16.661586206896104","960","468.5","","","","","","","","","","","","","","","","","","","",""
"psychophysics","254","583518","0.0-18.0-0.3","5f383c7bbd56880ee4aff419","609a8bf73b2ac84e2732f618","60a2450847c021139459fb2b","null","","","","null","","","","key","16.66001886792507","960","468.5","","","","","","","","","","","","","","","","","","","",""
"psychophysics","255","584019","0.0-18.0-1.3","5f383c7bbd56880ee4aff419","609a8bf73b2ac84e2732f618","60a2450847c021139459fb2b","null","","","","null","","","","key","16.660965517243564","960","468.5","","","","","","","","","","","","","187","-1","6","true","","","",""
"psychophysics","256","584558","0.0-18.0-2.3","5f383c7bbd56880ee4aff419","609a8bf73b2ac84e2732f618","60a2450847c021139459fb2b","534.1950000001816","","","","77","","","","key","16.660064516130895","960","468.5","","","","","","","","","","","","","","","","","","","",""
"psychophysics","257","585996","0.0-18.0-0.4","5f383c7bbd56880ee4aff419","609a8bf73b2ac84e2732f618","60a2450847c021139459fb2b","null","","","","null","","","","key","16.660872093024178","960","468.5","","","","","","","","","","","","","","","","","","","",""
"psychophysics","258","586500","0.0-18.0-1.4","5f383c7bbd56880ee4aff419","609a8bf73b2ac84e2732f618","60a2450847c021139459fb2b","null","","","","null","","","","key","16.66162068965636","960","468.5","","","","","","","","","","","","","187","-1","3","true","","","",""
"psychophysics","259","586881","0.0-18.0-2.4","5f383c7bbd56880ee4aff419","609a8bf73b2ac84e2732f618","60a2450847c021139459fb2b","377.5900000000838","","","","90","","","","key","16.660636363635685","960","468.5","","","","","","","","","","","","","","","","","","","",""
"psychophysics","260","588052","0.0-18.0-0.5","5f383c7bbd56880ee4aff419","609a8bf73b2ac84e2732f618","60a2450847c021139459fb2b","null","","","","null","","","","key","16.66073913043331","960","468.5","","","","","","","","","","","","","","","","","","","",""
"psychophysics","261","588555","0.0-18.0-1.5","5f383c7bbd56880ee4aff419","609a8bf73b2ac84e2732f618","60a2450847c021139459fb2b","null","","","","null","","","","key","16.659448275864445","960","468.5","","","","","","","","","","","","","187","1","4","true","","","",""
"psychophysics","262","588735","0.0-18.0-2.5","5f383c7bbd56880ee4aff419","609a8bf73b2ac84e2732f618","60a2450847c021139459fb2b","178.3900000009453","","","","77","","","","key","16.660100000002423","960","468.5","","","","","","","","","","","","","","","","","","","",""
"psychophysics","263","590101","0.0-18.0-0.6","5f383c7bbd56880ee4aff419","609a8bf73b2ac84e2732f618","60a2450847c021139459fb2b","null","","","","null","","","","key","16.661283950617445","960","468.5","","","","","","","","","","","","","","","","","","","",""
"psychophysics","264","590604","0.0-18.0-1.6","5f383c7bbd56880ee4aff419","609a8bf73b2ac84e2732f618","60a2450847c021139459fb2b","null","","","","null","","","","key","16.6607931034503","960","468.5","","","","","","","","","","","","","187","-1","4","true","","","",""
"psychophysics","265","591363","0.0-18.0-2.6","5f383c7bbd56880ee4aff419","609a8bf73b2ac84e2732f618","60a2450847c021139459fb2b","757.5350000007311","","","","77","","","","key","16.660977777779205","960","468.5","","","","","","","","","","","","","","","","","","","",""
"psychophysics","266","592675","0.0-18.0-0.7","5f383c7bbd56880ee4aff419","609a8bf73b2ac84e2732f618","60a2450847c021139459fb2b","null","","","","null","","","","key","16.66194805194769","960","468.5","","","","","","","","","","","","","","","","","","","",""
"psychophysics","267","593183","0.0-18.0-1.7","5f383c7bbd56880ee4aff419","609a8bf73b2ac84e2732f618","60a2450847c021139459fb2b","null","","","","null","","","","key","16.657833333332867","960","468.5","","","","","","","","","","","","","187","1","3","true","","","",""
"psychophysics","268","593634","0.0-18.0-2.7","5f383c7bbd56880ee4aff419","609a8bf73b2ac84e2732f618","60a2450847c021139459fb2b","447.90999999898486","","","","77","","","","key","16.660999999999497","960","468.5","","","","","","","","","","","","","","","","","","","",""
"psychophysics","269","594853","0.0-18.0-0.8","5f383c7bbd56880ee4aff419","609a8bf73b2ac84e2732f618","60a2450847c021139459fb2b","null","","","","null","","","","key","16.66087499999978","960","468.5","","","","","","","","","","","","","","","","","","","",""
"psychophysics","270","595355","0.0-18.0-1.8","5f383c7bbd56880ee4aff419","609a8bf73b2ac84e2732f618","60a2450847c021139459fb2b","null","","","","null","","","","key","16.661275862065818","960","468.5","","","","","","","","","","","","","187","1","2","true","","","",""
"psychophysics","271","596400","0.0-18.0-2.8","5f383c7bbd56880ee4aff419","609a8bf73b2ac84e2732f618","60a2450847c021139459fb2b","1043.429999999702","","","","90","","","","key","16.661161290322084","960","468.5","","","","","","","","","","","","","","","","","","","",""
"psychophysics","272","597742","0.0-18.0-0.9","5f383c7bbd56880ee4aff419","609a8bf73b2ac84e2732f618","60a2450847c021139459fb2b","null","","","","null","","","","key","16.66007499999978","960","468.5","","","","","","","","","","","","","","","","","","","",""
"psychophysics","273","598246","0.0-18.0-1.9","5f383c7bbd56880ee4aff419","609a8bf73b2ac84e2732f618","60a2450847c021139459fb2b","null","","","","null","","","","key","16.66044827586377","960","468.5","","","","","","","","","","","","","187","1","0","true","","","",""
"psychophysics","274","598666","0.0-18.0-2.9","5f383c7bbd56880ee4aff419","609a8bf73b2ac84e2732f618","60a2450847c021139459fb2b","417.0099999991944","","","","90","","","","key","16.660583333330578","960","468.5","","","","","","","","","","","","","","","","","","","",""
"psychophysics","275","599961","0.0-18.0-0.10","5f383c7bbd56880ee4aff419","609a8bf73b2ac84e2732f618","60a2450847c021139459fb2b","null","","","","null","","","","key","16.661337662338546","960","468.5","","","","","","","","","","","","","","","","","","","",""
"psychophysics","276","600464","0.0-18.0-1.10","5f383c7bbd56880ee4aff419","609a8bf73b2ac84e2732f618","60a2450847c021139459fb2b","null","","","","null","","","","key","16.659862068967477","960","468.5","","","","","","","","","","","","","187","-1","5","true","","","",""
"psychophysics","277","600653","0.0-18.0-2.10","5f383c7bbd56880ee4aff419","609a8bf73b2ac84e2732f618","60a2450847c021139459fb2b","187.0149999995483","","","","77","","","","key","16.667500000004658","960","468.5","","","","","","","","","","","","","","","","","","","",""
"psychophysics","278","601374","0.0-18.0-0.11","5f383c7bbd56880ee4aff419","609a8bf73b2ac84e2732f618","60a2450847c021139459fb2b","null","","","","null","","","","key","16.659046511628752","960","468.5","","","","","","","","","","","","","","","","","","","",""
"psychophysics","279","601879","0.0-18.0-1.11","5f383c7bbd56880ee4aff419","609a8bf73b2ac84e2732f618","60a2450847c021139459fb2b","null","","","","null","","","","key","16.660999999999806","960","468.5","","","","","","","","","","","","","187","-1","0","true","","","",""
"psychophysics","280","602382","0.0-18.0-2.11","5f383c7bbd56880ee4aff419","609a8bf73b2ac84e2732f618","60a2450847c021139459fb2b","500.5600000004051","","","","90","","","","key","16.659379310347944","960","468.5","","","","","","","","","","","","","","","","","","","",""
"psychophysics","281","603878","0.0-18.0-0.12","5f383c7bbd56880ee4aff419","609a8bf73b2ac84e2732f618","60a2450847c021139459fb2b","null","","","","null","","","","key","16.660640449438432","960","468.5","","","","","","","","","","","","","","","","","","","",""
"psychophysics","282","604379","0.0-18.0-1.12","5f383c7bbd56880ee4aff419","609a8bf73b2ac84e2732f618","60a2450847c021139459fb2b","null","","","","null","","","","key","16.660620689657033","960","468.5","","","","","","","","","","","","","187","1","0","true","","","",""
"psychophysics","283","605149","0.0-18.0-2.12","5f383c7bbd56880ee4aff419","609a8bf73b2ac84e2732f618","60a2450847c021139459fb2b","767.8400000004331","","","","77","","","","key","16.66153333333269","960","468.5","","","","","","","","","","","","","","","","","","","",""
"psychophysics","284","605836","0.0-18.0-0.13","5f383c7bbd56880ee4aff419","609a8bf73b2ac84e2732f618","60a2450847c021139459fb2b","null","","","","null","","","","key","16.659974999999395","960","468.5","","","","","","","","","","","","","","","","","","","",""
"psychophysics","285","606339","0.0-18.0-1.13","5f383c7bbd56880ee4aff419","609a8bf73b2ac84e2732f618","60a2450847c021139459fb2b","null","","","","null","","","","key","16.661866666667628","960","468.5","","","","","","","","","","","","","187","1","3","true","","","",""
"psychophysics","286","606831","0.0-18.0-2.13","5f383c7bbd56880ee4aff419","609a8bf73b2ac84e2732f618","60a2450847c021139459fb2b","488.60500000044703","","","","77","","","","key","16.662571428572328","960","468.5","","","","","","","","","","","","","","","","","","","",""
"psychophysics","287","608182","0.0-18.0-0.14","5f383c7bbd56880ee4aff419","609a8bf73b2ac84e2732f618","60a2450847c021139459fb2b","null","","","","null","","","","key","16.660399999999207","960","468.5","","","","","","","","","","","","","","","","","","","",""
"psychophysics","288","608683","0.0-18.0-1.14","5f383c7bbd56880ee4aff419","609a8bf73b2ac84e2732f618","60a2450847c021139459fb2b","null","","","","null","","","","key","16.660586206896777","960","468.5","","","","","","","","","","","","","187","-1","4","true","","","",""
"psychophysics","289","609078","0.0-18.0-2.14","5f383c7bbd56880ee4aff419","609a8bf73b2ac84e2732f618","60a2450847c021139459fb2b","387.8000000003958","","","","77","","","","key","16.661739130433567","960","468.5","","","","","","","","","","","","","","","","","","","",""
"psychophysics","290","610060","0.0-18.0-0.15","5f383c7bbd56880ee4aff419","609a8bf73b2ac84e2732f618","60a2450847c021139459fb2b","null","","","","null","","","","key","16.660051724136856","960","468.5","","","","","","","","","","","","","","","","","","","",""
"psychophysics","291","610563","0.0-18.0-1.15","5f383c7bbd56880ee4aff419","609a8bf73b2ac84e2732f618","60a2450847c021139459fb2b","null","","","","null","","","","key","16.661999999999132","960","468.5","","","","","","","","","","","","","187","-1","0","true","","","",""
"psychophysics","292","610789","0.0-18.0-2.15","5f383c7bbd56880ee4aff419","609a8bf73b2ac84e2732f618","60a2450847c021139459fb2b","224.09500000136904","","","","90","","","","key","16.660769230766725","960","468.5","","","","","","","","","","","","","","","","","","","",""
"psychophysics","293","611319","0.0-18.0-0.16","5f383c7bbd56880ee4aff419","609a8bf73b2ac84e2732f618","60a2450847c021139459fb2b","null","","","","null","","","","key","16.661933333333582","960","468.5","","","","","","","","","","","","","","","","","","","",""
"psychophysics","294","611821","0.0-18.0-1.16","5f383c7bbd56880ee4aff419","609a8bf73b2ac84e2732f618","60a2450847c021139459fb2b","null","","","","null","","","","key","16.66423333333417","960","468.5","","","","","","","","","","","","","187","-1","6","true","","","",""
"psychophysics","295","612222","0.0-18.0-2.16","5f383c7bbd56880ee4aff419","609a8bf73b2ac84e2732f618","60a2450847c021139459fb2b","395.5750000005355","","","","77","","","","key","16.658478260870375","960","468.5","","","","","","","","","","","","","","","","","","","",""
"psychophysics","296","612836","0.0-18.0-0.17","5f383c7bbd56880ee4aff419","609a8bf73b2ac84e2732f618","60a2450847c021139459fb2b","null","","","","null","","","","key","16.65980555555628","960","468.5","","","","","","","","","","","","","","","","","","","",""
"psychophysics","297","613339","0.0-18.0-1.17","5f383c7bbd56880ee4aff419","609a8bf73b2ac84e2732f618","60a2450847c021139459fb2b","null","","","","null","","","","key","16.660827586206544","960","468.5","","","","","","","","","","","","","187","-1","5","true","","","",""
"psychophysics","298","613539","0.0-18.0-2.17","5f383c7bbd56880ee4aff419","609a8bf73b2ac84e2732f618","60a2450847c021139459fb2b","197.7849999985192","","","","77","","","","key","16.646545454542238","960","468.5","","","","","","","","","","","","","","","","","","","",""
"psychophysics","299","614501","0.0-18.0-0.18","5f383c7bbd56880ee4aff419","609a8bf73b2ac84e2732f618","60a2450847c021139459fb2b","null","","","","null","","","","key","16.6612500000005","960","468.5","","","","","","","","","","","","","","","","","","","",""
"psychophysics","300","615003","0.0-18.0-1.18","5f383c7bbd56880ee4aff419","609a8bf73b2ac84e2732f618","60a2450847c021139459fb2b","null","","","","null","","","","key","16.661200000000342","960","468.5","","","","","","","","","","","","","187","-1","2","true","","","",""
"psychophysics","301","615424","0.0-18.0-2.18","5f383c7bbd56880ee4aff419","609a8bf73b2ac84e2732f618","60a2450847c021139459fb2b","416.5849999990314","","","","90","","","","key","16.661041666671128","960","468.5","","","","","","","","","","","","","","","","","","","",""
"psychophysics","302","616069","0.0-18.0-0.19","5f383c7bbd56880ee4aff419","609a8bf73b2ac84e2732f618","60a2450847c021139459fb2b","null","","","","null","","","","key","16.662184210527858","960","468.5","","","","","","","","","","","","","","","","","","","",""
"psychophysics","303","616573","0.0-18.0-1.19","5f383c7bbd56880ee4aff419","609a8bf73b2ac84e2732f618","60a2450847c021139459fb2b","null","","","","null","","","","key","16.65906896551766","960","468.5","","","","","","","","","","","","","187","1","2","true","","","",""
"psychophysics","304","617023","0.0-18.0-2.19","5f383c7bbd56880ee4aff419","609a8bf73b2ac84e2732f618","60a2450847c021139459fb2b","446.7150000000838","","","","77","","","","key","16.661846153845545","960","468.5","","","","","","","","","","","","","","","","","","","",""
"psychophysics","305","617664","0.0-18.0-0.20","5f383c7bbd56880ee4aff419","609a8bf73b2ac84e2732f618","60a2450847c021139459fb2b","null","","","","null","","","","key","16.662108108108686","960","468.5","","","","","","","","","","","","","","","","","","","",""
"psychophysics","306","618171","0.0-18.0-1.20","5f383c7bbd56880ee4aff419","609a8bf73b2ac84e2732f618","60a2450847c021139459fb2b","null","","","","null","","","","key","16.658466666665237","960","468.5","","","","","","","","","","","","","187","1","5","true","","","",""
"psychophysics","307","618667","0.0-18.0-2.20","5f383c7bbd56880ee4aff419","609a8bf73b2ac84e2732f618","60a2450847c021139459fb2b","492.2749999986263","","","","77","","","","key","16.66082142857236","960","468.5","","","","","","","","","","","","","","","","","","","",""
"psychophysics","308","619905","0.0-18.0-0.21","5f383c7bbd56880ee4aff419","609a8bf73b2ac84e2732f618","60a2450847c021139459fb2b","null","","","","null","","","","key","16.661405405405645","960","468.5","","","","","","","","","","","","","","","","","","","",""
"psychophysics","309","620410","0.0-18.0-1.21","5f383c7bbd56880ee4aff419","609a8bf73b2ac84e2732f618","60a2450847c021139459fb2b","null","","","","null","","","","key","16.65944827586043","960","468.5","","","","","","","","","","","","","187","1","6","true","","","",""
"psychophysics","310","620605","0.0-18.0-2.21","5f383c7bbd56880ee4aff419","609a8bf73b2ac84e2732f618","60a2450847c021139459fb2b","191.55000000132713","","","","77","","","","key","16.659636363641106","960","468.5","","","","","","","","","","","","","","","","","","","",""
"psychophysics","311","621833","0.0-18.0-0.22","5f383c7bbd56880ee4aff419","609a8bf73b2ac84e2732f618","60a2450847c021139459fb2b","null","","","","null","","","","key","16.66091780821882","960","468.5","","","","","","","","","","","","","","","","","","","",""
"psychophysics","312","622338","0.0-18.0-1.22","5f383c7bbd56880ee4aff419","609a8bf73b2ac84e2732f618","60a2450847c021139459fb2b","null","","","","null","","","","key","16.659896551727734","960","468.5","","","","","","","","","","","","","187","1","4","true","","","",""
"psychophysics","313","622586","0.0-18.0-2.22","5f383c7bbd56880ee4aff419","609a8bf73b2ac84e2732f618","60a2450847c021139459fb2b","243.3549999987008","","","","77","","","","key","16.66335714285794","960","468.5","","","","","","","","","","","","","","","","","","","",""
"psychophysics","314","623753","0.0-18.0-0.23","5f383c7bbd56880ee4aff419","609a8bf73b2ac84e2732f618","60a2450847c021139459fb2b","null","","","","null","","","","key","16.66127536231922","960","468.5","","","","","","","","","","","","","","","","","","","",""
"psychophysics","315","624278","0.0-18.0-1.23","5f383c7bbd56880ee4aff419","609a8bf73b2ac84e2732f618","60a2450847c021139459fb2b","null","","","","null","","","","key","16.663400000000063","960","468.5","","","","","","","","","","","","","187","-1","3","true","","","",""
"psychophysics","316","624939","0.0-18.0-2.23","5f383c7bbd56880ee4aff419","609a8bf73b2ac84e2732f618","60a2450847c021139459fb2b","658.7650000001304","","","","77","","","","key","16.656384615385786","960","468.5","","","","","","","","","","","","","","","","","","","",""
"psychophysics","317","625590","0.0-18.0-0.24","5f383c7bbd56880ee4aff419","609a8bf73b2ac84e2732f618","60a2450847c021139459fb2b","null","","","","null","","","","key","16.6624736842105","960","468.5","","","","","","","","","","","","","","","","","","","",""
"psychophysics","318","626095","0.0-18.0-1.24","5f383c7bbd56880ee4aff419","609a8bf73b2ac84e2732f618","60a2450847c021139459fb2b","null","","","","null","","","","key","16.65779310344831","960","468.5","","","","","","","","","","","","","187","-1","4","true","","","",""
"psychophysics","319","626602","0.0-18.0-2.24","5f383c7bbd56880ee4aff419","609a8bf73b2ac84e2732f618","60a2450847c021139459fb2b","491.804999999702","","","","77","","","","key","16.662666666666823","960","468.5","","","","","","","","","","","","","","","","","","","",""
"psychophysics","320","627872","0.0-18.0-0.25","5f383c7bbd56880ee4aff419","609a8bf73b2ac84e2732f618","60a2450847c021139459fb2b","null","","","","null","","","","key","16.661919999999615","960","468.5","","","","","","","","","","","","","","","","","","","",""
"psychophysics","321","628376","0.0-18.0-1.25","5f383c7bbd56880ee4aff419","609a8bf73b2ac84e2732f618","60a2450847c021139459fb2b","null","","","","null","","","","key","16.657310344828776","960","468.5","","","","","","","","","","","","","187","1","2","true","","","",""
"psychophysics","322","628539","0.0-18.0-2.25","5f383c7bbd56880ee4aff419","609a8bf73b2ac84e2732f618","60a2450847c021139459fb2b","159.86499999952503","","","","90","","","","key","16.65855555555835","960","468.5","","","","","","","","","","","","","","","","","","","",""
"psychophysics","323","629404","0.0-18.0-0.26","5f383c7bbd56880ee4aff419","609a8bf73b2ac84e2732f618","60a2450847c021139459fb2b","null","","","","null","","","","key","16.660509803921315","960","468.5","","","","","","","","","","","","","","","","","","","",""
"psychophysics","324","629907","0.0-18.0-1.26","5f383c7bbd56880ee4aff419","609a8bf73b2ac84e2732f618","60a2450847c021139459fb2b","null","","","","null","","","","key","16.66227586206916","960","468.5","","","","","","","","","","","","","187","1","5","true","","","",""
"psychophysics","325","631718","0.0-18.0-2.26","5f383c7bbd56880ee4aff419","609a8bf73b2ac84e2732f618","60a2450847c021139459fb2b","1807.995000001043","","","","77","","","","key","16.660518518517534","960","468.5","","","","","","","","","","","","","","","","","","","",""
"psychophysics","326","632632","0.0-18.0-0.27","5f383c7bbd56880ee4aff419","609a8bf73b2ac84e2732f618","60a2450847c021139459fb2b","null","","","","null","","","","key","16.66266666666639","960","468.5","","","","","","","","","","","","","","","","","","","",""
"psychophysics","327","633139","0.0-18.0-1.27","5f383c7bbd56880ee4aff419","609a8bf73b2ac84e2732f618","60a2450847c021139459fb2b","null","","","","null","","","","key","16.661379310346593","960","468.5","","","","","","","","","","","","","187","-1","6","true","","","",""
