"trial_type","trial_index","time_elapsed","internal_node_id","PROLIFIC_PID","STUDY_ID","SESSION_ID","rt","stimulus","button_pressed","success","key_press","responses","isData","view_history","response_type","avg_frame_time","center_x","center_y","isSC","stim_side","trial_luminance","step_size","nReversal","correct","prev_ans","isThreshold","SC_threshold","final_threshold","isLuminance","FF_luminance","luminance","stimSide","ISInt","isFF","question_order","isSPQ","isCAPS","isAQ"
"pavlovia","0","2","0.0-0.0","6096ee4ed5f41e6e17598ec9","609a8bf73b2ac84e2732f618","60a2934ac1d7653758e76192","","","","","","","","","","","","","","","","","","","","","","","","","","","","","","","",""
"html-button-response","1","27430","0.0-1.0","6096ee4ed5f41e6e17598ec9","609a8bf73b2ac84e2732f618","60a2934ac1d7653758e76192","27426.304999999957","<div style='background-color: white; width:60%; margin: auto; padding: 50px; text-align: justify; text-justify: inter-word; margin-bottom: 20px;'><h1 style='text-align: center;'>Consent Form</h1><p>Please read this consent form carefully before deciding whether you would like to participate in this study. You have to be 18 years old or older to participate to this study.</p><p style='text-decoration: underline;'>Participation is voluntary:</p><p>It is your choice whether or not to participate in this research. If you choose to participate, you may change your mind and leave the study at any time. Refusal to participate or stopping your participation will involve no penalty or loss of benefits to which you are otherwise entitled.</p><p style='text-decoration: underline;'>Purpose of the Study:</p><p>To understand the mechanisms underlying human perception.</p><p style='text-decoration: underline;'>What you will do in this study:</p><p>You will be presented with a series of visual images and then you will press buttons on the keyboard of your computer to respond to simple questions about the images (e.g. Were one or two images presented?). In addition, you will be asked to complete a questionnaire concerning your beliefs and everyday mental and perceptual experiences.'</p><p style='text-decoration: underline;'> Time Required:</p><p>The study will take 40 minutes to complete. </p><p style='text-decoration: underline;'>Risks:</p><p>There are no anticipated risks associated with participating in this study that are beyond those experienced in everyday life. </p><p style='text-decoration: underline;'>Benefits:</p><p>There are no benefits to you in participating in the study. However, this study may lead to a better understanding of how different kinds of visual information are used.</p><p style='text-decoration: underline;'>Compensation:</p><p>You will be paid US$6.6/hour. </p><p style='text-decoration: underline;'>Privacy and Confidentiality:</p><p>Your participation in this study will be anonymous. No personal information about your name or identity will be asked or recorded. This anonymous data will be stored for several years and may be used for a variety of research purposes. The overall results of the study may be published, or the data files may be shared with other researchers, but your identity will not be revealed in any way. The online services we are using for this study may temporarily store your data, but this data will be downloaded and then promptly deleted from those services.Your data will not be permanently associated with your name, IP address, or any other identifiable information (e.g., your information will only be connected to your payment, not to any of your responses), though they may be temporarily stored together before we download and separate them. Even so, no guarantee of internet survey security can be given because, although unlikely, transmissions can be intercepted and IP addresses can be identified. The anonymous data may be shared publicly (for example, in conjunction with a resulting academic publication).</p><p style='text-decoration: underline;'>Participation and Withdrawal:</p><p>Your participation in this study is completely voluntary. You may stop responding to the stimuli or stop answering questions if you so choose and without penalty by exiting the full screen mode, closing this tab of your browser or redirecting it to a different website.</p><p style='text-decoration: underline;'>Contact Info of the Researcher: </p><p>If you have questions about this study, or if you would like to talk to the research team, please contact David Melcher (david.melcher@nyu.edu, md5050@nyu.edu) at the Perception and Active Cognition Laboratory, New York University Abu Dhabi, Computational Research Building, Saadiyat Island, Abu Dhabi, UAE.This research has been reviewed by the New York University Abu Dhabi Institutional Review Board (NYUAD IRB). To contact about your rights in this research, for questions, suggestions, or complaints that are not addressed by the researchers, please email IRBnyuad@nyu.edu, or call the NYUAD IRB at +971 2 628 4313. </p></div>","0","","","","","","","","","","","","","","","","","","","","","","","","","","","","",""
"fullscreen","2","29240","0.0-2.0","6096ee4ed5f41e6e17598ec9","609a8bf73b2ac84e2732f618","60a2934ac1d7653758e76192","","","","true","","","","","","","","","","","","","","","","","","","","","","","","","","","",""
"html-keyboard-response","3","51367","0.0-3.0","6096ee4ed5f41e6e17598ec9","609a8bf73b2ac84e2732f618","60a2934ac1d7653758e76192","22126.475000000028","<p>Welcome !</p><p>READ CAREFULLY THE FOLLOWING INDICATIONS:</p><p>From this moment you have ~40 minutes to complete the experiment.</p><p>During the experiment you will be prompted to take several breaks. Each break should not last longer than 2-3 minutes.</p><p>Make sure that your computer is plugged in and it's not running on battery power, even if the battery is already fully charged.</p><p>Turn off your phone and music, make sure that you are in a quiet room and that you will not be distracted for the next hour.</p><p>Failure to comply with the instructions and indications provided during the experiment will most likely result in the rejection of your data.<p>Press the spacebar to start.</p>","","","32","","","","","","","","","","","","","","","","","","","","","","","","","","",""
"survey-html-form","4","61241","0.0-4.0","6096ee4ed5f41e6e17598ec9","609a8bf73b2ac84e2732f618","60a2934ac1d7653758e76192","9873.524999999972","","","","","{""age"":""38"",""sex"":""m""}","true","","","","","","","","","","","","","","","","","","","","","","","","",""
"instructions","5","118855","0.0-5.0","6096ee4ed5f41e6e17598ec9","609a8bf73b2ac84e2732f618","60a2934ac1d7653758e76192","57613.62000000008","","","","","","","[{""page_index"":0,""viewing_time"":31336.670000000144},{""page_index"":1,""viewing_time"":24201.904999999897},{""page_index"":2,""viewing_time"":2074.819999999818}]","","","","","","","","","","","","","","","","","","","","","","","",""
"psychophysics","6","128303","0.0-6.0-0.0","6096ee4ed5f41e6e17598ec9","609a8bf73b2ac84e2732f618","60a2934ac1d7653758e76192","8441.000000000262","","","","37","","","","key","16.66645855379191","960","468.5","true","-1","180","30","0","-1","","","","","","","","","","","","","",""
"psychophysics","7","130902","0.0-6.0-0.1","6096ee4ed5f41e6e17598ec9","609a8bf73b2ac84e2732f618","60a2934ac1d7653758e76192","1591.065000000075","","","","39","","","","key","16.66734193548393","960","468.5","true","1","180","30","0","-1","-1","","","","","","","","","","","","",""
"psychophysics","8","132366","0.0-6.0-0.2","6096ee4ed5f41e6e17598ec9","609a8bf73b2ac84e2732f618","60a2934ac1d7653758e76192","455.12000000008265","","","","37","","","","key","16.667482758620647","960","468.5","true","-1","150","30","0","-1","-1","","","","","","","","","","","","",""
"psychophysics","9","133798","0.0-6.0-0.3","6096ee4ed5f41e6e17598ec9","609a8bf73b2ac84e2732f618","60a2934ac1d7653758e76192","426.9849999996077","","","","39","","","","key","16.66747058823547","960","468.5","true","1","150","30","0","-1","-1","","","","","","","","","","","","",""
"psychophysics","10","136462","0.0-6.0-0.4","6096ee4ed5f41e6e17598ec9","609a8bf73b2ac84e2732f618","60a2934ac1d7653758e76192","1654.054999999964","","","","39","","","","key","16.66676729559732","960","468.5","true","-1","129","24","1","1","-1","","","","","","","","","","","","",""
"psychophysics","11","137926","0.0-6.0-0.5","6096ee4ed5f41e6e17598ec9","609a8bf73b2ac84e2732f618","60a2934ac1d7653758e76192","451.3499999998312","","","","37","","","","key","16.667697674418505","960","468.5","true","-1","153","24","1","-1","1","","","","","","","","","","","","",""
"psychophysics","12","139342","0.0-6.0-0.6","6096ee4ed5f41e6e17598ec9","609a8bf73b2ac84e2732f618","60a2934ac1d7653758e76192","414.41000000029453","","","","37","","","","key","16.666464285714376","960","468.5","true","-1","153","19.2","2","-1","-1","","","","","","","","","","","","",""
"psychophysics","13","140718","0.0-6.0-0.7","6096ee4ed5f41e6e17598ec9","609a8bf73b2ac84e2732f618","60a2934ac1d7653758e76192","374.0899999998219","","","","39","","","","key","16.668097560975784","960","468.5","true","1","133.8","19.2","2","-1","-1","","","","","","","","","","","","",""
"psychophysics","14","142134","0.0-6.0-0.8","6096ee4ed5f41e6e17598ec9","609a8bf73b2ac84e2732f618","60a2934ac1d7653758e76192","406.8400000000838","","","","37","","","","key","16.667083333333373","960","468.5","true","-1","133.8","19.2","2","-1","-1","","","","","","","","","","","","",""
"psychophysics","15","144342","0.0-6.0-0.9","6096ee4ed5f41e6e17598ec9","609a8bf73b2ac84e2732f618","60a2934ac1d7653758e76192","1205.9749999998603","","","","39","","","","key","16.667366412213873","960","468.5","true","1","129","19.2","2","-1","-1","","","","","","","","","","","","",""
"psychophysics","16","145958","0.0-6.0-0.10","6096ee4ed5f41e6e17598ec9","609a8bf73b2ac84e2732f618","60a2934ac1d7653758e76192","612.9850000001898","","","","39","","","","key","16.667614583333187","960","468.5","true","-1","129","15.36","3","1","-1","","","","","","","","","","","","",""
"psychophysics","17","147350","0.0-6.0-0.11","6096ee4ed5f41e6e17598ec9","609a8bf73b2ac84e2732f618","60a2934ac1d7653758e76192","389.3499999999476","","","","37","","","","key","16.666795180723035","960","468.5","true","-1","144.36","15.36","3","-1","1","","","","","","","","","","","","",""
"psychophysics","18","148750","0.0-6.0-0.12","6096ee4ed5f41e6e17598ec9","609a8bf73b2ac84e2732f618","60a2934ac1d7653758e76192","393.4650000000838","","","","37","","","","key","16.665734939758963","960","468.5","true","-1","144.36","12.287999999999998","4","-1","-1","","","","","","","","","","","","",""
"psychophysics","19","150478","0.0-6.0-0.13","6096ee4ed5f41e6e17598ec9","609a8bf73b2ac84e2732f618","60a2934ac1d7653758e76192","717.5999999999476","","","","37","","","","key","16.666281553398132","960","468.5","true","1","132.072","9.8304","5","1","-1","","","","","","","","","","","","",""
"psychophysics","20","151830","0.0-6.0-0.14","6096ee4ed5f41e6e17598ec9","609a8bf73b2ac84e2732f618","60a2934ac1d7653758e76192","336.8550000000396","","","","39","","","","key","16.665924999999696","960","468.5","true","1","141.9024","9.8304","5","-1","1","","","","","","","","","","","","",""
"psychophysics","21","153206","0.0-6.0-0.15","6096ee4ed5f41e6e17598ec9","609a8bf73b2ac84e2732f618","60a2934ac1d7653758e76192","367.25000000026193","","","","39","","","","key","16.667827160493975","960","468.5","true","1","141.9024","7.864319999999999","6","-1","-1","","","","","","","","","","","","",""
"psychophysics","22","154534","0.0-6.0-0.16","6096ee4ed5f41e6e17598ec9","609a8bf73b2ac84e2732f618","60a2934ac1d7653758e76192","323.41999999972177","","","","39","","","","key","16.667164556962096","960","468.5","true","1","134.03808","7.864319999999999","6","-1","-1","","","","","","","","","","","","",""
"psychophysics","23","155902","0.0-6.0-0.17","6096ee4ed5f41e6e17598ec9","609a8bf73b2ac84e2732f618","60a2934ac1d7653758e76192","360.85499999989406","","","","39","","","","key","16.668456790123688","960","468.5","true","1","134.03808","7.864319999999999","6","-1","-1","","","","","","","","","","","","",""
"psychophysics","24","157910","0.0-6.0-0.18","6096ee4ed5f41e6e17598ec9","609a8bf73b2ac84e2732f618","60a2934ac1d7653758e76192","999.5100000000966","","","","37","","","","key","16.666831932773132","960","468.5","true","-1","129","7.864319999999999","6","-1","-1","","","","","","","","","","","","",""
"psychophysics","25","159558","0.0-6.0-0.19","6096ee4ed5f41e6e17598ec9","609a8bf73b2ac84e2732f618","60a2934ac1d7653758e76192","646.7849999999162","","","","37","","","","key","16.66742857142853","960","468.5","true","-1","129","7.864319999999999","6","-1","-1","","","","","","","","","","","","",""
"psychophysics","26","161118","0.0-6.0-0.20","6096ee4ed5f41e6e17598ec9","609a8bf73b2ac84e2732f618","60a2934ac1d7653758e76192","557.2950000000419","","","","37","","","","key","16.666881720429995","960","468.5","true","1","129","6.291456","7","1","-1","","","","","","","","","","","","",""
"psychophysics","27","162534","0.0-6.0-0.21","6096ee4ed5f41e6e17598ec9","609a8bf73b2ac84e2732f618","60a2934ac1d7653758e76192","406.5350000000617","","","","39","","","","key","16.66651190476183","960","468.5","true","1","135.291456","6.291456","7","-1","1","","","","","","","","","","","","",""
"psychophysics","28","163934","0.0-6.0-0.22","6096ee4ed5f41e6e17598ec9","609a8bf73b2ac84e2732f618","60a2934ac1d7653758e76192","389.80999999967753","","","","39","","","","key","16.667698795180655","960","468.5","true","1","135.291456","5.033164800000001","8","-1","-1","","","","","","","","","","","","",""
"psychophysics","29","166046","0.0-6.0-0.23","6096ee4ed5f41e6e17598ec9","609a8bf73b2ac84e2732f618","60a2934ac1d7653758e76192","1101.5000000002037","","","","37","","","","key","16.66722222222228","960","468.5","true","-1","130.2582912","5.033164800000001","8","-1","-1","","","","","","","","","","","","",""
"psychophysics","30","167902","0.0-6.0-0.24","6096ee4ed5f41e6e17598ec9","609a8bf73b2ac84e2732f618","60a2934ac1d7653758e76192","847.3100000001141","","","","37","","","","key","16.665863636363593","960","468.5","true","-1","130.2582912","5.033164800000001","8","-1","-1","","","","","","","","","","","","",""
"psychophysics","31","170846","0.0-6.0-0.25","6096ee4ed5f41e6e17598ec9","609a8bf73b2ac84e2732f618","60a2934ac1d7653758e76192","1934.9050000000861","","","","39","","","","key","16.666181818181773","960","468.5","true","-1","129","4.0265318400000005","9","1","-1","","","","","","","","","","","","",""
"psychophysics","32","172302","0.0-6.0-0.26","6096ee4ed5f41e6e17598ec9","609a8bf73b2ac84e2732f618","60a2934ac1d7653758e76192","450.8849999997474","","","","39","","","","key","16.666488372093355","960","468.5","true","1","133.02653184","4.0265318400000005","9","-1","1","","","","","","","","","","","","",""
"psychophysics","33","173686","0.0-6.0-0.27","6096ee4ed5f41e6e17598ec9","609a8bf73b2ac84e2732f618","60a2934ac1d7653758e76192","378.93499999973574","","","","37","","","","key","16.666695121951506","960","468.5","true","-1","133.02653184","3.2212254720000004","10","-1","-1","","","","","","","","","","","","",""
"psychophysics","34","175598","0.0-6.0-0.28","6096ee4ed5f41e6e17598ec9","609a8bf73b2ac84e2732f618","60a2934ac1d7653758e76192","903.83000000022","","","","37","","","","key","16.66486842105249","960","468.5","true","1","129.805306368","2.5769803776000004","11","1","-1","","","","","","","","","","","","",""
"psychophysics","35","177038","0.0-6.0-0.29","6096ee4ed5f41e6e17598ec9","609a8bf73b2ac84e2732f618","60a2934ac1d7653758e76192","439.78999999989173","","","","37","","","","key","16.66662352941177","960","468.5","true","-1","132.3822867456","2.5769803776000004","11","-1","1","","","","","","","","","","","","",""
"psychophysics","36","178430","0.0-6.0-0.30","6096ee4ed5f41e6e17598ec9","609a8bf73b2ac84e2732f618","60a2934ac1d7653758e76192","388.554999999993","","","","37","","","","key","16.667771084337208","960","468.5","true","-1","132.3822867456","2.0615843020800004","12","-1","-1","","","","","","","","","","","","",""
"psychophysics","37","180382","0.0-6.0-0.31","6096ee4ed5f41e6e17598ec9","609a8bf73b2ac84e2732f618","60a2934ac1d7653758e76192","939.3800000002375","","","","39","","","","key","16.66661206896543","960","468.5","true","-1","130.32070244352","1.6492674416640005","13","1","-1","","","","","","","","","","","","",""
"psychophysics","38","183790","0.0-6.0-0.32","6096ee4ed5f41e6e17598ec9","609a8bf73b2ac84e2732f618","60a2934ac1d7653758e76192","2405.9350000002305","","","","39","","","","key","16.666098522167456","960","468.5","true","-1","131.96996988518399","1.6492674416640005","13","1","1","","","","","","","","","","","","",""
"psychophysics","39","185078","0.0-6.0-0.33","6096ee4ed5f41e6e17598ec9","609a8bf73b2ac84e2732f618","60a2934ac1d7653758e76192","284.38999999978114","","","","37","","","","key","16.666545454545368","960","468.5","true","-1","133.61923732684798","1.6492674416640005","13","-1","1","","","","","","","","","","","","",""
"psychophysics","40","186367","0.0-6.0-0.34","6096ee4ed5f41e6e17598ec9","609a8bf73b2ac84e2732f618","60a2934ac1d7653758e76192","287.33499999999185","","","","39","","","","key","16.668171052631422","960","468.5","true","1","133.61923732684798","1.3194139533312006","14","-1","-1","","","","","","","","","","","","",""
"psychophysics","41","188342","0.0-6.0-0.35","6096ee4ed5f41e6e17598ec9","609a8bf73b2ac84e2732f618","60a2934ac1d7653758e76192","970.7499999999418","","","","39","","","","key","16.666085470085477","960","468.5","true","1","132.29982337351677","1.3194139533312006","14","-1","-1","","","","","","","","","","","","",""
"psychophysics","42","189646","0.0-6.0-0.36","6096ee4ed5f41e6e17598ec9","609a8bf73b2ac84e2732f618","60a2934ac1d7653758e76192","302.01000000032946","","","","39","","","","key","16.667602564102616","960","468.5","true","1","132.29982337351677","1.3194139533312006","14","-1","-1","","","","","","","","","","","","",""
"psychophysics","43","191038","0.0-6.0-0.37","6096ee4ed5f41e6e17598ec9","609a8bf73b2ac84e2732f618","60a2934ac1d7653758e76192","385.1449999997276","","","","37","","","","key","16.665719512194855","960","468.5","true","1","130.98040942018557","1.0555311626649604","15","1","-1","","","","","","","","","","","","",""
"psychophysics","44","192326","0.0-6.0-0.38","6096ee4ed5f41e6e17598ec9","609a8bf73b2ac84e2732f618","60a2934ac1d7653758e76192","281.9599999998172","","","","39","","","","key","16.666447368420975","960","468.5","true","1","132.03594058285051","1.0555311626649604","15","-1","1","","","","","","","","","","","","",""
"psychophysics","45","194734","0.0-6.0-0.39","6096ee4ed5f41e6e17598ec9","609a8bf73b2ac84e2732f618","60a2934ac1d7653758e76192","1406.375000000029","","","","37","","","","key","16.666569444444477","960","468.5","true","1","132.03594058285051","1","16","1","-1","","","","","","","","","","","","",""
"html-keyboard-response","46","198750","0.0-7.0","6096ee4ed5f41e6e17598ec9","609a8bf73b2ac84e2732f618","60a2934ac1d7653758e76192","4015.74500000017","<p>Well Done !</p><p>Prepare for a new block.</p><p>DON'T EXIT THE FULL SCREEN MODE</p><p>Press the Spacebar to start.</p>","","","32","","","","","","","","","","","","","","","true","131.9202685236347","","","","","","","","","","",""
"psychophysics","47","201438","0.0-8.0-0.0","6096ee4ed5f41e6e17598ec9","609a8bf73b2ac84e2732f618","60a2934ac1d7653758e76192","1686.729999999894","","","","37","","","","key","16.667434782608662","960","468.5","true","-1","180","30","0","-1","","","","","","","","","","","","","",""
"psychophysics","48","202742","0.0-8.0-0.1","6096ee4ed5f41e6e17598ec9","609a8bf73b2ac84e2732f618","60a2934ac1d7653758e76192","301.5250000003143","","","","37","","","","key","16.667935064934834","960","468.5","true","-1","180","30","0","-1","-1","","","","","","","","","","","","",""
"psychophysics","49","204102","0.0-8.0-0.2","6096ee4ed5f41e6e17598ec9","609a8bf73b2ac84e2732f618","60a2934ac1d7653758e76192","358.90500000002794","","","","37","","","","key","16.66640740740731","960","468.5","true","-1","150","30","0","-1","-1","","","","","","","","","","","","",""
"psychophysics","50","205374","0.0-8.0-0.3","6096ee4ed5f41e6e17598ec9","609a8bf73b2ac84e2732f618","60a2934ac1d7653758e76192","271.74499999999534","","","","39","","","","key","16.66845333333321","960","468.5","true","1","150","30","0","-1","-1","","","","","","","","","","","","",""
"psychophysics","51","206742","0.0-8.0-0.4","6096ee4ed5f41e6e17598ec9","609a8bf73b2ac84e2732f618","60a2934ac1d7653758e76192","364.8100000000268","","","","37","","","","key","16.666728395061426","960","468.5","true","1","129","24","1","1","-1","","","","","","","","","","","","",""
"psychophysics","52","208022","0.0-8.0-0.5","6096ee4ed5f41e6e17598ec9","609a8bf73b2ac84e2732f618","60a2934ac1d7653758e76192","279.65500000026077","","","","37","","","","key","16.669881578947273","960","468.5","true","-1","153","24","1","-1","1","","","","","","","","","","","","",""
"psychophysics","53","209350","0.0-8.0-0.6","6096ee4ed5f41e6e17598ec9","609a8bf73b2ac84e2732f618","60a2934ac1d7653758e76192","326.9499999996624","","","","39","","","","key","16.666506329114046","960","468.5","true","1","153","19.2","2","-1","-1","","","","","","","","","","","","",""
"psychophysics","54","210678","0.0-8.0-0.7","6096ee4ed5f41e6e17598ec9","609a8bf73b2ac84e2732f618","60a2934ac1d7653758e76192","326.8599999996659","","","","37","","","","key","16.66543037974669","960","468.5","true","-1","133.8","19.2","2","-1","-1","","","","","","","","","","","","",""
"psychophysics","55","211998","0.0-8.0-0.8","6096ee4ed5f41e6e17598ec9","609a8bf73b2ac84e2732f618","60a2934ac1d7653758e76192","318.7900000002701","","","","39","","","","key","16.663782051281977","960","468.5","true","1","133.8","19.2","2","-1","-1","","","","","","","","","","","","",""
"psychophysics","56","213734","0.0-8.0-0.9","6096ee4ed5f41e6e17598ec9","609a8bf73b2ac84e2732f618","60a2934ac1d7653758e76192","735.3949999996985","","","","37","","","","key","16.66606796116515","960","468.5","true","-1","129","19.2","2","-1","-1","","","","","","","","","","","","",""
"psychophysics","57","215543","0.0-8.0-0.10","6096ee4ed5f41e6e17598ec9","609a8bf73b2ac84e2732f618","60a2934ac1d7653758e76192","807.4099999998871","","","","37","","","","key","16.666523364485975","960","468.5","true","1","129","15.36","3","1","-1","","","","","","","","","","","","",""
"psychophysics","58","216934","0.0-8.0-0.11","6096ee4ed5f41e6e17598ec9","609a8bf73b2ac84e2732f618","60a2934ac1d7653758e76192","390.84499999991385","","","","39","","","","key","16.665578313253214","960","468.5","true","1","144.36","15.36","3","-1","1","","","","","","","","","","","","",""
"psychophysics","59","218222","0.0-8.0-0.12","6096ee4ed5f41e6e17598ec9","609a8bf73b2ac84e2732f618","60a2934ac1d7653758e76192","287.18000000028405","","","","37","","","","key","16.66392105263137","960","468.5","true","-1","144.36","12.287999999999998","4","-1","-1","","","","","","","","","","","","",""
"psychophysics","60","219574","0.0-8.0-0.13","6096ee4ed5f41e6e17598ec9","609a8bf73b2ac84e2732f618","60a2934ac1d7653758e76192","350.9549999998999","","","","37","","","","key","16.66511250000003","960","468.5","true","-1","132.072","12.287999999999998","4","-1","-1","","","","","","","","","","","","",""
"psychophysics","61","221406","0.0-8.0-0.14","6096ee4ed5f41e6e17598ec9","609a8bf73b2ac84e2732f618","60a2934ac1d7653758e76192","831.5649999999441","","","","39","","","","key","16.66654128440359","960","468.5","true","-1","132.072","9.8304","5","1","-1","","","","","","","","","","","","",""
"psychophysics","62","222702","0.0-8.0-0.15","6096ee4ed5f41e6e17598ec9","609a8bf73b2ac84e2732f618","60a2934ac1d7653758e76192","294.9199999998091","","","","39","","","","key","16.668025974025905","960","468.5","true","1","141.9024","9.8304","5","-1","1","","","","","","","","","","","","",""
"psychophysics","63","224022","0.0-8.0-0.16","6096ee4ed5f41e6e17598ec9","609a8bf73b2ac84e2732f618","60a2934ac1d7653758e76192","318.7750000001688","","","","37","","","","key","16.666538461538714","960","468.5","true","-1","141.9024","7.864319999999999","6","-1","-1","","","","","","","","","","","","",""
"psychophysics","64","225366","0.0-8.0-0.17","6096ee4ed5f41e6e17598ec9","609a8bf73b2ac84e2732f618","60a2934ac1d7653758e76192","342.77999999996973","","","","37","","","","key","16.66788749999978","960","468.5","true","-1","134.03808","7.864319999999999","6","-1","-1","","","","","","","","","","","","",""
"psychophysics","65","226662","0.0-8.0-0.18","6096ee4ed5f41e6e17598ec9","609a8bf73b2ac84e2732f618","60a2934ac1d7653758e76192","294.87499999959255","","","","37","","","","key","16.667935064934834","960","468.5","true","-1","134.03808","7.864319999999999","6","-1","-1","","","","","","","","","","","","",""
"psychophysics","66","228054","0.0-8.0-0.19","6096ee4ed5f41e6e17598ec9","609a8bf73b2ac84e2732f618","60a2934ac1d7653758e76192","390.19500000038533","","","","37","","","","key","16.666658536585334","960","468.5","true","1","129","6.291456","7","1","-1","","","","","","","","","","","","",""
"psychophysics","67","229311","0.0-8.0-0.20","6096ee4ed5f41e6e17598ec9","609a8bf73b2ac84e2732f618","60a2934ac1d7653758e76192","255.6349999999802","","","","39","","","","key","16.66643999999971","960","468.5","true","1","135.291456","6.291456","7","-1","1","","","","","","","","","","","","",""
"psychophysics","68","230590","0.0-8.0-0.21","6096ee4ed5f41e6e17598ec9","609a8bf73b2ac84e2732f618","60a2934ac1d7653758e76192","278.0500000003667","","","","37","","","","key","16.665226666666566","960","468.5","true","-1","135.291456","5.033164800000001","8","-1","-1","","","","","","","","","","","","",""
"psychophysics","69","232598","0.0-8.0-0.22","6096ee4ed5f41e6e17598ec9","609a8bf73b2ac84e2732f618","60a2934ac1d7653758e76192","1006.9450000000943","","","","37","","","","key","16.665733333333144","960","468.5","true","1","130.2582912","4.0265318400000005","9","1","-1","","","","","","","","","","","","",""
"psychophysics","70","233934","0.0-8.0-0.23","6096ee4ed5f41e6e17598ec9","609a8bf73b2ac84e2732f618","60a2934ac1d7653758e76192","335.4749999998603","","","","39","","","","key","16.666708860759655","960","468.5","true","1","134.28482304","4.0265318400000005","9","-1","1","","","","","","","","","","","","",""
"psychophysics","71","235214","0.0-8.0-0.24","6096ee4ed5f41e6e17598ec9","609a8bf73b2ac84e2732f618","60a2934ac1d7653758e76192","278.2549999997136","","","","39","","","","key","16.664947368420957","960","468.5","true","1","134.28482304","3.2212254720000004","10","-1","-1","","","","","","","","","","","","",""
"psychophysics","72","237230","0.0-8.0-0.25","6096ee4ed5f41e6e17598ec9","609a8bf73b2ac84e2732f618","60a2934ac1d7653758e76192","1014.4100000002072","","","","39","","","","key","16.666258333333342","960","468.5","true","-1","131.06359756799998","2.5769803776000004","11","1","-1","","","","","","","","","","","","",""
"psychophysics","73","238518","0.0-8.0-0.26","6096ee4ed5f41e6e17598ec9","609a8bf73b2ac84e2732f618","60a2934ac1d7653758e76192","286.74999999973807","","","","37","","","","key","16.666631578947232","960","468.5","true","-1","133.64057794559997","2.5769803776000004","11","-1","1","","","","","","","","","","","","",""
"psychophysics","74","239686","0.0-8.0-0.27","6096ee4ed5f41e6e17598ec9","609a8bf73b2ac84e2732f618","60a2934ac1d7653758e76192","167.3200000000361","","","","39","","","","key","16.667724637681218","960","468.5","true","1","133.64057794559997","2.0615843020800004","12","-1","-1","","","","","","","","","","","","",""
"psychophysics","75","240846","0.0-8.0-0.28","6096ee4ed5f41e6e17598ec9","609a8bf73b2ac84e2732f618","60a2934ac1d7653758e76192","158.9199999998673","","","","39","","","","key","16.66926086956527","960","468.5","true","1","131.57899364351996","2.0615843020800004","12","-1","-1","","","","","","","","","","","","",""
"psychophysics","76","241998","0.0-8.0-0.29","6096ee4ed5f41e6e17598ec9","609a8bf73b2ac84e2732f618","60a2934ac1d7653758e76192","150.80499999976018","","","","37","","","","key","16.663117647058456","960","468.5","true","-1","131.57899364351996","2.0615843020800004","12","-1","-1","","","","","","","","","","","","",""
"psychophysics","77","243582","0.0-8.0-0.30","6096ee4ed5f41e6e17598ec9","609a8bf73b2ac84e2732f618","60a2934ac1d7653758e76192","583.2299999997194","","","","37","","","","key","16.66755319148936","960","468.5","true","1","129.51740934143996","1.6492674416640005","13","1","-1","","","","","","","","","","","","",""
"psychophysics","78","245286","0.0-8.0-0.31","6096ee4ed5f41e6e17598ec9","609a8bf73b2ac84e2732f618","60a2934ac1d7653758e76192","702.1350000000093","","","","37","","","","key","16.666514851485143","960","468.5","true","-1","131.16667678310395","1.6492674416640005","13","-1","1","","","","","","","","","","","","",""
"psychophysics","79","246374","0.0-8.0-0.32","6096ee4ed5f41e6e17598ec9","609a8bf73b2ac84e2732f618","60a2934ac1d7653758e76192","87.33499999972992","","","","37","","","","key","16.66623437499993","960","468.5","true","-1","131.16667678310395","1.3194139533312006","14","-1","-1","","","","","","","","","","","","",""
"psychophysics","80","249126","0.0-8.0-0.33","6096ee4ed5f41e6e17598ec9","609a8bf73b2ac84e2732f618","60a2934ac1d7653758e76192","1749.3450000001758","","","","37","","","","key","16.667128048780576","960","468.5","true","-1","129.84726282977275","1.3194139533312006","14","-1","-1","","","","","","","","","","","","",""
"psychophysics","81","251006","0.0-8.0-0.34","6096ee4ed5f41e6e17598ec9","609a8bf73b2ac84e2732f618","60a2934ac1d7653758e76192","878.8300000001036","","","","39","","","","key","16.667133928571534","960","468.5","true","1","129.84726282977275","1.3194139533312006","14","-1","-1","","","","","","","","","","","","",""
"psychophysics","82","253174","0.0-8.0-0.35","6096ee4ed5f41e6e17598ec9","609a8bf73b2ac84e2732f618","60a2934ac1d7653758e76192","1166.490000000078","","","","37","","","","key","16.66707751937996","960","468.5","true","1","129","1.0555311626649604","15","1","-1","","","","","","","","","","","","",""
"psychophysics","83","255222","0.0-8.0-0.36","6096ee4ed5f41e6e17598ec9","609a8bf73b2ac84e2732f618","60a2934ac1d7653758e76192","1047.0199999999604","","","","37","","","","key","16.66614754098352","960","468.5","true","1","130.05553116266495","1.0555311626649604","15","1","1","","","","","","","","","","","","",""
"psychophysics","84","256478","0.0-8.0-0.37","6096ee4ed5f41e6e17598ec9","609a8bf73b2ac84e2732f618","60a2934ac1d7653758e76192","255.2949999999255","","","","39","","","","key","16.668106666666766","960","468.5","true","1","131.1110623253299","1.0555311626649604","15","-1","1","","","","","","","","","","","","",""
"psychophysics","85","259174","0.0-8.0-0.38","6096ee4ed5f41e6e17598ec9","609a8bf73b2ac84e2732f618","60a2934ac1d7653758e76192","1694.960000000283","","","","39","","","","key","16.665318750000004","960","468.5","true","-1","131.1110623253299","1","16","1","-1","","","","","","","","","","","","",""
"psychophysics","86","260438","0.0-8.0-0.39","6096ee4ed5f41e6e17598ec9","609a8bf73b2ac84e2732f618","60a2934ac1d7653758e76192","263.0699999999779","","","","39","","","","key","16.667066666666653","960","468.5","true","1","132.1110623253299","1","16","-1","1","","","","","","","","","","","","",""
"html-keyboard-response","87","264494","0.0-9.0","6096ee4ed5f41e6e17598ec9","609a8bf73b2ac84e2732f618","60a2934ac1d7653758e76192","4055.974999999744","<p>Well Done !</p><p>Prepare for a new block.</p><p>DON'T EXIT THE FULL SCREEN MODE</p><p>Press the Spacebar to start.</p>","","","32","","","","","","","","","","","","","","","true","131.0957831634725","","","","","","","","","","",""
"psychophysics","88","265678","0.0-10.0-0.0","6096ee4ed5f41e6e17598ec9","609a8bf73b2ac84e2732f618","60a2934ac1d7653758e76192","182.64999999973224","","","","39","","","","key","16.665647887323924","960","468.5","true","1","180","30","0","-1","","","","","","","","","","","","","",""
"psychophysics","89","266750","0.0-10.0-0.1","6096ee4ed5f41e6e17598ec9","609a8bf73b2ac84e2732f618","60a2934ac1d7653758e76192","71.17000000015832","","","","37","","","","key","16.665269841270018","960","468.5","true","-1","180","30","0","-1","-1","","","","","","","","","","","","",""
"psychophysics","90","268222","0.0-10.0-0.2","6096ee4ed5f41e6e17598ec9","609a8bf73b2ac84e2732f618","60a2934ac1d7653758e76192","471.45000000001164","","","","37","","","","key","16.667655172413912","960","468.5","true","-1","150","30","0","-1","-1","","","","","","","","","","","","",""
"psychophysics","91","269870","0.0-10.0-0.3","6096ee4ed5f41e6e17598ec9","609a8bf73b2ac84e2732f618","60a2934ac1d7653758e76192","646.9449999999488","","","","37","","","","key","16.66775510204084","960","468.5","true","-1","150","30","0","-1","-1","","","","","","","","","","","","",""
"psychophysics","92","272902","0.0-10.0-0.4","6096ee4ed5f41e6e17598ec9","609a8bf73b2ac84e2732f618","60a2934ac1d7653758e76192","2029.6650000000373","","","","39","","","","key","16.666569060773348","960","468.5","true","1","129","30","0","-1","-1","","","","","","","","","","","","",""
"psychophysics","93","274982","0.0-10.0-0.5","6096ee4ed5f41e6e17598ec9","609a8bf73b2ac84e2732f618","60a2934ac1d7653758e76192","1078.999999999709","","","","37","","","","key","16.666588709677473","960","468.5","true","-1","129","30","0","-1","-1","","","","","","","","","","","","",""
"psychophysics","94","279086","0.0-10.0-0.6","6096ee4ed5f41e6e17598ec9","609a8bf73b2ac84e2732f618","60a2934ac1d7653758e76192","3101.905000000028","","","","39","","","","key","16.666530612244852","960","468.5","true","-1","129","24","1","1","-1","","","","","","","","","","","","",""
"psychophysics","95","280430","0.0-10.0-0.7","6096ee4ed5f41e6e17598ec9","609a8bf73b2ac84e2732f618","60a2934ac1d7653758e76192","342.8100000001141","","","","37","","","","key","16.665299999999842","960","468.5","true","-1","153","24","1","-1","1","","","","","","","","","","","","",""
"psychophysics","96","281742","0.0-10.0-0.8","6096ee4ed5f41e6e17598ec9","609a8bf73b2ac84e2732f618","60a2934ac1d7653758e76192","310.92000000033295","","","","39","","","","key","16.66528571428589","960","468.5","true","1","153","19.2","2","-1","-1","","","","","","","","","","","","",""
"psychophysics","97","283030","0.0-10.0-0.9","6096ee4ed5f41e6e17598ec9","609a8bf73b2ac84e2732f618","60a2934ac1d7653758e76192","286.7599999999511","","","","39","","","","key","16.665220779220896","960","468.5","true","1","133.8","19.2","2","-1","-1","","","","","","","","","","","","",""
"psychophysics","98","284326","0.0-10.0-0.10","6096ee4ed5f41e6e17598ec9","609a8bf73b2ac84e2732f618","60a2934ac1d7653758e76192","294.2550000002375","","","","37","","","","key","16.66547368421054","960","468.5","true","-1","133.8","19.2","2","-1","-1","","","","","","","","","","","","",""
"psychophysics","99","286942","0.0-10.0-0.11","6096ee4ed5f41e6e17598ec9","609a8bf73b2ac84e2732f618","60a2934ac1d7653758e76192","1614.9199999999837","","","","37","","","","key","16.666519230769318","960","468.5","true","1","129","15.36","3","1","-1","","","","","","","","","","","","",""
"psychophysics","100","288294","0.0-10.0-0.12","6096ee4ed5f41e6e17598ec9","609a8bf73b2ac84e2732f618","60a2934ac1d7653758e76192","350.8950000000186","","","","37","","","","key","16.666271604938192","960","468.5","true","-1","144.36","15.36","3","-1","1","","","","","","","","","","","","",""
"psychophysics","101","289670","0.0-10.0-0.13","6096ee4ed5f41e6e17598ec9","609a8bf73b2ac84e2732f618","60a2934ac1d7653758e76192","374.46999999973923","","","","37","","","","key","16.66637037036995","960","468.5","true","-1","144.36","12.287999999999998","4","-1","-1","","","","","","","","","","","","",""
"psychophysics","102","291446","0.0-10.0-0.14","6096ee4ed5f41e6e17598ec9","609a8bf73b2ac84e2732f618","60a2934ac1d7653758e76192","774.3549999999814","","","","37","","","","key","16.667688679244954","960","468.5","true","1","132.072","9.8304","5","1","-1","","","","","","","","","","","","",""
"psychophysics","103","292790","0.0-10.0-0.15","6096ee4ed5f41e6e17598ec9","609a8bf73b2ac84e2732f618","60a2934ac1d7653758e76192","342.77000000019325","","","","37","","","","key","16.665468354430196","960","468.5","true","-1","141.9024","9.8304","5","-1","1","","","","","","","","","","","","",""
"psychophysics","104","294318","0.0-10.0-0.16","6096ee4ed5f41e6e17598ec9","609a8bf73b2ac84e2732f618","60a2934ac1d7653758e76192","526.7699999999604","","","","37","","","","key","16.667571428571545","960","468.5","true","-1","141.9024","7.864319999999999","6","-1","-1","","","","","","","","","","","","",""
"psychophysics","105","296318","0.0-10.0-0.17","6096ee4ed5f41e6e17598ec9","609a8bf73b2ac84e2732f618","60a2934ac1d7653758e76192","999.0699999998324","","","","37","","","","key","16.66724369747901","960","468.5","true","-1","134.03808","7.864319999999999","6","-1","-1","","","","","","","","","","","","",""
"psychophysics","106","297702","0.0-10.0-0.18","6096ee4ed5f41e6e17598ec9","609a8bf73b2ac84e2732f618","60a2934ac1d7653758e76192","382.8499999999185","","","","37","","","","key","16.666585365853347","960","468.5","true","-1","134.03808","7.864319999999999","6","-1","-1","","","","","","","","","","","","",""
"psychophysics","107","302670","0.0-10.0-0.19","6096ee4ed5f41e6e17598ec9","609a8bf73b2ac84e2732f618","60a2934ac1d7653758e76192","3966.575000000361","","","","39","","","","key","16.66660269360279","960","468.5","true","1","129","7.864319999999999","6","-1","-1","","","","","","","","","","","","",""
"psychophysics","108","306430","0.0-10.0-0.20","6096ee4ed5f41e6e17598ec9","609a8bf73b2ac84e2732f618","60a2934ac1d7653758e76192","2758.7599999997183","","","","37","","","","key","16.666613333333387","960","468.5","true","1","129","6.291456","7","1","-1","","","","","","","","","","","","",""
"psychophysics","109","307734","0.0-10.0-0.21","6096ee4ed5f41e6e17598ec9","609a8bf73b2ac84e2732f618","60a2934ac1d7653758e76192","303.65500000014435","","","","39","","","","key","16.666701298701433","960","468.5","true","1","135.291456","6.291456","7","-1","1","","","","","","","","","","","","",""
"psychophysics","110","309070","0.0-10.0-0.22","6096ee4ed5f41e6e17598ec9","609a8bf73b2ac84e2732f618","60a2934ac1d7653758e76192","333.98500000021886","","","","37","","","","key","16.666873417721025","960","468.5","true","-1","135.291456","5.033164800000001","8","-1","-1","","","","","","","","","","","","",""
"psychophysics","111","311558","0.0-10.0-0.23","6096ee4ed5f41e6e17598ec9","609a8bf73b2ac84e2732f618","60a2934ac1d7653758e76192","1486.0599999997066","","","","39","","","","key","16.666114864865005","960","468.5","true","1","130.2582912","5.033164800000001","8","-1","-1","","","","","","","","","","","","",""
"psychophysics","112","313174","0.0-10.0-0.24","6096ee4ed5f41e6e17598ec9","609a8bf73b2ac84e2732f618","60a2934ac1d7653758e76192","615.3899999999558","","","","39","","","","key","16.666239583333663","960","468.5","true","1","130.2582912","5.033164800000001","8","-1","-1","","","","","","","","","","","","",""
"psychophysics","113","314478","0.0-10.0-0.25","6096ee4ed5f41e6e17598ec9","609a8bf73b2ac84e2732f618","60a2934ac1d7653758e76192","302.6700000000419","","","","37","","","","key","16.66698701298711","960","468.5","true","-1","129","5.033164800000001","8","-1","-1","","","","","","","","","","","","",""
"psychophysics","114","315910","0.0-10.0-0.26","6096ee4ed5f41e6e17598ec9","609a8bf73b2ac84e2732f618","60a2934ac1d7653758e76192","429.5249999999651","","","","37","","","","key","16.50770588235327","960","468.5","true","1","129","4.0265318400000005","9","1","-1","","","","","","","","","","","","",""
"psychophysics","115","317198","0.0-10.0-0.27","6096ee4ed5f41e6e17598ec9","609a8bf73b2ac84e2732f618","60a2934ac1d7653758e76192","287.0250000000815","","","","39","","","","key","16.666181818181467","960","468.5","true","1","133.02653184","4.0265318400000005","9","-1","1","","","","","","","","","","","","",""
"psychophysics","116","318966","0.0-10.0-0.28","6096ee4ed5f41e6e17598ec9","609a8bf73b2ac84e2732f618","60a2934ac1d7653758e76192","767.2950000001001","","","","39","","","","key","16.665561904762097","960","468.5","true","1","133.02653184","3.2212254720000004","10","-1","-1","","","","","","","","","","","","",""
"psychophysics","117","320782","0.0-10.0-0.29","6096ee4ed5f41e6e17598ec9","609a8bf73b2ac84e2732f618","60a2934ac1d7653758e76192","814.4899999997579","","","","37","","","","key","16.666564814814826","960","468.5","true","-1","129.805306368","3.2212254720000004","10","-1","-1","","","","","","","","","","","","",""
"psychophysics","118","322190","0.0-10.0-0.30","6096ee4ed5f41e6e17598ec9","609a8bf73b2ac84e2732f618","60a2934ac1d7653758e76192","405.92500000004657","","","","39","","","","key","16.666951807228433","960","468.5","true","1","129.805306368","3.2212254720000004","10","-1","-1","","","","","","","","","","","","",""
"psychophysics","119","323814","0.0-10.0-0.31","6096ee4ed5f41e6e17598ec9","609a8bf73b2ac84e2732f618","60a2934ac1d7653758e76192","622.690000000177","","","","37","","","","key","16.666474226803984","960","468.5","true","1","129","2.5769803776000004","11","1","-1","","","","","","","","","","","","",""
"psychophysics","120","326766","0.0-10.0-0.32","6096ee4ed5f41e6e17598ec9","609a8bf73b2ac84e2732f618","60a2934ac1d7653758e76192","1950.045000000042","","","","39","","","","key","16.665784090909174","960","468.5","true","-1","131.5769803776","2.5769803776000004","11","1","1","","","","","","","","","","","","",""
"psychophysics","121","328078","0.0-10.0-0.33","6096ee4ed5f41e6e17598ec9","609a8bf73b2ac84e2732f618","60a2934ac1d7653758e76192","309.894999999844","","","","39","","","","key","16.6692435897436","960","468.5","true","1","134.1539607552","2.5769803776000004","11","-1","1","","","","","","","","","","","","",""
"psychophysics","122","329374","0.0-10.0-0.34","6096ee4ed5f41e6e17598ec9","609a8bf73b2ac84e2732f618","60a2934ac1d7653758e76192","294.6050000000396","","","","39","","","","key","16.667236842104774","960","468.5","true","1","134.1539607552","2.0615843020800004","12","-1","-1","","","","","","","","","","","","",""
"psychophysics","123","330654","0.0-10.0-0.35","6096ee4ed5f41e6e17598ec9","609a8bf73b2ac84e2732f618","60a2934ac1d7653758e76192","278.08499999996275","","","","39","","","","key","16.665263157894707","960","468.5","true","1","132.09237645311998","2.0615843020800004","12","-1","-1","","","","","","","","","","","","",""
"psychophysics","124","332110","0.0-10.0-0.36","6096ee4ed5f41e6e17598ec9","609a8bf73b2ac84e2732f618","60a2934ac1d7653758e76192","455.6950000001234","","","","39","","","","key","16.66696511627903","960","468.5","true","1","132.09237645311998","2.0615843020800004","12","-1","-1","","","","","","","","","","","","",""
"psychophysics","125","333494","0.0-10.0-0.37","6096ee4ed5f41e6e17598ec9","609a8bf73b2ac84e2732f618","60a2934ac1d7653758e76192","382.30499999964377","","","","37","","","","key","16.666566265060382","960","468.5","true","-1","130.03079215103998","2.0615843020800004","12","-1","-1","","","","","","","","","","","","",""
"psychophysics","126","334982","0.0-10.0-0.38","6096ee4ed5f41e6e17598ec9","609a8bf73b2ac84e2732f618","60a2934ac1d7653758e76192","487.1699999999255","","","","39","","","","key","16.666465909090633","960","468.5","true","-1","130.03079215103998","1.6492674416640005","13","1","-1","","","","","","","","","","","","",""
"psychophysics","127","337230","0.0-10.0-0.39","6096ee4ed5f41e6e17598ec9","609a8bf73b2ac84e2732f618","60a2934ac1d7653758e76192","1245.1800000003423","","","","37","","","","key","16.666007462686533","960","468.5","true","-1","131.68005959270397","1.6492674416640005","13","-1","1","","","","","","","","","","","","",""
"html-keyboard-response","128","340264","0.0-11.0","6096ee4ed5f41e6e17598ec9","609a8bf73b2ac84e2732f618","60a2934ac1d7653758e76192","3033.719999999914","<p>Well Done !</p><p>Prepare for a new block.</p><p>DON'T EXIT THE FULL SCREEN MODE</p><p>Press the Spacebar to start.</p>","","","32","","","","","","","","","","","","","","","true","131.23166500700157","","","","","","","","","","",""
"psychophysics","129","341942","0.0-12.0-0.0","6096ee4ed5f41e6e17598ec9","609a8bf73b2ac84e2732f618","60a2934ac1d7653758e76192","677.2599999998929","","","","39","","","","key","16.667710000000078","960","468.5","true","1","180","30","0","-1","","","","","","","","","","","","","",""
"psychophysics","130","343246","0.0-12.0-0.1","6096ee4ed5f41e6e17598ec9","609a8bf73b2ac84e2732f618","60a2934ac1d7653758e76192","302.95000000018626","","","","37","","","","key","16.667384615385135","960","468.5","true","-1","180","30","0","-1","-1","","","","","","","","","","","","",""
"psychophysics","131","344566","0.0-12.0-0.2","6096ee4ed5f41e6e17598ec9","609a8bf73b2ac84e2732f618","60a2934ac1d7653758e76192","317.9000000000233","","","","39","","","","key","16.88142857142851","960","468.5","true","1","150","30","0","-1","-1","","","","","","","","","","","","",""
"psychophysics","132","345935","0.0-12.0-0.3","6096ee4ed5f41e6e17598ec9","609a8bf73b2ac84e2732f618","60a2934ac1d7653758e76192","367.4750000000349","","","","39","","","","key","16.666481481482027","960","468.5","true","1","150","30","0","-1","-1","","","","","","","","","","","","",""
"psychophysics","133","347534","0.0-12.0-0.4","6096ee4ed5f41e6e17598ec9","609a8bf73b2ac84e2732f618","60a2934ac1d7653758e76192","598.015000000014","","","","37","","","","key","16.666368421052557","960","468.5","true","1","129","24","1","1","-1","","","","","","","","","","","","",""
"psychophysics","134","348934","0.0-12.0-0.5","6096ee4ed5f41e6e17598ec9","609a8bf73b2ac84e2732f618","60a2934ac1d7653758e76192","398.5600000000559","","","","37","","","","key","16.66540963855412","960","468.5","true","-1","153","24","1","-1","1","","","","","","","","","","","","",""
"psychophysics","135","350270","0.0-12.0-0.6","6096ee4ed5f41e6e17598ec9","609a8bf73b2ac84e2732f618","60a2934ac1d7653758e76192","334.25999999960186","","","","39","","","","key","16.665341772152335","960","468.5","true","1","153","19.2","2","-1","-1","","","","","","","","","","","","",""
"psychophysics","136","351718","0.0-12.0-0.7","6096ee4ed5f41e6e17598ec9","609a8bf73b2ac84e2732f618","60a2934ac1d7653758e76192","446.5499999996973","","","","39","","","","key","16.667662790698287","960","468.5","true","1","133.8","19.2","2","-1","-1","","","","","","","","","","","","",""
"psychophysics","137","353102","0.0-12.0-0.8","6096ee4ed5f41e6e17598ec9","609a8bf73b2ac84e2732f618","60a2934ac1d7653758e76192","382.7549999996554","","","","39","","","","key","16.666426829268968","960","468.5","true","1","133.8","19.2","2","-1","-1","","","","","","","","","","","","",""
"psychophysics","138","354983","0.0-12.0-0.9","6096ee4ed5f41e6e17598ec9","609a8bf73b2ac84e2732f618","60a2934ac1d7653758e76192","878.9949999999953","","","","37","","","","key","16.667294642857346","960","468.5","true","1","129","15.36","3","1","-1","","","","","","","","","","","","",""
"psychophysics","139","356319","0.0-12.0-0.10","6096ee4ed5f41e6e17598ec9","609a8bf73b2ac84e2732f618","60a2934ac1d7653758e76192","334.84499999985565","","","","39","","","","key","16.668531645569786","960","468.5","true","1","144.36","15.36","3","-1","1","","","","","","","","","","","","",""
"psychophysics","140","357910","0.0-12.0-0.11","6096ee4ed5f41e6e17598ec9","609a8bf73b2ac84e2732f618","60a2934ac1d7653758e76192","589.8099999999395","","","","39","","","","key","16.666872340426014","960","468.5","true","1","144.36","12.287999999999998","4","-1","-1","","","","","","","","","","","","",""
"psychophysics","141","359302","0.0-12.0-0.12","6096ee4ed5f41e6e17598ec9","609a8bf73b2ac84e2732f618","60a2934ac1d7653758e76192","391.47500000032596","","","","37","","","","key","16.66644578313256","960","468.5","true","-1","132.072","12.287999999999998","4","-1","-1","","","","","","","","","","","","",""
"psychophysics","142","360622","0.0-12.0-0.13","6096ee4ed5f41e6e17598ec9","609a8bf73b2ac84e2732f618","60a2934ac1d7653758e76192","319.22500000015134","","","","37","","","","key","16.66826923076923","960","468.5","true","-1","132.072","12.287999999999998","4","-1","-1","","","","","","","","","","","","",""
"psychophysics","143","361998","0.0-12.0-0.14","6096ee4ed5f41e6e17598ec9","609a8bf73b2ac84e2732f618","60a2934ac1d7653758e76192","374.5950000002631","","","","39","","","","key","16.666914634146053","960","468.5","true","-1","129","9.8304","5","1","-1","","","","","","","","","","","","",""
"psychophysics","144","363366","0.0-12.0-0.15","6096ee4ed5f41e6e17598ec9","609a8bf73b2ac84e2732f618","60a2934ac1d7653758e76192","366.69499999971595","","","","39","","","","key","16.66529629629588","960","468.5","true","1","138.8304","9.8304","5","-1","1","","","","","","","","","","","","",""
"psychophysics","145","364775","0.0-12.0-0.16","6096ee4ed5f41e6e17598ec9","609a8bf73b2ac84e2732f618","60a2934ac1d7653758e76192","408.96999999991385","","","","37","","","","key","16.66666265060222","960","468.5","true","-1","138.8304","7.864319999999999","6","-1","-1","","","","","","","","","","","","",""
"psychophysics","146","366181","0.0-12.0-0.17","6096ee4ed5f41e6e17598ec9","609a8bf73b2ac84e2732f618","60a2934ac1d7653758e76192","404.49000000033993","","","","39","","","","key","16.66719047619041","960","468.5","true","1","130.96608","7.864319999999999","6","-1","-1","","","","","","","","","","","","",""
"psychophysics","147","367702","0.0-12.0-0.18","6096ee4ed5f41e6e17598ec9","609a8bf73b2ac84e2732f618","60a2934ac1d7653758e76192","519.524999999674","","","","37","","","","key","16.666733333333266","960","468.5","true","-1","130.96608","7.864319999999999","6","-1","-1","","","","","","","","","","","","",""
"psychophysics","148","369118","0.0-12.0-0.19","6096ee4ed5f41e6e17598ec9","609a8bf73b2ac84e2732f618","60a2934ac1d7653758e76192","414.9550000001909","","","","39","","","","key","16.66702380952345","960","468.5","true","-1","129","6.291456","7","1","-1","","","","","","","","","","","","",""
"psychophysics","149","370422","0.0-12.0-0.20","6096ee4ed5f41e6e17598ec9","609a8bf73b2ac84e2732f618","60a2934ac1d7653758e76192","302.0449999999255","","","","37","","","","key","16.66640259740215","960","468.5","true","-1","135.291456","6.291456","7","-1","1","","","","","","","","","","","","",""
"psychophysics","150","371670","0.0-12.0-0.21","6096ee4ed5f41e6e17598ec9","609a8bf73b2ac84e2732f618","60a2934ac1d7653758e76192","246.7699999997276","","","","39","","","","key","16.66778378378414","960","468.5","true","1","135.291456","5.033164800000001","8","-1","-1","","","","","","","","","","","","",""
"psychophysics","151","373213","0.0-12.0-0.22","6096ee4ed5f41e6e17598ec9","609a8bf73b2ac84e2732f618","60a2934ac1d7653758e76192","542.1100000003353","","","","37","","","","key","16.66661956521705","960","468.5","true","1","130.2582912","4.0265318400000005","9","1","-1","","","","","","","","","","","","",""
"psychophysics","152","374558","0.0-12.0-0.23","6096ee4ed5f41e6e17598ec9","609a8bf73b2ac84e2732f618","60a2934ac1d7653758e76192","343.80999999982305","","","","37","","","","key","16.665278481013036","960","468.5","true","-1","134.28482304","4.0265318400000005","9","-1","1","","","","","","","","","","","","",""
"psychophysics","153","375894","0.0-12.0-0.24","6096ee4ed5f41e6e17598ec9","609a8bf73b2ac84e2732f618","60a2934ac1d7653758e76192","335.1399999996647","","","","37","","","","key","16.66690000000017","960","468.5","true","-1","134.28482304","3.2212254720000004","10","-1","-1","","","","","","","","","","","","",""
"psychophysics","154","377454","0.0-12.0-0.25","6096ee4ed5f41e6e17598ec9","609a8bf73b2ac84e2732f618","60a2934ac1d7653758e76192","558.4149999999208","","","","39","","","","key","16.66542391304329","960","468.5","true","-1","131.06359756799998","2.5769803776000004","11","1","-1","","","","","","","","","","","","",""
"psychophysics","155","378742","0.0-12.0-0.26","6096ee4ed5f41e6e17598ec9","609a8bf73b2ac84e2732f618","60a2934ac1d7653758e76192","287.1500000000815","","","","39","","","","key","16.666407894736807","960","468.5","true","1","133.64057794559997","2.5769803776000004","11","-1","1","","","","","","","","","","","","",""
"psychophysics","156","380165","0.0-12.0-0.27","6096ee4ed5f41e6e17598ec9","609a8bf73b2ac84e2732f618","60a2934ac1d7653758e76192","423.164999999688","","","","39","","","","key","16.66498823529452","960","468.5","true","1","133.64057794559997","2.0615843020800004","12","-1","-1","","","","","","","","","","","","",""
"psychophysics","157","381558","0.0-12.0-0.28","6096ee4ed5f41e6e17598ec9","609a8bf73b2ac84e2732f618","60a2934ac1d7653758e76192","391.34500000003027","","","","39","","","","key","16.66749999999983","960","468.5","true","1","131.57899364351996","2.0615843020800004","12","-1","-1","","","","","","","","","","","","",""
"psychophysics","158","383054","0.0-12.0-0.29","6096ee4ed5f41e6e17598ec9","609a8bf73b2ac84e2732f618","60a2934ac1d7653758e76192","494.48500000016065","","","","37","","","","key","16.66797752809002","960","468.5","true","-1","131.57899364351996","2.0615843020800004","12","-1","-1","","","","","","","","","","","","",""
"psychophysics","159","384822","0.0-12.0-0.30","6096ee4ed5f41e6e17598ec9","609a8bf73b2ac84e2732f618","60a2934ac1d7653758e76192","767.149999999674","","","","39","","","","key","16.666038095238175","960","468.5","true","-1","129.51740934143996","1.6492674416640005","13","1","-1","","","","","","","","","","","","",""
"psychophysics","160","386678","0.0-12.0-0.31","6096ee4ed5f41e6e17598ec9","609a8bf73b2ac84e2732f618","60a2934ac1d7653758e76192","855.1700000002747","","","","39","","","","key","16.667081081081363","960","468.5","true","-1","131.16667678310395","1.6492674416640005","13","1","1","","","","","","","","","","","","",""
"psychophysics","161","387990","0.0-12.0-0.32","6096ee4ed5f41e6e17598ec9","609a8bf73b2ac84e2732f618","60a2934ac1d7653758e76192","311.13999999978114","","","","39","","","","key","16.66785714285699","960","468.5","true","1","132.81594422476795","1.6492674416640005","13","-1","1","","","","","","","","","","","","",""
"psychophysics","162","389662","0.0-12.0-0.33","6096ee4ed5f41e6e17598ec9","609a8bf73b2ac84e2732f618","60a2934ac1d7653758e76192","671.0849999999045","","","","39","","","","key","16.667600000000093","960","468.5","true","1","132.81594422476795","1.3194139533312006","14","-1","-1","","","","","","","","","","","","",""
"psychophysics","163","392390","0.0-12.0-0.34","6096ee4ed5f41e6e17598ec9","609a8bf73b2ac84e2732f618","60a2934ac1d7653758e76192","1727.4549999997253","","","","37","","","","key","16.66628395061743","960","468.5","true","-1","131.49653027143674","1.3194139533312006","14","-1","-1","","","","","","","","","","","","",""
"psychophysics","164","393774","0.0-12.0-0.35","6096ee4ed5f41e6e17598ec9","609a8bf73b2ac84e2732f618","60a2934ac1d7653758e76192","383.1099999997532","","","","37","","","","key","16.667414634146375","960","468.5","true","-1","131.49653027143674","1.3194139533312006","14","-1","-1","","","","","","","","","","","","",""
"psychophysics","165","395606","0.0-12.0-0.36","6096ee4ed5f41e6e17598ec9","609a8bf73b2ac84e2732f618","60a2934ac1d7653758e76192","830.5900000000256","","","","37","","","","key","16.666201834862736","960","468.5","true","1","130.17711631810553","1.0555311626649604","15","1","-1","","","","","","","","","","","","",""
"psychophysics","166","397166","0.0-12.0-0.37","6096ee4ed5f41e6e17598ec9","609a8bf73b2ac84e2732f618","60a2934ac1d7653758e76192","558.9899999999907","","","","39","","","","key","16.666720430107578","960","468.5","true","-1","131.23264748077048","1.0555311626649604","15","1","1","","","","","","","","","","","","",""
"psychophysics","167","398494","0.0-12.0-0.38","6096ee4ed5f41e6e17598ec9","609a8bf73b2ac84e2732f618","60a2934ac1d7653758e76192","327.00000000023283","","","","37","","","","key","16.665278481012297","960","468.5","true","-1","132.28817864343543","1.0555311626649604","15","-1","1","","","","","","","","","","","","",""
"psychophysics","168","399894","0.0-12.0-0.39","6096ee4ed5f41e6e17598ec9","609a8bf73b2ac84e2732f618","60a2934ac1d7653758e76192","399.2750000001979","","","","37","","","","key","16.666807228915324","960","468.5","true","-1","132.28817864343543","1","16","-1","-1","","","","","","","","","","","","",""
"html-keyboard-response","169","404463","0.0-13.0","6096ee4ed5f41e6e17598ec9","609a8bf73b2ac84e2732f618","60a2934ac1d7653758e76192","4568.975000000151","<p>Well Done !</p><p>Prepare for a new block.</p><p>DON'T EXIT THE FULL SCREEN MODE</p><p>Press the Spacebar to start.</p>","","","32","","","","","","","","","","","","","","","true","131.78652646326267","","","","","","","","","","",""
"html-keyboard-response","170","404575","0.0-14.0","6096ee4ed5f41e6e17598ec9","609a8bf73b2ac84e2732f618","60a2934ac1d7653758e76192","null","","","","null","","","","","","","","","","","","","","","","","131.50856078934285","true","135.0171215786857","","","","","","","",""
"instructions","171","447630","0.0-15.0","6096ee4ed5f41e6e17598ec9","609a8bf73b2ac84e2732f618","60a2934ac1d7653758e76192","43054.10499999969","","","","","","","[{""page_index"":0,""viewing_time"":37702.36500000005},{""page_index"":1,""viewing_time"":2001.8499999996857},{""page_index"":2,""viewing_time"":3349.7550000001793}]","","","","","","","","","","","","","","","","","","","","","","","",""
"psychophysics","172","450587","0.0-16.0-0.0","6096ee4ed5f41e6e17598ec9","609a8bf73b2ac84e2732f618","60a2934ac1d7653758e76192","null","","","","null","","","","key","16.66684210526332","960","468.5","","","","","","","","","","","","","","","","","","","",""
"psychophysics","173","451088","0.0-16.0-1.0","6096ee4ed5f41e6e17598ec9","609a8bf73b2ac84e2732f618","60a2934ac1d7653758e76192","null","","","","null","","","","key","16.66313793103548","960","468.5","","","","","","","","","","","","","135","-1","2","false","","","",""
"psychophysics","174","455990","0.0-16.0-2.0","6096ee4ed5f41e6e17598ec9","609a8bf73b2ac84e2732f618","60a2934ac1d7653758e76192","4900.399999999965","","","","77","","","","key","16.66657337883973","960","468.5","","","","","","","","","","","","","","","","","","","",""
"psychophysics","175","457086","0.0-16.0-0.1","6096ee4ed5f41e6e17598ec9","609a8bf73b2ac84e2732f618","60a2934ac1d7653758e76192","null","","","","null","","","","key","16.668015384615863","960","468.5","","","","","","","","","","","","","","","","","","","",""
"psychophysics","176","457587","0.0-16.0-1.1","6096ee4ed5f41e6e17598ec9","609a8bf73b2ac84e2732f618","60a2934ac1d7653758e76192","null","","","","null","","","","key","16.666999999999774","960","468.5","","","","","","","","","","","","","135","1","5","false","","","",""
"psychophysics","177","458806","0.0-16.0-2.1","6096ee4ed5f41e6e17598ec9","609a8bf73b2ac84e2732f618","60a2934ac1d7653758e76192","1217.094999999972","","","","77","","","","key","16.66930555555559","960","468.5","","","","","","","","","","","","","","","","","","","",""
"psychophysics","178","459969","0.0-16.0-0.2","6096ee4ed5f41e6e17598ec9","609a8bf73b2ac84e2732f618","60a2934ac1d7653758e76192","null","","","","null","","","","key","16.66784057970938","960","468.5","","","","","","","","","","","","","","","","","","","",""
"psychophysics","179","460471","0.0-16.0-1.2","6096ee4ed5f41e6e17598ec9","609a8bf73b2ac84e2732f618","60a2934ac1d7653758e76192","null","","","","null","","","","key","16.66893103448393","960","468.5","","","","","","","","","","","","","135","1","6","false","","","",""
"psychophysics","180","463710","0.0-16.0-2.2","6096ee4ed5f41e6e17598ec9","609a8bf73b2ac84e2732f618","60a2934ac1d7653758e76192","3237.3499999998603","","","","77","","","","key","16.666278350515324","960","468.5","","","","","","","","","","","","","","","","","","","",""
"psychophysics","181","465102","0.0-16.0-0.3","6096ee4ed5f41e6e17598ec9","609a8bf73b2ac84e2732f618","60a2934ac1d7653758e76192","null","","","","null","","","","key","16.66539024390215","960","468.5","","","","","","","","","","","","","","","","","","","",""
"psychophysics","182","465605","0.0-16.0-1.3","6096ee4ed5f41e6e17598ec9","609a8bf73b2ac84e2732f618","60a2934ac1d7653758e76192","null","","","","null","","","","key","16.666172413793714","960","468.5","","","","","","","","","","","","","135","-1","0","false","","","",""
"psychophysics","183","466144","0.0-16.0-2.3","6096ee4ed5f41e6e17598ec9","609a8bf73b2ac84e2732f618","60a2934ac1d7653758e76192","536.7599999999511","","","","90","","","","key","16.669281249998676","960","468.5","","","","","","","","","","","","","","","","","","","",""
"psychophysics","184","467640","0.0-16.0-0.4","6096ee4ed5f41e6e17598ec9","609a8bf73b2ac84e2732f618","60a2934ac1d7653758e76192","null","","","","null","","","","key","16.66664772727315","960","468.5","","","","","","","","","","","","","","","","","","","",""
"psychophysics","185","468143","0.0-16.0-1.4","6096ee4ed5f41e6e17598ec9","609a8bf73b2ac84e2732f618","60a2934ac1d7653758e76192","null","","","","null","","","","key","16.667033333333286","960","468.5","","","","","","","","","","","","","135","-1","4","false","","","",""
"psychophysics","186","468502","0.0-16.0-2.4","6096ee4ed5f41e6e17598ec9","609a8bf73b2ac84e2732f618","60a2934ac1d7653758e76192","356.7750000001979","","","","77","","","","key","16.667949999999838","960","468.5","","","","","","","","","","","","","","","","","","","",""
"psychophysics","187","469633","0.0-16.0-0.5","6096ee4ed5f41e6e17598ec9","609a8bf73b2ac84e2732f618","60a2934ac1d7653758e76192","null","","","","null","","","","key","16.664746268656724","960","468.5","","","","","","","","","","","","","","","","","","","",""
"psychophysics","188","470134","0.0-16.0-1.5","6096ee4ed5f41e6e17598ec9","609a8bf73b2ac84e2732f618","60a2934ac1d7653758e76192","null","","","","null","","","","key","16.666241379310215","960","468.5","","","","","","","","","","","","","135","-1","6","false","","","",""
"psychophysics","189","470518","0.0-16.0-2.5","6096ee4ed5f41e6e17598ec9","609a8bf73b2ac84e2732f618","60a2934ac1d7653758e76192","381.3699999996461","","","","77","","","","key","16.670909090909515","960","468.5","","","","","","","","","","","","","","","","","","","",""
"psychophysics","190","471428","0.0-16.0-0.6","6096ee4ed5f41e6e17598ec9","609a8bf73b2ac84e2732f618","60a2934ac1d7653758e76192","null","","","","null","","","","key","16.668851851851084","960","468.5","","","","","","","","","","","","","","","","","","","",""
"psychophysics","191","471930","0.0-16.0-1.6","6096ee4ed5f41e6e17598ec9","609a8bf73b2ac84e2732f618","60a2934ac1d7653758e76192","null","","","","null","","","","key","16.665379310345905","960","468.5","","","","","","","","","","","","","135","1","3","false","","","",""
"psychophysics","192","472590","0.0-16.0-2.6","6096ee4ed5f41e6e17598ec9","609a8bf73b2ac84e2732f618","60a2934ac1d7653758e76192","657.6249999998254","","","","77","","","","key","16.663999999998946","960","468.5","","","","","","","","","","","","","","","","","","","",""
"psychophysics","193","473974","0.0-16.0-0.7","6096ee4ed5f41e6e17598ec9","609a8bf73b2ac84e2732f618","60a2934ac1d7653758e76192","null","","","","null","","","","key","16.666097560975555","960","468.5","","","","","","","","","","","","","","","","","","","",""
"psychophysics","194","474475","0.0-16.0-1.7","6096ee4ed5f41e6e17598ec9","609a8bf73b2ac84e2732f618","60a2934ac1d7653758e76192","null","","","","null","","","","key","16.66268965517219","960","468.5","","","","","","","","","","","","","135","1","0","false","","","",""
"psychophysics","195","477150","0.0-16.0-2.7","6096ee4ed5f41e6e17598ec9","609a8bf73b2ac84e2732f618","60a2934ac1d7653758e76192","2673.8100000002305","","","","90","","","","key","16.667618749999747","960","468.5","","","","","","","","","","","","","","","","","","","",""
"psychophysics","196","478413","0.0-16.0-0.8","6096ee4ed5f41e6e17598ec9","609a8bf73b2ac84e2732f618","60a2934ac1d7653758e76192","null","","","","null","","","","key","16.668306666666954","960","468.5","","","","","","","","","","","","","","","","","","","",""
"psychophysics","197","478915","0.0-16.0-1.8","6096ee4ed5f41e6e17598ec9","609a8bf73b2ac84e2732f618","60a2934ac1d7653758e76192","null","","","","null","","","","key","16.670172413793022","960","468.5","","","","","","","","","","","","","135","-1","3","false","","","",""
"psychophysics","198","479589","0.0-16.0-2.8","6096ee4ed5f41e6e17598ec9","609a8bf73b2ac84e2732f618","60a2934ac1d7653758e76192","672.8149999999441","","","","90","","","","key","16.66607692307727","960","468.5","","","","","","","","","","","","","","","","","","","",""
"psychophysics","199","480901","0.0-16.0-0.9","6096ee4ed5f41e6e17598ec9","609a8bf73b2ac84e2732f618","60a2934ac1d7653758e76192","null","","","","null","","","","key","16.666974358974795","960","468.5","","","","","","","","","","","","","","","","","","","",""
"psychophysics","200","481403","0.0-16.0-1.9","6096ee4ed5f41e6e17598ec9","609a8bf73b2ac84e2732f618","60a2934ac1d7653758e76192","null","","","","null","","","","key","16.666655172413247","960","468.5","","","","","","","","","","","","","135","1","2","false","","","",""
"psychophysics","201","481909","0.0-16.0-2.9","6096ee4ed5f41e6e17598ec9","609a8bf73b2ac84e2732f618","60a2934ac1d7653758e76192","504.26500000001397","","","","90","","","","key","16.66555172413716","960","468.5","","","","","","","","","","","","","","","","","","","",""
"psychophysics","202","483031","0.0-16.0-0.10","6096ee4ed5f41e6e17598ec9","609a8bf73b2ac84e2732f618","60a2934ac1d7653758e76192","null","","","","null","","","","key","16.669507462686838","960","468.5","","","","","","","","","","","","","","","","","","","",""
"psychophysics","203","483532","0.0-16.0-1.10","6096ee4ed5f41e6e17598ec9","609a8bf73b2ac84e2732f618","60a2934ac1d7653758e76192","null","","","","null","","","","key","16.663482758622006","960","468.5","","","","","","","","","","","","","135","-1","5","false","","","",""
"psychophysics","204","483894","0.0-16.0-2.10","6096ee4ed5f41e6e17598ec9","609a8bf73b2ac84e2732f618","60a2934ac1d7653758e76192","359.30000000004657","","","","77","","","","key","16.668761904761638","960","468.5","","","","","","","","","","","","","","","","","","","",""
"psychophysics","205","484873","0.0-16.0-0.11","6096ee4ed5f41e6e17598ec9","609a8bf73b2ac84e2732f618","60a2934ac1d7653758e76192","null","","","","null","","","","key","16.66719298245663","960","468.5","","","","","","","","","","","","","","","","","","","",""
"psychophysics","206","485375","0.0-16.0-1.11","6096ee4ed5f41e6e17598ec9","609a8bf73b2ac84e2732f618","60a2934ac1d7653758e76192","null","","","","null","","","","key","16.670655172412555","960","468.5","","","","","","","","","","","","","135","1","4","false","","","",""
"psychophysics","207","485734","0.0-16.0-2.11","6096ee4ed5f41e6e17598ec9","609a8bf73b2ac84e2732f618","60a2934ac1d7653758e76192","357.68000000010943","","","","77","","","","key","16.66780952380837","960","468.5","","","","","","","","","","","","","","","","","","","",""
"psychophysics","208","487104","0.0-16.0-0.12","6096ee4ed5f41e6e17598ec9","609a8bf73b2ac84e2732f618","60a2934ac1d7653758e76192","null","","","","null","","","","key","16.664938271604765","960","468.5","","","","","","","","","","","","","","","","","","","",""
"psychophysics","209","487606","0.0-16.0-1.12","6096ee4ed5f41e6e17598ec9","609a8bf73b2ac84e2732f618","60a2934ac1d7653758e76192","null","","","","null","","","","key","16.666068965516953","960","468.5","","","","","","","","","","","","","135","-1","0","false","","","",""
"psychophysics","210","488846","0.0-16.0-2.12","6096ee4ed5f41e6e17598ec9","609a8bf73b2ac84e2732f618","60a2934ac1d7653758e76192","1237.549999999872","","","","77","","","","key","16.66652702702669","960","468.5","","","","","","","","","","","","","","","","","","","",""
"psychophysics","211","489512","0.0-16.0-0.13","6096ee4ed5f41e6e17598ec9","609a8bf73b2ac84e2732f618","60a2934ac1d7653758e76192","null","","","","null","","","","key","16.66392307692261","960","468.5","","","","","","","","","","","","","","","","","","","",""
"psychophysics","212","490012","0.0-16.0-1.13","6096ee4ed5f41e6e17598ec9","609a8bf73b2ac84e2732f618","60a2934ac1d7653758e76192","null","","","","null","","","","key","16.663379310345245","960","468.5","","","","","","","","","","","","","135","-1","4","false","","","",""
"psychophysics","213","490438","0.0-16.0-2.13","6096ee4ed5f41e6e17598ec9","609a8bf73b2ac84e2732f618","60a2934ac1d7653758e76192","422.3400000000838","","","","77","","","","key","16.65833333333285","960","468.5","","","","","","","","","","","","","","","","","","","",""
"psychophysics","214","491792","0.0-16.0-0.14","6096ee4ed5f41e6e17598ec9","609a8bf73b2ac84e2732f618","60a2934ac1d7653758e76192","null","","","","null","","","","key","16.666500000000088","960","468.5","","","","","","","","","","","","","","","","","","","",""
"psychophysics","215","492293","0.0-16.0-1.14","6096ee4ed5f41e6e17598ec9","609a8bf73b2ac84e2732f618","60a2934ac1d7653758e76192","null","","","","null","","","","key","16.669068965516935","960","468.5","","","","","","","","","","","","","135","1","2","false","","","",""
"psychophysics","216","492838","0.0-16.0-2.14","6096ee4ed5f41e6e17598ec9","609a8bf73b2ac84e2732f618","60a2934ac1d7653758e76192","541.1650000000955","","","","90","","","","key","16.66546874999949","960","468.5","","","","","","","","","","","","","","","","","","","",""
"psychophysics","217","494062","0.0-16.0-0.15","6096ee4ed5f41e6e17598ec9","609a8bf73b2ac84e2732f618","60a2934ac1d7653758e76192","null","","","","null","","","","key","16.66602739726021","960","468.5","","","","","","","","","","","","","","","","","","","",""
"psychophysics","218","494563","0.0-16.0-1.15","6096ee4ed5f41e6e17598ec9","609a8bf73b2ac84e2732f618","60a2934ac1d7653758e76192","null","","","","null","","","","key","16.66844827586239","960","468.5","","","","","","","","","","","","","135","-1","6","false","","","",""
"psychophysics","219","494966","0.0-16.0-2.15","6096ee4ed5f41e6e17598ec9","609a8bf73b2ac84e2732f618","60a2934ac1d7653758e76192","400.80500000022585","","","","77","","","","key","16.66304347826087","960","468.5","","","","","","","","","","","","","","","","","","","",""
"psychophysics","220","496383","0.0-16.0-0.16","6096ee4ed5f41e6e17598ec9","609a8bf73b2ac84e2732f618","60a2934ac1d7653758e76192","null","","","","null","","","","key","16.66665476190489","960","468.5","","","","","","","","","","","","","","","","","","","",""
"psychophysics","221","496884","0.0-16.0-1.16","6096ee4ed5f41e6e17598ec9","609a8bf73b2ac84e2732f618","60a2934ac1d7653758e76192","null","","","","null","","","","key","16.666000000000448","960","468.5","","","","","","","","","","","","","135","1","3","false","","","",""
"psychophysics","222","497702","0.0-16.0-2.16","6096ee4ed5f41e6e17598ec9","609a8bf73b2ac84e2732f618","60a2934ac1d7653758e76192","815.7999999998137","","","","90","","","","key","16.667458333333343","960","468.5","","","","","","","","","","","","","","","","","","","",""
"psychophysics","223","498802","0.0-16.0-0.17","6096ee4ed5f41e6e17598ec9","609a8bf73b2ac84e2732f618","60a2934ac1d7653758e76192","null","","","","null","","","","key","16.664907692307427","960","468.5","","","","","","","","","","","","","","","","","","","",""
"psychophysics","224","499305","0.0-16.0-1.17","6096ee4ed5f41e6e17598ec9","609a8bf73b2ac84e2732f618","60a2934ac1d7653758e76192","null","","","","null","","","","key","16.664689655172847","960","468.5","","","","","","","","","","","","","135","1","0","false","","","",""
"psychophysics","225","499669","0.0-16.0-2.17","6096ee4ed5f41e6e17598ec9","609a8bf73b2ac84e2732f618","60a2934ac1d7653758e76192","362.68000000022585","","","","90","","","","key","16.669285714285383","960","468.5","","","","","","","","","","","","","","","","","","","",""
"psychophysics","226","500794","0.0-16.0-0.18","6096ee4ed5f41e6e17598ec9","609a8bf73b2ac84e2732f618","60a2934ac1d7653758e76192","null","","","","null","","","","key","16.66638805970129","960","468.5","","","","","","","","","","","","","","","","","","","",""
"psychophysics","227","501295","0.0-16.0-1.18","6096ee4ed5f41e6e17598ec9","609a8bf73b2ac84e2732f618","60a2934ac1d7653758e76192","null","","","","null","","","","key","16.66317241379373","960","468.5","","","","","","","","","","","","","135","-1","5","false","","","",""
"psychophysics","228","501622","0.0-16.0-2.18","6096ee4ed5f41e6e17598ec9","609a8bf73b2ac84e2732f618","60a2934ac1d7653758e76192","324.5799999999581","","","","77","","","","key","16.668111111108576","960","468.5","","","","","","","","","","","","","","","","","","","",""
"psychophysics","229","502452","0.0-16.0-0.19","6096ee4ed5f41e6e17598ec9","609a8bf73b2ac84e2732f618","60a2934ac1d7653758e76192","null","","","","null","","","","key","16.669204081633193","960","468.5","","","","","","","","","","","","","","","","","","","",""
"psychophysics","230","502953","0.0-16.0-1.19","6096ee4ed5f41e6e17598ec9","609a8bf73b2ac84e2732f618","60a2934ac1d7653758e76192","null","","","","null","","","","key","16.66641379310348","960","468.5","","","","","","","","","","","","","135","-1","2","false","","","",""
"psychophysics","231","503328","0.0-16.0-2.19","6096ee4ed5f41e6e17598ec9","609a8bf73b2ac84e2732f618","60a2934ac1d7653758e76192","372.69000000017695","","","","90","","","","key","16.669727272727126","960","468.5","","","","","","","","","","","","","","","","","","","",""
"psychophysics","232","504432","0.0-16.0-0.20","6096ee4ed5f41e6e17598ec9","609a8bf73b2ac84e2732f618","60a2934ac1d7653758e76192","null","","","","null","","","","key","16.666261538461995","960","468.5","","","","","","","","","","","","","","","","","","","",""
"psychophysics","233","504934","0.0-16.0-1.20","6096ee4ed5f41e6e17598ec9","609a8bf73b2ac84e2732f618","60a2934ac1d7653758e76192","null","","","","null","","","","key","16.663758620690025","960","468.5","","","","","","","","","","","","","135","1","6","false","","","",""
"psychophysics","234","505318","0.0-16.0-2.20","6096ee4ed5f41e6e17598ec9","609a8bf73b2ac84e2732f618","60a2934ac1d7653758e76192","381.50499999983003","","","","77","","","","key","16.664181818182854","960","468.5","","","","","","","","","","","","","","","","","","","",""
"psychophysics","235","506059","0.0-16.0-0.21","6096ee4ed5f41e6e17598ec9","609a8bf73b2ac84e2732f618","60a2934ac1d7653758e76192","null","","","","null","","","","key","16.663318181819207","960","468.5","","","","","","","","","","","","","","","","","","","",""
"psychophysics","236","506561","0.0-16.0-1.21","6096ee4ed5f41e6e17598ec9","609a8bf73b2ac84e2732f618","60a2934ac1d7653758e76192","null","","","","null","","","","key","16.66275862068869","960","468.5","","","","","","","","","","","","","135","1","4","false","","","",""
"psychophysics","237","506990","0.0-16.0-2.21","6096ee4ed5f41e6e17598ec9","609a8bf73b2ac84e2732f618","60a2934ac1d7653758e76192","426.9399999998277","","","","77","","","","key","16.662624999999633","960","468.5","","","","","","","","","","","","","","","","","","","",""
"psychophysics","238","508098","0.0-16.0-0.22","6096ee4ed5f41e6e17598ec9","609a8bf73b2ac84e2732f618","60a2934ac1d7653758e76192","null","","","","null","","","","key","16.666787878787463","960","468.5","","","","","","","","","","","","","","","","","","","",""
"psychophysics","239","508600","0.0-16.0-1.22","6096ee4ed5f41e6e17598ec9","609a8bf73b2ac84e2732f618","60a2934ac1d7653758e76192","null","","","","null","","","","key","16.6692413793102","960","468.5","","","","","","","","","","","","","135","1","5","false","","","",""
"psychophysics","240","509006","0.0-16.0-2.22","6096ee4ed5f41e6e17598ec9","609a8bf73b2ac84e2732f618","60a2934ac1d7653758e76192","402.5499999997555","","","","77","","","","key","16.664043478262812","960","468.5","","","","","","","","","","","","","","","","","","","",""
"psychophysics","241","509737","0.0-16.0-0.23","6096ee4ed5f41e6e17598ec9","609a8bf73b2ac84e2732f618","60a2934ac1d7653758e76192","null","","","","null","","","","key","16.667465116279093","960","468.5","","","","","","","","","","","","","","","","","","","",""
"psychophysics","242","510238","0.0-16.0-1.23","6096ee4ed5f41e6e17598ec9","609a8bf73b2ac84e2732f618","60a2934ac1d7653758e76192","null","","","","null","","","","key","16.66548275862066","960","468.5","","","","","","","","","","","","","135","-1","3","false","","","",""
"psychophysics","243","510559","0.0-16.0-2.23","6096ee4ed5f41e6e17598ec9","609a8bf73b2ac84e2732f618","60a2934ac1d7653758e76192","319.7249999998021","","","","90","","","","key","16.66647368421055","960","468.5","","","","","","","","","","","","","","","","","","","",""
"html-keyboard-response","244","514591","0.0-17.0","6096ee4ed5f41e6e17598ec9","609a8bf73b2ac84e2732f618","60a2934ac1d7653758e76192","4030.6799999998766","<p>Well Done !</p><p>Training Complete. Press the spacebar to start.</p><p>DON'T EXIT THE FULL SCREEN MODE</p>","","","32","","","","","","","","","","","","","","","","","","","","","","","","","","",""
"psychophysics","245","517862","0.0-18.0-0.0","6096ee4ed5f41e6e17598ec9","609a8bf73b2ac84e2732f618","60a2934ac1d7653758e76192","null","","","","null","","","","key","16.667921052632185","960","468.5","","","","","","","","","","","","","","","","","","","",""
"psychophysics","246","518365","0.0-18.0-1.0","6096ee4ed5f41e6e17598ec9","609a8bf73b2ac84e2732f618","60a2934ac1d7653758e76192","null","","","","null","","","","key","16.6679310344826","960","468.5","","","","","","","","","","","","","135","1","4","true","","","",""
"psychophysics","247","519597","0.0-18.0-2.0","6096ee4ed5f41e6e17598ec9","609a8bf73b2ac84e2732f618","60a2934ac1d7653758e76192","1230.749999999709","","","","77","","","","key","16.667958904109568","960","468.5","","","","","","","","","","","","","","","","","","","",""
"psychophysics","248","520625","0.0-18.0-0.1","6096ee4ed5f41e6e17598ec9","609a8bf73b2ac84e2732f618","60a2934ac1d7653758e76192","null","","","","null","","","","key","16.666533333333792","960","468.5","","","","","","","","","","","","","","","","","","","",""
"psychophysics","249","521126","0.0-18.0-1.1","6096ee4ed5f41e6e17598ec9","609a8bf73b2ac84e2732f618","60a2934ac1d7653758e76192","null","","","","null","","","","key","16.66966666666752","960","468.5","","","","","","","","","","","","","135","1","0","true","","","",""
"psychophysics","250","521430","0.0-18.0-2.1","6096ee4ed5f41e6e17598ec9","609a8bf73b2ac84e2732f618","60a2934ac1d7653758e76192","302.210000000312","","","","90","","","","key","16.67064705882427","960","468.5","","","","","","","","","","","","","","","","","","","",""
"psychophysics","251","522534","0.0-18.0-0.2","6096ee4ed5f41e6e17598ec9","609a8bf73b2ac84e2732f618","60a2934ac1d7653758e76192","null","","","","null","","","","key","16.66687692307706","960","468.5","","","","","","","","","","","","","","","","","","","",""
"psychophysics","252","523035","0.0-18.0-1.2","6096ee4ed5f41e6e17598ec9","609a8bf73b2ac84e2732f618","60a2934ac1d7653758e76192","null","","","","null","","","","key","16.658137931034837","960","468.5","","","","","","","","","","","","","135","1","6","true","","","",""
"psychophysics","253","524110","0.0-18.0-2.2","6096ee4ed5f41e6e17598ec9","609a8bf73b2ac84e2732f618","60a2934ac1d7653758e76192","1071.7450000002282","","","","77","","","","key","16.665484375000233","960","468.5","","","","","","","","","","","","","","","","","","","",""
"psychophysics","254","524812","0.0-18.0-0.3","6096ee4ed5f41e6e17598ec9","609a8bf73b2ac84e2732f618","60a2934ac1d7653758e76192","null","","","","null","","","","key","16.666073170731913","960","468.5","","","","","","","","","","","","","","","","","","","",""
"psychophysics","255","525313","0.0-18.0-1.3","6096ee4ed5f41e6e17598ec9","609a8bf73b2ac84e2732f618","60a2934ac1d7653758e76192","null","","","","null","","","","key","16.66031034482675","960","468.5","","","","","","","","","","","","","135","-1","4","true","","","",""
"psychophysics","256","525661","0.0-18.0-2.3","6096ee4ed5f41e6e17598ec9","609a8bf73b2ac84e2732f618","60a2934ac1d7653758e76192","345.925000000163","","","","77","","","","key","16.667900000000373","960","468.5","","","","","","","","","","","","","","","","","","","",""
"psychophysics","257","526588","0.0-18.0-0.4","6096ee4ed5f41e6e17598ec9","609a8bf73b2ac84e2732f618","60a2934ac1d7653758e76192","null","","","","null","","","","key","16.670425925925546","960","468.5","","","","","","","","","","","","","","","","","","","",""
"psychophysics","258","527090","0.0-18.0-1.4","6096ee4ed5f41e6e17598ec9","609a8bf73b2ac84e2732f618","60a2934ac1d7653758e76192","null","","","","null","","","","key","16.669896551720992","960","468.5","","","","","","","","","","","","","135","1","3","true","","","",""
"psychophysics","259","527502","0.0-18.0-2.4","6096ee4ed5f41e6e17598ec9","609a8bf73b2ac84e2732f618","60a2934ac1d7653758e76192","410.0450000000419","","","","77","","","","key","16.676333333331666","960","468.5","","","","","","","","","","","","","","","","","","","",""
"psychophysics","260","528201","0.0-18.0-0.5","6096ee4ed5f41e6e17598ec9","609a8bf73b2ac84e2732f618","60a2934ac1d7653758e76192","null","","","","null","","","","key","16.66560975609563","960","468.5","","","","","","","","","","","","","","","","","","","",""
"psychophysics","261","528703","0.0-18.0-1.5","6096ee4ed5f41e6e17598ec9","609a8bf73b2ac84e2732f618","60a2934ac1d7653758e76192","null","","","","null","","","","key","16.673310344826014","960","468.5","","","","","","","","","","","","","135","-1","3","true","","","",""
"psychophysics","262","528997","0.0-18.0-2.5","6096ee4ed5f41e6e17598ec9","609a8bf73b2ac84e2732f618","60a2934ac1d7653758e76192","291.95999999996275","","","","77","","","","key","16.66982352941105","960","468.5","","","","","","","","","","","","","","","","","","","",""
"psychophysics","263","530206","0.0-18.0-0.6","6096ee4ed5f41e6e17598ec9","609a8bf73b2ac84e2732f618","60a2934ac1d7653758e76192","null","","","","null","","","","key","16.667633802816926","960","468.5","","","","","","","","","","","","","","","","","","","",""
"psychophysics","264","530706","0.0-18.0-1.6","6096ee4ed5f41e6e17598ec9","609a8bf73b2ac84e2732f618","60a2934ac1d7653758e76192","null","","","","null","","","","key","16.671413793100108","960","468.5","","","","","","","","","","","","","135","-1","0","true","","","",""
"psychophysics","265","530990","0.0-18.0-2.6","6096ee4ed5f41e6e17598ec9","609a8bf73b2ac84e2732f618","60a2934ac1d7653758e76192","281.2299999999814","","","","90","","","","key","16.6663750000007","960","468.5","","","","","","","","","","","","","","","","","","","",""
"psychophysics","266","531846","0.0-18.0-0.7","6096ee4ed5f41e6e17598ec9","609a8bf73b2ac84e2732f618","60a2934ac1d7653758e76192","null","","","","null","","","","key","16.666921568625863","960","468.5","","","","","","","","","","","","","","","","","","","",""
"psychophysics","267","532347","0.0-18.0-1.7","6096ee4ed5f41e6e17598ec9","609a8bf73b2ac84e2732f618","60a2934ac1d7653758e76192","null","","","","null","","","","key","16.66248275862268","960","468.5","","","","","","","","","","","","","135","1","2","true","","","",""
"psychophysics","268","532726","0.0-18.0-2.7","6096ee4ed5f41e6e17598ec9","609a8bf73b2ac84e2732f618","60a2934ac1d7653758e76192","376.61999999999534","","","","90","","","","key","16.669904761908885","960","468.5","","","","","","","","","","","","","","","","","","","",""
"psychophysics","269","533465","0.0-18.0-0.8","6096ee4ed5f41e6e17598ec9","609a8bf73b2ac84e2732f618","60a2934ac1d7653758e76192","null","","","","null","","","","key","16.665977272728924","960","468.5","","","","","","","","","","","","","","","","","","","",""
"psychophysics","270","533967","0.0-18.0-1.8","6096ee4ed5f41e6e17598ec9","609a8bf73b2ac84e2732f618","60a2934ac1d7653758e76192","null","","","","null","","","","key","16.665241379310892","960","468.5","","","","","","","","","","","","","135","-1","6","true","","","",""
"psychophysics","271","534269","0.0-18.0-2.8","6096ee4ed5f41e6e17598ec9","609a8bf73b2ac84e2732f618","60a2934ac1d7653758e76192","300.76499999989755","","","","77","","","","key","16.666764705880162","960","468.5","","","","","","","","","","","","","","","","","","","",""
"psychophysics","272","535621","0.0-18.0-0.9","6096ee4ed5f41e6e17598ec9","609a8bf73b2ac84e2732f618","60a2934ac1d7653758e76192","null","","","","null","","","","key","16.66686250000057","960","468.5","","","","","","","","","","","","","","","","","","","",""
"psychophysics","273","536122","0.0-18.0-1.9","6096ee4ed5f41e6e17598ec9","609a8bf73b2ac84e2732f618","60a2934ac1d7653758e76192","null","","","","null","","","","key","16.673034482760002","960","468.5","","","","","","","","","","","","","135","-1","5","true","","","",""
"psychophysics","274","536590","0.0-18.0-2.9","6096ee4ed5f41e6e17598ec9","609a8bf73b2ac84e2732f618","60a2934ac1d7653758e76192","464.08500000007916","","","","77","","","","key","16.66944444444272","960","468.5","","","","","","","","","","","","","","","","","","","",""
"psychophysics","275","537115","0.0-18.0-0.10","6096ee4ed5f41e6e17598ec9","609a8bf73b2ac84e2732f618","60a2934ac1d7653758e76192","null","","","","null","","","","key","16.665903225807742","960","468.5","","","","","","","","","","","","","","","","","","","",""
"psychophysics","276","537616","0.0-18.0-1.10","6096ee4ed5f41e6e17598ec9","609a8bf73b2ac84e2732f618","60a2934ac1d7653758e76192","null","","","","null","","","","key","16.66310344827522","960","468.5","","","","","","","","","","","","","135","1","5","true","","","",""
"psychophysics","277","538053","0.0-18.0-2.10","6096ee4ed5f41e6e17598ec9","609a8bf73b2ac84e2732f618","60a2934ac1d7653758e76192","435.5799999998417","","","","77","","","","key","16.65944000000134","960","468.5","","","","","","","","","","","","","","","","","","","",""
"psychophysics","278","538695","0.0-18.0-0.11","6096ee4ed5f41e6e17598ec9","609a8bf73b2ac84e2732f618","60a2934ac1d7653758e76192","null","","","","null","","","","key","16.669605263156548","960","468.5","","","","","","","","","","","","","","","","","","","",""
"psychophysics","279","539196","0.0-18.0-1.11","6096ee4ed5f41e6e17598ec9","609a8bf73b2ac84e2732f618","60a2934ac1d7653758e76192","null","","","","null","","","","key","16.661137931036826","960","468.5","","","","","","","","","","","","","135","-1","2","true","","","",""
"psychophysics","280","539518","0.0-18.0-2.11","6096ee4ed5f41e6e17598ec9","609a8bf73b2ac84e2732f618","60a2934ac1d7653758e76192","319.64999999990687","","","","90","","","","key","16.666722222224863","960","468.5","","","","","","","","","","","","","","","","","","","",""
"psychophysics","281","540475","0.0-18.0-0.12","6096ee4ed5f41e6e17598ec9","609a8bf73b2ac84e2732f618","60a2934ac1d7653758e76192","null","","","","null","","","","key","16.670142857143738","960","468.5","","","","","","","","","","","","","","","","","","","",""
"psychophysics","282","540975","0.0-18.0-1.12","6096ee4ed5f41e6e17598ec9","609a8bf73b2ac84e2732f618","60a2934ac1d7653758e76192","null","","","","null","","","","key","16.673068965516247","960","468.5","","","","","","","","","","","","","135","-1","6","true","","","",""
"psychophysics","283","541270","0.0-18.0-2.12","6096ee4ed5f41e6e17598ec9","609a8bf73b2ac84e2732f618","60a2934ac1d7653758e76192","291.3100000000559","","","","77","","","","key","16.666117647060137","960","468.5","","","","","","","","","","","","","","","","","","","",""
"psychophysics","284","542494","0.0-18.0-0.13","6096ee4ed5f41e6e17598ec9","609a8bf73b2ac84e2732f618","60a2934ac1d7653758e76192","null","","","","null","","","","key","16.666068493149382","960","468.5","","","","","","","","","","","","","","","","","","","",""
"psychophysics","285","542995","0.0-18.0-1.13","6096ee4ed5f41e6e17598ec9","609a8bf73b2ac84e2732f618","60a2934ac1d7653758e76192","null","","","","null","","","","key","16.667241379313555","960","468.5","","","","","","","","","","","","","135","1","6","true","","","",""
"psychophysics","286","543326","0.0-18.0-2.13","6096ee4ed5f41e6e17598ec9","609a8bf73b2ac84e2732f618","60a2934ac1d7653758e76192","328.3650000002235","","","","77","","","","key","16.661736842103938","960","468.5","","","","","","","","","","","","","","","","","","","",""
"psychophysics","287","543889","0.0-18.0-0.14","6096ee4ed5f41e6e17598ec9","609a8bf73b2ac84e2732f618","60a2934ac1d7653758e76192","null","","","","null","","","","key","16.66271875000166","960","468.5","","","","","","","","","","","","","","","","","","","",""
"psychophysics","288","544390","0.0-18.0-1.14","6096ee4ed5f41e6e17598ec9","609a8bf73b2ac84e2732f618","60a2934ac1d7653758e76192","null","","","","null","","","","key","16.666655172413247","960","468.5","","","","","","","","","","","","","135","1","4","true","","","",""
"psychophysics","289","544679","0.0-18.0-2.14","6096ee4ed5f41e6e17598ec9","609a8bf73b2ac84e2732f618","60a2934ac1d7653758e76192","286.04500000039116","","","","77","","","","key","16.6742941176464","960","468.5","","","","","","","","","","","","","","","","","","","",""
"psychophysics","290","545908","0.0-18.0-0.15","6096ee4ed5f41e6e17598ec9","609a8bf73b2ac84e2732f618","60a2934ac1d7653758e76192","null","","","","null","","","","key","16.6671111111112","960","468.5","","","","","","","","","","","","","","","","","","","",""
"psychophysics","291","546409","0.0-18.0-1.15","6096ee4ed5f41e6e17598ec9","609a8bf73b2ac84e2732f618","60a2934ac1d7653758e76192","null","","","","null","","","","key","16.668633333333613","960","468.5","","","","","","","","","","","","","135","-1","4","true","","","",""
"psychophysics","292","546701","0.0-18.0-2.15","6096ee4ed5f41e6e17598ec9","609a8bf73b2ac84e2732f618","60a2934ac1d7653758e76192","290.57499999995343","","","","77","","","","key","16.668187499999476","960","468.5","","","","","","","","","","","","","","","","","","","",""
"psychophysics","293","548135","0.0-18.0-0.16","6096ee4ed5f41e6e17598ec9","609a8bf73b2ac84e2732f618","60a2934ac1d7653758e76192","null","","","","null","","","","key","16.667811764705487","960","468.5","","","","","","","","","","","","","","","","","","","",""
"psychophysics","294","548635","0.0-18.0-1.16","6096ee4ed5f41e6e17598ec9","609a8bf73b2ac84e2732f618","60a2934ac1d7653758e76192","null","","","","null","","","","key","16.663172413791724","960","468.5","","","","","","","","","","","","","135","-1","3","true","","","",""
"psychophysics","295","548950","0.0-18.0-2.16","6096ee4ed5f41e6e17598ec9","609a8bf73b2ac84e2732f618","60a2934ac1d7653758e76192","312.65500000026077","","","","77","","","","key","16.672166666669202","960","468.5","","","","","","","","","","","","","","","","","","","",""
"psychophysics","296","549936","0.0-18.0-0.17","6096ee4ed5f41e6e17598ec9","609a8bf73b2ac84e2732f618","60a2934ac1d7653758e76192","null","","","","null","","","","key","16.667310344828053","960","468.5","","","","","","","","","","","","","","","","","","","",""
"psychophysics","297","550437","0.0-18.0-1.17","6096ee4ed5f41e6e17598ec9","609a8bf73b2ac84e2732f618","60a2934ac1d7653758e76192","null","","","","null","","","","key","16.671586206897388","960","468.5","","","","","","","","","","","","","135","1","3","true","","","",""
"psychophysics","298","550877","0.0-18.0-2.17","6096ee4ed5f41e6e17598ec9","609a8bf73b2ac84e2732f618","60a2934ac1d7653758e76192","438.5050000001211","","","","77","","","","key","16.663692307694312","960","468.5","","","","","","","","","","","","","","","","","","","",""
"psychophysics","299","552158","0.0-18.0-0.18","6096ee4ed5f41e6e17598ec9","609a8bf73b2ac84e2732f618","60a2934ac1d7653758e76192","null","","","","null","","","","key","16.6666933333346","960","468.5","","","","","","","","","","","","","","","","","","","",""
"psychophysics","300","552659","0.0-18.0-1.18","6096ee4ed5f41e6e17598ec9","609a8bf73b2ac84e2732f618","60a2934ac1d7653758e76192","null","","","","null","","","","key","16.667866666669337","960","468.5","","","","","","","","","","","","","135","1","5","true","","","",""
"psychophysics","301","552942","0.0-18.0-2.18","6096ee4ed5f41e6e17598ec9","609a8bf73b2ac84e2732f618","60a2934ac1d7653758e76192","281.0199999999022","","","","77","","","","key","16.67153333333942","960","468.5","","","","","","","","","","","","","","","","","","","",""
"psychophysics","302","553845","0.0-18.0-0.19","6096ee4ed5f41e6e17598ec9","609a8bf73b2ac84e2732f618","60a2934ac1d7653758e76192","null","","","","null","","","","key","16.668388888890924","960","468.5","","","","","","","","","","","","","","","","","","","",""
"psychophysics","303","554347","0.0-18.0-1.19","6096ee4ed5f41e6e17598ec9","609a8bf73b2ac84e2732f618","60a2934ac1d7653758e76192","null","","","","null","","","","key","16.66972413793174","960","468.5","","","","","","","","","","","","","135","-1","0","true","","","",""
"psychophysics","304","554925","0.0-18.0-2.19","6096ee4ed5f41e6e17598ec9","609a8bf73b2ac84e2732f618","60a2934ac1d7653758e76192","576.8149999998277","","","","77","","","","key","16.673030303029176","960","468.5","","","","","","","","","","","","","","","","","","","",""
"psychophysics","305","556381","0.0-18.0-0.20","6096ee4ed5f41e6e17598ec9","609a8bf73b2ac84e2732f618","60a2934ac1d7653758e76192","null","","","","null","","","","key","16.666206896552634","960","468.5","","","","","","","","","","","","","","","","","","","",""
"psychophysics","306","556883","0.0-18.0-1.20","6096ee4ed5f41e6e17598ec9","609a8bf73b2ac84e2732f618","60a2934ac1d7653758e76192","null","","","","null","","","","key","16.67093103448459","960","468.5","","","","","","","","","","","","","135","1","0","true","","","",""
"psychophysics","307","558893","0.0-18.0-2.20","6096ee4ed5f41e6e17598ec9","609a8bf73b2ac84e2732f618","60a2934ac1d7653758e76192","2008.7549999998882","","","","90","","","","key","16.666608333333475","960","468.5","","","","","","","","","","","","","","","","","","","",""
"psychophysics","308","559783","0.0-18.0-0.21","6096ee4ed5f41e6e17598ec9","609a8bf73b2ac84e2732f618","60a2934ac1d7653758e76192","null","","","","null","","","","key","16.669192307691375","960","468.5","","","","","","","","","","","","","","","","","","","",""
"psychophysics","309","560284","0.0-18.0-1.21","6096ee4ed5f41e6e17598ec9","609a8bf73b2ac84e2732f618","60a2934ac1d7653758e76192","null","","","","null","","","","key","16.675827586204456","960","468.5","","","","","","","","","","","","","135","1","2","true","","","",""
"psychophysics","310","560677","0.0-18.0-2.21","6096ee4ed5f41e6e17598ec9","609a8bf73b2ac84e2732f618","60a2934ac1d7653758e76192","390.7949999998091","","","","90","","","","key","16.665782608694155","960","468.5","","","","","","","","","","","","","","","","","","","",""
"psychophysics","311","561582","0.0-18.0-0.22","6096ee4ed5f41e6e17598ec9","609a8bf73b2ac84e2732f618","60a2934ac1d7653758e76192","null","","","","null","","","","key","16.664056603774814","960","468.5","","","","","","","","","","","","","","","","","","","",""
"psychophysics","312","562083","0.0-18.0-1.22","6096ee4ed5f41e6e17598ec9","609a8bf73b2ac84e2732f618","60a2934ac1d7653758e76192","null","","","","null","","","","key","16.6673448275863","960","468.5","","","","","","","","","","","","","135","-1","2","true","","","",""
"psychophysics","313","562469","0.0-18.0-2.22","6096ee4ed5f41e6e17598ec9","609a8bf73b2ac84e2732f618","60a2934ac1d7653758e76192","383.63499999966007","","","","90","","","","key","16.659772727273364","960","468.5","","","","","","","","","","","","","","","","","","","",""
"psychophysics","314","563147","0.0-18.0-0.23","6096ee4ed5f41e6e17598ec9","609a8bf73b2ac84e2732f618","60a2934ac1d7653758e76192","null","","","","null","","","","key","16.669974999999976","960","468.5","","","","","","","","","","","","","","","","","","","",""
"psychophysics","315","563648","0.0-18.0-1.23","6096ee4ed5f41e6e17598ec9","609a8bf73b2ac84e2732f618","60a2934ac1d7653758e76192","null","","","","null","","","","key","16.663034482758718","960","468.5","","","","","","","","","","","","","135","-1","5","true","","","",""
"psychophysics","316","563981","0.0-18.0-2.23","6096ee4ed5f41e6e17598ec9","609a8bf73b2ac84e2732f618","60a2934ac1d7653758e76192","331.3649999999907","","","","77","","","","key","16.665894736842205","960","468.5","","","","","","","","","","","","","","","","","","","",""
"psychophysics","317","564561","0.0-18.0-0.24","6096ee4ed5f41e6e17598ec9","609a8bf73b2ac84e2732f618","60a2934ac1d7653758e76192","null","","","","null","","","","key","16.664147058823694","960","468.5","","","","","","","","","","","","","","","","","","","",""
"psychophysics","318","565062","0.0-18.0-1.24","6096ee4ed5f41e6e17598ec9","609a8bf73b2ac84e2732f618","60a2934ac1d7653758e76192","null","","","","null","","","","key","16.67189655172767","960","468.5","","","","","","","","","","","","","135","1","5","true","","","",""
"psychophysics","319","565541","0.0-18.0-2.24","6096ee4ed5f41e6e17598ec9","609a8bf73b2ac84e2732f618","60a2934ac1d7653758e76192","477.2400000001071","","","","77","","","","key","16.666333333334748","960","468.5","","","","","","","","","","","","","","","","","","","",""
"psychophysics","320","566253","0.0-18.0-0.25","6096ee4ed5f41e6e17598ec9","609a8bf73b2ac84e2732f618","60a2934ac1d7653758e76192","null","","","","null","","","","key","16.669261904763214","960","468.5","","","","","","","","","","","","","","","","","","","",""
"psychophysics","321","566754","0.0-18.0-1.25","6096ee4ed5f41e6e17598ec9","609a8bf73b2ac84e2732f618","60a2934ac1d7653758e76192","null","","","","null","","","","key","16.66965517241524","960","468.5","","","","","","","","","","","","","135","-1","4","true","","","",""
"psychophysics","322","567229","0.0-18.0-2.25","6096ee4ed5f41e6e17598ec9","609a8bf73b2ac84e2732f618","60a2934ac1d7653758e76192","473.0649999997113","","","","77","","","","key","16.669678571430268","960","468.5","","","","","","","","","","","","","","","","","","","",""
"psychophysics","323","568632","0.0-18.0-0.26","6096ee4ed5f41e6e17598ec9","609a8bf73b2ac84e2732f618","60a2934ac1d7653758e76192","null","","","","null","","","","key","16.66666265060222","960","468.5","","","","","","","","","","","","","","","","","","","",""
"psychophysics","324","569133","0.0-18.0-1.26","6096ee4ed5f41e6e17598ec9","609a8bf73b2ac84e2732f618","60a2934ac1d7653758e76192","null","","","","null","","","","key","16.667689655172833","960","468.5","","","","","","","","","","","","","135","-1","2","true","","","",""
"psychophysics","325","569533","0.0-18.0-2.26","6096ee4ed5f41e6e17598ec9","609a8bf73b2ac84e2732f618","60a2934ac1d7653758e76192","397.7300000000978","","","","90","","","","key","16.667304347826008","960","468.5","","","","","","","","","","","","","","","","","","","",""
"psychophysics","326","571034","0.0-18.0-0.27","6096ee4ed5f41e6e17598ec9","609a8bf73b2ac84e2732f618","60a2934ac1d7653758e76192","null","","","","null","","","","key","16.66658426966293","960","468.5","","","","","","","","","","","","","","","","","","","",""
"psychophysics","327","571536","0.0-18.0-1.27","6096ee4ed5f41e6e17598ec9","609a8bf73b2ac84e2732f618","60a2934ac1d7653758e76192","null","","","","null","","","","key","16.669068965518942","960","468.5","","","","","","","","","","","","","135","1","3","true","","","",""
"psychophysics","328","571998","0.0-18.0-2.27","6096ee4ed5f41e6e17598ec9","609a8bf73b2ac84e2732f618","60a2934ac1d7653758e76192","459.7900000002701","","","","90","","","","key","16.668740740740084","960","468.5","","","","","","","","","","","","","","","","","","","",""
