"trial_type","trial_index","time_elapsed","internal_node_id","PROLIFIC_PID","STUDY_ID","SESSION_ID","rt","stimulus","button_pressed","success","key_press","responses","isData","view_history","response_type","avg_frame_time","center_x","center_y","isSC","stim_side","trial_luminance","step_size","nReversal","correct","prev_ans","isThreshold","SC_threshold","final_threshold","isLuminance","FF_luminance","luminance","stimSide","ISInt","isFF","question_order","isSPQ","isCAPS","isAQ"
"pavlovia","0","14","0.0-0.0","5e4ead217dd6be000d5a6140","609a8bf73b2ac84e2732f618","60a25786cfa46a1f5603f901","","","","","","","","","","","","","","","","","","","","","","","","","","","","","","","",""
"html-button-response","1","108740","0.0-1.0","5e4ead217dd6be000d5a6140","609a8bf73b2ac84e2732f618","60a25786cfa46a1f5603f901","108725.59499999625","<div style='background-color: white; width:60%; margin: auto; padding: 50px; text-align: justify; text-justify: inter-word; margin-bottom: 20px;'><h1 style='text-align: center;'>Consent Form</h1><p>Please read this consent form carefully before deciding whether you would like to participate in this study. You have to be 18 years old or older to participate to this study.</p><p style='text-decoration: underline;'>Participation is voluntary:</p><p>It is your choice whether or not to participate in this research. If you choose to participate, you may change your mind and leave the study at any time. Refusal to participate or stopping your participation will involve no penalty or loss of benefits to which you are otherwise entitled.</p><p style='text-decoration: underline;'>Purpose of the Study:</p><p>To understand the mechanisms underlying human perception.</p><p style='text-decoration: underline;'>What you will do in this study:</p><p>You will be presented with a series of visual images and then you will press buttons on the keyboard of your computer to respond to simple questions about the images (e.g. Were one or two images presented?). In addition, you will be asked to complete a questionnaire concerning your beliefs and everyday mental and perceptual experiences.'</p><p style='text-decoration: underline;'> Time Required:</p><p>The study will take 40 minutes to complete. </p><p style='text-decoration: underline;'>Risks:</p><p>There are no anticipated risks associated with participating in this study that are beyond those experienced in everyday life. </p><p style='text-decoration: underline;'>Benefits:</p><p>There are no benefits to you in participating in the study. However, this study may lead to a better understanding of how different kinds of visual information are used.</p><p style='text-decoration: underline;'>Compensation:</p><p>You will be paid US$6.6/hour. </p><p style='text-decoration: underline;'>Privacy and Confidentiality:</p><p>Your participation in this study will be anonymous. No personal information about your name or identity will be asked or recorded. This anonymous data will be stored for several years and may be used for a variety of research purposes. The overall results of the study may be published, or the data files may be shared with other researchers, but your identity will not be revealed in any way. The online services we are using for this study may temporarily store your data, but this data will be downloaded and then promptly deleted from those services.Your data will not be permanently associated with your name, IP address, or any other identifiable information (e.g., your information will only be connected to your payment, not to any of your responses), though they may be temporarily stored together before we download and separate them. Even so, no guarantee of internet survey security can be given because, although unlikely, transmissions can be intercepted and IP addresses can be identified. The anonymous data may be shared publicly (for example, in conjunction with a resulting academic publication).</p><p style='text-decoration: underline;'>Participation and Withdrawal:</p><p>Your participation in this study is completely voluntary. You may stop responding to the stimuli or stop answering questions if you so choose and without penalty by exiting the full screen mode, closing this tab of your browser or redirecting it to a different website.</p><p style='text-decoration: underline;'>Contact Info of the Researcher: </p><p>If you have questions about this study, or if you would like to talk to the research team, please contact David Melcher (david.melcher@nyu.edu, md5050@nyu.edu) at the Perception and Active Cognition Laboratory, New York University Abu Dhabi, Computational Research Building, Saadiyat Island, Abu Dhabi, UAE.This research has been reviewed by the New York University Abu Dhabi Institutional Review Board (NYUAD IRB). To contact about your rights in this research, for questions, suggestions, or complaints that are not addressed by the researchers, please email IRBnyuad@nyu.edu, or call the NYUAD IRB at +971 2 628 4313. </p></div>","0","","","","","","","","","","","","","","","","","","","","","","","","","","","","",""
"fullscreen","2","125862","0.0-2.0","5e4ead217dd6be000d5a6140","609a8bf73b2ac84e2732f618","60a25786cfa46a1f5603f901","","","","true","","","","","","","","","","","","","","","","","","","","","","","","","","","",""
"html-keyboard-response","3","177235","0.0-3.0","5e4ead217dd6be000d5a6140","609a8bf73b2ac84e2732f618","60a25786cfa46a1f5603f901","51367.99999998766","<p>Welcome !</p><p>READ CAREFULLY THE FOLLOWING INDICATIONS:</p><p>From this moment you have ~40 minutes to complete the experiment.</p><p>During the experiment you will be prompted to take several breaks. Each break should not last longer than 2-3 minutes.</p><p>Make sure that your computer is plugged in and it's not running on battery power, even if the battery is already fully charged.</p><p>Turn off your phone and music, make sure that you are in a quiet room and that you will not be distracted for the next hour.</p><p>Failure to comply with the instructions and indications provided during the experiment will most likely result in the rejection of your data.<p>Press the spacebar to start.</p>","","","32","","","","","","","","","","","","","","","","","","","","","","","","","","",""
"survey-html-form","4","184637","0.0-4.0","5e4ead217dd6be000d5a6140","609a8bf73b2ac84e2732f618","60a25786cfa46a1f5603f901","7401.5350000117905","","","","","{""age"":""41"",""sex"":""M""}","true","","","","","","","","","","","","","","","","","","","","","","","","",""
"instructions","5","218312","0.0-5.0","5e4ead217dd6be000d5a6140","609a8bf73b2ac84e2732f618","60a25786cfa46a1f5603f901","33674.03000002378","","","","","","","[{""page_index"":0,""viewing_time"":20041.835000010906},{""page_index"":1,""viewing_time"":8405.419999995502},{""page_index"":2,""viewing_time"":5226.435000018682}]","","","","","","","","","","","","","","","","","","","","","","","",""
"psychophysics","6","220823","0.0-6.0-0.0","5e4ead217dd6be000d5a6140","609a8bf73b2ac84e2732f618","60a25786cfa46a1f5603f901","1506.6750000114553","","","","39","","","","key","8.333388704318956","960","451.5","true","1","180","30","0","-1","","","","","","","","","","","","","",""
"psychophysics","7","221991","0.0-6.0-0.1","5e4ead217dd6be000d5a6140","609a8bf73b2ac84e2732f618","60a25786cfa46a1f5603f901","163.8600000005681","","","","39","","","","key","8.333143884892092","960","451.5","true","1","180","30","0","-1","-1","","","","","","","","","","","","",""
"psychophysics","8","223239","0.0-6.0-0.2","5e4ead217dd6be000d5a6140","609a8bf73b2ac84e2732f618","60a25786cfa46a1f5603f901","244.62000001221895","","","","37","","","","key","8.333295302013374","960","451.5","true","-1","150","30","0","-1","-1","","","","","","","","","","","","",""
"psychophysics","9","224489","0.0-6.0-0.3","5e4ead217dd6be000d5a6140","609a8bf73b2ac84e2732f618","60a25786cfa46a1f5603f901","244.76500001037493","","","","39","","","","key","8.33285906040262","960","451.5","true","1","150","30","0","-1","-1","","","","","","","","","","","","",""
"psychophysics","10","227735","0.0-6.0-0.4","5e4ead217dd6be000d5a6140","609a8bf73b2ac84e2732f618","60a25786cfa46a1f5603f901","2241.795000009006","","","","39","","","","key","8.332798969072137","960","451.5","true","-1","129","24","1","1","-1","","","","","","","","","","","","",""
"psychophysics","11","229508","0.0-6.0-0.5","5e4ead217dd6be000d5a6140","609a8bf73b2ac84e2732f618","60a25786cfa46a1f5603f901","771.5850000095088","","","","39","","","","key","8.33279245283017","960","451.5","true","1","153","24","1","-1","1","","","","","","","","","","","","",""
"psychophysics","12","231329","0.0-6.0-0.6","5e4ead217dd6be000d5a6140","609a8bf73b2ac84e2732f618","60a25786cfa46a1f5603f901","819.1100000112783","","","","39","","","","key","8.333839449541292","960","451.5","true","1","153","19.2","2","-1","-1","","","","","","","","","","","","",""
"psychophysics","13","234076","0.0-6.0-0.7","5e4ead217dd6be000d5a6140","609a8bf73b2ac84e2732f618","60a25786cfa46a1f5603f901","1739.689999987604","","","","37","","","","key","8.33185365853658","960","451.5","true","-1","133.8","19.2","2","-1","-1","","","","","","","","","","","","",""
"psychophysics","14","236599","0.0-6.0-0.8","5e4ead217dd6be000d5a6140","609a8bf73b2ac84e2732f618","60a25786cfa46a1f5603f901","1522.4449999805074","","","","37","","","","key","8.333172185430518","960","451.5","true","-1","133.8","19.2","2","-1","-1","","","","","","","","","","","","",""
"psychophysics","15","238806","0.0-6.0-0.9","5e4ead217dd6be000d5a6140","609a8bf73b2ac84e2732f618","60a25786cfa46a1f5603f901","1203.2349999935832","","","","39","","","","key","8.334537878787875","960","451.5","true","-1","129","15.36","3","1","-1","","","","","","","","","","","","",""
"psychophysics","16","241710","0.0-6.0-0.10","5e4ead217dd6be000d5a6140","609a8bf73b2ac84e2732f618","60a25786cfa46a1f5603f901","1898.8749999844003","","","","37","","","","key","8.33225936599422","960","451.5","true","1","144.36","15.36","3","1","1","","","","","","","","","","","","",""
"psychophysics","17","243185","0.0-6.0-0.11","5e4ead217dd6be000d5a6140","609a8bf73b2ac84e2732f618","60a25786cfa46a1f5603f901","473.4150000149384","","","","37","","","","key","8.33377272727276","960","451.5","true","-1","159.72000000000003","15.36","3","-1","1","","","","","","","","","","","","",""
"psychophysics","18","244642","0.0-6.0-0.12","5e4ead217dd6be000d5a6140","609a8bf73b2ac84e2732f618","60a25786cfa46a1f5603f901","456.29999999073334","","","","39","","","","key","8.334258620689614","960","451.5","true","1","159.72000000000003","12.287999999999998","4","-1","-1","","","","","","","","","","","","",""
"psychophysics","19","245928","0.0-6.0-0.13","5e4ead217dd6be000d5a6140","609a8bf73b2ac84e2732f618","60a25786cfa46a1f5603f901","284.2499999969732","","","","39","","","","key","8.333480519480519","960","451.5","true","1","147.43200000000002","12.287999999999998","4","-1","-1","","","","","","","","","","","","",""
"psychophysics","20","247220","0.0-6.0-0.14","5e4ead217dd6be000d5a6140","609a8bf73b2ac84e2732f618","60a25786cfa46a1f5603f901","289.51999999117106","","","","39","","","","key","8.335168831168701","960","451.5","true","1","147.43200000000002","12.287999999999998","4","-1","-1","","","","","","","","","","","","",""
"psychophysics","21","249047","0.0-6.0-0.15","5e4ead217dd6be000d5a6140","609a8bf73b2ac84e2732f618","60a25786cfa46a1f5603f901","825.3749999857973","","","","37","","","","key","8.334490825688048","960","451.5","true","-1","135.144","12.287999999999998","4","-1","-1","","","","","","","","","","","","",""
"psychophysics","22","251161","0.0-6.0-0.16","5e4ead217dd6be000d5a6140","609a8bf73b2ac84e2732f618","60a25786cfa46a1f5603f901","1109.0299999923445","","","","37","","","","key","8.33180632411073","960","451.5","true","1","135.144","9.8304","5","1","-1","","","","","","","","","","","","",""
"psychophysics","23","254559","0.0-6.0-0.17","5e4ead217dd6be000d5a6140","609a8bf73b2ac84e2732f618","60a25786cfa46a1f5603f901","2396.984999999404","","","","37","","","","key","8.333384236453183","960","451.5","true","1","144.9744","9.8304","5","1","1","","","","","","","","","","","","",""
"psychophysics","24","255901","0.0-6.0-0.18","5e4ead217dd6be000d5a6140","609a8bf73b2ac84e2732f618","60a25786cfa46a1f5603f901","340.41000000433996","","","","39","","","","key","8.335143749999952","960","451.5","true","1","154.8048","9.8304","5","-1","1","","","","","","","","","","","","",""
"psychophysics","25","257552","0.0-6.0-0.19","5e4ead217dd6be000d5a6140","609a8bf73b2ac84e2732f618","60a25786cfa46a1f5603f901","649.4950000196695","","","","39","","","","key","8.334827411167565","960","451.5","true","1","154.8048","7.864319999999999","6","-1","-1","","","","","","","","","","","","",""
"psychophysics","26","259942","0.0-6.0-0.20","5e4ead217dd6be000d5a6140","609a8bf73b2ac84e2732f618","60a25786cfa46a1f5603f901","1387.799999996787","","","","39","","","","key","8.333590909090931","960","451.5","true","-1","146.94048","6.291456","7","1","-1","","","","","","","","","","","","",""
"psychophysics","27","261763","0.0-6.0-0.21","5e4ead217dd6be000d5a6140","609a8bf73b2ac84e2732f618","60a25786cfa46a1f5603f901","819.5550000236835","","","","37","","","","key","8.334495412843962","960","451.5","true","1","153.23193600000002","6.291456","7","1","1","","","","","","","","","","","","",""
"psychophysics","28","263188","0.0-6.0-0.22","5e4ead217dd6be000d5a6140","609a8bf73b2ac84e2732f618","60a25786cfa46a1f5603f901","419.56500001833774","","","","37","","","","key","8.331558823529358","960","451.5","true","-1","159.52339200000003","6.291456","7","-1","1","","","","","","","","","","","","",""
"psychophysics","29","264527","0.0-6.0-0.23","5e4ead217dd6be000d5a6140","609a8bf73b2ac84e2732f618","60a25786cfa46a1f5603f901","334.2000000120606","","","","37","","","","key","8.333187499999985","960","451.5","true","-1","159.52339200000003","5.033164800000001","8","-1","-1","","","","","","","","","","","","",""
"psychophysics","30","265885","0.0-6.0-0.24","5e4ead217dd6be000d5a6140","609a8bf73b2ac84e2732f618","60a25786cfa46a1f5603f901","356.62499998579733","","","","37","","","","key","8.330839506172602","960","451.5","true","-1","154.49022720000002","5.033164800000001","8","-1","-1","","","","","","","","","","","","",""
"psychophysics","31","267316","0.0-6.0-0.25","5e4ead217dd6be000d5a6140","609a8bf73b2ac84e2732f618","60a25786cfa46a1f5603f901","428.989999985788","","","","37","","","","key","8.330735294117853","960","451.5","true","-1","154.49022720000002","5.033164800000001","8","-1","-1","","","","","","","","","","","","",""
"psychophysics","32","268721","0.0-6.0-0.26","5e4ead217dd6be000d5a6140","609a8bf73b2ac84e2732f618","60a25786cfa46a1f5603f901","402.36500001628883","","","","37","","","","key","8.333244047619312","960","451.5","true","-1","149.4570624","5.033164800000001","8","-1","-1","","","","","","","","","","","","",""
"psychophysics","33","270008","0.0-6.0-0.27","5e4ead217dd6be000d5a6140","609a8bf73b2ac84e2732f618","60a25786cfa46a1f5603f901","282.09500000230037","","","","37","","","","key","8.333647058823594","960","451.5","true","-1","149.4570624","5.033164800000001","8","-1","-1","","","","","","","","","","","","",""
"psychophysics","34","271165","0.0-6.0-0.28","5e4ead217dd6be000d5a6140","609a8bf73b2ac84e2732f618","60a25786cfa46a1f5603f901","156.01999999489635","","","","39","","","","key","8.333391304347627","960","451.5","true","1","144.4238976","5.033164800000001","8","-1","-1","","","","","","","","","","","","",""
"psychophysics","35","272429","0.0-6.0-0.29","5e4ead217dd6be000d5a6140","609a8bf73b2ac84e2732f618","60a25786cfa46a1f5603f901","261.20500001707114","","","","39","","","","key","8.330211920529953","960","451.5","true","1","144.4238976","5.033164800000001","8","-1","-1","","","","","","","","","","","","",""
"psychophysics","36","274282","0.0-6.0-0.30","5e4ead217dd6be000d5a6140","609a8bf73b2ac84e2732f618","60a25786cfa46a1f5603f901","847.909999982221","","","","39","","","","key","8.33276470588221","960","451.5","true","1","139.3907328","5.033164800000001","8","-1","-1","","","","","","","","","","","","",""
"psychophysics","37","275745","0.0-6.0-0.31","5e4ead217dd6be000d5a6140","609a8bf73b2ac84e2732f618","60a25786cfa46a1f5603f901","460.7499999983702","","","","39","","","","key","8.333468571428675","960","451.5","true","-1","139.3907328","4.0265318400000005","9","1","-1","","","","","","","","","","","","",""
"psychophysics","38","277319","0.0-6.0-0.32","5e4ead217dd6be000d5a6140","609a8bf73b2ac84e2732f618","60a25786cfa46a1f5603f901","568.1000000040513","","","","39","","","","key","8.420327956989151","960","451.5","true","1","143.41726463999998","4.0265318400000005","9","-1","1","","","","","","","","","","","","",""
"psychophysics","39","278553","0.0-6.0-0.33","5e4ead217dd6be000d5a6140","609a8bf73b2ac84e2732f618","60a25786cfa46a1f5603f901","232.27000000770204","","","","37","","","","key","8.33370748299315","960","451.5","true","-1","143.41726463999998","3.2212254720000004","10","-1","-1","","","","","","","","","","","","",""
"psychophysics","40","280594","0.0-6.0-0.34","5e4ead217dd6be000d5a6140","609a8bf73b2ac84e2732f618","60a25786cfa46a1f5603f901","1039.375000022119","","","","37","","","","key","8.334454918032861","960","451.5","true","-1","140.19603916799997","3.2212254720000004","10","-1","-1","","","","","","","","","","","","",""
"psychophysics","41","282120","0.0-6.0-0.35","5e4ead217dd6be000d5a6140","609a8bf73b2ac84e2732f618","60a25786cfa46a1f5603f901","523.6450000084005","","","","39","","","","key","8.333939560439571","960","451.5","true","-1","140.19603916799997","2.5769803776000004","11","1","-1","","","","","","","","","","","","",""
"psychophysics","42","283840","0.0-6.0-0.36","5e4ead217dd6be000d5a6140","609a8bf73b2ac84e2732f618","60a25786cfa46a1f5603f901","718.7750000157394","","","","39","","","","key","8.332204878048847","960","451.5","true","-1","142.77301954559996","2.5769803776000004","11","1","1","","","","","","","","","","","","",""
"psychophysics","43","285285","0.0-6.0-0.37","5e4ead217dd6be000d5a6140","609a8bf73b2ac84e2732f618","60a25786cfa46a1f5603f901","442.9600000148639","","","","37","","","","key","8.333832369942348","960","451.5","true","-1","145.34999992319996","2.5769803776000004","11","-1","1","","","","","","","","","","","","",""
"psychophysics","44","286632","0.0-6.0-0.38","5e4ead217dd6be000d5a6140","609a8bf73b2ac84e2732f618","60a25786cfa46a1f5603f901","344.29999999701977","","","","39","","","","key","8.384044025157381","960","451.5","true","1","145.34999992319996","2.0615843020800004","12","-1","-1","","","","","","","","","","","","",""
"psychophysics","45","287930","0.0-6.0-0.39","5e4ead217dd6be000d5a6140","609a8bf73b2ac84e2732f618","60a25786cfa46a1f5603f901","296.0050000110641","","","","39","","","","key","8.3327096774194","960","451.5","true","1","143.28841562111995","2.0615843020800004","12","-1","-1","","","","","","","","","","","","",""
"html-keyboard-response","46","290708","0.0-7.0","5e4ead217dd6be000d5a6140","609a8bf73b2ac84e2732f618","60a25786cfa46a1f5603f901","2776.8550000037067","<p>Well Done !</p><p>Prepare for a new block.</p><p>DON'T EXIT THE FULL SCREEN MODE</p><p>Press the Spacebar to start.</p>","","","32","","","","","","","","","","","","","","","true","144.334777028608","","","","","","","","","","",""
"psychophysics","47","292545","0.0-8.0-0.0","5e4ead217dd6be000d5a6140","609a8bf73b2ac84e2732f618","60a25786cfa46a1f5603f901","827.465000009397","","","","37","","","","key","8.40932876712347","960","451.5","true","-1","180","30","0","-1","","","","","","","","","","","","","",""
"psychophysics","48","293902","0.0-8.0-0.1","5e4ead217dd6be000d5a6140","609a8bf73b2ac84e2732f618","60a25786cfa46a1f5603f901","351.29500000039116","","","","39","","","","key","8.332419753086144","960","451.5","true","1","180","30","0","-1","-1","","","","","","","","","","","","",""
"psychophysics","49","295071","0.0-8.0-0.2","5e4ead217dd6be000d5a6140","609a8bf73b2ac84e2732f618","60a25786cfa46a1f5603f901","162.3449999897275","","","","39","","","","key","8.333107913669245","960","451.5","true","1","150","30","0","-1","-1","","","","","","","","","","","","",""
"psychophysics","50","296347","0.0-8.0-0.3","5e4ead217dd6be000d5a6140","609a8bf73b2ac84e2732f618","60a25786cfa46a1f5603f901","272.00500000617467","","","","39","","","","key","8.332769736842142","960","451.5","true","1","150","30","0","-1","-1","","","","","","","","","","","","",""
"psychophysics","51","297456","0.0-8.0-0.4","5e4ead217dd6be000d5a6140","609a8bf73b2ac84e2732f618","60a25786cfa46a1f5603f901","106.13500000908971","","","","37","","","","key","8.334848484848573","960","451.5","true","-1","129","30","0","-1","-1","","","","","","","","","","","","",""
"psychophysics","52","299146","0.0-8.0-0.5","5e4ead217dd6be000d5a6140","609a8bf73b2ac84e2732f618","60a25786cfa46a1f5603f901","687.4050000042189","","","","39","","","","key","8.333985148514978","960","451.5","true","1","129","30","0","-1","-1","","","","","","","","","","","","",""
"psychophysics","53","300584","0.0-8.0-0.6","5e4ead217dd6be000d5a6140","609a8bf73b2ac84e2732f618","60a25786cfa46a1f5603f901","434.2250000045169","","","","37","","","","key","8.330093023255888","960","451.5","true","-1","129","30","0","-1","-1","","","","","","","","","","","","",""
"psychophysics","54","302143","0.0-8.0-0.7","5e4ead217dd6be000d5a6140","609a8bf73b2ac84e2732f618","60a25786cfa46a1f5603f901","551.0950000025332","","","","37","","","","key","8.331978494623458","960","451.5","true","-1","129","30","0","-1","-1","","","","","","","","","","","","",""
"psychophysics","55","303582","0.0-8.0-0.8","5e4ead217dd6be000d5a6140","609a8bf73b2ac84e2732f618","60a25786cfa46a1f5603f901","431.7000000155531","","","","39","","","","key","8.333070175438692","960","451.5","true","-1","129","24","1","1","-1","","","","","","","","","","","","",""
"psychophysics","56","304809","0.0-8.0-0.9","5e4ead217dd6be000d5a6140","609a8bf73b2ac84e2732f618","60a25786cfa46a1f5603f901","225.72999997646548","","","","39","","","","key","8.333530612244765","960","451.5","true","1","153","24","1","-1","1","","","","","","","","","","","","",""
"psychophysics","57","306152","0.0-8.0-0.10","5e4ead217dd6be000d5a6140","609a8bf73b2ac84e2732f618","60a25786cfa46a1f5603f901","336.03500001481734","","","","39","","","","key","8.33183124999996","960","451.5","true","1","153","19.2","2","-1","-1","","","","","","","","","","","","",""
"psychophysics","58","307845","0.0-8.0-0.11","5e4ead217dd6be000d5a6140","609a8bf73b2ac84e2732f618","60a25786cfa46a1f5603f901","687.065000005532","","","","37","","","","key","8.331950495049524","960","451.5","true","-1","133.8","19.2","2","-1","-1","","","","","","","","","","","","",""
"psychophysics","59","310110","0.0-8.0-0.12","5e4ead217dd6be000d5a6140","609a8bf73b2ac84e2732f618","60a25786cfa46a1f5603f901","1259.9000000045635","","","","39","","","","key","8.33182656826564","960","451.5","true","-1","133.8","15.36","3","1","-1","","","","","","","","","","","","",""
"psychophysics","60","311398","0.0-8.0-0.13","5e4ead217dd6be000d5a6140","609a8bf73b2ac84e2732f618","60a25786cfa46a1f5603f901","282.05499998875894","","","","39","","","","key","8.331771241830056","960","451.5","true","1","149.16000000000003","15.36","3","-1","1","","","","","","","","","","","","",""
"psychophysics","61","312935","0.0-8.0-0.14","5e4ead217dd6be000d5a6140","609a8bf73b2ac84e2732f618","60a25786cfa46a1f5603f901","535.1200000150129","","","","39","","","","key","8.334902173913218","960","451.5","true","1","149.16000000000003","12.287999999999998","4","-1","-1","","","","","","","","","","","","",""
"psychophysics","62","314878","0.0-8.0-0.15","5e4ead217dd6be000d5a6140","609a8bf73b2ac84e2732f618","60a25786cfa46a1f5603f901","939.9599999887869","","","","39","","","","key","8.331719827586344","960","451.5","true","-1","136.872","9.8304","5","1","-1","","","","","","","","","","","","",""
"psychophysics","63","316008","0.0-8.0-0.16","5e4ead217dd6be000d5a6140","609a8bf73b2ac84e2732f618","60a25786cfa46a1f5603f901","125.36499998532236","","","","37","","","","key","8.328385185185578","960","451.5","true","-1","146.7024","9.8304","5","-1","1","","","","","","","","","","","","",""
"psychophysics","64","317213","0.0-8.0-0.17","5e4ead217dd6be000d5a6140","609a8bf73b2ac84e2732f618","60a25786cfa46a1f5603f901","197.34499999321997","","","","39","","","","key","8.332608391608558","960","451.5","true","1","146.7024","7.864319999999999","6","-1","-1","","","","","","","","","","","","",""
"psychophysics","65","319182","0.0-8.0-0.18","5e4ead217dd6be000d5a6140","609a8bf73b2ac84e2732f618","60a25786cfa46a1f5603f901","966.0750000039116","","","","39","","","","key","8.333548936170297","960","451.5","true","-1","138.83808000000002","6.291456","7","1","-1","","","","","","","","","","","","",""
"psychophysics","66","320332","0.0-8.0-0.19","5e4ead217dd6be000d5a6140","609a8bf73b2ac84e2732f618","60a25786cfa46a1f5603f901","148.9700000092853","","","","39","","","","key","8.33820437956185","960","451.5","true","1","145.12953600000003","6.291456","7","-1","1","","","","","","","","","","","","",""
"psychophysics","67","321643","0.0-8.0-0.20","5e4ead217dd6be000d5a6140","609a8bf73b2ac84e2732f618","60a25786cfa46a1f5603f901","308.500000013737","","","","39","","","","key","8.333649681528488","960","451.5","true","1","145.12953600000003","5.033164800000001","8","-1","-1","","","","","","","","","","","","",""
"psychophysics","68","322944","0.0-8.0-0.21","5e4ead217dd6be000d5a6140","609a8bf73b2ac84e2732f618","60a25786cfa46a1f5603f901","299.4850000250153","","","","39","","","","key","8.33054838709706","960","451.5","true","1","140.09637120000002","5.033164800000001","8","-1","-1","","","","","","","","","","","","",""
"psychophysics","69","324260","0.0-8.0-0.22","5e4ead217dd6be000d5a6140","609a8bf73b2ac84e2732f618","60a25786cfa46a1f5603f901","310.9800000092946","","","","39","","","","key","8.334815286624151","960","451.5","true","-1","140.09637120000002","4.0265318400000005","9","1","-1","","","","","","","","","","","","",""
"psychophysics","70","325466","0.0-8.0-0.23","5e4ead217dd6be000d5a6140","609a8bf73b2ac84e2732f618","60a25786cfa46a1f5603f901","199.89499999792315","","","","37","","","","key","8.330972027972217","960","451.5","true","-1","144.12290304","4.0265318400000005","9","-1","1","","","","","","","","","","","","",""
"psychophysics","71","326639","0.0-8.0-0.24","5e4ead217dd6be000d5a6140","609a8bf73b2ac84e2732f618","60a25786cfa46a1f5603f901","172.40499999024905","","","","37","","","","key","8.333871428571209","960","451.5","true","-1","144.12290304","3.2212254720000004","10","-1","-1","","","","","","","","","","","","",""
"psychophysics","72","327735","0.0-8.0-0.25","5e4ead217dd6be000d5a6140","609a8bf73b2ac84e2732f618","60a25786cfa46a1f5603f901","94.50000000651926","","","","37","","","","key","8.333274809160192","960","451.5","true","-1","140.90167756800003","3.2212254720000004","10","-1","-1","","","","","","","","","","","","",""
"psychophysics","73","328988","0.0-8.0-0.26","5e4ead217dd6be000d5a6140","609a8bf73b2ac84e2732f618","60a25786cfa46a1f5603f901","247.44499998632818","","","","39","","","","key","8.33281879194609","960","451.5","true","1","140.90167756800003","3.2212254720000004","10","-1","-1","","","","","","","","","","","","",""
"psychophysics","74","331260","0.0-8.0-0.27","5e4ead217dd6be000d5a6140","609a8bf73b2ac84e2732f618","60a25786cfa46a1f5603f901","1268.8349999953061","","","","37","","","","key","8.333121323529399","960","451.5","true","1","137.680452096","2.5769803776000004","11","1","-1","","","","","","","","","","","","",""
"psychophysics","75","332543","0.0-8.0-0.28","5e4ead217dd6be000d5a6140","609a8bf73b2ac84e2732f618","60a25786cfa46a1f5603f901","278.0100000090897","","","","39","","","","key","8.335464052287588","960","451.5","true","1","140.2574324736","2.5769803776000004","11","-1","1","","","","","","","","","","","","",""
"psychophysics","76","333907","0.0-8.0-0.29","5e4ead217dd6be000d5a6140","609a8bf73b2ac84e2732f618","60a25786cfa46a1f5603f901","357.60999997728504","","","","39","","","","key","8.33268518518494","960","451.5","true","1","140.2574324736","2.0615843020800004","12","-1","-1","","","","","","","","","","","","",""
"psychophysics","77","335139","0.0-8.0-0.30","5e4ead217dd6be000d5a6140","609a8bf73b2ac84e2732f618","60a25786cfa46a1f5603f901","230.97500001313165","","","","37","","","","key","8.33335374149638","960","451.5","true","-1","138.19584817152","2.0615843020800004","12","-1","-1","","","","","","","","","","","","",""
"psychophysics","78","336923","0.0-8.0-0.31","5e4ead217dd6be000d5a6140","609a8bf73b2ac84e2732f618","60a25786cfa46a1f5603f901","781.6649999876972","","","","37","","","","key","8.333178403755888","960","451.5","true","1","138.19584817152","1.6492674416640005","13","1","-1","","","","","","","","","","","","",""
"psychophysics","79","339177","0.0-8.0-0.32","5e4ead217dd6be000d5a6140","609a8bf73b2ac84e2732f618","60a25786cfa46a1f5603f901","1253.3349999866914","","","","37","","","","key","8.334474074074144","960","451.5","true","1","139.845115613184","1.6492674416640005","13","1","1","","","","","","","","","","","","",""
"psychophysics","80","341154","0.0-8.0-0.33","5e4ead217dd6be000d5a6140","609a8bf73b2ac84e2732f618","60a25786cfa46a1f5603f901","971.9899999909103","","","","39","","","","key","8.332911016949318","960","451.5","true","-1","141.494383054848","1.6492674416640005","13","1","1","","","","","","","","","","","","",""
"psychophysics","81","343254","0.0-8.0-0.34","5e4ead217dd6be000d5a6140","609a8bf73b2ac84e2732f618","60a25786cfa46a1f5603f901","1098.5099999816157","","","","39","","","","key","8.331179282868483","960","451.5","true","1","143.14365049651198","1.6492674416640005","13","-1","1","","","","","","","","","","","","",""
"psychophysics","82","344830","0.0-8.0-0.35","5e4ead217dd6be000d5a6140","609a8bf73b2ac84e2732f618","60a25786cfa46a1f5603f901","572.6450000074692","","","","39","","","","key","8.332654255319094","960","451.5","true","-1","143.14365049651198","1.3194139533312006","14","1","-1","","","","","","","","","","","","",""
"psychophysics","83","347323","0.0-8.0-0.36","5e4ead217dd6be000d5a6140","609a8bf73b2ac84e2732f618","60a25786cfa46a1f5603f901","1491.0349999845494","","","","39","","","","key","8.334365771811896","960","451.5","true","-1","144.4630644498432","1.3194139533312006","14","1","1","","","","","","","","","","","","",""
"psychophysics","84","348658","0.0-8.0-0.37","5e4ead217dd6be000d5a6140","609a8bf73b2ac84e2732f618","60a25786cfa46a1f5603f901","333.5149999766145","","","","39","","","","key","8.332881249999991","960","451.5","true","1","145.7824784031744","1.3194139533312006","14","-1","1","","","","","","","","","","","","",""
"psychophysics","85","349775","0.0-8.0-0.38","5e4ead217dd6be000d5a6140","609a8bf73b2ac84e2732f618","60a25786cfa46a1f5603f901","110.35999999148771","","","","37","","","","key","8.331541353383686","960","451.5","true","-1","145.7824784031744","1.0555311626649604","15","-1","-1","","","","","","","","","","","","",""
"psychophysics","86","351052","0.0-8.0-0.39","5e4ead217dd6be000d5a6140","609a8bf73b2ac84e2732f618","60a25786cfa46a1f5603f901","269.91000000271015","","","","37","","","","key","8.335105263157809","960","451.5","true","-1","144.72694724050945","1.0555311626649604","15","-1","-1","","","","","","","","","","","","",""
"html-keyboard-response","87","352932","0.0-9.0","5e4ead217dd6be000d5a6140","609a8bf73b2ac84e2732f618","60a25786cfa46a1f5603f901","1878.6799999943469","<p>Well Done !</p><p>Prepare for a new block.</p><p>DON'T EXIT THE FULL SCREEN MODE</p><p>Press the Spacebar to start.</p>","","","32","","","","","","","","","","","","","","","true","141.65147577866648","","","","","","","","","","",""
"psychophysics","88","356327","0.0-10.0-0.0","5e4ead217dd6be000d5a6140","609a8bf73b2ac84e2732f618","60a25786cfa46a1f5603f901","2394.094999996014","","","","37","","","","key","8.33317444717448","960","451.5","true","-1","180","30","0","-1","","","","","","","","","","","","","",""
"psychophysics","89","359437","0.0-10.0-0.1","5e4ead217dd6be000d5a6140","609a8bf73b2ac84e2732f618","60a25786cfa46a1f5603f901","2109.1749999905005","","","","39","","","","key","8.33244892473111","960","451.5","true","1","180","30","0","-1","-1","","","","","","","","","","","","",""
"psychophysics","90","360733","0.0-10.0-0.2","5e4ead217dd6be000d5a6140","609a8bf73b2ac84e2732f618","60a25786cfa46a1f5603f901","293.3600000105798","","","","39","","","","key","8.332645161290307","960","451.5","true","1","150","30","0","-1","-1","","","","","","","","","","","","",""
"psychophysics","91","361892","0.0-10.0-0.3","5e4ead217dd6be000d5a6140","609a8bf73b2ac84e2732f618","60a25786cfa46a1f5603f901","158.3249999966938","","","","37","","","","key","8.333086956521425","960","451.5","true","-1","150","30","0","-1","-1","","","","","","","","","","","","",""
"psychophysics","92","363435","0.0-10.0-0.4","5e4ead217dd6be000d5a6140","609a8bf73b2ac84e2732f618","60a25786cfa46a1f5603f901","541.2300000025425","","","","39","","","","key","8.331472826086848","960","451.5","true","1","129","30","0","-1","-1","","","","","","","","","","","","",""
"psychophysics","93","364844","0.0-10.0-0.5","5e4ead217dd6be000d5a6140","609a8bf73b2ac84e2732f618","60a25786cfa46a1f5603f901","407.76000000187196","","","","37","","","","key","8.330190476190529","960","451.5","true","1","129","24","1","1","-1","","","","","","","","","","","","",""
"psychophysics","94","366126","0.0-10.0-0.6","5e4ead217dd6be000d5a6140","609a8bf73b2ac84e2732f618","60a25786cfa46a1f5603f901","280.98000001045875","","","","37","","","","key","8.333333333333334","960","451.5","true","-1","153","24","1","-1","1","","","","","","","","","","","","",""
"psychophysics","95","367471","0.0-10.0-0.7","5e4ead217dd6be000d5a6140","609a8bf73b2ac84e2732f618","60a25786cfa46a1f5603f901","343.02000000025146","","","","39","","","","key","8.330956249999872","960","451.5","true","1","153","19.2","2","-1","-1","","","","","","","","","","","","",""
"psychophysics","96","369443","0.0-10.0-0.8","5e4ead217dd6be000d5a6140","609a8bf73b2ac84e2732f618","60a25786cfa46a1f5603f901","970.6700000097044","","","","39","","","","key","8.333271186440685","960","451.5","true","1","133.8","19.2","2","-1","-1","","","","","","","","","","","","",""
"psychophysics","97","371390","0.0-10.0-0.9","5e4ead217dd6be000d5a6140","609a8bf73b2ac84e2732f618","60a25786cfa46a1f5603f901","945.7249999977648","","","","37","","","","key","8.332870689655026","960","451.5","true","-1","133.8","19.2","2","-1","-1","","","","","","","","","","","","",""
"psychophysics","98","373017","0.0-10.0-0.10","5e4ead217dd6be000d5a6140","609a8bf73b2ac84e2732f618","60a25786cfa46a1f5603f901","625.5649999948218","","","","37","","","","key","8.33411282051283","960","451.5","true","1","129","15.36","3","1","-1","","","","","","","","","","","","",""
"psychophysics","99","374439","0.0-10.0-0.11","5e4ead217dd6be000d5a6140","609a8bf73b2ac84e2732f618","60a25786cfa46a1f5603f901","421.0050000110641","","","","37","","","","key","8.332952662721723","960","451.5","true","-1","144.36","15.36","3","-1","1","","","","","","","","","","","","",""
"psychophysics","100","375844","0.0-10.0-0.12","5e4ead217dd6be000d5a6140","609a8bf73b2ac84e2732f618","60a25786cfa46a1f5603f901","402.9750000045169","","","","37","","","","key","8.333267857142866","960","451.5","true","-1","144.36","12.287999999999998","4","-1","-1","","","","","","","","","","","","",""
"psychophysics","101","377835","0.0-10.0-0.13","5e4ead217dd6be000d5a6140","609a8bf73b2ac84e2732f618","60a25786cfa46a1f5603f901","989.2650000110734","","","","39","","","","key","8.333428571428447","960","451.5","true","-1","132.072","9.8304","5","1","-1","","","","","","","","","","","","",""
"psychophysics","102","379432","0.0-10.0-0.14","5e4ead217dd6be000d5a6140","609a8bf73b2ac84e2732f618","60a25786cfa46a1f5603f901","595.9450000082143","","","","37","","","","key","8.329958115183231","960","451.5","true","-1","141.9024","9.8304","5","-1","1","","","","","","","","","","","","",""
"psychophysics","103","381672","0.0-10.0-0.15","5e4ead217dd6be000d5a6140","609a8bf73b2ac84e2732f618","60a25786cfa46a1f5603f901","1238.5950000025332","","","","37","","","","key","8.334543071161173","960","451.5","true","1","141.9024","7.864319999999999","6","1","-1","","","","","","","","","","","","",""
"psychophysics","104","382810","0.0-10.0-0.16","5e4ead217dd6be000d5a6140","609a8bf73b2ac84e2732f618","60a25786cfa46a1f5603f901","137.06499998806976","","","","37","","","","key","8.333419117647281","960","451.5","true","-1","149.76672","7.864319999999999","6","-1","1","","","","","","","","","","","","",""
"psychophysics","105","384057","0.0-10.0-0.17","5e4ead217dd6be000d5a6140","609a8bf73b2ac84e2732f618","60a25786cfa46a1f5603f901","246.05500002508052","","","","39","","","","key","8.332637583892776","960","451.5","true","1","149.76672","6.291456","7","-1","-1","","","","","","","","","","","","",""
"psychophysics","106","385322","0.0-10.0-0.18","5e4ead217dd6be000d5a6140","609a8bf73b2ac84e2732f618","60a25786cfa46a1f5603f901","263.9199999975972","","","","39","","","","key","8.333253333333413","960","451.5","true","1","143.47526399999998","6.291456","7","-1","-1","","","","","","","","","","","","",""
"psychophysics","107","386596","0.0-10.0-0.19","5e4ead217dd6be000d5a6140","609a8bf73b2ac84e2732f618","60a25786cfa46a1f5603f901","272.7100000192877","","","","39","","","","key","8.333618421052769","960","451.5","true","1","143.47526399999998","6.291456","7","-1","-1","","","","","","","","","","","","",""
"psychophysics","108","388184","0.0-10.0-0.20","5e4ead217dd6be000d5a6140","609a8bf73b2ac84e2732f618","60a25786cfa46a1f5603f901","586.4700000092853","","","","37","","","","key","8.334026315789302","960","451.5","true","1","137.18380799999997","5.033164800000001","8","1","-1","","","","","","","","","","","","",""
"psychophysics","109","389806","0.0-10.0-0.21","5e4ead217dd6be000d5a6140","609a8bf73b2ac84e2732f618","60a25786cfa46a1f5603f901","620.0200000021141","","","","39","","","","key","8.332777202072664","960","451.5","true","1","142.21697279999998","5.033164800000001","8","-1","1","","","","","","","","","","","","",""
"psychophysics","110","391161","0.0-10.0-0.22","5e4ead217dd6be000d5a6140","609a8bf73b2ac84e2732f618","60a25786cfa46a1f5603f901","353.5249999840744","","","","37","","","","key","8.333129629629655","960","451.5","true","-1","142.21697279999998","4.0265318400000005","9","-1","-1","","","","","","","","","","","","",""
"psychophysics","111","392563","0.0-10.0-0.23","5e4ead217dd6be000d5a6140","609a8bf73b2ac84e2732f618","60a25786cfa46a1f5603f901","400.89000001898967","","","","39","","","","key","8.330850299401417","960","451.5","true","1","138.19044096","4.0265318400000005","9","-1","-1","","","","","","","","","","","","",""
"psychophysics","112","394041","0.0-10.0-0.24","5e4ead217dd6be000d5a6140","609a8bf73b2ac84e2732f618","60a25786cfa46a1f5603f901","476.53499999432825","","","","39","","","","key","8.334853107344799","960","451.5","true","-1","138.19044096","3.2212254720000004","10","1","-1","","","","","","","","","","","","",""
"psychophysics","113","395426","0.0-10.0-0.25","5e4ead217dd6be000d5a6140","609a8bf73b2ac84e2732f618","60a25786cfa46a1f5603f901","383.4550000028685","","","","39","","","","key","8.330296969697034","960","451.5","true","1","141.411666432","3.2212254720000004","10","-1","1","","","","","","","","","","","","",""
"psychophysics","114","397081","0.0-10.0-0.26","5e4ead217dd6be000d5a6140","609a8bf73b2ac84e2732f618","60a25786cfa46a1f5603f901","653.4400000236928","","","","39","","","","key","8.33277157360397","960","451.5","true","1","141.411666432","2.5769803776000004","11","-1","-1","","","","","","","","","","","","",""
"psychophysics","115","398684","0.0-10.0-0.27","5e4ead217dd6be000d5a6140","609a8bf73b2ac84e2732f618","60a25786cfa46a1f5603f901","601.3850000163075","","","","37","","","","key","8.332781249999849","960","451.5","true","1","138.8346860544","2.0615843020800004","12","1","-1","","","","","","","","","","","","",""
"psychophysics","116","400482","0.0-10.0-0.28","5e4ead217dd6be000d5a6140","609a8bf73b2ac84e2732f618","60a25786cfa46a1f5603f901","796.4649999921676","","","","39","","","","key","8.332330232558144","960","451.5","true","-1","140.89627035648002","2.0615843020800004","12","1","1","","","","","","","","","","","","",""
"psychophysics","117","402297","0.0-10.0-0.29","5e4ead217dd6be000d5a6140","609a8bf73b2ac84e2732f618","60a25786cfa46a1f5603f901","814.4499999762047","","","","39","","","","key","8.333796296296457","960","451.5","true","-1","142.95785465856002","2.0615843020800004","12","1","1","","","","","","","","","","","","",""
"psychophysics","118","403720","0.0-10.0-0.30","5e4ead217dd6be000d5a6140","609a8bf73b2ac84e2732f618","60a25786cfa46a1f5603f901","420.8099999814294","","","","37","","","","key","8.332847058823715","960","451.5","true","-1","145.01943896064003","2.0615843020800004","12","-1","1","","","","","","","","","","","","",""
"psychophysics","119","404982","0.0-10.0-0.31","5e4ead217dd6be000d5a6140","609a8bf73b2ac84e2732f618","60a25786cfa46a1f5603f901","261.02499998523854","","","","37","","","","key","8.332695364238177","960","451.5","true","-1","145.01943896064003","1.6492674416640005","13","-1","-1","","","","","","","","","","","","",""
"psychophysics","120","406340","0.0-10.0-0.32","5e4ead217dd6be000d5a6140","609a8bf73b2ac84e2732f618","60a25786cfa46a1f5603f901","356.31000000284985","","","","37","","","","key","8.383024844720595","960","451.5","true","-1","143.37017151897604","1.6492674416640005","13","-1","-1","","","","","","","","","","","","",""
"psychophysics","121","407712","0.0-10.0-0.33","5e4ead217dd6be000d5a6140","609a8bf73b2ac84e2732f618","60a25786cfa46a1f5603f901","370.2799999737181","","","","37","","","","key","8.333889570552142","960","451.5","true","-1","143.37017151897604","1.6492674416640005","13","-1","-1","","","","","","","","","","","","",""
"psychophysics","122","409279","0.0-10.0-0.34","5e4ead217dd6be000d5a6140","609a8bf73b2ac84e2732f618","60a25786cfa46a1f5603f901","566.5450000087731","","","","39","","","","key","8.332903743315336","960","451.5","true","1","141.72090407731204","1.6492674416640005","13","-1","-1","","","","","","","","","","","","",""
"psychophysics","123","410626","0.0-10.0-0.35","5e4ead217dd6be000d5a6140","609a8bf73b2ac84e2732f618","60a25786cfa46a1f5603f901","345.33499999088235","","","","37","","","","key","8.333099378881721","960","451.5","true","-1","141.72090407731204","1.6492674416640005","13","-1","-1","","","","","","","","","","","","",""
"psychophysics","124","412018","0.0-10.0-0.36","5e4ead217dd6be000d5a6140","609a8bf73b2ac84e2732f618","60a25786cfa46a1f5603f901","391.364999988582","","","","39","","","","key","8.33265060240982","960","451.5","true","1","140.07163663564805","1.6492674416640005","13","-1","-1","","","","","","","","","","","","",""
"psychophysics","125","413375","0.0-10.0-0.37","5e4ead217dd6be000d5a6140","609a8bf73b2ac84e2732f618","60a25786cfa46a1f5603f901","355.8400000038091","","","","39","","","","key","8.333259259259334","960","451.5","true","1","140.07163663564805","1.6492674416640005","13","-1","-1","","","","","","","","","","","","",""
"psychophysics","126","414755","0.0-10.0-0.38","5e4ead217dd6be000d5a6140","609a8bf73b2ac84e2732f618","60a25786cfa46a1f5603f901","378.82499999250285","","","","37","","","","key","8.332109756097651","960","451.5","true","-1","138.42236919398405","1.6492674416640005","13","-1","-1","","","","","","","","","","","","",""
"psychophysics","127","416566","0.0-10.0-0.39","5e4ead217dd6be000d5a6140","609a8bf73b2ac84e2732f618","60a25786cfa46a1f5603f901","810.4250000033062","","","","37","","","","key","8.333677419354819","960","451.5","true","-1","138.42236919398405","1.6492674416640005","13","-1","-1","","","","","","","","","","","","",""
"html-keyboard-response","128","419191","0.0-11.0","5e4ead217dd6be000d5a6140","609a8bf73b2ac84e2732f618","60a25786cfa46a1f5603f901","2624.259999982314","<p>Well Done !</p><p>Prepare for a new block.</p><p>DON'T EXIT THE FULL SCREEN MODE</p><p>Press the Spacebar to start.</p>","","","32","","","","","","","","","","","","","","","true","141.51474564710404","","","","","","","","","","",""
"psychophysics","129","421331","0.0-12.0-0.0","5e4ead217dd6be000d5a6140","609a8bf73b2ac84e2732f618","60a25786cfa46a1f5603f901","1137.365000002319","","","","39","","","","key","8.3332490272372","960","451.5","true","1","180","30","0","-1","","","","","","","","","","","","","",""
"psychophysics","130","422526","0.0-12.0-0.1","5e4ead217dd6be000d5a6140","609a8bf73b2ac84e2732f618","60a25786cfa46a1f5603f901","192.204999999376","","","","39","","","","key","8.333049295774684","960","451.5","true","1","180","30","0","-1","-1","","","","","","","","","","","","",""
"psychophysics","131","423623","0.0-12.0-0.2","5e4ead217dd6be000d5a6140","609a8bf73b2ac84e2732f618","60a25786cfa46a1f5603f901","92.57499998784624","","","","37","","","","key","8.327839694656822","960","451.5","true","-1","150","30","0","-1","-1","","","","","","","","","","","","",""
"psychophysics","132","424860","0.0-12.0-0.3","5e4ead217dd6be000d5a6140","609a8bf73b2ac84e2732f618","60a25786cfa46a1f5603f901","231.9149999821093","","","","37","","","","key","8.332965986394532","960","451.5","true","-1","150","30","0","-1","-1","","","","","","","","","","","","",""
"psychophysics","133","426827","0.0-12.0-0.4","5e4ead217dd6be000d5a6140","609a8bf73b2ac84e2732f618","60a25786cfa46a1f5603f901","963.3350000076462","","","","37","","","","key","8.333353191489314","960","451.5","true","-1","129","30","0","-1","-1","","","","","","","","","","","","",""
"psychophysics","134","428628","0.0-12.0-0.5","5e4ead217dd6be000d5a6140","609a8bf73b2ac84e2732f618","60a25786cfa46a1f5603f901","797.5699999951757","","","","39","","","","key","8.332883720930266","960","451.5","true","1","129","30","0","-1","-1","","","","","","","","","","","","",""
"psychophysics","135","430381","0.0-12.0-0.6","5e4ead217dd6be000d5a6140","609a8bf73b2ac84e2732f618","60a25786cfa46a1f5603f901","750.9399999980815","","","","37","","","","key","8.332980952381122","960","451.5","true","1","129","24","1","1","-1","","","","","","","","","","","","",""
"psychophysics","136","431600","0.0-12.0-0.7","5e4ead217dd6be000d5a6140","609a8bf73b2ac84e2732f618","60a25786cfa46a1f5603f901","212.35499999602325","","","","37","","","","key","8.329413793103544","960","451.5","true","-1","153","24","1","-1","1","","","","","","","","","","","","",""
"psychophysics","137","432944","0.0-12.0-0.8","5e4ead217dd6be000d5a6140","609a8bf73b2ac84e2732f618","60a25786cfa46a1f5603f901","338.9200000092387","","","","37","","","","key","8.33269375000018","960","451.5","true","-1","153","19.2","2","-1","-1","","","","","","","","","","","","",""
"psychophysics","138","435248","0.0-12.0-0.9","5e4ead217dd6be000d5a6140","609a8bf73b2ac84e2732f618","60a25786cfa46a1f5603f901","1301.340000005439","","","","37","","","","key","8.333177536231865","960","451.5","true","1","133.8","15.36","3","1","-1","","","","","","","","","","","","",""
"psychophysics","139","436548","0.0-12.0-0.10","5e4ead217dd6be000d5a6140","609a8bf73b2ac84e2732f618","60a25786cfa46a1f5603f901","293.134999985341","","","","37","","","","key","8.332625806451805","960","451.5","true","-1","149.16000000000003","15.36","3","-1","1","","","","","","","","","","","","",""
"psychophysics","140","437797","0.0-12.0-0.11","5e4ead217dd6be000d5a6140","609a8bf73b2ac84e2732f618","60a25786cfa46a1f5603f901","242.2050000168383","","","","37","","","","key","8.331120805369125","960","451.5","true","-1","149.16000000000003","12.287999999999998","4","-1","-1","","","","","","","","","","","","",""
"psychophysics","141","439797","0.0-12.0-0.12","5e4ead217dd6be000d5a6140","609a8bf73b2ac84e2732f618","60a25786cfa46a1f5603f901","992.1500000054948","","","","37","","","","key","8.331414225941357","960","451.5","true","1","136.872","9.8304","5","1","-1","","","","","","","","","","","","",""
"psychophysics","142","441089","0.0-12.0-0.13","5e4ead217dd6be000d5a6140","609a8bf73b2ac84e2732f618","60a25786cfa46a1f5603f901","284.54499997314997","","","","37","","","","key","8.33316233766253","960","451.5","true","-1","146.7024","9.8304","5","-1","1","","","","","","","","","","","","",""
"psychophysics","143","442457","0.0-12.0-0.14","5e4ead217dd6be000d5a6140","609a8bf73b2ac84e2732f618","60a25786cfa46a1f5603f901","363.4299999976065","","","","39","","","","key","8.332987730061362","960","451.5","true","1","146.7024","7.864319999999999","6","-1","-1","","","","","","","","","","","","",""
"psychophysics","144","444131","0.0-12.0-0.15","5e4ead217dd6be000d5a6140","609a8bf73b2ac84e2732f618","60a25786cfa46a1f5603f901","668.0050000140909","","","","39","","","","key","8.333125","960","451.5","true","1","138.83808000000002","7.864319999999999","6","-1","-1","","","","","","","","","","","","",""
"psychophysics","145","445895","0.0-12.0-0.16","5e4ead217dd6be000d5a6140","609a8bf73b2ac84e2732f618","60a25786cfa46a1f5603f901","762.5200000184122","","","","39","","","","key","8.332966666666437","960","451.5","true","1","138.83808000000002","7.864319999999999","6","-1","-1","","","","","","","","","","","","",""
"psychophysics","146","448024","0.0-12.0-0.17","5e4ead217dd6be000d5a6140","609a8bf73b2ac84e2732f618","60a25786cfa46a1f5603f901","1127.4299999931827","","","","39","","","","key","8.333513725490318","960","451.5","true","1","130.97376000000003","7.864319999999999","6","-1","-1","","","","","","","","","","","","",""
"psychophysics","147","449991","0.0-12.0-0.18","5e4ead217dd6be000d5a6140","609a8bf73b2ac84e2732f618","60a25786cfa46a1f5603f901","961.4000000001397","","","","39","","","","key","8.333293617021123","960","451.5","true","-1","130.97376000000003","6.291456","7","1","-1","","","","","","","","","","","","",""
"psychophysics","148","451514","0.0-12.0-0.19","5e4ead217dd6be000d5a6140","609a8bf73b2ac84e2732f618","60a25786cfa46a1f5603f901","518.0499999842141","","","","37","","","","key","8.331142857143076","960","451.5","true","1","137.26521600000004","6.291456","7","1","1","","","","","","","","","","","","",""
"psychophysics","149","452893","0.0-12.0-0.20","5e4ead217dd6be000d5a6140","609a8bf73b2ac84e2732f618","60a25786cfa46a1f5603f901","372.4899999797344","","","","37","","","","key","8.331786585365856","960","451.5","true","-1","143.55667200000005","6.291456","7","-1","1","","","","","","","","","","","","",""
"psychophysics","150","454459","0.0-12.0-0.21","5e4ead217dd6be000d5a6140","609a8bf73b2ac84e2732f618","60a25786cfa46a1f5603f901","563.4549999958836","","","","37","","","","key","8.333203208555883","960","451.5","true","1","143.55667200000005","5.033164800000001","8","1","-1","","","","","","","","","","","","",""
"psychophysics","151","455855","0.0-12.0-0.22","5e4ead217dd6be000d5a6140","609a8bf73b2ac84e2732f618","60a25786cfa46a1f5603f901","392.13000002200715","","","","37","","","","key","8.332724550898218","960","451.5","true","-1","148.58983680000006","5.033164800000001","8","-1","1","","","","","","","","","","","","",""
"psychophysics","152","457275","0.0-12.0-0.23","5e4ead217dd6be000d5a6140","609a8bf73b2ac84e2732f618","60a25786cfa46a1f5603f901","414.0250000054948","","","","37","","","","key","8.33392307692319","960","451.5","true","-1","148.58983680000006","4.0265318400000005","9","-1","-1","","","","","","","","","","","","",""
"psychophysics","153","458439","0.0-12.0-0.24","5e4ead217dd6be000d5a6140","609a8bf73b2ac84e2732f618","60a25786cfa46a1f5603f901","160.10999999707565","","","","39","","","","key","8.331920863309266","960","451.5","true","1","144.56330496000007","4.0265318400000005","9","-1","-1","","","","","","","","","","","","",""
"psychophysics","154","459705","0.0-12.0-0.25","5e4ead217dd6be000d5a6140","609a8bf73b2ac84e2732f618","60a25786cfa46a1f5603f901","258.87499999953434","","","","37","","","","key","8.331609271523398","960","451.5","true","-1","144.56330496000007","4.0265318400000005","9","-1","-1","","","","","","","","","","","","",""
"psychophysics","155","461311","0.0-12.0-0.26","5e4ead217dd6be000d5a6140","609a8bf73b2ac84e2732f618","60a25786cfa46a1f5603f901","599.3949999974575","","","","39","","","","key","8.333094240837616","960","451.5","true","-1","140.53677312000008","3.2212254720000004","10","1","-1","","","","","","","","","","","","",""
"psychophysics","156","462480","0.0-12.0-0.27","5e4ead217dd6be000d5a6140","609a8bf73b2ac84e2732f618","60a25786cfa46a1f5603f901","167.49500000150874","","","","39","","","","key","8.333407142857322","960","451.5","true","1","143.7579985920001","3.2212254720000004","10","-1","1","","","","","","","","","","","","",""
"psychophysics","157","463859","0.0-12.0-0.28","5e4ead217dd6be000d5a6140","609a8bf73b2ac84e2732f618","60a25786cfa46a1f5603f901","372.0000000030268","","","","39","","","","key","8.33320121951231","960","451.5","true","1","143.7579985920001","2.5769803776000004","11","-1","-1","","","","","","","","","","","","",""
"psychophysics","158","465713","0.0-12.0-0.29","5e4ead217dd6be000d5a6140","609a8bf73b2ac84e2732f618","60a25786cfa46a1f5603f901","851.0949999908917","","","","39","","","","key","8.332711711711815","960","451.5","true","1","141.1810182144001","2.5769803776000004","11","-1","-1","","","","","","","","","","","","",""
"psychophysics","159","467075","0.0-12.0-0.30","5e4ead217dd6be000d5a6140","609a8bf73b2ac84e2732f618","60a25786cfa46a1f5603f901","354.0099999809172","","","","37","","","","key","8.331172839506317","960","451.5","true","1","141.1810182144001","2.0615843020800004","12","1","-1","","","","","","","","","","","","",""
"psychophysics","160","468765","0.0-12.0-0.31","5e4ead217dd6be000d5a6140","609a8bf73b2ac84e2732f618","60a25786cfa46a1f5603f901","685.9349999867845","","","","37","","","","key","8.33267326732679","960","451.5","true","-1","143.2426025164801","2.0615843020800004","12","-1","1","","","","","","","","","","","","",""
"psychophysics","161","470723","0.0-12.0-0.32","5e4ead217dd6be000d5a6140","609a8bf73b2ac84e2732f618","60a25786cfa46a1f5603f901","952.4900000251364","","","","39","","","","key","8.332769230769303","960","451.5","true","-1","143.2426025164801","1.6492674416640005","13","1","-1","","","","","","","","","","","","",""
"psychophysics","162","471996","0.0-12.0-0.33","5e4ead217dd6be000d5a6140","609a8bf73b2ac84e2732f618","60a25786cfa46a1f5603f901","269.09499999601394","","","","39","","","","key","8.333184210526126","960","451.5","true","1","144.8918699581441","1.6492674416640005","13","-1","1","","","","","","","","","","","","",""
"psychophysics","163","473325","0.0-12.0-0.34","5e4ead217dd6be000d5a6140","609a8bf73b2ac84e2732f618","60a25786cfa46a1f5603f901","323.7700000172481","","","","37","","","","key","8.332924050632629","960","451.5","true","-1","144.8918699581441","1.3194139533312006","14","-1","-1","","","","","","","","","","","","",""
"psychophysics","164","474622","0.0-12.0-0.35","5e4ead217dd6be000d5a6140","609a8bf73b2ac84e2732f618","60a25786cfa46a1f5603f901","293.4499999973923","","","","37","","","","key","8.33249677419362","960","451.5","true","-1","143.5724560048129","1.3194139533312006","14","-1","-1","","","","","","","","","","","","",""
"psychophysics","165","475894","0.0-12.0-0.36","5e4ead217dd6be000d5a6140","609a8bf73b2ac84e2732f618","60a25786cfa46a1f5603f901","265.3799999970943","","","","39","","","","key","8.331410596026524","960","451.5","true","1","143.5724560048129","1.3194139533312006","14","-1","-1","","","","","","","","","","","","",""
"psychophysics","166","478205","0.0-12.0-0.37","5e4ead217dd6be000d5a6140","609a8bf73b2ac84e2732f618","60a25786cfa46a1f5603f901","1309.6399999922141","","","","37","","","","key","8.333368231046908","960","451.5","true","-1","142.25304205148169","1.3194139533312006","14","-1","-1","","","","","","","","","","","","",""
"psychophysics","167","480074","0.0-12.0-0.38","5e4ead217dd6be000d5a6140","609a8bf73b2ac84e2732f618","60a25786cfa46a1f5603f901","867.2499999811407","","","","37","","","","key","8.332834080717529","960","451.5","true","-1","142.25304205148169","1.3194139533312006","14","-1","-1","","","","","","","","","","","","",""
"psychophysics","168","481320","0.0-12.0-0.39","5e4ead217dd6be000d5a6140","609a8bf73b2ac84e2732f618","60a25786cfa46a1f5603f901","242.18499998096377","","","","39","","","","key","8.330577181208014","960","451.5","true","1","140.93362809815048","1.3194139533312006","14","-1","-1","","","","","","","","","","","","",""
"html-keyboard-response","169","491254","0.0-13.0","5e4ead217dd6be000d5a6140","609a8bf73b2ac84e2732f618","60a25786cfa46a1f5603f901","9932.34499997925","<p>Well Done !</p><p>Prepare for a new block.</p><p>DON'T EXIT THE FULL SCREEN MODE</p><p>Press the Spacebar to start.</p>","","","32","","","","","","","","","","","","","","","true","142.9221120568526","","","","","","","","","","",""
"html-keyboard-response","170","491356","0.0-14.0","5e4ead217dd6be000d5a6140","609a8bf73b2ac84e2732f618","60a25786cfa46a1f5603f901","null","","","","null","","","","","","","","","","","","","","","","","142.60577762780778","true","157.21155525561556","","","","","","","",""
"instructions","171","523060","0.0-15.0","5e4ead217dd6be000d5a6140","609a8bf73b2ac84e2732f618","60a25786cfa46a1f5603f901","31702.53499998944","","","","","","","[{""page_index"":0,""viewing_time"":24937.860000005458},{""page_index"":1,""viewing_time"":3148.059999977704},{""page_index"":2,""viewing_time"":3616.280000016559}]","","","","","","","","","","","","","","","","","","","","","","","",""
"psychophysics","172","526271","0.0-16.0-0.0","5e4ead217dd6be000d5a6140","609a8bf73b2ac84e2732f618","60a25786cfa46a1f5603f901","null","","","","null","","","","key","8.333659722222365","960","451.5","","","","","","","","","","","","","","","","","","","",""
"psychophysics","173","526774","0.0-16.0-1.0","5e4ead217dd6be000d5a6140","609a8bf73b2ac84e2732f618","60a25786cfa46a1f5603f901","null","","","","null","","","","key","8.333033898304674","960","451.5","","","","","","","","","","","","","157","-1","6","false","","","",""
"psychophysics","174","527388","0.0-16.0-2.0","5e4ead217dd6be000d5a6140","609a8bf73b2ac84e2732f618","60a25786cfa46a1f5603f901","611.8900000001304","","","","90","","","","key","8.333890410958254","960","451.5","","","","","","","","","","","","","","","","","","","",""
"psychophysics","175","528082","0.0-16.0-0.1","5e4ead217dd6be000d5a6140","609a8bf73b2ac84e2732f618","60a25786cfa46a1f5603f901","null","","","","null","","","","key","8.333487804878287","960","451.5","","","","","","","","","","","","","","","","","","","",""
"psychophysics","176","528584","0.0-16.0-1.1","5e4ead217dd6be000d5a6140","609a8bf73b2ac84e2732f618","60a25786cfa46a1f5603f901","null","","","","null","","","","key","8.331830508474228","960","451.5","","","","","","","","","","","","","157","-1","0","false","","","",""
"psychophysics","177","529799","0.0-16.0-2.1","5e4ead217dd6be000d5a6140","609a8bf73b2ac84e2732f618","60a25786cfa46a1f5603f901","1212.9899999999907","","","","90","","","","key","8.333475862069312","960","451.5","","","","","","","","","","","","","","","","","","","",""
"psychophysics","178","530791","0.0-16.0-0.2","5e4ead217dd6be000d5a6140","609a8bf73b2ac84e2732f618","60a25786cfa46a1f5603f901","null","","","","null","","","","key","8.332889830508128","960","451.5","","","","","","","","","","","","","","","","","","","",""
"psychophysics","179","531292","0.0-16.0-1.2","5e4ead217dd6be000d5a6140","609a8bf73b2ac84e2732f618","60a25786cfa46a1f5603f901","null","","","","null","","","","key","8.33298305084858","960","451.5","","","","","","","","","","","","","157","-1","2","false","","","",""
"psychophysics","180","531784","0.0-16.0-2.2","5e4ead217dd6be000d5a6140","609a8bf73b2ac84e2732f618","60a25786cfa46a1f5603f901","489.9100000038743","","","","90","","","","key","8.334379310346337","960","451.5","","","","","","","","","","","","","","","","","","","",""
"psychophysics","181","532535","0.0-16.0-0.3","5e4ead217dd6be000d5a6140","609a8bf73b2ac84e2732f618","60a25786cfa46a1f5603f901","null","","","","null","","","","key","8.33717977528047","960","451.5","","","","","","","","","","","","","","","","","","","",""
"psychophysics","182","533037","0.0-16.0-1.3","5e4ead217dd6be000d5a6140","609a8bf73b2ac84e2732f618","60a25786cfa46a1f5603f901","null","","","","null","","","","key","8.331366666666387","960","451.5","","","","","","","","","","","","","157","-1","5","false","","","",""
"psychophysics","183","533467","0.0-16.0-2.3","5e4ead217dd6be000d5a6140","609a8bf73b2ac84e2732f618","60a25786cfa46a1f5603f901","426.500000001397","","","","90","","","","key","8.33311999999918","960","451.5","","","","","","","","","","","","","","","","","","","",""
"psychophysics","184","534048","0.0-16.0-0.4","5e4ead217dd6be000d5a6140","609a8bf73b2ac84e2732f618","60a25786cfa46a1f5603f901","null","","","","null","","","","key","8.327985507245446","960","451.5","","","","","","","","","","","","","","","","","","","",""
"psychophysics","185","534551","0.0-16.0-1.4","5e4ead217dd6be000d5a6140","609a8bf73b2ac84e2732f618","60a25786cfa46a1f5603f901","null","","","","null","","","","key","8.330355932202064","960","451.5","","","","","","","","","","","","","157","1","2","false","","","",""
"psychophysics","186","535146","0.0-16.0-2.4","5e4ead217dd6be000d5a6140","609a8bf73b2ac84e2732f618","60a25786cfa46a1f5603f901","591.374999989057","","","","90","","","","key","8.333873239436029","960","451.5","","","","","","","","","","","","","","","","","","","",""
"psychophysics","187","536095","0.0-16.0-0.5","5e4ead217dd6be000d5a6140","609a8bf73b2ac84e2732f618","60a25786cfa46a1f5603f901","null","","","","null","","","","key","8.332580357143472","960","451.5","","","","","","","","","","","","","","","","","","","",""
"psychophysics","188","536597","0.0-16.0-1.5","5e4ead217dd6be000d5a6140","609a8bf73b2ac84e2732f618","60a25786cfa46a1f5603f901","null","","","","null","","","","key","8.32445000000104","960","451.5","","","","","","","","","","","","","157","1","4","false","","","",""
"psychophysics","189","536669","0.0-16.0-2.5","5e4ead217dd6be000d5a6140","609a8bf73b2ac84e2732f618","60a25786cfa46a1f5603f901","69.79500001762062","","","","90","","","","key","8.333999999998403","960","451.5","","","","","","","","","","","","","","","","","","","",""
"psychophysics","190","537870","0.0-16.0-0.6","5e4ead217dd6be000d5a6140","609a8bf73b2ac84e2732f618","60a25786cfa46a1f5603f901","null","","","","null","","","","key","8.333173611110801","960","451.5","","","","","","","","","","","","","","","","","","","",""
"psychophysics","191","538377","0.0-16.0-1.6","5e4ead217dd6be000d5a6140","609a8bf73b2ac84e2732f618","60a25786cfa46a1f5603f901","null","","","","null","","","","key","8.334559322032936","960","451.5","","","","","","","","","","","","","157","1","5","false","","","",""
"psychophysics","192","539154","0.0-16.0-2.6","5e4ead217dd6be000d5a6140","609a8bf73b2ac84e2732f618","60a25786cfa46a1f5603f901","774.875000002794","","","","90","","","","key","8.333494623656064","960","451.5","","","","","","","","","","","","","","","","","","","",""
"psychophysics","193","540112","0.0-16.0-0.7","5e4ead217dd6be000d5a6140","609a8bf73b2ac84e2732f618","60a25786cfa46a1f5603f901","null","","","","null","","","","key","8.332052631579389","960","451.5","","","","","","","","","","","","","","","","","","","",""
"psychophysics","194","540619","0.0-16.0-1.7","5e4ead217dd6be000d5a6140","609a8bf73b2ac84e2732f618","60a25786cfa46a1f5603f901","null","","","","null","","","","key","8.32705084745717","960","451.5","","","","","","","","","","","","","157","1","6","false","","","",""
"psychophysics","195","541398","0.0-16.0-2.7","5e4ead217dd6be000d5a6140","609a8bf73b2ac84e2732f618","60a25786cfa46a1f5603f901","775.8499999763444","","","","90","","","","key","8.335387096774104","960","451.5","","","","","","","","","","","","","","","","","","","",""
"psychophysics","196","542486","0.0-16.0-0.8","5e4ead217dd6be000d5a6140","609a8bf73b2ac84e2732f618","60a25786cfa46a1f5603f901","null","","","","null","","","","key","8.33893023255866","960","451.5","","","","","","","","","","","","","","","","","","","",""
"psychophysics","197","542993","0.0-16.0-1.8","5e4ead217dd6be000d5a6140","609a8bf73b2ac84e2732f618","60a25786cfa46a1f5603f901","null","","","","null","","","","key","8.330916666668296","960","451.5","","","","","","","","","","","","","157","1","0","false","","","",""
"psychophysics","198","544320","0.0-16.0-2.8","5e4ead217dd6be000d5a6140","609a8bf73b2ac84e2732f618","60a25786cfa46a1f5603f901","1324.9050000158604","","","","90","","","","key","8.333547169811228","960","451.5","","","","","","","","","","","","","","","","","","","",""
"psychophysics","199","545185","0.0-16.0-0.9","5e4ead217dd6be000d5a6140","609a8bf73b2ac84e2732f618","60a25786cfa46a1f5603f901","null","","","","null","","","","key","8.334117647058413","960","451.5","","","","","","","","","","","","","","","","","","","",""
"psychophysics","200","545686","0.0-16.0-1.9","5e4ead217dd6be000d5a6140","609a8bf73b2ac84e2732f618","60a25786cfa46a1f5603f901","null","","","","null","","","","key","8.334400000000217","960","451.5","","","","","","","","","","","","","157","-1","3","false","","","",""
"psychophysics","201","547341","0.0-16.0-2.9","5e4ead217dd6be000d5a6140","609a8bf73b2ac84e2732f618","60a25786cfa46a1f5603f901","1652.6999999769032","","","","90","","","","key","8.332121827410946","960","451.5","","","","","","","","","","","","","","","","","","","",""
"psychophysics","202","548269","0.0-16.0-0.10","5e4ead217dd6be000d5a6140","609a8bf73b2ac84e2732f618","60a25786cfa46a1f5603f901","null","","","","null","","","","key","8.333081818181514","960","451.5","","","","","","","","","","","","","","","","","","","",""
"psychophysics","203","548777","0.0-16.0-1.10","5e4ead217dd6be000d5a6140","609a8bf73b2ac84e2732f618","60a25786cfa46a1f5603f901","null","","","","null","","","","key","8.334499999999146","960","451.5","","","","","","","","","","","","","157","-1","4","false","","","",""
"psychophysics","204","549492","0.0-16.0-2.10","5e4ead217dd6be000d5a6140","609a8bf73b2ac84e2732f618","60a25786cfa46a1f5603f901","712.7500000060536","","","","90","","","","key","8.335764705882792","960","451.5","","","","","","","","","","","","","","","","","","","",""
"psychophysics","205","550102","0.0-16.0-0.11","5e4ead217dd6be000d5a6140","609a8bf73b2ac84e2732f618","60a25786cfa46a1f5603f901","null","","","","null","","","","key","8.332986111110788","960","451.5","","","","","","","","","","","","","","","","","","","",""
"psychophysics","206","550611","0.0-16.0-1.11","5e4ead217dd6be000d5a6140","609a8bf73b2ac84e2732f618","60a25786cfa46a1f5603f901","null","","","","null","","","","key","8.329083333333255","960","451.5","","","","","","","","","","","","","157","1","3","false","","","",""
"psychophysics","207","551919","0.0-16.0-2.11","5e4ead217dd6be000d5a6140","609a8bf73b2ac84e2732f618","60a25786cfa46a1f5603f901","1306.7100000043865","","","","90","","","","key","8.330904458598294","960","451.5","","","","","","","","","","","","","","","","","","","",""
"psychophysics","208","552602","0.0-16.0-0.12","5e4ead217dd6be000d5a6140","609a8bf73b2ac84e2732f618","60a25786cfa46a1f5603f901","null","","","","null","","","","key","8.331812499999069","960","451.5","","","","","","","","","","","","","","","","","","","",""
"psychophysics","209","553106","0.0-16.0-1.12","5e4ead217dd6be000d5a6140","609a8bf73b2ac84e2732f618","60a25786cfa46a1f5603f901","null","","","","null","","","","key","8.327250000000156","960","451.5","","","","","","","","","","","","","157","1","5","false","","","",""
"psychophysics","210","554070","0.0-16.0-2.12","5e4ead217dd6be000d5a6140","609a8bf73b2ac84e2732f618","60a25786cfa46a1f5603f901","961.9550000061281","","","","90","","","","key","8.333608695652092","960","451.5","","","","","","","","","","","","","","","","","","","",""
"psychophysics","211","555343","0.0-16.0-0.13","5e4ead217dd6be000d5a6140","609a8bf73b2ac84e2732f618","60a25786cfa46a1f5603f901","null","","","","null","","","","key","8.33319867549646","960","451.5","","","","","","","","","","","","","","","","","","","",""
"psychophysics","212","555846","0.0-16.0-1.13","5e4ead217dd6be000d5a6140","609a8bf73b2ac84e2732f618","60a25786cfa46a1f5603f901","null","","","","null","","","","key","8.336050000000977","960","451.5","","","","","","","","","","","","","157","1","4","false","","","",""
"psychophysics","213","556729","0.0-16.0-2.13","5e4ead217dd6be000d5a6140","609a8bf73b2ac84e2732f618","60a25786cfa46a1f5603f901","880.7799999776762","","","","90","","","","key","8.331809523810323","960","451.5","","","","","","","","","","","","","","","","","","","",""
"psychophysics","214","557502","0.0-16.0-0.14","5e4ead217dd6be000d5a6140","609a8bf73b2ac84e2732f618","60a25786cfa46a1f5603f901","null","","","","null","","","","key","8.331615384614382","960","451.5","","","","","","","","","","","","","","","","","","","",""
"psychophysics","215","558010","0.0-16.0-1.14","5e4ead217dd6be000d5a6140","609a8bf73b2ac84e2732f618","60a25786cfa46a1f5603f901","null","","","","null","","","","key","8.333016666667147","960","451.5","","","","","","","","","","","","","157","-1","4","false","","","",""
"psychophysics","216","558456","0.0-16.0-2.14","5e4ead217dd6be000d5a6140","609a8bf73b2ac84e2732f618","60a25786cfa46a1f5603f901","443.4400000027381","","","","90","","","","key","8.346867924527581","960","451.5","","","","","","","","","","","","","","","","","","","",""
"psychophysics","217","559210","0.0-16.0-0.15","5e4ead217dd6be000d5a6140","609a8bf73b2ac84e2732f618","60a25786cfa46a1f5603f901","null","","","","null","","","","key","8.333078651685069","960","451.5","","","","","","","","","","","","","","","","","","","",""
"psychophysics","218","559712","0.0-16.0-1.15","5e4ead217dd6be000d5a6140","609a8bf73b2ac84e2732f618","60a25786cfa46a1f5603f901","null","","","","null","","","","key","8.342933333333349","960","451.5","","","","","","","","","","","","","157","-1","3","false","","","",""
"psychophysics","219","560609","0.0-16.0-2.15","5e4ead217dd6be000d5a6140","609a8bf73b2ac84e2732f618","60a25786cfa46a1f5603f901","895.7599999848753","","","","90","","","","key","8.329830188678692","960","451.5","","","","","","","","","","","","","","","","","","","",""
"psychophysics","220","561685","0.0-16.0-0.16","5e4ead217dd6be000d5a6140","609a8bf73b2ac84e2732f618","60a25786cfa46a1f5603f901","null","","","","null","","","","key","8.335992187499869","960","451.5","","","","","","","","","","","","","","","","","","","",""
"psychophysics","221","562193","0.0-16.0-1.16","5e4ead217dd6be000d5a6140","609a8bf73b2ac84e2732f618","60a25786cfa46a1f5603f901","null","","","","null","","","","key","8.331416666666822","960","451.5","","","","","","","","","","","","","157","-1","0","false","","","",""
"psychophysics","222","563051","0.0-16.0-2.16","5e4ead217dd6be000d5a6140","609a8bf73b2ac84e2732f618","60a25786cfa46a1f5603f901","855.3350000001956","","","","90","","","","key","8.331343137253961","960","451.5","","","","","","","","","","","","","","","","","","","",""
"psychophysics","223","564285","0.0-16.0-0.17","5e4ead217dd6be000d5a6140","609a8bf73b2ac84e2732f618","60a25786cfa46a1f5603f901","null","","","","null","","","","key","8.333863945578091","960","451.5","","","","","","","","","","","","","","","","","","","",""
"psychophysics","224","564787","0.0-16.0-1.17","5e4ead217dd6be000d5a6140","609a8bf73b2ac84e2732f618","60a25786cfa46a1f5603f901","null","","","","null","","","","key","8.333016666667147","960","451.5","","","","","","","","","","","","","157","-1","2","false","","","",""
"psychophysics","225","565604","0.0-16.0-2.17","5e4ead217dd6be000d5a6140","609a8bf73b2ac84e2732f618","60a25786cfa46a1f5603f901","813.5800000163727","","","","90","","","","key","8.335216494845994","960","451.5","","","","","","","","","","","","","","","","","","","",""
"psychophysics","226","566977","0.0-16.0-0.18","5e4ead217dd6be000d5a6140","609a8bf73b2ac84e2732f618","60a25786cfa46a1f5603f901","null","","","","null","","","","key","8.335656441718145","960","451.5","","","","","","","","","","","","","","","","","","","",""
"psychophysics","227","567478","0.0-16.0-1.18","5e4ead217dd6be000d5a6140","609a8bf73b2ac84e2732f618","60a25786cfa46a1f5603f901","null","","","","null","","","","key","8.334683333333427","960","451.5","","","","","","","","","","","","","157","1","6","false","","","",""
"psychophysics","228","568280","0.0-16.0-2.18","5e4ead217dd6be000d5a6140","609a8bf73b2ac84e2732f618","60a25786cfa46a1f5603f901","799.4650000182446","","","","90","","","","key","8.335526315789474","960","451.5","","","","","","","","","","","","","","","","","","","",""
"psychophysics","229","569227","0.0-16.0-0.19","5e4ead217dd6be000d5a6140","609a8bf73b2ac84e2732f618","60a25786cfa46a1f5603f901","null","","","","null","","","","key","8.332017857142741","960","451.5","","","","","","","","","","","","","","","","","","","",""
"psychophysics","230","569729","0.0-16.0-1.19","5e4ead217dd6be000d5a6140","609a8bf73b2ac84e2732f618","60a25786cfa46a1f5603f901","null","","","","null","","","","key","8.3270333333329","960","451.5","","","","","","","","","","","","","157","1","3","false","","","",""
"psychophysics","231","570219","0.0-16.0-2.19","5e4ead217dd6be000d5a6140","609a8bf73b2ac84e2732f618","60a25786cfa46a1f5603f901","488.3900000131689","","","","77","","","","key","8.332258620688789","960","451.5","","","","","","","","","","","","","","","","","","","",""
"psychophysics","232","570959","0.0-16.0-0.20","5e4ead217dd6be000d5a6140","609a8bf73b2ac84e2732f618","60a25786cfa46a1f5603f901","null","","","","null","","","","key","8.335126436781138","960","451.5","","","","","","","","","","","","","","","","","","","",""
"psychophysics","233","571468","0.0-16.0-1.20","5e4ead217dd6be000d5a6140","609a8bf73b2ac84e2732f618","60a25786cfa46a1f5603f901","null","","","","null","","","","key","8.332300000001366","960","451.5","","","","","","","","","","","","","157","1","0","false","","","",""
"psychophysics","234","571903","0.0-16.0-2.20","5e4ead217dd6be000d5a6140","609a8bf73b2ac84e2732f618","60a25786cfa46a1f5603f901","432.4049999995623","","","","90","","","","key","8.332076923077693","960","451.5","","","","","","","","","","","","","","","","","","","",""
"psychophysics","235","572801","0.0-16.0-0.21","5e4ead217dd6be000d5a6140","609a8bf73b2ac84e2732f618","60a25786cfa46a1f5603f901","null","","","","null","","","","key","8.333933962264124","960","451.5","","","","","","","","","","","","","","","","","","","",""
"psychophysics","236","573303","0.0-16.0-1.21","5e4ead217dd6be000d5a6140","609a8bf73b2ac84e2732f618","60a25786cfa46a1f5603f901","null","","","","null","","","","key","8.333783333333365","960","451.5","","","","","","","","","","","","","157","1","2","false","","","",""
"psychophysics","237","574711","0.0-16.0-2.21","5e4ead217dd6be000d5a6140","609a8bf73b2ac84e2732f618","60a25786cfa46a1f5603f901","1406.1799999908544","","","","77","","","","key","8.33267261904742","960","451.5","","","","","","","","","","","","","","","","","","","",""
"psychophysics","238","575934","0.0-16.0-0.22","5e4ead217dd6be000d5a6140","609a8bf73b2ac84e2732f618","60a25786cfa46a1f5603f901","null","","","","null","","","","key","8.332710344827701","960","451.5","","","","","","","","","","","","","","","","","","","",""
"psychophysics","239","576443","0.0-16.0-1.22","5e4ead217dd6be000d5a6140","609a8bf73b2ac84e2732f618","60a25786cfa46a1f5603f901","null","","","","null","","","","key","8.339249999999689","960","451.5","","","","","","","","","","","","","157","-1","6","false","","","",""
"psychophysics","240","576927","0.0-16.0-2.22","5e4ead217dd6be000d5a6140","609a8bf73b2ac84e2732f618","60a25786cfa46a1f5603f901","481.195000000298","","","","90","","","","key","8.33322413793187","960","451.5","","","","","","","","","","","","","","","","","","","",""
"psychophysics","241","578101","0.0-16.0-0.23","5e4ead217dd6be000d5a6140","609a8bf73b2ac84e2732f618","60a25786cfa46a1f5603f901","null","","","","null","","","","key","8.33533093525204","960","451.5","","","","","","","","","","","","","","","","","","","",""
"psychophysics","242","578610","0.0-16.0-1.23","5e4ead217dd6be000d5a6140","609a8bf73b2ac84e2732f618","60a25786cfa46a1f5603f901","null","","","","null","","","","key","8.32774999999868","960","451.5","","","","","","","","","","","","","157","-1","5","false","","","",""
"psychophysics","243","579092","0.0-16.0-2.23","5e4ead217dd6be000d5a6140","609a8bf73b2ac84e2732f618","60a25786cfa46a1f5603f901","479.90500001469627","","","","90","","","","key","8.333456140350583","960","451.5","","","","","","","","","","","","","","","","","","","",""
"html-keyboard-response","244","580352","0.0-17.0","5e4ead217dd6be000d5a6140","609a8bf73b2ac84e2732f618","60a25786cfa46a1f5603f901","1260.0600000005215","<p>Well Done !</p><p>Training Complete. Press the spacebar to start.</p><p>DON'T EXIT THE FULL SCREEN MODE</p>","","","32","","","","","","","","","","","","","","","","","","","","","","","","","","",""
"psychophysics","245","583465","0.0-18.0-0.0","5e4ead217dd6be000d5a6140","609a8bf73b2ac84e2732f618","60a25786cfa46a1f5603f901","null","","","","null","","","","key","8.333744360901646","960","451.5","","","","","","","","","","","","","","","","","","","",""
"psychophysics","246","583968","0.0-18.0-1.0","5e4ead217dd6be000d5a6140","609a8bf73b2ac84e2732f618","60a25786cfa46a1f5603f901","null","","","","null","","","","key","8.333610169492836","960","451.5","","","","","","","","","","","","","157","1","4","true","","","",""
"psychophysics","247","584609","0.0-18.0-2.0","5e4ead217dd6be000d5a6140","609a8bf73b2ac84e2732f618","60a25786cfa46a1f5603f901","636.9350000168197","","","","90","","","","key","8.33367105263077","960","451.5","","","","","","","","","","","","","","","","","","","",""
"psychophysics","248","585631","0.0-18.0-0.1","5e4ead217dd6be000d5a6140","609a8bf73b2ac84e2732f618","60a25786cfa46a1f5603f901","null","","","","null","","","","key","8.333860655736988","960","451.5","","","","","","","","","","","","","","","","","","","",""
"psychophysics","249","586132","0.0-18.0-1.1","5e4ead217dd6be000d5a6140","609a8bf73b2ac84e2732f618","60a25786cfa46a1f5603f901","null","","","","null","","","","key","8.333661016948932","960","451.5","","","","","","","","","","","","","157","1","5","true","","","",""
"psychophysics","250","586301","0.0-18.0-2.1","5e4ead217dd6be000d5a6140","609a8bf73b2ac84e2732f618","60a25786cfa46a1f5603f901","166.2300000025425","","","","90","","","","key","8.329578947367784","960","451.5","","","","","","","","","","","","","","","","","","","",""
"psychophysics","251","587705","0.0-18.0-0.2","5e4ead217dd6be000d5a6140","609a8bf73b2ac84e2732f618","60a25786cfa46a1f5603f901","null","","","","null","","","","key","8.33338690476237","960","451.5","","","","","","","","","","","","","","","","","","","",""
"psychophysics","252","588207","0.0-18.0-1.2","5e4ead217dd6be000d5a6140","609a8bf73b2ac84e2732f618","60a25786cfa46a1f5603f901","null","","","","null","","","","key","8.333813559323138","960","451.5","","","","","","","","","","","","","157","-1","4","true","","","",""
"psychophysics","253","588969","0.0-18.0-2.2","5e4ead217dd6be000d5a6140","609a8bf73b2ac84e2732f618","60a25786cfa46a1f5603f901","759.5649999857415","","","","90","","","","key","8.336406593406727","960","451.5","","","","","","","","","","","","","","","","","","","",""
"psychophysics","254","590292","0.0-18.0-0.3","5e4ead217dd6be000d5a6140","609a8bf73b2ac84e2732f618","60a25786cfa46a1f5603f901","null","","","","null","","","","key","8.334872611464672","960","451.5","","","","","","","","","","","","","","","","","","","",""
"psychophysics","255","590795","0.0-18.0-1.3","5e4ead217dd6be000d5a6140","609a8bf73b2ac84e2732f618","60a25786cfa46a1f5603f901","null","","","","null","","","","key","8.33391666666721","960","451.5","","","","","","","","","","","","","157","-1","6","true","","","",""
"psychophysics","256","591262","0.0-18.0-2.3","5e4ead217dd6be000d5a6140","609a8bf73b2ac84e2732f618","60a25786cfa46a1f5603f901","464.65000000898726","","","","90","","","","key","8.329672727272422","960","451.5","","","","","","","","","","","","","","","","","","","",""
"psychophysics","257","592752","0.0-18.0-0.4","5e4ead217dd6be000d5a6140","609a8bf73b2ac84e2732f618","60a25786cfa46a1f5603f901","null","","","","null","","","","key","8.334640449438155","960","451.5","","","","","","","","","","","","","","","","","","","",""
"psychophysics","258","593258","0.0-18.0-1.4","5e4ead217dd6be000d5a6140","609a8bf73b2ac84e2732f618","60a25786cfa46a1f5603f901","null","","","","null","","","","key","8.3286271186435","960","451.5","","","","","","","","","","","","","157","-1","0","true","","","",""
"psychophysics","259","593717","0.0-18.0-2.4","5e4ead217dd6be000d5a6140","609a8bf73b2ac84e2732f618","60a25786cfa46a1f5603f901","456.8800000124611","","","","90","","","","key","8.334740740740758","960","451.5","","","","","","","","","","","","","","","","","","","",""
"psychophysics","260","594934","0.0-18.0-0.5","5e4ead217dd6be000d5a6140","609a8bf73b2ac84e2732f618","60a25786cfa46a1f5603f901","null","","","","null","","","","key","8.333179310344738","960","451.5","","","","","","","","","","","","","","","","","","","",""
"psychophysics","261","595435","0.0-18.0-1.5","5e4ead217dd6be000d5a6140","609a8bf73b2ac84e2732f618","60a25786cfa46a1f5603f901","null","","","","null","","","","key","8.335983333333084","960","451.5","","","","","","","","","","","","","157","1","3","true","","","",""
"psychophysics","262","595886","0.0-18.0-2.5","5e4ead217dd6be000d5a6140","609a8bf73b2ac84e2732f618","60a25786cfa46a1f5603f901","449.04499998665415","","","","90","","","","key","8.332320754717209","960","451.5","","","","","","","","","","","","","","","","","","","",""
"psychophysics","263","596926","0.0-18.0-0.6","5e4ead217dd6be000d5a6140","609a8bf73b2ac84e2732f618","60a25786cfa46a1f5603f901","null","","","","null","","","","key","8.333869918700065","960","451.5","","","","","","","","","","","","","","","","","","","",""
"psychophysics","264","597429","0.0-18.0-1.6","5e4ead217dd6be000d5a6140","609a8bf73b2ac84e2732f618","60a25786cfa46a1f5603f901","null","","","","null","","","","key","8.332883333333303","960","451.5","","","","","","","","","","","","","157","-1","5","true","","","",""
"psychophysics","265","597592","0.0-18.0-2.6","5e4ead217dd6be000d5a6140","609a8bf73b2ac84e2732f618","60a25786cfa46a1f5603f901","160.8249999990221","","","","90","","","","key","8.326777777776847","960","451.5","","","","","","","","","","","","","","","","","","","",""
"psychophysics","266","598854","0.0-18.0-0.7","5e4ead217dd6be000d5a6140","609a8bf73b2ac84e2732f618","60a25786cfa46a1f5603f901","null","","","","null","","","","key","8.333781456953341","960","451.5","","","","","","","","","","","","","","","","","","","",""
"psychophysics","267","599359","0.0-18.0-1.7","5e4ead217dd6be000d5a6140","609a8bf73b2ac84e2732f618","60a25786cfa46a1f5603f901","null","","","","null","","","","key","8.334186440677051","960","451.5","","","","","","","","","","","","","157","-1","2","true","","","",""
"psychophysics","268","599812","0.0-18.0-2.7","5e4ead217dd6be000d5a6140","609a8bf73b2ac84e2732f618","60a25786cfa46a1f5603f901","451.0350000055041","","","","90","","","","key","8.334370370370042","960","451.5","","","","","","","","","","","","","","","","","","","",""
"psychophysics","269","600434","0.0-18.0-0.8","5e4ead217dd6be000d5a6140","609a8bf73b2ac84e2732f618","60a25786cfa46a1f5603f901","null","","","","null","","","","key","8.332917808220174","960","451.5","","","","","","","","","","","","","","","","","","","",""
"psychophysics","270","600942","0.0-18.0-1.8","5e4ead217dd6be000d5a6140","609a8bf73b2ac84e2732f618","60a25786cfa46a1f5603f901","null","","","","null","","","","key","8.334433333333193","960","451.5","","","","","","","","","","","","","157","1","6","true","","","",""
"psychophysics","271","601415","0.0-18.0-2.8","5e4ead217dd6be000d5a6140","609a8bf73b2ac84e2732f618","60a25786cfa46a1f5603f901","471.02499997708946","","","","77","","","","key","8.332017857142741","960","451.5","","","","","","","","","","","","","","","","","","","",""
"psychophysics","272","602517","0.0-18.0-0.9","5e4ead217dd6be000d5a6140","609a8bf73b2ac84e2732f618","60a25786cfa46a1f5603f901","null","","","","null","","","","key","8.333961832060707","960","451.5","","","","","","","","","","","","","","","","","","","",""
"psychophysics","273","603026","0.0-18.0-1.9","5e4ead217dd6be000d5a6140","609a8bf73b2ac84e2732f618","60a25786cfa46a1f5603f901","null","","","","null","","","","key","8.3325333333322","960","451.5","","","","","","","","","","","","","157","1","2","true","","","",""
"psychophysics","274","603444","0.0-18.0-2.9","5e4ead217dd6be000d5a6140","609a8bf73b2ac84e2732f618","60a25786cfa46a1f5603f901","414.45999999996275","","","","90","","","","key","8.332340000001714","960","451.5","","","","","","","","","","","","","","","","","","","",""
"psychophysics","275","604384","0.0-18.0-0.10","5e4ead217dd6be000d5a6140","609a8bf73b2ac84e2732f618","60a25786cfa46a1f5603f901","null","","","","null","","","","key","8.333108108108947","960","451.5","","","","","","","","","","","","","","","","","","","",""
"psychophysics","276","604892","0.0-18.0-1.10","5e4ead217dd6be000d5a6140","609a8bf73b2ac84e2732f618","60a25786cfa46a1f5603f901","null","","","","null","","","","key","8.333300000000357","960","451.5","","","","","","","","","","","","","157","1","0","true","","","",""
"psychophysics","277","605392","0.0-18.0-2.10","5e4ead217dd6be000d5a6140","609a8bf73b2ac84e2732f618","60a25786cfa46a1f5603f901","497.43000001762994","","","","77","","","","key","8.336000000000379","960","451.5","","","","","","","","","","","","","","","","","","","",""
"psychophysics","278","606183","0.0-18.0-0.11","5e4ead217dd6be000d5a6140","609a8bf73b2ac84e2732f618","60a25786cfa46a1f5603f901","null","","","","null","","","","key","8.33470212765895","960","451.5","","","","","","","","","","","","","","","","","","","",""
"psychophysics","279","606684","0.0-18.0-1.11","5e4ead217dd6be000d5a6140","609a8bf73b2ac84e2732f618","60a25786cfa46a1f5603f901","null","","","","null","","","","key","8.334900000000683","960","451.5","","","","","","","","","","","","","157","-1","3","true","","","",""
"psychophysics","280","606805","0.0-18.0-2.11","5e4ead217dd6be000d5a6140","609a8bf73b2ac84e2732f618","60a25786cfa46a1f5603f901","119.09999998169951","","","","90","","","","key","8.337692307693382","960","451.5","","","","","","","","","","","","","","","","","","","",""
"psychophysics","281","607542","0.0-18.0-0.12","5e4ead217dd6be000d5a6140","609a8bf73b2ac84e2732f618","60a25786cfa46a1f5603f901","null","","","","null","","","","key","8.3393103448278","960","451.5","","","","","","","","","","","","","","","","","","","",""
"psychophysics","282","608045","0.0-18.0-1.12","5e4ead217dd6be000d5a6140","609a8bf73b2ac84e2732f618","60a25786cfa46a1f5603f901","null","","","","null","","","","key","8.334166666665503","960","451.5","","","","","","","","","","","","","157","1","4","true","","","",""
"psychophysics","283","608843","0.0-18.0-2.12","5e4ead217dd6be000d5a6140","609a8bf73b2ac84e2732f618","60a25786cfa46a1f5603f901","795.6149999808986","","","","90","","","","key","8.33333684210543","960","451.5","","","","","","","","","","","","","","","","","","","",""
"psychophysics","284","610092","0.0-18.0-0.13","5e4ead217dd6be000d5a6140","609a8bf73b2ac84e2732f618","60a25786cfa46a1f5603f901","null","","","","null","","","","key","8.33337162162108","960","451.5","","","","","","","","","","","","","","","","","","","",""
"psychophysics","285","610600","0.0-18.0-1.13","5e4ead217dd6be000d5a6140","609a8bf73b2ac84e2732f618","60a25786cfa46a1f5603f901","null","","","","null","","","","key","8.333033333332667","960","451.5","","","","","","","","","","","","","157","1","5","true","","","",""
"psychophysics","286","610812","0.0-18.0-2.13","5e4ead217dd6be000d5a6140","609a8bf73b2ac84e2732f618","60a25786cfa46a1f5603f901","207.78999998583458","","","","90","","","","key","8.331480000000447","960","451.5","","","","","","","","","","","","","","","","","","","",""
"psychophysics","287","611325","0.0-18.0-0.14","5e4ead217dd6be000d5a6140","609a8bf73b2ac84e2732f618","60a25786cfa46a1f5603f901","null","","","","null","","","","key","8.334349999999782","960","451.5","","","","","","","","","","","","","","","","","","","",""
"psychophysics","288","611827","0.0-18.0-1.14","5e4ead217dd6be000d5a6140","609a8bf73b2ac84e2732f618","60a25786cfa46a1f5603f901","null","","","","null","","","","key","8.333116666666077","960","451.5","","","","","","","","","","","","","157","1","2","true","","","",""
"psychophysics","289","612311","0.0-18.0-2.14","5e4ead217dd6be000d5a6140","609a8bf73b2ac84e2732f618","60a25786cfa46a1f5603f901","480.1900000020396","","","","90","","","","key","8.335000000001552","960","451.5","","","","","","","","","","","","","","","","","","","",""
"psychophysics","290","613492","0.0-18.0-0.15","5e4ead217dd6be000d5a6140","609a8bf73b2ac84e2732f618","60a25786cfa46a1f5603f901","null","","","","null","","","","key","8.332428571428006","960","451.5","","","","","","","","","","","","","","","","","","","",""
"psychophysics","291","613993","0.0-18.0-1.15","5e4ead217dd6be000d5a6140","609a8bf73b2ac84e2732f618","60a25786cfa46a1f5603f901","null","","","","null","","","","key","8.338016666667924","960","451.5","","","","","","","","","","","","","157","-1","0","true","","","",""
"psychophysics","292","614667","0.0-18.0-2.15","5e4ead217dd6be000d5a6140","609a8bf73b2ac84e2732f618","60a25786cfa46a1f5603f901","672.6900000066962","","","","90","","","","key","8.33093749999971","960","451.5","","","","","","","","","","","","","","","","","","","",""
"psychophysics","293","616050","0.0-18.0-0.16","5e4ead217dd6be000d5a6140","609a8bf73b2ac84e2732f618","60a25786cfa46a1f5603f901","null","","","","null","","","","key","8.332835365854141","960","451.5","","","","","","","","","","","","","","","","","","","",""
"psychophysics","294","616553","0.0-18.0-1.16","5e4ead217dd6be000d5a6140","609a8bf73b2ac84e2732f618","60a25786cfa46a1f5603f901","null","","","","null","","","","key","8.333849999999318","960","451.5","","","","","","","","","","","","","157","-1","4","true","","","",""
"psychophysics","295","616875","0.0-18.0-2.16","5e4ead217dd6be000d5a6140","609a8bf73b2ac84e2732f618","60a25786cfa46a1f5603f901","320.9000000206288","","","","90","","","","key","8.330789473685925","960","451.5","","","","","","","","","","","","","","","","","","","",""
"psychophysics","296","617708","0.0-18.0-0.17","5e4ead217dd6be000d5a6140","609a8bf73b2ac84e2732f618","60a25786cfa46a1f5603f901","null","","","","null","","","","key","8.333530612244765","960","451.5","","","","","","","","","","","","","","","","","","","",""
"psychophysics","297","618216","0.0-18.0-1.17","5e4ead217dd6be000d5a6140","609a8bf73b2ac84e2732f618","60a25786cfa46a1f5603f901","null","","","","null","","","","key","8.331666666667054","960","451.5","","","","","","","","","","","","","157","1","3","true","","","",""
"psychophysics","298","618535","0.0-18.0-2.17","5e4ead217dd6be000d5a6140","609a8bf73b2ac84e2732f618","60a25786cfa46a1f5603f901","314.5949999743607","","","","90","","","","key","8.334789473685975","960","451.5","","","","","","","","","","","","","","","","","","","",""
"psychophysics","299","619375","0.0-18.0-0.18","5e4ead217dd6be000d5a6140","609a8bf73b2ac84e2732f618","60a25786cfa46a1f5603f901","null","","","","null","","","","key","8.33274747474787","960","451.5","","","","","","","","","","","","","","","","","","","",""
"psychophysics","300","619876","0.0-18.0-1.18","5e4ead217dd6be000d5a6140","609a8bf73b2ac84e2732f618","60a25786cfa46a1f5603f901","null","","","","null","","","","key","8.339183333333738","960","451.5","","","","","","","","","","","","","157","1","6","true","","","",""
"psychophysics","301","620778","0.0-18.0-2.18","5e4ead217dd6be000d5a6140","609a8bf73b2ac84e2732f618","60a25786cfa46a1f5603f901","898.4650000056718","","","","90","","","","key","8.331700934579152","960","451.5","","","","","","","","","","","","","","","","","","","",""
"psychophysics","302","621873","0.0-18.0-0.19","5e4ead217dd6be000d5a6140","609a8bf73b2ac84e2732f618","60a25786cfa46a1f5603f901","null","","","","null","","","","key","8.331953846153695","960","451.5","","","","","","","","","","","","","","","","","","","",""
"psychophysics","303","622376","0.0-18.0-1.19","5e4ead217dd6be000d5a6140","609a8bf73b2ac84e2732f618","60a25786cfa46a1f5603f901","null","","","","null","","","","key","8.333728813560349","960","451.5","","","","","","","","","","","","","157","1","0","true","","","",""
"psychophysics","304","622942","0.0-18.0-2.19","5e4ead217dd6be000d5a6140","609a8bf73b2ac84e2732f618","60a25786cfa46a1f5603f901","564.1999999934342","","","","90","","","","key","8.332735294118345","960","451.5","","","","","","","","","","","","","","","","","","","",""
"psychophysics","305","623884","0.0-18.0-0.20","5e4ead217dd6be000d5a6140","609a8bf73b2ac84e2732f618","60a25786cfa46a1f5603f901","null","","","","null","","","","key","8.335482142857343","960","451.5","","","","","","","","","","","","","","","","","","","",""
"psychophysics","306","624386","0.0-18.0-1.20","5e4ead217dd6be000d5a6140","609a8bf73b2ac84e2732f618","60a25786cfa46a1f5603f901","null","","","","null","","","","key","8.331593220339204","960","451.5","","","","","","","","","","","","","157","-1","6","true","","","",""
"psychophysics","307","624869","0.0-18.0-2.20","5e4ead217dd6be000d5a6140","609a8bf73b2ac84e2732f618","60a25786cfa46a1f5603f901","481.6149999969639","","","","77","","","","key","8.32831578947228","960","451.5","","","","","","","","","","","","","","","","","","","",""
"psychophysics","308","626050","0.0-18.0-0.21","5e4ead217dd6be000d5a6140","609a8bf73b2ac84e2732f618","60a25786cfa46a1f5603f901","null","","","","null","","","","key","8.331307142857362","960","451.5","","","","","","","","","","","","","","","","","","","",""
"psychophysics","309","626555","0.0-18.0-1.21","5e4ead217dd6be000d5a6140","609a8bf73b2ac84e2732f618","60a25786cfa46a1f5603f901","null","","","","null","","","","key","8.33279999999989","960","451.5","","","","","","","","","","","","","157","-1","2","true","","","",""
"psychophysics","310","627116","0.0-18.0-2.21","5e4ead217dd6be000d5a6140","609a8bf73b2ac84e2732f618","60a25786cfa46a1f5603f901","559.2950000136625","","","","90","","","","key","8.332121212121848","960","451.5","","","","","","","","","","","","","","","","","","","",""
"psychophysics","311","628413","0.0-18.0-0.22","5e4ead217dd6be000d5a6140","609a8bf73b2ac84e2732f618","60a25786cfa46a1f5603f901","null","","","","null","","","","key","8.33299999999994","960","451.5","","","","","","","","","","","","","","","","","","","",""
"psychophysics","312","628916","0.0-18.0-1.22","5e4ead217dd6be000d5a6140","609a8bf73b2ac84e2732f618","60a25786cfa46a1f5603f901","null","","","","null","","","","key","8.333084745762743","960","451.5","","","","","","","","","","","","","157","-1","3","true","","","",""
"psychophysics","313","629070","0.0-18.0-2.22","5e4ead217dd6be000d5a6140","609a8bf73b2ac84e2732f618","60a25786cfa46a1f5603f901","151.70499999658205","","","","90","","","","key","8.336722222221498","960","451.5","","","","","","","","","","","","","","","","","","","",""
"psychophysics","314","630500","0.0-18.0-0.23","5e4ead217dd6be000d5a6140","609a8bf73b2ac84e2732f618","60a25786cfa46a1f5603f901","null","","","","null","","","","key","8.333276470588274","960","451.5","","","","","","","","","","","","","","","","","","","",""
"psychophysics","315","631004","0.0-18.0-1.23","5e4ead217dd6be000d5a6140","609a8bf73b2ac84e2732f618","60a25786cfa46a1f5603f901","null","","","","null","","","","key","8.332183333333038","960","451.5","","","","","","","","","","","","","157","-1","5","true","","","",""
"psychophysics","316","632129","0.0-18.0-2.23","5e4ead217dd6be000d5a6140","609a8bf73b2ac84e2732f618","60a25786cfa46a1f5603f901","1121.4299999992363","","","","90","","","","key","8.332731343283658","960","451.5","","","","","","","","","","","","","","","","","","","",""
"psychophysics","317","632666","0.0-18.0-0.24","5e4ead217dd6be000d5a6140","609a8bf73b2ac84e2732f618","60a25786cfa46a1f5603f901","null","","","","null","","","","key","8.330777777778355","960","451.5","","","","","","","","","","","","","","","","","","","",""
"psychophysics","318","633175","0.0-18.0-1.24","5e4ead217dd6be000d5a6140","609a8bf73b2ac84e2732f618","60a25786cfa46a1f5603f901","null","","","","null","","","","key","8.332150000000063","960","451.5","","","","","","","","","","","","","157","-1","5","true","","","",""
"psychophysics","319","633582","0.0-18.0-2.24","5e4ead217dd6be000d5a6140","609a8bf73b2ac84e2732f618","60a25786cfa46a1f5603f901","404.5449999975972","","","","90","","","","key","8.332083333334594","960","451.5","","","","","","","","","","","","","","","","","","","",""
"psychophysics","320","634274","0.0-18.0-0.25","5e4ead217dd6be000d5a6140","609a8bf73b2ac84e2732f618","60a25786cfa46a1f5603f901","null","","","","null","","","","key","8.337597560976553","960","451.5","","","","","","","","","","","","","","","","","","","",""
"psychophysics","321","634783","0.0-18.0-1.25","5e4ead217dd6be000d5a6140","609a8bf73b2ac84e2732f618","60a25786cfa46a1f5603f901","null","","","","null","","","","key","8.332116666667085","960","451.5","","","","","","","","","","","","","157","1","4","true","","","",""
"psychophysics","322","635136","0.0-18.0-2.25","5e4ead217dd6be000d5a6140","609a8bf73b2ac84e2732f618","60a25786cfa46a1f5603f901","350.75499999220483","","","","90","","","","key","8.327428571428062","960","451.5","","","","","","","","","","","","","","","","","","","",""
"psychophysics","323","636233","0.0-18.0-0.26","5e4ead217dd6be000d5a6140","609a8bf73b2ac84e2732f618","60a25786cfa46a1f5603f901","null","","","","null","","","","key","8.334423076922898","960","451.5","","","","","","","","","","","","","","","","","","","",""
"psychophysics","324","636741","0.0-18.0-1.26","5e4ead217dd6be000d5a6140","609a8bf73b2ac84e2732f618","60a25786cfa46a1f5603f901","null","","","","null","","","","key","8.328516666666838","960","451.5","","","","","","","","","","","","","157","-1","2","true","","","",""
"psychophysics","325","637502","0.0-18.0-2.26","5e4ead217dd6be000d5a6140","609a8bf73b2ac84e2732f618","60a25786cfa46a1f5603f901","758.8650000107009","","","","90","","","","key","8.332637362637568","960","451.5","","","","","","","","","","","","","","","","","","","",""
"psychophysics","326","638250","0.0-18.0-0.27","5e4ead217dd6be000d5a6140","609a8bf73b2ac84e2732f618","60a25786cfa46a1f5603f901","null","","","","null","","","","key","8.332988636364462","960","451.5","","","","","","","","","","","","","","","","","","","",""
"psychophysics","327","638758","0.0-18.0-1.27","5e4ead217dd6be000d5a6140","609a8bf73b2ac84e2732f618","60a25786cfa46a1f5603f901","null","","","","null","","","","key","8.331733333333007","960","451.5","","","","","","","","","","","","","157","-1","4","true","","","",""
