"trial_type","trial_index","time_elapsed","internal_node_id","PROLIFIC_PID","STUDY_ID","SESSION_ID","rt","stimulus","button_pressed","success","key_press","responses","isData","view_history","response_type","avg_frame_time","center_x","center_y","isSC","stim_side","trial_luminance","step_size","nReversal","correct","prev_ans","isThreshold","SC_threshold","final_threshold","isLuminance","FF_luminance","luminance","stimSide","ISInt","isFF","question_order","isSPQ","isCAPS","isAQ"
"pavlovia","0","4","0.0-0.0","6086a11397234e7f83e4e793","609a8bf73b2ac84e2732f618","60a267ad909b680ffc0ddeba","","","","","","","","","","","","","","","","","","","","","","","","","","","","","","","",""
"html-button-response","1","32942","0.0-1.0","6086a11397234e7f83e4e793","609a8bf73b2ac84e2732f618","60a267ad909b680ffc0ddeba","32936.46499999886","<div style='background-color: white; width:60%; margin: auto; padding: 50px; text-align: justify; text-justify: inter-word; margin-bottom: 20px;'><h1 style='text-align: center;'>Consent Form</h1><p>Please read this consent form carefully before deciding whether you would like to participate in this study. You have to be 18 years old or older to participate to this study.</p><p style='text-decoration: underline;'>Participation is voluntary:</p><p>It is your choice whether or not to participate in this research. If you choose to participate, you may change your mind and leave the study at any time. Refusal to participate or stopping your participation will involve no penalty or loss of benefits to which you are otherwise entitled.</p><p style='text-decoration: underline;'>Purpose of the Study:</p><p>To understand the mechanisms underlying human perception.</p><p style='text-decoration: underline;'>What you will do in this study:</p><p>You will be presented with a series of visual images and then you will press buttons on the keyboard of your computer to respond to simple questions about the images (e.g. Were one or two images presented?). In addition, you will be asked to complete a questionnaire concerning your beliefs and everyday mental and perceptual experiences.'</p><p style='text-decoration: underline;'> Time Required:</p><p>The study will take 40 minutes to complete. </p><p style='text-decoration: underline;'>Risks:</p><p>There are no anticipated risks associated with participating in this study that are beyond those experienced in everyday life. </p><p style='text-decoration: underline;'>Benefits:</p><p>There are no benefits to you in participating in the study. However, this study may lead to a better understanding of how different kinds of visual information are used.</p><p style='text-decoration: underline;'>Compensation:</p><p>You will be paid US$6.6/hour. </p><p style='text-decoration: underline;'>Privacy and Confidentiality:</p><p>Your participation in this study will be anonymous. No personal information about your name or identity will be asked or recorded. This anonymous data will be stored for several years and may be used for a variety of research purposes. The overall results of the study may be published, or the data files may be shared with other researchers, but your identity will not be revealed in any way. The online services we are using for this study may temporarily store your data, but this data will be downloaded and then promptly deleted from those services.Your data will not be permanently associated with your name, IP address, or any other identifiable information (e.g., your information will only be connected to your payment, not to any of your responses), though they may be temporarily stored together before we download and separate them. Even so, no guarantee of internet survey security can be given because, although unlikely, transmissions can be intercepted and IP addresses can be identified. The anonymous data may be shared publicly (for example, in conjunction with a resulting academic publication).</p><p style='text-decoration: underline;'>Participation and Withdrawal:</p><p>Your participation in this study is completely voluntary. You may stop responding to the stimuli or stop answering questions if you so choose and without penalty by exiting the full screen mode, closing this tab of your browser or redirecting it to a different website.</p><p style='text-decoration: underline;'>Contact Info of the Researcher: </p><p>If you have questions about this study, or if you would like to talk to the research team, please contact David Melcher (david.melcher@nyu.edu, md5050@nyu.edu) at the Perception and Active Cognition Laboratory, New York University Abu Dhabi, Computational Research Building, Saadiyat Island, Abu Dhabi, UAE.This research has been reviewed by the New York University Abu Dhabi Institutional Review Board (NYUAD IRB). To contact about your rights in this research, for questions, suggestions, or complaints that are not addressed by the researchers, please email IRBnyuad@nyu.edu, or call the NYUAD IRB at +971 2 628 4313. </p></div>","0","","","","","","","","","","","","","","","","","","","","","","","","","","","","",""
"fullscreen","2","43394","0.0-2.0","6086a11397234e7f83e4e793","609a8bf73b2ac84e2732f618","60a267ad909b680ffc0ddeba","","","","true","","","","","","","","","","","","","","","","","","","","","","","","","","","",""
"html-keyboard-response","3","92738","0.0-3.0","6086a11397234e7f83e4e793","609a8bf73b2ac84e2732f618","60a267ad909b680ffc0ddeba","49344.79000000283","<p>Welcome !</p><p>READ CAREFULLY THE FOLLOWING INDICATIONS:</p><p>From this moment you have ~40 minutes to complete the experiment.</p><p>During the experiment you will be prompted to take several breaks. Each break should not last longer than 2-3 minutes.</p><p>Make sure that your computer is plugged in and it's not running on battery power, even if the battery is already fully charged.</p><p>Turn off your phone and music, make sure that you are in a quiet room and that you will not be distracted for the next hour.</p><p>Failure to comply with the instructions and indications provided during the experiment will most likely result in the rejection of your data.<p>Press the spacebar to start.</p>","","","32","","","","","","","","","","","","","","","","","","","","","","","","","","",""
"survey-html-form","4","99463","0.0-4.0","6086a11397234e7f83e4e793","609a8bf73b2ac84e2732f618","60a267ad909b680ffc0ddeba","6723.989999998594","","","","","{""age"":""32"",""sex"":""M""}","true","","","","","","","","","","","","","","","","","","","","","","","","",""
"instructions","5","160721","0.0-5.0","6086a11397234e7f83e4e793","609a8bf73b2ac84e2732f618","60a267ad909b680ffc0ddeba","61257.58499999938","","","","","","","[{""page_index"":0,""viewing_time"":31995.170000001963},{""page_index"":1,""viewing_time"":24705.864999999903},{""page_index"":2,""viewing_time"":4556.384999999864}]","","","","","","","","","","","","","","","","","","","","","","","",""
"psychophysics","6","162554","0.0-6.0-0.0","6086a11397234e7f83e4e793","609a8bf73b2ac84e2732f618","60a267ad909b680ffc0ddeba","830.4150000003574","","","","37","","","","key","16.672000000000118","891","512","true","-1","180","30","0","-1","","","","","","","","","","","","","",""
"psychophysics","7","163915","0.0-6.0-0.1","6086a11397234e7f83e4e793","609a8bf73b2ac84e2732f618","60a267ad909b680ffc0ddeba","358.3550000003015","","","","37","","","","key","16.672000000000008","891","512","true","-1","180","30","0","-1","-1","","","","","","","","","","","","",""
"psychophysics","8","165276","0.0-6.0-0.2","6086a11397234e7f83e4e793","609a8bf73b2ac84e2732f618","60a267ad909b680ffc0ddeba","360.59000000022934","","","","37","","","","key","16.672000000000118","891","512","true","-1","150","30","0","-1","-1","","","","","","","","","","","","",""
"psychophysics","9","166300","0.0-6.0-0.3","6086a11397234e7f83e4e793","609a8bf73b2ac84e2732f618","60a267ad909b680ffc0ddeba","22.00000000084401","","","","37","","","","key","16.73666666666686","891","512","true","-1","150","30","0","-1","-1","","","","","","","","","","","","",""
"psychophysics","10","168190","0.0-6.0-0.4","6086a11397234e7f83e4e793","609a8bf73b2ac84e2732f618","60a267ad909b680ffc0ddeba","887.9349999988335","","","","37","","","","key","16.671999999999883","891","512","true","1","129","24","1","1","-1","","","","","","","","","","","","",""
"psychophysics","11","169551","0.0-6.0-0.5","6086a11397234e7f83e4e793","609a8bf73b2ac84e2732f618","60a267ad909b680ffc0ddeba","360.2500000015425","","","","37","","","","key","16.671999999999752","891","512","true","-1","153","24","1","-1","1","","","","","","","","","","","","",""
"psychophysics","12","171115","0.0-6.0-0.6","6086a11397234e7f83e4e793","609a8bf73b2ac84e2732f618","60a267ad909b680ffc0ddeba","561.3700000030803","","","","37","","","","key","16.671999999999834","891","512","true","-1","153","19.2","2","-1","-1","","","","","","","","","","","","",""
"psychophysics","13","172409","0.0-6.0-0.7","6086a11397234e7f83e4e793","609a8bf73b2ac84e2732f618","60a267ad909b680ffc0ddeba","291.0849999971106","","","","37","","","","key","16.67200000000008","891","512","true","-1","133.8","19.2","2","-1","-1","","","","","","","","","","","","",""
"psychophysics","14","173748","0.0-6.0-0.8","6086a11397234e7f83e4e793","609a8bf73b2ac84e2732f618","60a267ad909b680ffc0ddeba","337.56499999799416","","","","37","","","","key","16.67199999999986","891","512","true","-1","133.8","19.2","2","-1","-1","","","","","","","","","","","","",""
"psychophysics","15","176448","0.0-6.0-0.9","6086a11397234e7f83e4e793","609a8bf73b2ac84e2732f618","60a267ad909b680ffc0ddeba","1697.98499999888","","","","39","","","","key","16.69708074534168","891","512","true","1","129","19.2","2","-1","-1","","","","","","","","","","","","",""
"psychophysics","16","180082","0.0-6.0-0.10","6086a11397234e7f83e4e793","609a8bf73b2ac84e2732f618","60a267ad909b680ffc0ddeba","2632.5749999996333","","","","39","","","","key","16.67199999999997","891","512","true","1","129","19.2","2","-1","-1","","","","","","","","","","","","",""
"psychophysics","17","183558","0.0-6.0-0.11","6086a11397234e7f83e4e793","609a8bf73b2ac84e2732f618","60a267ad909b680ffc0ddeba","2475.1000000032946","","","","39","","","","key","16.67199999999996","891","512","true","-1","129","15.36","3","1","-1","","","","","","","","","","","","",""
"psychophysics","18","185032","0.0-6.0-0.12","6086a11397234e7f83e4e793","609a8bf73b2ac84e2732f618","60a267ad909b680ffc0ddeba","471.53999999864027","","","","39","","","","key","16.671999999999983","891","512","true","1","144.36","15.36","3","-1","1","","","","","","","","","","","","",""
"psychophysics","19","186371","0.0-6.0-0.13","6086a11397234e7f83e4e793","609a8bf73b2ac84e2732f618","60a267ad909b680ffc0ddeba","337.5750000013795","","","","39","","","","key","16.722962025316473","891","512","true","1","144.36","12.287999999999998","4","-1","-1","","","","","","","","","","","","",""
"psychophysics","20","187732","0.0-6.0-0.14","6086a11397234e7f83e4e793","609a8bf73b2ac84e2732f618","60a267ad909b680ffc0ddeba","360.72000000058324","","","","39","","","","key","16.672000000000118","891","512","true","1","132.072","12.287999999999998","4","-1","-1","","","","","","","","","","","","",""
"psychophysics","21","189138","0.0-6.0-0.15","6086a11397234e7f83e4e793","609a8bf73b2ac84e2732f618","60a267ad909b680ffc0ddeba","404.194999999163","","","","37","","","","key","16.672000000000047","891","512","true","-1","132.072","12.287999999999998","4","-1","-1","","","","","","","","","","","","",""
"psychophysics","22","190792","0.0-6.0-0.16","6086a11397234e7f83e4e793","609a8bf73b2ac84e2732f618","60a267ad909b680ffc0ddeba","652.9300000001967","","","","37","","","","key","16.671999999999997","891","512","true","-1","129","12.287999999999998","4","-1","-1","","","","","","","","","","","","",""
"psychophysics","23","192581","0.0-6.0-0.17","6086a11397234e7f83e4e793","609a8bf73b2ac84e2732f618","60a267ad909b680ffc0ddeba","785.954999999376","","","","39","","","","key","16.67200000000017","891","512","true","1","129","12.287999999999998","4","-1","-1","","","","","","","","","","","","",""
"psychophysics","24","194494","0.0-6.0-0.18","6086a11397234e7f83e4e793","609a8bf73b2ac84e2732f618","60a267ad909b680ffc0ddeba","909.9999999998545","","","","39","","","","key","16.672000000000065","891","512","true","1","129","12.287999999999998","4","-1","-1","","","","","","","","","","","","",""
"psychophysics","25","197520","0.0-6.0-0.19","6086a11397234e7f83e4e793","609a8bf73b2ac84e2732f618","60a267ad909b680ffc0ddeba","2024.3750000008731","","","","39","","","","key","16.694822222222218","891","512","true","-1","129","9.8304","5","1","-1","","","","","","","","","","","","",""
"psychophysics","26","198870","0.0-6.0-0.20","6086a11397234e7f83e4e793","609a8bf73b2ac84e2732f618","60a267ad909b680ffc0ddeba","347.25999999864143","","","","37","","","","key","16.672000000000118","891","512","true","-1","138.8304","9.8304","5","-1","1","","","","","","","","","","","","",""
"psychophysics","27","200287","0.0-6.0-0.21","6086a11397234e7f83e4e793","609a8bf73b2ac84e2732f618","60a267ad909b680ffc0ddeba","415.99499999938416","","","","39","","","","key","16.672000000000047","891","512","true","1","138.8304","7.864319999999999","6","-1","-1","","","","","","","","","","","","",""
"psychophysics","28","201840","0.0-6.0-0.22","6086a11397234e7f83e4e793","609a8bf73b2ac84e2732f618","60a267ad909b680ffc0ddeba","549.5999999984633","","","","39","","","","key","16.672000000000242","891","512","true","1","130.96608","7.864319999999999","6","-1","-1","","","","","","","","","","","","",""
"psychophysics","29","203224","0.0-6.0-0.23","6086a11397234e7f83e4e793","609a8bf73b2ac84e2732f618","60a267ad909b680ffc0ddeba","380.43499999912456","","","","37","","","","key","16.671999999999905","891","512","true","-1","130.96608","7.864319999999999","6","-1","-1","","","","","","","","","","","","",""
"psychophysics","30","204945","0.0-6.0-0.24","6086a11397234e7f83e4e793","609a8bf73b2ac84e2732f618","60a267ad909b680ffc0ddeba","718.0699999989884","","","","37","","","","key","16.671999999999862","891","512","true","1","129","6.291456","7","1","-1","","","","","","","","","","","","",""
"psychophysics","31","206385","0.0-6.0-0.25","6086a11397234e7f83e4e793","609a8bf73b2ac84e2732f618","60a267ad909b680ffc0ddeba","437.5900000013644","","","","37","","","","key","16.719729411765","891","512","true","-1","135.291456","6.291456","7","-1","1","","","","","","","","","","","","",""
"psychophysics","32","208500","0.0-6.0-0.26","6086a11397234e7f83e4e793","609a8bf73b2ac84e2732f618","60a267ad909b680ffc0ddeba","1114.095000000816","","","","37","","","","key","16.671999999999933","891","512","true","-1","135.291456","5.033164800000001","8","-1","-1","","","","","","","","","","","","",""
"psychophysics","33","210604","0.0-6.0-0.27","6086a11397234e7f83e4e793","609a8bf73b2ac84e2732f618","60a267ad909b680ffc0ddeba","1102.3199999981443","","","","37","","","","key","16.672","891","512","true","1","130.2582912","4.0265318400000005","9","1","-1","","","","","","","","","","","","",""
"psychophysics","34","211977","0.0-6.0-0.28","6086a11397234e7f83e4e793","609a8bf73b2ac84e2732f618","60a267ad909b680ffc0ddeba","371.58500000077765","","","","39","","","","key","16.672000000000008","891","512","true","1","134.28482304","4.0265318400000005","9","-1","1","","","","","","","","","","","","",""
"psychophysics","35","213304","0.0-6.0-0.29","6086a11397234e7f83e4e793","609a8bf73b2ac84e2732f618","60a267ad909b680ffc0ddeba","325.37999999840395","","","","39","","","","key","16.67199999999986","891","512","true","1","134.28482304","3.2212254720000004","10","-1","-1","","","","","","","","","","","","",""
"psychophysics","36","214699","0.0-6.0-0.30","6086a11397234e7f83e4e793","609a8bf73b2ac84e2732f618","60a267ad909b680ffc0ddeba","393.94499999980326","","","","39","","","","key","16.671999999999905","891","512","true","1","131.06359756799998","3.2212254720000004","10","-1","-1","","","","","","","","","","","","",""
"psychophysics","37","216027","0.0-6.0-0.31","6086a11397234e7f83e4e793","609a8bf73b2ac84e2732f618","60a267ad909b680ffc0ddeba","326.90999999977066","","","","39","","","","key","16.723088607595074","891","512","true","-1","131.06359756799998","2.5769803776000004","11","1","-1","","","","","","","","","","","","",""
"psychophysics","38","217253","0.0-6.0-0.32","6086a11397234e7f83e4e793","609a8bf73b2ac84e2732f618","60a267ad909b680ffc0ddeba","225.0949999979639","","","","39","","","","key","16.671999999999873","891","512","true","1","133.64057794559997","2.5769803776000004","11","-1","1","","","","","","","","","","","","",""
"psychophysics","39","218615","0.0-6.0-0.33","6086a11397234e7f83e4e793","609a8bf73b2ac84e2732f618","60a267ad909b680ffc0ddeba","358.86000000027707","","","","37","","","","key","16.672000000000008","891","512","true","-1","133.64057794559997","2.0615843020800004","12","-1","-1","","","","","","","","","","","","",""
"psychophysics","40","219919","0.0-6.0-0.34","6086a11397234e7f83e4e793","609a8bf73b2ac84e2732f618","60a267ad909b680ffc0ddeba","302.65499999950407","","","","39","","","","key","16.67200000000008","891","512","true","1","131.57899364351996","2.0615843020800004","12","-1","-1","","","","","","","","","","","","",""
"psychophysics","41","221191","0.0-6.0-0.35","6086a11397234e7f83e4e793","609a8bf73b2ac84e2732f618","60a267ad909b680ffc0ddeba","268.45999999932246","","","","37","","","","key","16.672000000000192","891","512","true","-1","131.57899364351996","2.0615843020800004","12","-1","-1","","","","","","","","","","","","",""
"psychophysics","42","222462","0.0-6.0-0.36","6086a11397234e7f83e4e793","609a8bf73b2ac84e2732f618","60a267ad909b680ffc0ddeba","270.329999999376","","","","39","","","","key","16.671999999999922","891","512","true","1","129.51740934143996","2.0615843020800004","12","-1","-1","","","","","","","","","","","","",""
"psychophysics","43","223823","0.0-6.0-0.37","6086a11397234e7f83e4e793","609a8bf73b2ac84e2732f618","60a267ad909b680ffc0ddeba","360.36500000045635","","","","39","","","","key","16.672000000000118","891","512","true","-1","129.51740934143996","1.6492674416640005","13","1","-1","","","","","","","","","","","","",""
"psychophysics","44","225185","0.0-6.0-0.38","6086a11397234e7f83e4e793","609a8bf73b2ac84e2732f618","60a267ad909b680ffc0ddeba","360.1799999996729","","","","39","","","","key","16.672000000000008","891","512","true","1","131.16667678310395","1.6492674416640005","13","-1","1","","","","","","","","","","","","",""
"psychophysics","45","226546","0.0-6.0-0.39","6086a11397234e7f83e4e793","609a8bf73b2ac84e2732f618","60a267ad909b680ffc0ddeba","360.23000000204775","","","","39","","","","key","16.722123456790104","891","512","true","1","131.16667678310395","1.3194139533312006","14","-1","-1","","","","","","","","","","","","",""
"html-keyboard-response","46","230438","0.0-7.0","6086a11397234e7f83e4e793","609a8bf73b2ac84e2732f618","60a267ad909b680ffc0ddeba","3891.410000000178","<p>Well Done !</p><p>Prepare for a new block.</p><p>DON'T EXIT THE FULL SCREEN MODE</p><p>Press the Spacebar to start.</p>","","","32","","","","","","","","","","","","","","","true","132.22302398955517","","","","","","","","","","",""
"psychophysics","47","231597","0.0-8.0-0.0","6086a11397234e7f83e4e793","609a8bf73b2ac84e2732f618","60a267ad909b680ffc0ddeba","157.23499999876367","","","","37","","","","key","16.67199999999982","891","512","true","-1","180","30","0","-1","","","","","","","","","","","","","",""
"psychophysics","48","232734","0.0-8.0-0.1","6086a11397234e7f83e4e793","609a8bf73b2ac84e2732f618","60a267ad909b680ffc0ddeba","136.01500000004307","","","","39","","","","key","16.672000000000374","891","512","true","1","180","30","0","-1","-1","","","","","","","","","","","","",""
"psychophysics","49","234128","0.0-8.0-0.2","6086a11397234e7f83e4e793","609a8bf73b2ac84e2732f618","60a267ad909b680ffc0ddeba","393.739999999525","","","","39","","","","key","16.671999999999905","891","512","true","-1","150","24","1","1","-1","","","","","","","","","","","","",""
"psychophysics","50","235400","0.0-8.0-0.3","6086a11397234e7f83e4e793","609a8bf73b2ac84e2732f618","60a267ad909b680ffc0ddeba","267.98499999858905","","","","39","","","","key","16.672000000000192","891","512","true","1","174","24","1","-1","1","","","","","","","","","","","","",""
"psychophysics","51","236536","0.0-8.0-0.4","6086a11397234e7f83e4e793","609a8bf73b2ac84e2732f618","60a267ad909b680ffc0ddeba","133.08500000130152","","","","39","","","","key","16.73345454545448","891","512","true","1","174","19.2","2","-1","-1","","","","","","","","","","","","",""
"psychophysics","52","237785","0.0-8.0-0.5","6086a11397234e7f83e4e793","609a8bf73b2ac84e2732f618","60a267ad909b680ffc0ddeba","247.98999999984517","","","","39","","","","key","16.672000000000036","891","512","true","1","154.8","19.2","2","-1","-1","","","","","","","","","","","","",""
"psychophysics","53","238966","0.0-8.0-0.6","6086a11397234e7f83e4e793","609a8bf73b2ac84e2732f618","60a267ad909b680ffc0ddeba","180.30999999973574","","","","39","","","","key","16.672000000000118","891","512","true","1","154.8","19.2","2","-1","-1","","","","","","","","","","","","",""
"psychophysics","54","240361","0.0-8.0-0.7","6086a11397234e7f83e4e793","609a8bf73b2ac84e2732f618","60a267ad909b680ffc0ddeba","392.3900000008871","","","","39","","","","key","16.6719999999998","891","512","true","-1","135.60000000000002","15.36","3","1","-1","","","","","","","","","","","","",""
"psychophysics","55","241486","0.0-8.0-0.8","6086a11397234e7f83e4e793","609a8bf73b2ac84e2732f618","60a267ad909b680ffc0ddeba","123.39500000234693","","","","37","","","","key","16.671999999999763","891","512","true","-1","150.96000000000004","15.36","3","-1","1","","","","","","","","","","","","",""
"psychophysics","56","242780","0.0-8.0-0.9","6086a11397234e7f83e4e793","609a8bf73b2ac84e2732f618","60a267ad909b680ffc0ddeba","292.53999999855296","","","","37","","","","key","16.671999999999702","891","512","true","-1","150.96000000000004","12.287999999999998","4","-1","-1","","","","","","","","","","","","",""
"psychophysics","57","244209","0.0-8.0-0.10","6086a11397234e7f83e4e793","609a8bf73b2ac84e2732f618","60a267ad909b680ffc0ddeba","427.5000000016007","","","","39","","","","key","16.671999999999944","891","512","true","1","138.67200000000003","12.287999999999998","4","-1","-1","","","","","","","","","","","","",""
"psychophysics","58","245323","0.0-8.0-0.11","6086a11397234e7f83e4e793","609a8bf73b2ac84e2732f618","60a267ad909b680ffc0ddeba","112.8099999987171","","","","37","","","","key","16.672000000000203","891","512","true","-1","138.67200000000003","12.287999999999998","4","-1","-1","","","","","","","","","","","","",""
"psychophysics","59","247021","0.0-8.0-0.12","6086a11397234e7f83e4e793","609a8bf73b2ac84e2732f618","60a267ad909b680ffc0ddeba","698.0249999978696","","","","37","","","","key","16.711959999999962","891","512","true","-1","129","12.287999999999998","4","-1","-1","","","","","","","","","","","","",""
"psychophysics","60","248934","0.0-8.0-0.13","6086a11397234e7f83e4e793","609a8bf73b2ac84e2732f618","60a267ad909b680ffc0ddeba","909.9549999991723","","","","37","","","","key","16.672000000000065","891","512","true","-1","129","12.287999999999998","4","-1","-1","","","","","","","","","","","","",""
"psychophysics","61","250700","0.0-8.0-0.14","6086a11397234e7f83e4e793","609a8bf73b2ac84e2732f618","60a267ad909b680ffc0ddeba","764.8150000022724","","","","39","","","","key","16.67199999999998","891","512","true","1","129","12.287999999999998","4","-1","-1","","","","","","","","","","","","",""
"psychophysics","62","252208","0.0-8.0-0.15","6086a11397234e7f83e4e793","609a8bf73b2ac84e2732f618","60a267ad909b680ffc0ddeba","506.37499999720603","","","","37","","","","key","16.671999999999887","891","512","true","-1","129","12.287999999999998","4","-1","-1","","","","","","","","","","","","",""
"psychophysics","63","253952","0.0-8.0-0.16","6086a11397234e7f83e4e793","609a8bf73b2ac84e2732f618","60a267ad909b680ffc0ddeba","741.2499999991269","","","","37","","","","key","16.67200000000006","891","512","true","1","129","9.8304","5","1","-1","","","","","","","","","","","","",""
"psychophysics","64","255269","0.0-8.0-0.17","6086a11397234e7f83e4e793","609a8bf73b2ac84e2732f618","60a267ad909b680ffc0ddeba","315.38499999805936","","","","37","","","","key","16.67200000000034","891","512","true","-1","138.8304","9.8304","5","-1","1","","","","","","","","","","","","",""
"psychophysics","65","256539","0.0-8.0-0.18","6086a11397234e7f83e4e793","609a8bf73b2ac84e2732f618","60a267ad909b680ffc0ddeba","269.9499999980617","","","","39","","","","key","16.725946666666616","891","512","true","1","138.8304","7.864319999999999","6","-1","-1","","","","","","","","","","","","",""
"psychophysics","66","257788","0.0-8.0-0.19","6086a11397234e7f83e4e793","609a8bf73b2ac84e2732f618","60a267ad909b680ffc0ddeba","247.55499999810127","","","","39","","","","key","16.672000000000036","891","512","true","1","130.96608","7.864319999999999","6","-1","-1","","","","","","","","","","","","",""
"psychophysics","67","259172","0.0-8.0-0.20","6086a11397234e7f83e4e793","609a8bf73b2ac84e2732f618","60a267ad909b680ffc0ddeba","382.9299999997602","","","","39","","","","key","16.67200000000026","891","512","true","-1","130.96608","6.291456","7","1","-1","","","","","","","","","","","","",""
"psychophysics","68","260522","0.0-8.0-0.21","6086a11397234e7f83e4e793","609a8bf73b2ac84e2732f618","60a267ad909b680ffc0ddeba","349.26500000074157","","","","39","","","","key","16.672000000000118","891","512","true","-1","137.25753600000002","6.291456","7","1","1","","","","","","","","","","","","",""
"psychophysics","69","261849","0.0-8.0-0.22","6086a11397234e7f83e4e793","609a8bf73b2ac84e2732f618","60a267ad909b680ffc0ddeba","326.6250000015134","","","","39","","","","key","16.67199999999997","891","512","true","1","143.54899200000003","6.291456","7","-1","1","","","","","","","","","","","","",""
"psychophysics","70","263200","0.0-8.0-0.23","6086a11397234e7f83e4e793","609a8bf73b2ac84e2732f618","60a267ad909b680ffc0ddeba","346.97500000032596","","","","37","","","","key","16.672000000000118","891","512","true","-1","143.54899200000003","5.033164800000001","8","-1","-1","","","","","","","","","","","","",""
"psychophysics","71","264449","0.0-8.0-0.24","6086a11397234e7f83e4e793","609a8bf73b2ac84e2732f618","60a267ad909b680ffc0ddeba","246.06000000127824","","","","39","","","","key","16.672000000000036","891","512","true","1","138.51582720000002","5.033164800000001","8","-1","-1","","","","","","","","","","","","",""
"psychophysics","72","265709","0.0-8.0-0.25","6086a11397234e7f83e4e793","609a8bf73b2ac84e2732f618","60a267ad909b680ffc0ddeba","257.68500000046333","","","","39","","","","key","16.671999999999535","891","512","true","1","138.51582720000002","5.033164800000001","8","-1","-1","","","","","","","","","","","","",""
"psychophysics","73","266912","0.0-8.0-0.26","6086a11397234e7f83e4e793","609a8bf73b2ac84e2732f618","60a267ad909b680ffc0ddeba","201.73499999876367","","","","39","","","","key","16.729450704225727","891","512","true","1","133.4826624","5.033164800000001","8","-1","-1","","","","","","","","","","","","",""
"psychophysics","74","268037","0.0-8.0-0.27","6086a11397234e7f83e4e793","609a8bf73b2ac84e2732f618","60a267ad909b680ffc0ddeba","124.2050000000745","","","","37","","","","key","16.672000000000203","891","512","true","-1","133.4826624","5.033164800000001","8","-1","-1","","","","","","","","","","","","",""
"psychophysics","75","269668","0.0-8.0-0.28","6086a11397234e7f83e4e793","609a8bf73b2ac84e2732f618","60a267ad909b680ffc0ddeba","628.3550000007963","","","","39","","","","key","16.671999999999485","891","512","true","-1","129","4.0265318400000005","9","1","-1","","","","","","","","","","","","",""
"psychophysics","76","270996","0.0-8.0-0.29","6086a11397234e7f83e4e793","609a8bf73b2ac84e2732f618","60a267ad909b680ffc0ddeba","325.4749999977648","","","","37","","","","key","16.67199999999986","891","512","true","-1","133.02653184","4.0265318400000005","9","-1","1","","","","","","","","","","","","",""
"psychophysics","77","272537","0.0-8.0-0.30","6086a11397234e7f83e4e793","609a8bf73b2ac84e2732f618","60a267ad909b680ffc0ddeba","540.4449999987264","","","","37","","","","key","16.672000000000022","891","512","true","-1","133.02653184","3.2212254720000004","10","-1","-1","","","","","","","","","","","","",""
"psychophysics","78","273899","0.0-8.0-0.31","6086a11397234e7f83e4e793","609a8bf73b2ac84e2732f618","60a267ad909b680ffc0ddeba","359.00499999837484","","","","37","","","","key","16.67199999999965","891","512","true","-1","129.805306368","3.2212254720000004","10","-1","-1","","","","","","","","","","","","",""
"psychophysics","79","275958","0.0-8.0-0.32","6086a11397234e7f83e4e793","609a8bf73b2ac84e2732f618","60a267ad909b680ffc0ddeba","1058.004999998957","","","","39","","","","key","16.671999999999972","891","512","true","-1","129.805306368","2.5769803776000004","11","1","-1","","","","","","","","","","","","",""
"psychophysics","80","277262","0.0-8.0-0.33","6086a11397234e7f83e4e793","609a8bf73b2ac84e2732f618","60a267ad909b680ffc0ddeba","302.8950000007171","","","","39","","","","key","16.724623376623782","891","512","true","1","132.3822867456","2.5769803776000004","11","-1","1","","","","","","","","","","","","",""
"psychophysics","81","284451","0.0-8.0-0.34","6086a11397234e7f83e4e793","609a8bf73b2ac84e2732f618","60a267ad909b680ffc0ddeba","6186.310000000987","","","","39","","","","key","16.67199999999996","891","512","true","1","132.3822867456","2.0615843020800004","12","-1","-1","","","","","","","","","","","","",""
"psychophysics","82","286196","0.0-8.0-0.35","6086a11397234e7f83e4e793","609a8bf73b2ac84e2732f618","60a267ad909b680ffc0ddeba","742.8650000002235","","","","39","","","","key","16.711660194175106","891","512","true","1","130.32070244352","2.0615843020800004","12","-1","-1","","","","","","","","","","","","",""
"psychophysics","83","287568","0.0-8.0-0.36","6086a11397234e7f83e4e793","609a8bf73b2ac84e2732f618","60a267ad909b680ffc0ddeba","370.97999999969034","","","","37","","","","key","16.67199999999965","891","512","true","1","130.32070244352","1.6492674416640005","13","1","-1","","","","","","","","","","","","",""
"psychophysics","84","289109","0.0-8.0-0.37","6086a11397234e7f83e4e793","609a8bf73b2ac84e2732f618","60a267ad909b680ffc0ddeba","538.5449999994016","","","","37","","","","key","16.67199999999961","891","512","true","-1","131.96996988518399","1.6492674416640005","13","-1","1","","","","","","","","","","","","",""
"psychophysics","85","290392","0.0-8.0-0.38","6086a11397234e7f83e4e793","609a8bf73b2ac84e2732f618","60a267ad909b680ffc0ddeba","281.89500000007683","","","","39","","","","key","16.67199999999981","891","512","true","1","131.96996988518399","1.3194139533312006","14","-1","-1","","","","","","","","","","","","",""
"psychophysics","86","291888","0.0-8.0-0.39","6086a11397234e7f83e4e793","609a8bf73b2ac84e2732f618","60a267ad909b680ffc0ddeba","495.23000000044703","","","","39","","","","key","16.671999999999983","891","512","true","1","130.65055593185278","1.3194139533312006","14","-1","-1","","","","","","","","","","","","",""
"html-keyboard-response","87","293722","0.0-9.0","6086a11397234e7f83e4e793","609a8bf73b2ac84e2732f618","60a267ad909b680ffc0ddeba","1833.3049999965006","<p>Well Done !</p><p>Prepare for a new block.</p><p>DON'T EXIT THE FULL SCREEN MODE</p><p>Press the Spacebar to start.</p>","","","32","","","","","","","","","","","","","","","true","132.0094201664307","","","","","","","","","","",""
"psychophysics","88","294982","0.0-10.0-0.0","6086a11397234e7f83e4e793","609a8bf73b2ac84e2732f618","60a267ad909b680ffc0ddeba","256.9150000017835","","","","39","","","","key","16.67199999999981","891","512","true","1","180","30","0","-1","","","","","","","","","","","","","",""
"psychophysics","89","295983","0.0-10.0-0.1","6086a11397234e7f83e4e793","609a8bf73b2ac84e2732f618","60a267ad909b680ffc0ddeba","0.455000001238659","","","","39","","","","key","16.67199999999977","891","512","true","1","180","30","0","-1","-1","","","","","","","","","","","","",""
"psychophysics","90","298683","0.0-10.0-0.2","6086a11397234e7f83e4e793","609a8bf73b2ac84e2732f618","60a267ad909b680ffc0ddeba","1699.334999997518","","","","39","","","","key","16.697180124223507","891","512","true","1","150","30","0","-1","-1","","","","","","","","","","","","",""
"psychophysics","91","299808","0.0-10.0-0.3","6086a11397234e7f83e4e793","609a8bf73b2ac84e2732f618","60a267ad909b680ffc0ddeba","124.13499999826308","","","","37","","","","key","16.672000000000203","891","512","true","-1","150","30","0","-1","-1","","","","","","","","","","","","",""
"psychophysics","92","301012","0.0-10.0-0.4","6086a11397234e7f83e4e793","609a8bf73b2ac84e2732f618","60a267ad909b680ffc0ddeba","201.38500000030035","","","","37","","","","key","16.671999999999993","891","512","true","-1","129","30","0","-1","-1","","","","","","","","","","","","",""
"psychophysics","93","302272","0.0-10.0-0.5","6086a11397234e7f83e4e793","609a8bf73b2ac84e2732f618","60a267ad909b680ffc0ddeba","257.3999999986263","","","","39","","","","key","16.671999999999535","891","512","true","-1","129","24","1","1","-1","","","","","","","","","","","","",""
"psychophysics","94","303847","0.0-10.0-0.6","6086a11397234e7f83e4e793","609a8bf73b2ac84e2732f618","60a267ad909b680ffc0ddeba","573.2349999998696","","","","39","","","","key","16.671999999999834","891","512","true","1","153","24","1","-1","1","","","","","","","","","","","","",""
"psychophysics","95","305062","0.0-10.0-0.7","6086a11397234e7f83e4e793","609a8bf73b2ac84e2732f618","60a267ad909b680ffc0ddeba","211.8850000006496","","","","39","","","","key","16.672000000000278","891","512","true","1","153","19.2","2","-1","-1","","","","","","","","","","","","",""
"psychophysics","96","306120","0.0-10.0-0.8","6086a11397234e7f83e4e793","609a8bf73b2ac84e2732f618","60a267ad909b680ffc0ddeba","54.47499999718275","","","","37","","","","key","16.737338709677832","891","512","true","-1","133.8","19.2","2","-1","-1","","","","","","","","","","","","",""
"psychophysics","97","307796","0.0-10.0-0.9","6086a11397234e7f83e4e793","609a8bf73b2ac84e2732f618","60a267ad909b680ffc0ddeba","675.1850000000559","","","","39","","","","key","16.671999999999535","891","512","true","1","133.8","19.2","2","-1","-1","","","","","","","","","","","","",""
"psychophysics","98","309315","0.0-10.0-0.10","6086a11397234e7f83e4e793","609a8bf73b2ac84e2732f618","60a267ad909b680ffc0ddeba","516.879999999248","","","","39","","","","key","16.671999999999795","891","512","true","1","129","19.2","2","-1","-1","","","","","","","","","","","","",""
"psychophysics","99","310912","0.0-10.0-0.11","6086a11397234e7f83e4e793","609a8bf73b2ac84e2732f618","60a267ad909b680ffc0ddeba","595.274999999674","","","","39","","","","key","16.67200000000027","891","512","true","1","129","19.2","2","-1","-1","","","","","","","","","","","","",""
"psychophysics","100","312296","0.0-10.0-0.12","6086a11397234e7f83e4e793","609a8bf73b2ac84e2732f618","60a267ad909b680ffc0ddeba","382.16499999910593","","","","39","","","","key","16.671999999999905","891","512","true","-1","129","15.36","3","1","-1","","","","","","","","","","","","",""
"psychophysics","101","313579","0.0-10.0-0.13","6086a11397234e7f83e4e793","609a8bf73b2ac84e2732f618","60a267ad909b680ffc0ddeba","280.8500000028289","","","","39","","","","key","16.67199999999981","891","512","true","1","144.36","15.36","3","-1","1","","","","","","","","","","","","",""
"psychophysics","102","314794","0.0-10.0-0.14","6086a11397234e7f83e4e793","609a8bf73b2ac84e2732f618","60a267ad909b680ffc0ddeba","213.4650000007823","","","","39","","","","key","16.672000000000278","891","512","true","1","144.36","12.287999999999998","4","-1","-1","","","","","","","","","","","","",""
"psychophysics","103","316042","0.0-10.0-0.15","6086a11397234e7f83e4e793","609a8bf73b2ac84e2732f618","60a267ad909b680ffc0ddeba","247.99999999953434","","","","37","","","","key","16.672000000000036","891","512","true","-1","132.072","12.287999999999998","4","-1","-1","","","","","","","","","","","","",""
"psychophysics","104","317415","0.0-10.0-0.16","6086a11397234e7f83e4e793","609a8bf73b2ac84e2732f618","60a267ad909b680ffc0ddeba","370.4349999970873","","","","37","","","","key","16.722098765431983","891","512","true","1","132.072","9.8304","5","1","-1","","","","","","","","","","","","",""
"psychophysics","105","318765","0.0-10.0-0.17","6086a11397234e7f83e4e793","609a8bf73b2ac84e2732f618","60a267ad909b680ffc0ddeba","349.0249999995576","","","","39","","","","key","16.67199999999939","891","512","true","1","141.9024","9.8304","5","-1","1","","","","","","","","","","","","",""
"psychophysics","106","320059","0.0-10.0-0.18","6086a11397234e7f83e4e793","609a8bf73b2ac84e2732f618","60a267ad909b680ffc0ddeba","293.10000000259606","","","","37","","","","key","16.67199999999981","891","512","true","-1","141.9024","7.864319999999999","6","-1","-1","","","","","","","","","","","","",""
"psychophysics","107","321263","0.0-10.0-0.19","6086a11397234e7f83e4e793","609a8bf73b2ac84e2732f618","60a267ad909b680ffc0ddeba","200.80500000040047","","","","37","","","","key","16.672000000000278","891","512","true","-1","134.03808","7.864319999999999","6","-1","-1","","","","","","","","","","","","",""
"psychophysics","108","322500","0.0-10.0-0.20","6086a11397234e7f83e4e793","609a8bf73b2ac84e2732f618","60a267ad909b680ffc0ddeba","236.5350000000326","","","","37","","","","key","16.672000000000555","891","512","true","-1","134.03808","7.864319999999999","6","-1","-1","","","","","","","","","","","","",""
"psychophysics","109","323918","0.0-10.0-0.21","6086a11397234e7f83e4e793","609a8bf73b2ac84e2732f618","60a267ad909b680ffc0ddeba","417.5950000025914","","","","37","","","","key","16.672000000000395","891","512","true","-1","129","7.864319999999999","6","-1","-1","","","","","","","","","","","","",""
"psychophysics","110","325291","0.0-10.0-0.22","6086a11397234e7f83e4e793","609a8bf73b2ac84e2732f618","60a267ad909b680ffc0ddeba","371.129999999539","","","","39","","","","key","16.672000000000367","891","512","true","1","129","7.864319999999999","6","-1","-1","","","","","","","","","","","","",""
"psychophysics","111","326697","0.0-10.0-0.23","6086a11397234e7f83e4e793","609a8bf73b2ac84e2732f618","60a267ad909b680ffc0ddeba","404.7599999975646","","","","39","","","","key","16.720795180722902","891","512","true","-1","129","6.291456","7","1","-1","","","","","","","","","","","","",""
"psychophysics","112","328216","0.0-10.0-0.24","6086a11397234e7f83e4e793","609a8bf73b2ac84e2732f618","60a267ad909b680ffc0ddeba","516.2749999981606","","","","39","","","","key","16.671999999999795","891","512","true","1","135.291456","6.291456","7","-1","1","","","","","","","","","","","","",""
"psychophysics","113","329520","0.0-10.0-0.25","6086a11397234e7f83e4e793","609a8bf73b2ac84e2732f618","60a267ad909b680ffc0ddeba","301.83000000036554","","","","37","","","","key","16.67200000000034","891","512","true","-1","135.291456","5.033164800000001","8","-1","-1","","","","","","","","","","","","",""
"psychophysics","114","331062","0.0-10.0-0.26","6086a11397234e7f83e4e793","609a8bf73b2ac84e2732f618","60a267ad909b680ffc0ddeba","540.2649999996647","","","","37","","","","key","16.672000000000022","891","512","true","1","130.2582912","4.0265318400000005","9","1","-1","","","","","","","","","","","","",""
"psychophysics","115","332288","0.0-10.0-0.27","6086a11397234e7f83e4e793","609a8bf73b2ac84e2732f618","60a267ad909b680ffc0ddeba","224.22000000003027","","","","37","","","","key","16.67199999999976","891","512","true","-1","134.28482304","4.0265318400000005","9","-1","1","","","","","","","","","","","","",""
"psychophysics","116","333649","0.0-10.0-0.28","6086a11397234e7f83e4e793","609a8bf73b2ac84e2732f618","60a267ad909b680ffc0ddeba","360.41499999916414","","","","39","","","","key","16.672000000000118","891","512","true","1","134.28482304","3.2212254720000004","10","-1","-1","","","","","","","","","","","","",""
"psychophysics","117","334944","0.0-10.0-0.29","6086a11397234e7f83e4e793","609a8bf73b2ac84e2732f618","60a267ad909b680ffc0ddeba","291.16500000236556","","","","39","","","","key","16.67200000000008","891","512","true","-1","131.06359756799998","2.5769803776000004","11","1","-1","","","","","","","","","","","","",""
"psychophysics","118","336237","0.0-10.0-0.30","6086a11397234e7f83e4e793","609a8bf73b2ac84e2732f618","60a267ad909b680ffc0ddeba","292.22999999916647","","","","37","","","","key","16.724828947368415","891","512","true","-1","133.64057794559997","2.5769803776000004","11","-1","1","","","","","","","","","","","","",""
"psychophysics","119","337497","0.0-10.0-0.31","6086a11397234e7f83e4e793","609a8bf73b2ac84e2732f618","60a267ad909b680ffc0ddeba","257.24999999871943","","","","39","","","","key","16.67200000000031","891","512","true","1","133.64057794559997","2.0615843020800004","12","-1","-1","","","","","","","","","","","","",""
"psychophysics","120","338949","0.0-10.0-0.32","6086a11397234e7f83e4e793","609a8bf73b2ac84e2732f618","60a267ad909b680ffc0ddeba","450.9299999990617","","","","39","","","","key","16.671999999999507","891","512","true","-1","131.57899364351996","1.6492674416640005","13","1","-1","","","","","","","","","","","","",""
"psychophysics","121","339961","0.0-10.0-0.33","6086a11397234e7f83e4e793","609a8bf73b2ac84e2732f618","60a267ad909b680ffc0ddeba","11.565000000759028","","","","39","","","","key","16.672000000000118","891","512","true","1","133.22826108518396","1.6492674416640005","13","-1","1","","","","","","","","","","","","",""
"psychophysics","122","341075","0.0-10.0-0.34","6086a11397234e7f83e4e793","609a8bf73b2ac84e2732f618","60a267ad909b680ffc0ddeba","112.68999999813968","","","","37","","","","key","16.671999999999894","891","512","true","-1","133.22826108518396","1.3194139533312006","14","-1","-1","","","","","","","","","","","","",""
"psychophysics","123","342267","0.0-10.0-0.35","6086a11397234e7f83e4e793","609a8bf73b2ac84e2732f618","60a267ad909b680ffc0ddeba","189.6450000021723","","","","39","","","","key","16.671999999999993","891","512","true","1","131.90884713185275","1.3194139533312006","14","-1","-1","","","","","","","","","","","","",""
"psychophysics","124","343370","0.0-10.0-0.36","6086a11397234e7f83e4e793","609a8bf73b2ac84e2732f618","60a267ad909b680ffc0ddeba","101.30000000208383","","","","39","","","","key","16.671999999999894","891","512","true","1","131.90884713185275","1.3194139533312006","14","-1","-1","","","","","","","","","","","","",""
"psychophysics","125","344697","0.0-10.0-0.37","6086a11397234e7f83e4e793","609a8bf73b2ac84e2732f618","60a267ad909b680ffc0ddeba","325.36500000063097","","","","39","","","","key","16.67199999999986","891","512","true","-1","130.58943317852155","1.0555311626649604","15","1","-1","","","","","","","","","","","","",""
"psychophysics","126","345777","0.0-10.0-0.38","6086a11397234e7f83e4e793","609a8bf73b2ac84e2732f618","60a267ad909b680ffc0ddeba","79.27500000002328","","","","37","","","","key","16.67199999999924","891","512","true","-1","131.6449643411865","1.0555311626649604","15","-1","1","","","","","","","","","","","","",""
"psychophysics","127","346981","0.0-10.0-0.39","6086a11397234e7f83e4e793","609a8bf73b2ac84e2732f618","60a267ad909b680ffc0ddeba","202.75500000210013","","","","37","","","","key","16.72961971831006","891","512","true","-1","131.6449643411865","1","16","-1","-1","","","","","","","","","","","","",""
"html-keyboard-response","128","348905","0.0-11.0","6086a11397234e7f83e4e793","609a8bf73b2ac84e2732f618","60a267ad909b680ffc0ddeba","1923.4600000018254","<p>Well Done !</p><p>Prepare for a new block.</p><p>DON'T EXIT THE FULL SCREEN MODE</p><p>Press the Spacebar to start.</p>","","","32","","","","","","","","","","","","","","","true","132.54644791184586","","","","","","","","","","",""
"psychophysics","129","351144","0.0-12.0-0.0","6086a11397234e7f83e4e793","609a8bf73b2ac84e2732f618","60a267ad909b680ffc0ddeba","1237.9600000022328","","","","37","","","","key","16.67200000000007","891","512","true","-1","180","30","0","-1","","","","","","","","","","","","","",""
"psychophysics","130","352617","0.0-12.0-0.1","6086a11397234e7f83e4e793","609a8bf73b2ac84e2732f618","60a267ad909b680ffc0ddeba","471.14000000146916","","","","37","","","","key","16.67199999999975","891","512","true","-1","180","30","0","-1","-1","","","","","","","","","","","","",""
"psychophysics","131","353934","0.0-12.0-0.2","6086a11397234e7f83e4e793","609a8bf73b2ac84e2732f618","60a267ad909b680ffc0ddeba","314.4400000019232","","","","39","","","","key","16.671999999999596","891","512","true","1","150","30","0","-1","-1","","","","","","","","","","","","",""
"psychophysics","132","355104","0.0-12.0-0.3","6086a11397234e7f83e4e793","609a8bf73b2ac84e2732f618","60a267ad909b680ffc0ddeba","167.6149999984773","","","","39","","","","key","16.671999999999702","891","512","true","1","150","30","0","-1","-1","","","","","","","","","","","","",""
"psychophysics","133","356398","0.0-12.0-0.4","6086a11397234e7f83e4e793","609a8bf73b2ac84e2732f618","60a267ad909b680ffc0ddeba","293.2699999982724","","","","39","","","","key","16.72457894736803","891","512","true","-1","129","24","1","1","-1","","","","","","","","","","","","",""
"psychophysics","134","357478","0.0-12.0-0.5","6086a11397234e7f83e4e793","609a8bf73b2ac84e2732f618","60a267ad909b680ffc0ddeba","78.37999999907333","","","","37","","","","key","16.67199999999957","891","512","true","-1","153","24","1","-1","1","","","","","","","","","","","","",""
"psychophysics","135","359064","0.0-12.0-0.6","6086a11397234e7f83e4e793","609a8bf73b2ac84e2732f618","60a267ad909b680ffc0ddeba","585.304999996908","","","","37","","","","key","16.672000000000054","891","512","true","-1","153","19.2","2","-1","-1","","","","","","","","","","","","",""
"psychophysics","136","360234","0.0-12.0-0.7","6086a11397234e7f83e4e793","609a8bf73b2ac84e2732f618","60a267ad909b680ffc0ddeba","168.6699999991106","","","","37","","","","key","16.6719999999994","891","512","true","-1","133.8","19.2","2","-1","-1","","","","","","","","","","","","",""
"psychophysics","137","361652","0.0-12.0-0.8","6086a11397234e7f83e4e793","609a8bf73b2ac84e2732f618","60a267ad909b680ffc0ddeba","415.61000000004424","","","","37","","","","key","16.671999999999702","891","512","true","1","133.8","15.36","3","1","-1","","","","","","","","","","","","",""
"psychophysics","138","362923","0.0-12.0-0.9","6086a11397234e7f83e4e793","609a8bf73b2ac84e2732f618","60a267ad909b680ffc0ddeba","268.43000000010943","","","","39","","","","key","16.67200000000031","891","512","true","-1","149.16000000000003","15.36","3","1","1","","","","","","","","","","","","",""
"psychophysics","139","364239","0.0-12.0-0.10","6086a11397234e7f83e4e793","609a8bf73b2ac84e2732f618","60a267ad909b680ffc0ddeba","313.01000000169734","","","","39","","","","key","16.67200000000034","891","512","true","1","164.52000000000004","15.36","3","-1","1","","","","","","","","","","","","",""
"psychophysics","140","365589","0.0-12.0-0.11","6086a11397234e7f83e4e793","609a8bf73b2ac84e2732f618","60a267ad909b680ffc0ddeba","346.9199999999837","","","","39","","","","key","16.672000000000118","891","512","true","1","164.52000000000004","12.287999999999998","4","-1","-1","","","","","","","","","","","","",""
"psychophysics","141","366748","0.0-12.0-0.12","6086a11397234e7f83e4e793","609a8bf73b2ac84e2732f618","60a267ad909b680ffc0ddeba","156.28999999898952","","","","37","","","","key","16.73139130434804","891","512","true","-1","152.23200000000003","12.287999999999998","4","-1","-1","","","","","","","","","","","","",""
"psychophysics","142","367929","0.0-12.0-0.13","6086a11397234e7f83e4e793","609a8bf73b2ac84e2732f618","60a267ad909b680ffc0ddeba","180.1000000013737","","","","37","","","","key","16.672000000000242","891","512","true","-1","152.23200000000003","12.287999999999998","4","-1","-1","","","","","","","","","","","","",""
"psychophysics","143","369032","0.0-12.0-0.14","6086a11397234e7f83e4e793","609a8bf73b2ac84e2732f618","60a267ad909b680ffc0ddeba","100.2249999983469","","","","39","","","","key","16.671999999999322","891","512","true","1","139.94400000000002","12.287999999999998","4","-1","-1","","","","","","","","","","","","",""
"psychophysics","144","370562","0.0-12.0-0.15","6086a11397234e7f83e4e793","609a8bf73b2ac84e2732f618","60a267ad909b680ffc0ddeba","529.2649999973946","","","","39","","","","key","16.671999999999795","891","512","true","1","139.94400000000002","12.287999999999998","4","-1","-1","","","","","","","","","","","","",""
"psychophysics","145","372475","0.0-12.0-0.16","6086a11397234e7f83e4e793","609a8bf73b2ac84e2732f618","60a267ad909b680ffc0ddeba","909.6849999986589","","","","39","","","","key","16.672000000000065","891","512","true","1","129","12.287999999999998","4","-1","-1","","","","","","","","","","","","",""
"psychophysics","146","373971","0.0-12.0-0.17","6086a11397234e7f83e4e793","609a8bf73b2ac84e2732f618","60a267ad909b680ffc0ddeba","494.33499999938067","","","","39","","","","key","16.67199999999956","891","512","true","1","129","12.287999999999998","4","-1","-1","","","","","","","","","","","","",""
"psychophysics","147","375445","0.0-12.0-0.18","6086a11397234e7f83e4e793","609a8bf73b2ac84e2732f618","60a267ad909b680ffc0ddeba","472.4900000001071","","","","39","","","","key","16.67199999999975","891","512","true","1","129","12.287999999999998","4","-1","-1","","","","","","","","","","","","",""
"psychophysics","148","376851","0.0-12.0-0.19","6086a11397234e7f83e4e793","609a8bf73b2ac84e2732f618","60a267ad909b680ffc0ddeba","404.6200000011595","","","","39","","","","key","16.721048192771192","891","512","true","1","129","12.287999999999998","4","-1","-1","","","","","","","","","","","","",""
"psychophysics","149","378201","0.0-12.0-0.20","6086a11397234e7f83e4e793","609a8bf73b2ac84e2732f618","60a267ad909b680ffc0ddeba","347.06999999983236","","","","37","","","","key","16.672000000000118","891","512","true","-1","129","12.287999999999998","4","-1","-1","","","","","","","","","","","","",""
"psychophysics","150","380811","0.0-12.0-0.21","6086a11397234e7f83e4e793","609a8bf73b2ac84e2732f618","60a267ad909b680ffc0ddeba","1607.319999999192","","","","39","","","","key","16.67199999999997","891","512","true","-1","129","9.8304","5","1","-1","","","","","","","","","","","","",""
"psychophysics","151","382498","0.0-12.0-0.22","6086a11397234e7f83e4e793","609a8bf73b2ac84e2732f618","60a267ad909b680ffc0ddeba","686.4650000025285","","","","39","","","","key","16.671999999999535","891","512","true","-1","138.8304","9.8304","5","1","1","","","","","","","","","","","","",""
"psychophysics","152","384501","0.0-12.0-0.23","6086a11397234e7f83e4e793","609a8bf73b2ac84e2732f618","60a267ad909b680ffc0ddeba","1000.5799999998999","","","","39","","","","key","16.671999999999944","891","512","true","-1","148.6608","9.8304","5","1","1","","","","","","","","","","","","",""
"psychophysics","153","385761","0.0-12.0-0.24","6086a11397234e7f83e4e793","609a8bf73b2ac84e2732f618","60a267ad909b680ffc0ddeba","257.6550000013085","","","","37","","","","key","16.671999999999535","891","512","true","-1","158.4912","9.8304","5","-1","1","","","","","","","","","","","","",""
"psychophysics","154","387089","0.0-12.0-0.25","6086a11397234e7f83e4e793","609a8bf73b2ac84e2732f618","60a267ad909b680ffc0ddeba","326.2450000002282","","","","37","","","","key","16.723551282051723","891","512","true","-1","158.4912","7.864319999999999","6","-1","-1","","","","","","","","","","","","",""
"psychophysics","155","388394","0.0-12.0-0.26","6086a11397234e7f83e4e793","609a8bf73b2ac84e2732f618","60a267ad909b680ffc0ddeba","304.24000000127126","","","","37","","","","key","16.67200000000008","891","512","true","-1","150.62688","7.864319999999999","6","-1","-1","","","","","","","","","","","","",""
"psychophysics","156","389687","0.0-12.0-0.27","6086a11397234e7f83e4e793","609a8bf73b2ac84e2732f618","60a267ad909b680ffc0ddeba","291.18000000016764","","","","39","","","","key","16.67200000000008","891","512","true","1","150.62688","7.864319999999999","6","-1","-1","","","","","","","","","","","","",""
"psychophysics","157","391701","0.0-12.0-0.28","6086a11397234e7f83e4e793","609a8bf73b2ac84e2732f618","60a267ad909b680ffc0ddeba","1012.1950000029756","","","","39","","","","key","16.672000000000118","891","512","true","1","142.76256","7.864319999999999","6","-1","-1","","","","","","","","","","","","",""
"psychophysics","158","393648","0.0-12.0-0.29","6086a11397234e7f83e4e793","609a8bf73b2ac84e2732f618","60a267ad909b680ffc0ddeba","944.8100000008708","","","","39","","","","key","16.671999999999915","891","512","true","-1","142.76256","6.291456","7","1","-1","","","","","","","","","","","","",""
"psychophysics","159","394987","0.0-12.0-0.30","6086a11397234e7f83e4e793","609a8bf73b2ac84e2732f618","60a267ad909b680ffc0ddeba","337.82000000064727","","","","37","","","","key","16.67199999999986","891","512","true","-1","149.05401600000002","6.291456","7","-1","1","","","","","","","","","","","","",""
"psychophysics","160","396314","0.0-12.0-0.31","6086a11397234e7f83e4e793","609a8bf73b2ac84e2732f618","60a267ad909b680ffc0ddeba","326.3550000010873","","","","39","","","","key","16.724384615385087","891","512","true","1","149.05401600000002","5.033164800000001","8","-1","-1","","","","","","","","","","","","",""
"psychophysics","161","397675","0.0-12.0-0.32","6086a11397234e7f83e4e793","609a8bf73b2ac84e2732f618","60a267ad909b680ffc0ddeba","358.52000000164844","","","","39","","","","key","16.672000000000367","891","512","true","1","144.0208512","5.033164800000001","8","-1","-1","","","","","","","","","","","","",""
"psychophysics","162","399014","0.0-12.0-0.33","6086a11397234e7f83e4e793","609a8bf73b2ac84e2732f618","60a267ad909b680ffc0ddeba","337.56999999971595","","","","37","","","","key","16.672000000000594","891","512","true","-1","144.0208512","5.033164800000001","8","-1","-1","","","","","","","","","","","","",""
"psychophysics","163","400308","0.0-12.0-0.34","6086a11397234e7f83e4e793","609a8bf73b2ac84e2732f618","60a267ad909b680ffc0ddeba","291.47999999986496","","","","37","","","","key","16.67200000000008","891","512","true","-1","138.9876864","5.033164800000001","8","-1","-1","","","","","","","","","","","","",""
"psychophysics","164","403199","0.0-12.0-0.35","6086a11397234e7f83e4e793","609a8bf73b2ac84e2732f618","60a267ad909b680ffc0ddeba","1890.2600000001257","","","","37","","","","key","16.671999999999844","891","512","true","1","138.9876864","4.0265318400000005","9","1","-1","","","","","","","","","","","","",""
"psychophysics","165","404471","0.0-12.0-0.36","6086a11397234e7f83e4e793","609a8bf73b2ac84e2732f618","60a267ad909b680ffc0ddeba","268.9899999968475","","","","39","","","","key","16.67200000000031","891","512","true","1","143.01421824","4.0265318400000005","9","-1","1","","","","","","","","","","","","",""
"psychophysics","166","405922","0.0-12.0-0.37","6086a11397234e7f83e4e793","609a8bf73b2ac84e2732f618","60a267ad909b680ffc0ddeba","449.5199999983306","","","","39","","","","key","16.672000000000416","891","512","true","1","143.01421824","3.2212254720000004","10","-1","-1","","","","","","","","","","","","",""
"psychophysics","167","407238","0.0-12.0-0.38","6086a11397234e7f83e4e793","609a8bf73b2ac84e2732f618","60a267ad909b680ffc0ddeba","313.1349999967497","","","","39","","","","key","16.72389610389598","891","512","true","1","139.79299276799998","3.2212254720000004","10","-1","-1","","","","","","","","","","","","",""
"psychophysics","168","408791","0.0-12.0-0.39","6086a11397234e7f83e4e793","609a8bf73b2ac84e2732f618","60a267ad909b680ffc0ddeba","549.9049999997951","","","","39","","","","key","16.672000000000242","891","512","true","1","139.79299276799998","3.2212254720000004","10","-1","-1","","","","","","","","","","","","",""
"html-keyboard-response","169","442193","0.0-13.0","6086a11397234e7f83e4e793","609a8bf73b2ac84e2732f618","60a267ad909b680ffc0ddeba","33401.94999999949","<p>Well Done !</p><p>Prepare for a new block.</p><p>DON'T EXIT THE FULL SCREEN MODE</p><p>Press the Spacebar to start.</p>","","","32","","","","","","","","","","","","","","","true","145.0006406144","","","","","","","","","","",""
"html-keyboard-response","170","442296","0.0-14.0","6086a11397234e7f83e4e793","609a8bf73b2ac84e2732f618","60a267ad909b680ffc0ddeba","null","","","","null","","","","","","","","","","","","","","","","","135.44488317055792","true","142.88976634111583","","","","","","","",""
"instructions","171","469870","0.0-15.0","6086a11397234e7f83e4e793","609a8bf73b2ac84e2732f618","60a267ad909b680ffc0ddeba","27573.890000003274","","","","","","","[{""page_index"":0,""viewing_time"":19023.694999999832},{""page_index"":1,""viewing_time"":1721.2100000033388},{""page_index"":2,""viewing_time"":6828.809999999066}]","","","","","","","","","","","","","","","","","","","","","","","",""
"psychophysics","172","472470","0.0-16.0-0.0","6086a11397234e7f83e4e793","609a8bf73b2ac84e2732f618","60a267ad909b680ffc0ddeba","null","","","","null","","","","key","16.78254285714356","891","512","","","","","","","","","","","","","","","","","","","",""
"psychophysics","173","472974","0.0-16.0-1.0","6086a11397234e7f83e4e793","609a8bf73b2ac84e2732f618","60a267ad909b680ffc0ddeba","null","","","","null","","","","key","16.672000000000416","891","512","","","","","","","","","","","","","143","1","3","false","","","",""
"psychophysics","174","474561","0.0-16.0-2.0","6086a11397234e7f83e4e793","609a8bf73b2ac84e2732f618","60a267ad909b680ffc0ddeba","1584.6600000003818","","","","90","","","","key","16.671999999999656","891","512","","","","","","","","","","","","","","","","","","","",""
"psychophysics","175","475807","0.0-16.0-0.1","6086a11397234e7f83e4e793","609a8bf73b2ac84e2732f618","60a267ad909b680ffc0ddeba","null","","","","null","","","","key","16.67199999999976","891","512","","","","","","","","","","","","","","","","","","","",""
"psychophysics","176","476309","0.0-16.0-1.1","6086a11397234e7f83e4e793","609a8bf73b2ac84e2732f618","60a267ad909b680ffc0ddeba","null","","","","null","","","","key","16.672000000000416","891","512","","","","","","","","","","","","","143","1","6","false","","","",""
"psychophysics","177","476821","0.0-16.0-2.1","6086a11397234e7f83e4e793","609a8bf73b2ac84e2732f618","60a267ad909b680ffc0ddeba","507.8800000010524","","","","77","","","","key","16.672000000001088","891","512","","","","","","","","","","","","","","","","","","","",""
"psychophysics","178","477857","0.0-16.0-0.2","6086a11397234e7f83e4e793","609a8bf73b2ac84e2732f618","60a267ad909b680ffc0ddeba","null","","","","null","","","","key","16.672000000000452","891","512","","","","","","","","","","","","","","","","","","","",""
"psychophysics","179","478360","0.0-16.0-1.2","6086a11397234e7f83e4e793","609a8bf73b2ac84e2732f618","60a267ad909b680ffc0ddeba","null","","","","null","","","","key","16.67199999999841","891","512","","","","","","","","","","","","","143","-1","3","false","","","",""
"psychophysics","180","478869","0.0-16.0-2.2","6086a11397234e7f83e4e793","609a8bf73b2ac84e2732f618","60a267ad909b680ffc0ddeba","507.76000000041677","","","","77","","","","key","16.672000000001088","891","512","","","","","","","","","","","","","","","","","","","",""
"psychophysics","181","479705","0.0-16.0-0.3","6086a11397234e7f83e4e793","609a8bf73b2ac84e2732f618","60a267ad909b680ffc0ddeba","null","","","","null","","","","key","16.672000000000295","891","512","","","","","","","","","","","","","","","","","","","",""
"psychophysics","182","480207","0.0-16.0-1.3","6086a11397234e7f83e4e793","609a8bf73b2ac84e2732f618","60a267ad909b680ffc0ddeba","null","","","","null","","","","key","16.81244827586162","891","512","","","","","","","","","","","","","143","-1","6","false","","","",""
"psychophysics","183","480590","0.0-16.0-2.3","6086a11397234e7f83e4e793","609a8bf73b2ac84e2732f618","60a267ad909b680ffc0ddeba","381.3399999999092","","","","77","","","","key","16.67200000000197","891","512","","","","","","","","","","","","","","","","","","","",""
"psychophysics","184","481279","0.0-16.0-0.4","6086a11397234e7f83e4e793","609a8bf73b2ac84e2732f618","60a267ad909b680ffc0ddeba","null","","","","null","","","","key","16.672000000000118","891","512","","","","","","","","","","","","","","","","","","","",""
"psychophysics","185","481781","0.0-16.0-1.4","6086a11397234e7f83e4e793","609a8bf73b2ac84e2732f618","60a267ad909b680ffc0ddeba","null","","","","null","","","","key","16.672000000000416","891","512","","","","","","","","","","","","","143","-1","0","false","","","",""
"psychophysics","186","482177","0.0-16.0-2.4","6086a11397234e7f83e4e793","609a8bf73b2ac84e2732f618","60a267ad909b680ffc0ddeba","393.8449999986915","","","","90","","","","key","16.672000000000242","891","512","","","","","","","","","","","","","","","","","","","",""
"psychophysics","187","482707","0.0-16.0-0.5","6086a11397234e7f83e4e793","609a8bf73b2ac84e2732f618","60a267ad909b680ffc0ddeba","null","","","","null","","","","key","16.671999999999834","891","512","","","","","","","","","","","","","","","","","","","",""
"psychophysics","188","483209","0.0-16.0-1.5","6086a11397234e7f83e4e793","609a8bf73b2ac84e2732f618","60a267ad909b680ffc0ddeba","null","","","","null","","","","key","16.67199999999841","891","512","","","","","","","","","","","","","143","-1","4","false","","","",""
"psychophysics","189","483572","0.0-16.0-2.5","6086a11397234e7f83e4e793","609a8bf73b2ac84e2732f618","60a267ad909b680ffc0ddeba","360.62999999918975","","","","77","","","","key","16.672000000001088","891","512","","","","","","","","","","","","","","","","","","","",""
"psychophysics","190","484323","0.0-16.0-0.6","6086a11397234e7f83e4e793","609a8bf73b2ac84e2732f618","60a267ad909b680ffc0ddeba","null","","","","null","","","","key","16.672000000000647","891","512","","","","","","","","","","","","","","","","","","","",""
"psychophysics","191","484826","0.0-16.0-1.6","6086a11397234e7f83e4e793","609a8bf73b2ac84e2732f618","60a267ad909b680ffc0ddeba","null","","","","null","","","","key","16.672000000000416","891","512","","","","","","","","","","","","","143","-1","5","false","","","",""
"psychophysics","192","485226","0.0-16.0-2.6","6086a11397234e7f83e4e793","609a8bf73b2ac84e2732f618","60a267ad909b680ffc0ddeba","398.0499999997555","","","","90","","","","key","16.672000000000242","891","512","","","","","","","","","","","","","","","","","","","",""
"psychophysics","193","485800","0.0-16.0-0.7","6086a11397234e7f83e4e793","609a8bf73b2ac84e2732f618","60a267ad909b680ffc0ddeba","null","","","","null","","","","key","16.672000000001656","891","512","","","","","","","","","","","","","","","","","","","",""
"psychophysics","194","486301","0.0-16.0-1.7","6086a11397234e7f83e4e793","609a8bf73b2ac84e2732f618","60a267ad909b680ffc0ddeba","null","","","","null","","","","key","16.672000000000416","891","512","","","","","","","","","","","","","143","1","5","false","","","",""
"psychophysics","195","486621","0.0-16.0-2.7","6086a11397234e7f83e4e793","609a8bf73b2ac84e2732f618","60a267ad909b680ffc0ddeba","317.84999999945285","","","","77","","","","key","16.67199999999785","891","512","","","","","","","","","","","","","","","","","","","",""
"psychophysics","196","487339","0.0-16.0-0.8","6086a11397234e7f83e4e793","609a8bf73b2ac84e2732f618","60a267ad909b680ffc0ddeba","null","","","","null","","","","key","16.671999999999702","891","512","","","","","","","","","","","","","","","","","","","",""
"psychophysics","197","487842","0.0-16.0-1.8","6086a11397234e7f83e4e793","609a8bf73b2ac84e2732f618","60a267ad909b680ffc0ddeba","null","","","","null","","","","key","16.672000000000416","891","512","","","","","","","","","","","","","143","1","0","false","","","",""
"psychophysics","198","488342","0.0-16.0-2.8","6086a11397234e7f83e4e793","609a8bf73b2ac84e2732f618","60a267ad909b680ffc0ddeba","498.6800000005751","","","","90","","","","key","16.672000000000416","891","512","","","","","","","","","","","","","","","","","","","",""
"psychophysics","199","489291","0.0-16.0-0.9","6086a11397234e7f83e4e793","609a8bf73b2ac84e2732f618","60a267ad909b680ffc0ddeba","null","","","","null","","","","key","16.671999999999702","891","512","","","","","","","","","","","","","","","","","","","",""
"psychophysics","200","489793","0.0-16.0-1.9","6086a11397234e7f83e4e793","609a8bf73b2ac84e2732f618","60a267ad909b680ffc0ddeba","null","","","","null","","","","key","16.67199999999841","891","512","","","","","","","","","","","","","143","-1","2","false","","","",""
"psychophysics","201","490434","0.0-16.0-2.9","6086a11397234e7f83e4e793","609a8bf73b2ac84e2732f618","60a267ad909b680ffc0ddeba","639.4499999987311","","","","90","","","","key","16.780567567567402","891","512","","","","","","","","","","","","","","","","","","","",""
"psychophysics","202","491482","0.0-16.0-0.10","6086a11397234e7f83e4e793","609a8bf73b2ac84e2732f618","60a267ad909b680ffc0ddeba","null","","","","null","","","","key","16.671999999999834","891","512","","","","","","","","","","","","","","","","","","","",""
"psychophysics","203","491985","0.0-16.0-1.10","6086a11397234e7f83e4e793","609a8bf73b2ac84e2732f618","60a267ad909b680ffc0ddeba","null","","","","null","","","","key","16.67199999999841","891","512","","","","","","","","","","","","","143","1","4","false","","","",""
"psychophysics","204","492325","0.0-16.0-2.10","6086a11397234e7f83e4e793","609a8bf73b2ac84e2732f618","60a267ad909b680ffc0ddeba","337.8499999999185","","","","77","","","","key","16.672000000000118","891","512","","","","","","","","","","","","","","","","","","","",""
"psychophysics","205","493375","0.0-16.0-0.11","6086a11397234e7f83e4e793","609a8bf73b2ac84e2732f618","60a267ad909b680ffc0ddeba","null","","","","null","","","","key","16.671999999999834","891","512","","","","","","","","","","","","","","","","","","","",""
"psychophysics","206","493876","0.0-16.0-1.11","6086a11397234e7f83e4e793","609a8bf73b2ac84e2732f618","60a267ad909b680ffc0ddeba","null","","","","null","","","","key","16.672000000000416","891","512","","","","","","","","","","","","","143","1","2","false","","","",""
"psychophysics","207","494080","0.0-16.0-2.11","6086a11397234e7f83e4e793","609a8bf73b2ac84e2732f618","60a267ad909b680ffc0ddeba","202.18000000028405","","","","77","","","","key","16.671999999999322","891","512","","","","","","","","","","","","","","","","","","","",""
"psychophysics","208","494673","0.0-16.0-0.12","6086a11397234e7f83e4e793","609a8bf73b2ac84e2732f618","60a267ad909b680ffc0ddeba","null","","","","null","","","","key","16.671999999999944","891","512","","","","","","","","","","","","","","","","","","","",""
"psychophysics","209","495174","0.0-16.0-1.12","6086a11397234e7f83e4e793","609a8bf73b2ac84e2732f618","60a267ad909b680ffc0ddeba","null","","","","null","","","","key","16.672000000000416","891","512","","","","","","","","","","","","","143","-1","6","false","","","",""
"psychophysics","210","495610","0.0-16.0-2.12","6086a11397234e7f83e4e793","609a8bf73b2ac84e2732f618","60a267ad909b680ffc0ddeba","435.0650000014575","","","","90","","","","key","16.67200000000034","891","512","","","","","","","","","","","","","","","","","","","",""
"psychophysics","211","496337","0.0-16.0-0.13","6086a11397234e7f83e4e793","609a8bf73b2ac84e2732f618","60a267ad909b680ffc0ddeba","null","","","","null","","","","key","16.672000000001088","891","512","","","","","","","","","","","","","","","","","","","",""
"psychophysics","212","496840","0.0-16.0-1.13","6086a11397234e7f83e4e793","609a8bf73b2ac84e2732f618","60a267ad909b680ffc0ddeba","null","","","","null","","","","key","16.672000000000416","891","512","","","","","","","","","","","","","143","-1","2","false","","","",""
"psychophysics","213","497050","0.0-16.0-2.13","6086a11397234e7f83e4e793","609a8bf73b2ac84e2732f618","60a267ad909b680ffc0ddeba","208.08000000036554","","","","90","","","","key","16.671999999996235","891","512","","","","","","","","","","","","","","","","","","","",""
"psychophysics","214","497965","0.0-16.0-0.14","6086a11397234e7f83e4e793","609a8bf73b2ac84e2732f618","60a267ad909b680ffc0ddeba","null","","","","null","","","","key","16.672000000000008","891","512","","","","","","","","","","","","","","","","","","","",""
"psychophysics","215","498468","0.0-16.0-1.14","6086a11397234e7f83e4e793","609a8bf73b2ac84e2732f618","60a267ad909b680ffc0ddeba","null","","","","null","","","","key","16.67199999999841","891","512","","","","","","","","","","","","","143","-1","0","false","","","",""
"psychophysics","216","500133","0.0-16.0-2.14","6086a11397234e7f83e4e793","609a8bf73b2ac84e2732f618","60a267ad909b680ffc0ddeba","1663.0650000006426","","","","90","","","","key","16.712989898990003","891","512","","","","","","","","","","","","","","","","","","","",""
"psychophysics","217","501130","0.0-16.0-0.15","6086a11397234e7f83e4e793","609a8bf73b2ac84e2732f618","60a267ad909b680ffc0ddeba","null","","","","null","","","","key","16.67199999999977","891","512","","","","","","","","","","","","","","","","","","","",""
"psychophysics","218","501631","0.0-16.0-1.15","6086a11397234e7f83e4e793","609a8bf73b2ac84e2732f618","60a267ad909b680ffc0ddeba","null","","","","null","","","","key","16.672000000000416","891","512","","","","","","","","","","","","","143","1","6","false","","","",""
"psychophysics","219","502045","0.0-16.0-2.15","6086a11397234e7f83e4e793","609a8bf73b2ac84e2732f618","60a267ad909b680ffc0ddeba","412.0999999977648","","","","77","","","","key","16.672000000000242","891","512","","","","","","","","","","","","","","","","","","","",""
"psychophysics","220","502729","0.0-16.0-0.16","6086a11397234e7f83e4e793","609a8bf73b2ac84e2732f618","60a267ad909b680ffc0ddeba","null","","","","null","","","","key","16.672000000000118","891","512","","","","","","","","","","","","","","","","","","","",""
"psychophysics","221","503230","0.0-16.0-1.16","6086a11397234e7f83e4e793","609a8bf73b2ac84e2732f618","60a267ad909b680ffc0ddeba","null","","","","null","","","","key","16.671999999999148","891","512","","","","","","","","","","","","","143","1","4","false","","","",""
"psychophysics","222","503474","0.0-16.0-2.16","6086a11397234e7f83e4e793","609a8bf73b2ac84e2732f618","60a267ad909b680ffc0ddeba","242.08500000170898","","","","77","","","","key","16.67200000000258","891","512","","","","","","","","","","","","","","","","","","","",""
"psychophysics","223","504444","0.0-16.0-0.17","6086a11397234e7f83e4e793","609a8bf73b2ac84e2732f618","60a267ad909b680ffc0ddeba","null","","","","null","","","","key","16.672000000000065","891","512","","","","","","","","","","","","","","","","","","","",""
"psychophysics","224","504947","0.0-16.0-1.17","6086a11397234e7f83e4e793","609a8bf73b2ac84e2732f618","60a267ad909b680ffc0ddeba","null","","","","null","","","","key","16.672000000000416","891","512","","","","","","","","","","","","","143","-1","4","false","","","",""
"psychophysics","225","505600","0.0-16.0-2.17","6086a11397234e7f83e4e793","609a8bf73b2ac84e2732f618","60a267ad909b680ffc0ddeba","651.674999997369","","","","90","","","","key","16.671999999999596","891","512","","","","","","","","","","","","","","","","","","","",""
"psychophysics","226","506614","0.0-16.0-0.18","6086a11397234e7f83e4e793","609a8bf73b2ac84e2732f618","60a267ad909b680ffc0ddeba","null","","","","null","","","","key","16.67199999999977","891","512","","","","","","","","","","","","","","","","","","","",""
"psychophysics","227","507114","0.0-16.0-1.18","6086a11397234e7f83e4e793","609a8bf73b2ac84e2732f618","60a267ad909b680ffc0ddeba","null","","","","null","","","","key","16.671999999999148","891","512","","","","","","","","","","","","","143","1","3","false","","","",""
"psychophysics","228","507558","0.0-16.0-2.18","6086a11397234e7f83e4e793","609a8bf73b2ac84e2732f618","60a267ad909b680ffc0ddeba","441.66000000038184","","","","90","","","","key","16.671999999999535","891","512","","","","","","","","","","","","","","","","","","","",""
"psychophysics","229","508512","0.0-16.0-0.19","6086a11397234e7f83e4e793","609a8bf73b2ac84e2732f618","60a267ad909b680ffc0ddeba","null","","","","null","","","","key","16.671999999999702","891","512","","","","","","","","","","","","","","","","","","","",""
"psychophysics","230","509015","0.0-16.0-1.19","6086a11397234e7f83e4e793","609a8bf73b2ac84e2732f618","60a267ad909b680ffc0ddeba","null","","","","null","","","","key","16.672000000000416","891","512","","","","","","","","","","","","","143","-1","3","false","","","",""
"psychophysics","231","509684","0.0-16.0-2.19","6086a11397234e7f83e4e793","609a8bf73b2ac84e2732f618","60a267ad909b680ffc0ddeba","665.8050000005169","","","","90","","","","key","16.672000000000118","891","512","","","","","","","","","","","","","","","","","","","",""
"psychophysics","232","510240","0.0-16.0-0.20","6086a11397234e7f83e4e793","609a8bf73b2ac84e2732f618","60a267ad909b680ffc0ddeba","null","","","","null","","","","key","16.799093749999884","891","512","","","","","","","","","","","","","","","","","","","",""
"psychophysics","233","510742","0.0-16.0-1.20","6086a11397234e7f83e4e793","609a8bf73b2ac84e2732f618","60a267ad909b680ffc0ddeba","null","","","","null","","","","key","16.67199999999841","891","512","","","","","","","","","","","","","143","1","0","false","","","",""
"psychophysics","234","511214","0.0-16.0-2.20","6086a11397234e7f83e4e793","609a8bf73b2ac84e2732f618","60a267ad909b680ffc0ddeba","470.1199999981327","","","","90","","","","key","16.672000000001088","891","512","","","","","","","","","","","","","","","","","","","",""
"psychophysics","235","512453","0.0-16.0-0.21","6086a11397234e7f83e4e793","609a8bf73b2ac84e2732f618","60a267ad909b680ffc0ddeba","null","","","","null","","","","key","16.67199999999976","891","512","","","","","","","","","","","","","","","","","","","",""
"psychophysics","236","512954","0.0-16.0-1.21","6086a11397234e7f83e4e793","609a8bf73b2ac84e2732f618","60a267ad909b680ffc0ddeba","null","","","","null","","","","key","16.672000000001088","891","512","","","","","","","","","","","","","143","1","2","false","","","",""
"psychophysics","237","513329","0.0-16.0-2.21","6086a11397234e7f83e4e793","609a8bf73b2ac84e2732f618","60a267ad909b680ffc0ddeba","373.2750000017695","","","","90","","","","key","16.672000000001088","891","512","","","","","","","","","","","","","","","","","","","",""
"psychophysics","238","514237","0.0-16.0-0.22","6086a11397234e7f83e4e793","609a8bf73b2ac84e2732f618","60a267ad909b680ffc0ddeba","null","","","","null","","","","key","16.672000000000722","891","512","","","","","","","","","","","","","","","","","","","",""
"psychophysics","239","514738","0.0-16.0-1.22","6086a11397234e7f83e4e793","609a8bf73b2ac84e2732f618","60a267ad909b680ffc0ddeba","null","","","","null","","","","key","16.672000000000416","891","512","","","","","","","","","","","","","143","1","5","false","","","",""
"psychophysics","240","515523","0.0-16.0-2.22","6086a11397234e7f83e4e793","609a8bf73b2ac84e2732f618","60a267ad909b680ffc0ddeba","783.644999999553","","","","90","","","","key","16.671999999999436","891","512","","","","","","","","","","","","","","","","","","","",""
"psychophysics","241","516375","0.0-16.0-0.23","6086a11397234e7f83e4e793","609a8bf73b2ac84e2732f618","60a267ad909b680ffc0ddeba","null","","","","null","","","","key","16.671999999999535","891","512","","","","","","","","","","","","","","","","","","","",""
"psychophysics","242","516876","0.0-16.0-1.23","6086a11397234e7f83e4e793","609a8bf73b2ac84e2732f618","60a267ad909b680ffc0ddeba","null","","","","null","","","","key","16.672000000000416","891","512","","","","","","","","","","","","","143","-1","5","false","","","",""
"psychophysics","243","517413","0.0-16.0-2.23","6086a11397234e7f83e4e793","609a8bf73b2ac84e2732f618","60a267ad909b680ffc0ddeba","534.844999998284","","","","90","","","","key","16.671999999999834","891","512","","","","","","","","","","","","","","","","","","","",""
"html-keyboard-response","244","552604","0.0-17.0","6086a11397234e7f83e4e793","609a8bf73b2ac84e2732f618","60a267ad909b680ffc0ddeba","35190.78500000248","<p>Well Done !</p><p>Training Complete. Press the spacebar to start.</p><p>DON'T EXIT THE FULL SCREEN MODE</p>","","","32","","","","","","","","","","","","","","","","","","","","","","","","","","",""
"psychophysics","245","555927","0.0-18.0-0.0","6086a11397234e7f83e4e793","609a8bf73b2ac84e2732f618","60a267ad909b680ffc0ddeba","null","","","","null","","","","key","16.66931645569533","891","512","","","","","","","","","","","","","","","","","","","",""
"psychophysics","246","556431","0.0-18.0-1.0","6086a11397234e7f83e4e793","609a8bf73b2ac84e2732f618","60a267ad909b680ffc0ddeba","null","","","","null","","","","key","16.672000000000416","891","512","","","","","","","","","","","","","143","-1","0","true","","","",""
"psychophysics","247","557565","0.0-18.0-2.0","6086a11397234e7f83e4e793","609a8bf73b2ac84e2732f618","60a267ad909b680ffc0ddeba","1133.1150000005728","","","","90","","","","key","16.671999999999638","891","512","","","","","","","","","","","","","","","","","","","",""
"psychophysics","248","558917","0.0-18.0-0.1","6086a11397234e7f83e4e793","609a8bf73b2ac84e2732f618","60a267ad909b680ffc0ddeba","null","","","","null","","","","key","16.672000000000118","891","512","","","","","","","","","","","","","","","","","","","",""
"psychophysics","249","559418","0.0-18.0-1.1","6086a11397234e7f83e4e793","609a8bf73b2ac84e2732f618","60a267ad909b680ffc0ddeba","null","","","","null","","","","key","16.6719999999964","891","512","","","","","","","","","","","","","143","1","2","true","","","",""
"psychophysics","250","559804","0.0-18.0-2.1","6086a11397234e7f83e4e793","609a8bf73b2ac84e2732f618","60a267ad909b680ffc0ddeba","384.69500000064727","","","","90","","","","key","16.672000000000242","891","512","","","","","","","","","","","","","","","","","","","",""
"psychophysics","251","560835","0.0-18.0-0.2","6086a11397234e7f83e4e793","609a8bf73b2ac84e2732f618","60a267ad909b680ffc0ddeba","null","","","","null","","","","key","16.671999999999148","891","512","","","","","","","","","","","","","","","","","","","",""
"psychophysics","252","561336","0.0-18.0-1.2","6086a11397234e7f83e4e793","609a8bf73b2ac84e2732f618","60a267ad909b680ffc0ddeba","null","","","","null","","","","key","16.672000000000416","891","512","","","","","","","","","","","","","143","-1","4","true","","","",""
"psychophysics","253","561627","0.0-18.0-2.2","6086a11397234e7f83e4e793","609a8bf73b2ac84e2732f618","60a267ad909b680ffc0ddeba","289.51500000047963","","","","77","","","","key","16.671999999999944","891","512","","","","","","","","","","","","","","","","","","","",""
"psychophysics","254","562324","0.0-18.0-0.3","6086a11397234e7f83e4e793","609a8bf73b2ac84e2732f618","60a267ad909b680ffc0ddeba","null","","","","null","","","","key","16.67200000000061","891","512","","","","","","","","","","","","","","","","","","","",""
"psychophysics","255","562825","0.0-18.0-1.3","6086a11397234e7f83e4e793","609a8bf73b2ac84e2732f618","60a267ad909b680ffc0ddeba","null","","","","null","","","","key","16.805137931036057","891","512","","","","","","","","","","","","","143","1","0","true","","","",""
"psychophysics","256","563247","0.0-18.0-2.3","6086a11397234e7f83e4e793","609a8bf73b2ac84e2732f618","60a267ad909b680ffc0ddeba","420.00500000000466","","","","90","","","","key","16.672000000001088","891","512","","","","","","","","","","","","","","","","","","","",""
"psychophysics","257","564465","0.0-18.0-0.4","6086a11397234e7f83e4e793","609a8bf73b2ac84e2732f618","60a267ad909b680ffc0ddeba","null","","","","null","","","","key","16.67199999999947","891","512","","","","","","","","","","","","","","","","","","","",""
"psychophysics","258","564968","0.0-18.0-1.4","6086a11397234e7f83e4e793","609a8bf73b2ac84e2732f618","60a267ad909b680ffc0ddeba","null","","","","null","","","","key","16.672000000000416","891","512","","","","","","","","","","","","","143","-1","3","true","","","",""
"psychophysics","259","565216","0.0-18.0-2.4","6086a11397234e7f83e4e793","609a8bf73b2ac84e2732f618","60a267ad909b680ffc0ddeba","246.24000000033993","","","","90","","","","key","16.67200000000386","891","512","","","","","","","","","","","","","","","","","","","",""
"psychophysics","260","566190","0.0-18.0-0.5","6086a11397234e7f83e4e793","609a8bf73b2ac84e2732f618","60a267ad909b680ffc0ddeba","null","","","","null","","","","key","16.672000000000065","891","512","","","","","","","","","","","","","","","","","","","",""
"psychophysics","261","566691","0.0-18.0-1.5","6086a11397234e7f83e4e793","609a8bf73b2ac84e2732f618","60a267ad909b680ffc0ddeba","null","","","","null","","","","key","16.6719999999964","891","512","","","","","","","","","","","","","143","-1","2","true","","","",""
"psychophysics","262","566780","0.0-18.0-2.5","6086a11397234e7f83e4e793","609a8bf73b2ac84e2732f618","60a267ad909b680ffc0ddeba","86.78000000142492","","","","90","","","","key","16.671999999997205","891","512","","","","","","","","","","","","","","","","","","","",""
"psychophysics","263","567712","0.0-18.0-0.6","6086a11397234e7f83e4e793","609a8bf73b2ac84e2732f618","60a267ad909b680ffc0ddeba","null","","","","null","","","","key","16.67200000000144","891","512","","","","","","","","","","","","","","","","","","","",""
"psychophysics","264","568213","0.0-18.0-1.6","6086a11397234e7f83e4e793","609a8bf73b2ac84e2732f618","60a267ad909b680ffc0ddeba","null","","","","null","","","","key","16.672000000000416","891","512","","","","","","","","","","","","","143","1","3","true","","","",""
"psychophysics","265","568489","0.0-18.0-2.6","6086a11397234e7f83e4e793","609a8bf73b2ac84e2732f618","60a267ad909b680ffc0ddeba","275.2150000014808","","","","90","","","","key","16.671999999997205","891","512","","","","","","","","","","","","","","","","","","","",""
"psychophysics","266","569544","0.0-18.0-0.7","6086a11397234e7f83e4e793","609a8bf73b2ac84e2732f618","60a267ad909b680ffc0ddeba","null","","","","null","","","","key","16.672000000000164","891","512","","","","","","","","","","","","","","","","","","","",""
"psychophysics","267","570045","0.0-18.0-1.7","6086a11397234e7f83e4e793","609a8bf73b2ac84e2732f618","60a267ad909b680ffc0ddeba","null","","","","null","","","","key","16.672000000000416","891","512","","","","","","","","","","","","","143","1","4","true","","","",""
"psychophysics","268","570065","0.0-18.0-2.7","6086a11397234e7f83e4e793","609a8bf73b2ac84e2732f618","60a267ad909b680ffc0ddeba","17.475000000558794","","","","77","","","","key","NaN","891","512","","","","","","","","","","","","","","","","","","","",""
"psychophysics","269","570765","0.0-18.0-0.8","6086a11397234e7f83e4e793","609a8bf73b2ac84e2732f618","60a267ad909b680ffc0ddeba","null","","","","null","","","","key","16.671999999997773","891","512","","","","","","","","","","","","","","","","","","","",""
"psychophysics","270","571267","0.0-18.0-1.8","6086a11397234e7f83e4e793","609a8bf73b2ac84e2732f618","60a267ad909b680ffc0ddeba","null","","","","null","","","","key","16.672000000000416","891","512","","","","","","","","","","","","","143","1","6","true","","","",""
"psychophysics","271","571348","0.0-18.0-2.8","6086a11397234e7f83e4e793","609a8bf73b2ac84e2732f618","60a267ad909b680ffc0ddeba","78.48000000009779","","","","77","","","","key","16.671999999991385","891","512","","","","","","","","","","","","","","","","","","","",""
"psychophysics","272","572576","0.0-18.0-0.9","6086a11397234e7f83e4e793","609a8bf73b2ac84e2732f618","60a267ad909b680ffc0ddeba","null","","","","null","","","","key","16.67199999999976","891","512","","","","","","","","","","","","","","","","","","","",""
"psychophysics","273","573080","0.0-18.0-1.9","6086a11397234e7f83e4e793","609a8bf73b2ac84e2732f618","60a267ad909b680ffc0ddeba","null","","","","null","","","","key","16.816499999998737","891","512","","","","","","","","","","","","","143","-1","6","true","","","",""
"psychophysics","274","573136","0.0-18.0-2.9","6086a11397234e7f83e4e793","609a8bf73b2ac84e2732f618","60a267ad909b680ffc0ddeba","54.2249999998603","","","","77","","","","key","16.67200000002049","891","512","","","","","","","","","","","","","","","","","","","",""
"psychophysics","275","574468","0.0-18.0-0.10","6086a11397234e7f83e4e793","609a8bf73b2ac84e2732f618","60a267ad909b680ffc0ddeba","null","","","","null","","","","key","16.67199999999986","891","512","","","","","","","","","","","","","","","","","","","",""
"psychophysics","276","574969","0.0-18.0-1.10","6086a11397234e7f83e4e793","609a8bf73b2ac84e2732f618","60a267ad909b680ffc0ddeba","null","","","","null","","","","key","16.672000000000416","891","512","","","","","","","","","","","","","143","1","5","true","","","",""
"psychophysics","277","575015","0.0-18.0-2.10","6086a11397234e7f83e4e793","609a8bf73b2ac84e2732f618","60a267ad909b680ffc0ddeba","44.04000000061933","","","","77","","","","key","16.67200000002049","891","512","","","","","","","","","","","","","","","","","","","",""
"psychophysics","278","575848","0.0-18.0-0.11","6086a11397234e7f83e4e793","609a8bf73b2ac84e2732f618","60a267ad909b680ffc0ddeba","null","","","","null","","","","key","16.672000000001088","891","512","","","","","","","","","","","","","","","","","","","",""
"psychophysics","279","576349","0.0-18.0-1.11","6086a11397234e7f83e4e793","609a8bf73b2ac84e2732f618","60a267ad909b680ffc0ddeba","null","","","","null","","","","key","16.672000000001088","891","512","","","","","","","","","","","","","143","-1","5","true","","","",""
"psychophysics","280","576432","0.0-18.0-2.11","6086a11397234e7f83e4e793","609a8bf73b2ac84e2732f618","60a267ad909b680ffc0ddeba","81.90500000270549","","","","90","","","","key","16.67200000002049","891","512","","","","","","","","","","","","","","","","","","","",""
"psychophysics","281","577028","0.0-18.0-0.12","6086a11397234e7f83e4e793","609a8bf73b2ac84e2732f618","60a267ad909b680ffc0ddeba","null","","","","null","","","","key","16.671999999999944","891","512","","","","","","","","","","","","","","","","","","","",""
"psychophysics","282","577532","0.0-18.0-1.12","6086a11397234e7f83e4e793","609a8bf73b2ac84e2732f618","60a267ad909b680ffc0ddeba","null","","","","null","","","","key","16.672000000000416","891","512","","","","","","","","","","","","","143","1","3","true","","","",""
"psychophysics","283","577940","0.0-18.0-2.12","6086a11397234e7f83e4e793","609a8bf73b2ac84e2732f618","60a267ad909b680ffc0ddeba","406.83500000159256","","","","90","","","","key","16.672000000001088","891","512","","","","","","","","","","","","","","","","","","","",""
"psychophysics","284","579240","0.0-18.0-0.13","6086a11397234e7f83e4e793","609a8bf73b2ac84e2732f618","60a267ad909b680ffc0ddeba","null","","","","null","","","","key","16.671999999999322","891","512","","","","","","","","","","","","","","","","","","","",""
"psychophysics","285","579742","0.0-18.0-1.13","6086a11397234e7f83e4e793","609a8bf73b2ac84e2732f618","60a267ad909b680ffc0ddeba","null","","","","null","","","","key","16.672000000000416","891","512","","","","","","","","","","","","","143","1","4","true","","","",""
"psychophysics","286","579886","0.0-18.0-2.13","6086a11397234e7f83e4e793","609a8bf73b2ac84e2732f618","60a267ad909b680ffc0ddeba","142.6449999997858","","","","77","","","","key","16.671999999991385","891","512","","","","","","","","","","","","","","","","","","","",""
"psychophysics","287","580750","0.0-18.0-0.14","6086a11397234e7f83e4e793","609a8bf73b2ac84e2732f618","60a267ad909b680ffc0ddeba","null","","","","null","","","","key","16.671999999999535","891","512","","","","","","","","","","","","","","","","","","","",""
"psychophysics","288","581251","0.0-18.0-1.14","6086a11397234e7f83e4e793","609a8bf73b2ac84e2732f618","60a267ad909b680ffc0ddeba","null","","","","null","","","","key","16.672000000001088","891","512","","","","","","","","","","","","","143","-1","0","true","","","",""
"psychophysics","289","581551","0.0-18.0-2.14","6086a11397234e7f83e4e793","609a8bf73b2ac84e2732f618","60a267ad909b680ffc0ddeba","298.29999999853317","","","","90","","","","key","16.671999999999944","891","512","","","","","","","","","","","","","","","","","","","",""
"psychophysics","290","582701","0.0-18.0-0.15","6086a11397234e7f83e4e793","609a8bf73b2ac84e2732f618","60a267ad909b680ffc0ddeba","null","","","","null","","","","key","16.672000000001375","891","512","","","","","","","","","","","","","","","","","","","",""
"psychophysics","291","583204","0.0-18.0-1.15","6086a11397234e7f83e4e793","609a8bf73b2ac84e2732f618","60a267ad909b680ffc0ddeba","null","","","","null","","","","key","16.810103448272425","891","512","","","","","","","","","","","","","143","-1","5","true","","","",""
"psychophysics","292","583306","0.0-18.0-2.15","6086a11397234e7f83e4e793","609a8bf73b2ac84e2732f618","60a267ad909b680ffc0ddeba","98.26000000245403","","","","77","","","","key","16.672000000001088","891","512","","","","","","","","","","","","","","","","","","","",""
"psychophysics","293","584123","0.0-18.0-0.16","6086a11397234e7f83e4e793","609a8bf73b2ac84e2732f618","60a267ad909b680ffc0ddeba","null","","","","null","","","","key","16.672000000001088","891","512","","","","","","","","","","","","","","","","","","","",""
"psychophysics","294","584624","0.0-18.0-1.16","6086a11397234e7f83e4e793","609a8bf73b2ac84e2732f618","60a267ad909b680ffc0ddeba","null","","","","null","","","","key","16.672000000000416","891","512","","","","","","","","","","","","","143","-1","3","true","","","",""
"psychophysics","295","584656","0.0-18.0-2.16","6086a11397234e7f83e4e793","609a8bf73b2ac84e2732f618","60a267ad909b680ffc0ddeba","30.399999999557622","","","","77","","","","key","16.67200000002049","891","512","","","","","","","","","","","","","","","","","","","",""
"psychophysics","296","585391","0.0-18.0-0.17","6086a11397234e7f83e4e793","609a8bf73b2ac84e2732f618","60a267ad909b680ffc0ddeba","null","","","","null","","","","key","16.67199999999883","891","512","","","","","","","","","","","","","","","","","","","",""
"psychophysics","297","585893","0.0-18.0-1.17","6086a11397234e7f83e4e793","609a8bf73b2ac84e2732f618","60a267ad909b680ffc0ddeba","null","","","","null","","","","key","16.672000000000416","891","512","","","","","","","","","","","","","143","1","5","true","","","",""
"psychophysics","298","586817","0.0-18.0-2.17","6086a11397234e7f83e4e793","609a8bf73b2ac84e2732f618","60a267ad909b680ffc0ddeba","922.0249999997905","","","","77","","","","key","16.67199999999893","891","512","","","","","","","","","","","","","","","","","","","",""
"psychophysics","299","587603","0.0-18.0-0.18","6086a11397234e7f83e4e793","609a8bf73b2ac84e2732f618","60a267ad909b680ffc0ddeba","null","","","","null","","","","key","16.672000000000242","891","512","","","","","","","","","","","","","","","","","","","",""
"psychophysics","300","588106","0.0-18.0-1.18","6086a11397234e7f83e4e793","609a8bf73b2ac84e2732f618","60a267ad909b680ffc0ddeba","null","","","","null","","","","key","16.672000000000416","891","512","","","","","","","","","","","","","143","1","0","true","","","",""
"psychophysics","301","588662","0.0-18.0-2.18","6086a11397234e7f83e4e793","609a8bf73b2ac84e2732f618","60a267ad909b680ffc0ddeba","554.1150000025518","","","","77","","","","key","16.67200000000285","891","512","","","","","","","","","","","","","","","","","","","",""
"psychophysics","302","589868","0.0-18.0-0.19","6086a11397234e7f83e4e793","609a8bf73b2ac84e2732f618","60a267ad909b680ffc0ddeba","null","","","","null","","","","key","16.672000000000814","891","512","","","","","","","","","","","","","","","","","","","",""
"psychophysics","303","590372","0.0-18.0-1.19","6086a11397234e7f83e4e793","609a8bf73b2ac84e2732f618","60a267ad909b680ffc0ddeba","null","","","","null","","","","key","16.672000000000416","891","512","","","","","","","","","","","","","143","1","2","true","","","",""
"psychophysics","304","590720","0.0-18.0-2.19","6086a11397234e7f83e4e793","609a8bf73b2ac84e2732f618","60a267ad909b680ffc0ddeba","346.80500000098255","","","","90","","","","key","16.671999999997205","891","512","","","","","","","","","","","","","","","","","","","",""
"psychophysics","305","592070","0.0-18.0-0.20","6086a11397234e7f83e4e793","609a8bf73b2ac84e2732f618","60a267ad909b680ffc0ddeba","null","","","","null","","","","key","16.672000000000118","891","512","","","","","","","","","","","","","","","","","","","",""
"psychophysics","306","592574","0.0-18.0-1.20","6086a11397234e7f83e4e793","609a8bf73b2ac84e2732f618","60a267ad909b680ffc0ddeba","null","","","","null","","","","key","16.6719999999964","891","512","","","","","","","","","","","","","143","1","6","true","","","",""
"psychophysics","307","592824","0.0-18.0-2.20","6086a11397234e7f83e4e793","609a8bf73b2ac84e2732f618","60a267ad909b680ffc0ddeba","248.86999999941327","","","","77","","","","key","16.963428571429436","891","512","","","","","","","","","","","","","","","","","","","",""
"psychophysics","308","593970","0.0-18.0-0.21","6086a11397234e7f83e4e793","609a8bf73b2ac84e2732f618","60a267ad909b680ffc0ddeba","null","","","","null","","","","key","16.671999999999944","891","512","","","","","","","","","","","","","","","","","","","",""
"psychophysics","309","594473","0.0-18.0-1.21","6086a11397234e7f83e4e793","609a8bf73b2ac84e2732f618","60a267ad909b680ffc0ddeba","null","","","","null","","","","key","16.672000000000416","891","512","","","","","","","","","","","","","143","-1","4","true","","","",""
"psychophysics","310","594579","0.0-18.0-2.21","6086a11397234e7f83e4e793","609a8bf73b2ac84e2732f618","60a267ad909b680ffc0ddeba","104.23000000079628","","","","77","","","","key","16.672000000001088","891","512","","","","","","","","","","","","","","","","","","","",""
"psychophysics","311","595938","0.0-18.0-0.22","6086a11397234e7f83e4e793","609a8bf73b2ac84e2732f618","60a267ad909b680ffc0ddeba","null","","","","null","","","","key","16.672000000000118","891","512","","","","","","","","","","","","","","","","","","","",""
"psychophysics","312","596441","0.0-18.0-1.22","6086a11397234e7f83e4e793","609a8bf73b2ac84e2732f618","60a267ad909b680ffc0ddeba","null","","","","null","","","","key","16.672000000000416","891","512","","","","","","","","","","","","","143","-1","6","true","","","",""
"psychophysics","313","596503","0.0-18.0-2.22","6086a11397234e7f83e4e793","609a8bf73b2ac84e2732f618","60a267ad909b680ffc0ddeba","60.19499999820255","","","","77","","","","key","16.671999999981683","891","512","","","","","","","","","","","","","","","","","","","",""
"psychophysics","314","597297","0.0-18.0-0.23","6086a11397234e7f83e4e793","609a8bf73b2ac84e2732f618","60a267ad909b680ffc0ddeba","null","","","","null","","","","key","16.672000000000242","891","512","","","","","","","","","","","","","","","","","","","",""
"psychophysics","315","597797","0.0-18.0-1.23","6086a11397234e7f83e4e793","609a8bf73b2ac84e2732f618","60a267ad909b680ffc0ddeba","null","","","","null","","","","key","16.672000000001088","891","512","","","","","","","","","","","","","143","-1","2","true","","","",""
"psychophysics","316","598022","0.0-18.0-2.23","6086a11397234e7f83e4e793","609a8bf73b2ac84e2732f618","60a267ad909b680ffc0ddeba","222.80999999924097","","","","90","","","","key","16.672000000001088","891","512","","","","","","","","","","","","","","","","","","","",""
"psychophysics","317","598639","0.0-18.0-0.24","6086a11397234e7f83e4e793","609a8bf73b2ac84e2732f618","60a267ad909b680ffc0ddeba","null","","","","null","","","","key","16.672000000001088","891","512","","","","","","","","","","","","","","","","","","","",""
"psychophysics","318","599142","0.0-18.0-1.24","6086a11397234e7f83e4e793","609a8bf73b2ac84e2732f618","60a267ad909b680ffc0ddeba","null","","","","null","","","","key","16.6719999999964","891","512","","","","","","","","","","","","","143","-1","5","true","","","",""
"psychophysics","319","599259","0.0-18.0-2.24","6086a11397234e7f83e4e793","609a8bf73b2ac84e2732f618","60a267ad909b680ffc0ddeba","115.5849999996135","","","","90","","","","key","16.672000000001088","891","512","","","","","","","","","","","","","","","","","","","",""
"psychophysics","320","599980","0.0-18.0-0.25","6086a11397234e7f83e4e793","609a8bf73b2ac84e2732f618","60a267ad909b680ffc0ddeba","null","","","","null","","","","key","16.672000000001088","891","512","","","","","","","","","","","","","","","","","","","",""
"psychophysics","321","600481","0.0-18.0-1.25","6086a11397234e7f83e4e793","609a8bf73b2ac84e2732f618","60a267ad909b680ffc0ddeba","null","","","","null","","","","key","16.671999999997205","891","512","","","","","","","","","","","","","143","1","5","true","","","",""
"psychophysics","322","600542","0.0-18.0-2.25","6086a11397234e7f83e4e793","609a8bf73b2ac84e2732f618","60a267ad909b680ffc0ddeba","59.09999999869615","","","","77","","","","key","16.67200000002049","891","512","","","","","","","","","","","","","","","","","","","",""
"psychophysics","323","601923","0.0-18.0-0.26","6086a11397234e7f83e4e793","609a8bf73b2ac84e2732f618","60a267ad909b680ffc0ddeba","null","","","","null","","","","key","16.671999999999194","891","512","","","","","","","","","","","","","","","","","","","",""
"psychophysics","324","602426","0.0-18.0-1.26","6086a11397234e7f83e4e793","609a8bf73b2ac84e2732f618","60a267ad909b680ffc0ddeba","null","","","","null","","","","key","16.672000000000416","891","512","","","","","","","","","","","","","143","1","4","true","","","",""
"psychophysics","325","602477","0.0-18.0-2.26","6086a11397234e7f83e4e793","609a8bf73b2ac84e2732f618","60a267ad909b680ffc0ddeba","50.06000000133645","","","","77","","","","key","16.67199999996228","891","512","","","","","","","","","","","","","","","","","","","",""
"psychophysics","326","603679","0.0-18.0-0.27","6086a11397234e7f83e4e793","609a8bf73b2ac84e2732f618","60a267ad909b680ffc0ddeba","null","","","","null","","","","key","16.728957746479608","891","512","","","","","","","","","","","","","","","","","","","",""
"psychophysics","327","604182","0.0-18.0-1.27","6086a11397234e7f83e4e793","609a8bf73b2ac84e2732f618","60a267ad909b680ffc0ddeba","null","","","","null","","","","key","16.672000000000416","891","512","","","","","","","","","","","","","143","1","3","true","","","",""
"psychophysics","328","605323","0.0-18.0-2.27","6086a11397234e7f83e4e793","609a8bf73b2ac84e2732f618","60a267ad909b680ffc0ddeba","1139.784999999334","","","","77","","","","key","16.671999999999944","891","512","","","","","","","","","","","","","","","","","","","",""
"psychophysics","329","606528","0.0-18.0-0.28","6086a11397234e7f83e4e793","609a8bf73b2ac84e2732f618","60a267ad909b680ffc0ddeba","null","","","","null","","","","key","16.672000000000814","891","512","","","","","","","","","","","","","","","","","","","",""
"psychophysics","330","607031","0.0-18.0-1.28","6086a11397234e7f83e4e793","609a8bf73b2ac84e2732f618","60a267ad909b680ffc0ddeba","null","","","","null","","","","key","16.672000000000416","891","512","","","","","","","","","","","","","143","1","6","true","","","",""
