"trial_type","trial_index","time_elapsed","internal_node_id","PROLIFIC_PID","STUDY_ID","SESSION_ID","rt","stimulus","button_pressed","success","key_press","responses","isData","view_history","response_type","avg_frame_time","center_x","center_y","isSC","stim_side","trial_luminance","step_size","nReversal","correct","prev_ans","isThreshold","SC_threshold","final_threshold","isLuminance","FF_luminance","luminance","stimSide","ISInt","isFF","question_order","isSPQ","isCAPS","isAQ"
"pavlovia","0","4","0.0-0.0","609810a3e824529db49b25b9","609006691f6f4e337c17f836","609a4f4ede74e69a7a74e87d","","","","","","","","","","","","","","","","","","","","","","","","","","","","","","","",""
"html-button-response","1","21781","0.0-1.0","609810a3e824529db49b25b9","609006691f6f4e337c17f836","609a4f4ede74e69a7a74e87d","21775.034999940544","<div style='background-color: white; width:60%; margin: auto; padding: 50px; text-align: justify; text-justify: inter-word; margin-bottom: 20px;'><h1 style='text-align: center;'>Consent Form</h1><p>Please read this consent form carefully before deciding whether you would like to participate in this study. You have to be 18 years old or older to participate to this study.</p><p style='text-decoration: underline;'>Participation is voluntary:</p><p>It is your choice whether or not to participate in this research. If you choose to participate, you may change your mind and leave the study at any time. Refusal to participate or stopping your participation will involve no penalty or loss of benefits to which you are otherwise entitled.</p><p style='text-decoration: underline;'>Purpose of the Study:</p><p>To understand the mechanisms underlying human perception.</p><p style='text-decoration: underline;'>What you will do in this study:</p><p>You will be presented with a series of visual images and then you will press buttons on the keyboard of your computer to respond to simple questions about the images (e.g. Were one or two images presented?). In addition, you will be asked to complete a questionnaire concerning your beliefs and everyday mental and perceptual experiences.'</p><p style='text-decoration: underline;'> Time Required:</p><p>The study will take 40 minutes to complete. </p><p style='text-decoration: underline;'>Risks:</p><p>There are no anticipated risks associated with participating in this study that are beyond those experienced in everyday life. </p><p style='text-decoration: underline;'>Benefits:</p><p>There are no benefits to you in participating in the study. However, this study may lead to a better understanding of how different kinds of visual information are used.</p><p style='text-decoration: underline;'>Compensation:</p><p>You will be paid US$6.6/hour. </p><p style='text-decoration: underline;'>Privacy and Confidentiality:</p><p>Your participation in this study will be anonymous. No personal information about your name or identity will be asked or recorded. This anonymous data will be stored for several years and may be used for a variety of research purposes. The overall results of the study may be published, or the data files may be shared with other researchers, but your identity will not be revealed in any way. The online services we are using for this study may temporarily store your data, but this data will be downloaded and then promptly deleted from those services.Your data will not be permanently associated with your name, IP address, or any other identifiable information (e.g., your information will only be connected to your payment, not to any of your responses), though they may be temporarily stored together before we download and separate them. Even so, no guarantee of internet survey security can be given because, although unlikely, transmissions can be intercepted and IP addresses can be identified. The anonymous data may be shared publicly (for example, in conjunction with a resulting academic publication).</p><p style='text-decoration: underline;'>Participation and Withdrawal:</p><p>Your participation in this study is completely voluntary. You may stop responding to the stimuli or stop answering questions if you so choose and without penalty by exiting the full screen mode, closing this tab of your browser or redirecting it to a different website.</p><p style='text-decoration: underline;'>Contact Info of the Researcher: </p><p>If you have questions about this study, or if you would like to talk to the research team, please contact David Melcher (david.melcher@nyu.edu, md5050@nyu.edu) at the Perception and Active Cognition Laboratory, New York University Abu Dhabi, Computational Research Building, Saadiyat Island, Abu Dhabi, UAE.This research has been reviewed by the New York University Abu Dhabi Institutional Review Board (NYUAD IRB). To contact about your rights in this research, for questions, suggestions, or complaints that are not addressed by the researchers, please email IRBnyuad@nyu.edu, or call the NYUAD IRB at +971 2 628 4313. </p></div>","0","","","","","","","","","","","","","","","","","","","","","","","","","","","","",""
"fullscreen","2","24054","0.0-2.0","609810a3e824529db49b25b9","609006691f6f4e337c17f836","609a4f4ede74e69a7a74e87d","","","","true","","","","","","","","","","","","","","","","","","","","","","","","","","","",""
"html-keyboard-response","3","45098","0.0-3.0","609810a3e824529db49b25b9","609006691f6f4e337c17f836","609a4f4ede74e69a7a74e87d","21041.639999952167","<p>Welcome !</p><p>READ CAREFULLY THE FOLLOWING INDICATIONS:</p><p>From this moment you have ~40 minutes to complete the experiment.</p><p>During the experiment you will be prompted to take several breaks. Each break should not last longer than 2-3 minutes.</p><p>Make sure that your computer is plugged in and it's not running on battery power, even if the battery is already fully charged.</p><p>Turn off your phone and music, make sure that you are in a quiet room and that you will not be distracted for the next hour.</p><p>Failure to comply with the instructions and indications provided during the experiment will most likely result in the rejection of your data.<p>Press the spacebar to start.</p>","","","32","","","","","","","","","","","","","","","","","","","","","","","","","","",""
"survey-html-form","4","51999","0.0-4.0","609810a3e824529db49b25b9","609006691f6f4e337c17f836","609a4f4ede74e69a7a74e87d","6898.769999970682","","","","","{""age"":""54"",""sex"":""F""}","true","","","","","","","","","","","","","","","","","","","","","","","","",""
"instructions","5","231212","0.0-5.0","609810a3e824529db49b25b9","609006691f6f4e337c17f836","609a4f4ede74e69a7a74e87d","179212.96999999322","","","","","","","[{""page_index"":0,""viewing_time"":171333.14000000246},{""page_index"":1,""viewing_time"":3633.2900000270456},{""page_index"":2,""viewing_time"":4246.320000034757}]","","","","","","","","","","","","","","","","","","","","","","","",""
"psychophysics","6","232863","0.0-6.0-0.0","609810a3e824529db49b25b9","609006691f6f4e337c17f836","609a4f4ede74e69a7a74e87d","641.6599999647588","","","","39","","","","key","16.669275510204155","479","463.5","true","1","180","30","0","-1","","","","","","","","","","","","","",""
"psychophysics","7","234277","0.0-6.0-0.1","609810a3e824529db49b25b9","609006691f6f4e337c17f836","609a4f4ede74e69a7a74e87d","411.0299999592826","","","","39","","","","key","16.665666666666635","479","463.5","true","1","180","30","0","-1","-1","","","","","","","","","","","","",""
"psychophysics","8","235616","0.0-6.0-0.2","609810a3e824529db49b25b9","609006691f6f4e337c17f836","609a4f4ede74e69a7a74e87d","334.8550000227988","","","","39","","","","key","16.66421250000021","479","463.5","true","1","150","30","0","-1","-1","","","","","","","","","","","","",""
"psychophysics","9","236925","0.0-6.0-0.3","609810a3e824529db49b25b9","609006691f6f4e337c17f836","609a4f4ede74e69a7a74e87d","305.27999997138977","","","","37","","","","key","16.66175324675308","479","463.5","true","-1","150","30","0","-1","-1","","","","","","","","","","","","",""
"psychophysics","10","240907","0.0-6.0-0.4","609810a3e824529db49b25b9","609006691f6f4e337c17f836","609a4f4ede74e69a7a74e87d","2980.604999931529","","","","37","","","","key","16.66536974789919","479","463.5","true","-1","129","30","0","-1","-1","","","","","","","","","","","","",""
"psychophysics","11","243541","0.0-6.0-0.5","609810a3e824529db49b25b9","609006691f6f4e337c17f836","609a4f4ede74e69a7a74e87d","1631.7099999869242","","","","39","","","","key","16.667828025477625","479","463.5","true","1","129","30","0","-1","-1","","","","","","","","","","","","",""
"psychophysics","12","245565","0.0-6.0-0.6","609810a3e824529db49b25b9","609006691f6f4e337c17f836","609a4f4ede74e69a7a74e87d","1022.1449999371544","","","","39","","","","key","16.66702479338836","479","463.5","true","1","129","30","0","-1","-1","","","","","","","","","","","","",""
"psychophysics","13","247973","0.0-6.0-0.7","609810a3e824529db49b25b9","609006691f6f4e337c17f836","609a4f4ede74e69a7a74e87d","1406.4399999333546","","","","37","","","","key","16.666496503496358","479","463.5","true","-1","129","30","0","-1","-1","","","","","","","","","","","","",""
"psychophysics","14","249670","0.0-6.0-0.8","609810a3e824529db49b25b9","609006691f6f4e337c17f836","609a4f4ede74e69a7a74e87d","696.349999983795","","","","39","","","","key","16.670524752475227","479","463.5","true","1","129","30","0","-1","-1","","","","","","","","","","","","",""
"psychophysics","15","251694","0.0-6.0-0.9","609810a3e824529db49b25b9","609006691f6f4e337c17f836","609a4f4ede74e69a7a74e87d","1021.7699999921024","","","","37","","","","key","16.668091666666683","479","463.5","true","1","129","24","1","1","-1","","","","","","","","","","","","",""
"psychophysics","16","253029","0.0-6.0-0.10","609810a3e824529db49b25b9","609006691f6f4e337c17f836","609a4f4ede74e69a7a74e87d","333.4249999606982","","","","37","","","","key","16.670670886076042","479","463.5","true","-1","153","24","1","-1","1","","","","","","","","","","","","",""
"psychophysics","17","254350","0.0-6.0-0.11","609810a3e824529db49b25b9","609006691f6f4e337c17f836","609a4f4ede74e69a7a74e87d","319.25499998033047","","","","37","","","","key","16.670101265822716","479","463.5","true","-1","153","19.2","2","-1","-1","","","","","","","","","","","","",""
"psychophysics","18","255694","0.0-6.0-0.12","609810a3e824529db49b25b9","609006691f6f4e337c17f836","609a4f4ede74e69a7a74e87d","335.82499995827675","","","","39","","","","key","16.667025316455415","479","463.5","true","1","133.8","19.2","2","-1","-1","","","","","","","","","","","","",""
"psychophysics","19","257165","0.0-6.0-0.13","609810a3e824529db49b25b9","609006691f6f4e337c17f836","609a4f4ede74e69a7a74e87d","467.39000000525266","","","","37","","","","key","16.66650000000002","479","463.5","true","-1","133.8","19.2","2","-1","-1","","","","","","","","","","","","",""
"psychophysics","20","258798","0.0-6.0-0.14","609810a3e824529db49b25b9","609006691f6f4e337c17f836","609a4f4ede74e69a7a74e87d","630.765000008978","","","","37","","","","key","16.66586597938152","479","463.5","true","1","129","15.36","3","1","-1","","","","","","","","","","","","",""
"psychophysics","21","260102","0.0-6.0-0.15","609810a3e824529db49b25b9","609006691f6f4e337c17f836","609a4f4ede74e69a7a74e87d","301.63499992340803","","","","39","","","","key","16.6707402597406","479","463.5","true","1","144.36","15.36","3","-1","1","","","","","","","","","","","","",""
"psychophysics","22","261446","0.0-6.0-0.16","609810a3e824529db49b25b9","609006691f6f4e337c17f836","609a4f4ede74e69a7a74e87d","340.0900000706315","","","","37","","","","key","16.66667088607615","479","463.5","true","-1","144.36","12.287999999999998","4","-1","-1","","","","","","","","","","","","",""
"psychophysics","23","262799","0.0-6.0-0.17","609810a3e824529db49b25b9","609006691f6f4e337c17f836","609a4f4ede74e69a7a74e87d","349.01499992702156","","","","39","","","","key","16.670543209876705","479","463.5","true","1","132.072","12.287999999999998","4","-1","-1","","","","","","","","","","","","",""
"psychophysics","24","264110","0.0-6.0-0.18","609810a3e824529db49b25b9","609006691f6f4e337c17f836","609a4f4ede74e69a7a74e87d","307.0900000166148","","","","39","","","","key","16.667519480519164","479","463.5","true","-1","132.072","9.8304","5","1","-1","","","","","","","","","","","","",""
"psychophysics","25","265381","0.0-6.0-0.19","609810a3e824529db49b25b9","609006691f6f4e337c17f836","609a4f4ede74e69a7a74e87d","268.7900000018999","","","","37","","","","key","16.66563157894722","479","463.5","true","-1","141.9024","9.8304","5","-1","1","","","","","","","","","","","","",""
"psychophysics","26","266669","0.0-6.0-0.20","609810a3e824529db49b25b9","609006691f6f4e337c17f836","609a4f4ede74e69a7a74e87d","287.1449999511242","","","","37","","","","key","16.665973684210545","479","463.5","true","-1","141.9024","7.864319999999999","6","-1","-1","","","","","","","","","","","","",""
"psychophysics","27","268015","0.0-6.0-0.21","609810a3e824529db49b25b9","609006691f6f4e337c17f836","609a4f4ede74e69a7a74e87d","343.6349999392405","","","","37","","","","key","16.663812499999768","479","463.5","true","-1","134.03808","7.864319999999999","6","-1","-1","","","","","","","","","","","","",""
"psychophysics","28","269301","0.0-6.0-0.22","609810a3e824529db49b25b9","609006691f6f4e337c17f836","609a4f4ede74e69a7a74e87d","281.8699999479577","","","","37","","","","key","16.66968421052642","479","463.5","true","-1","134.03808","7.864319999999999","6","-1","-1","","","","","","","","","","","","",""
"psychophysics","29","270615","0.0-6.0-0.23","609810a3e824529db49b25b9","609006691f6f4e337c17f836","609a4f4ede74e69a7a74e87d","312.9699999699369","","","","37","","","","key","16.663923076923357","479","463.5","true","-1","129","7.864319999999999","6","-1","-1","","","","","","","","","","","","",""
"psychophysics","30","271941","0.0-6.0-0.24","609810a3e824529db49b25b9","609006691f6f4e337c17f836","609a4f4ede74e69a7a74e87d","320.65000000875443","","","","37","","","","key","16.669935897435955","479","463.5","true","1","129","6.291456","7","1","-1","","","","","","","","","","","","",""
"psychophysics","31","273292","0.0-6.0-0.25","609810a3e824529db49b25b9","609006691f6f4e337c17f836","609a4f4ede74e69a7a74e87d","346.82999993674457","","","","37","","","","key","16.665237499999783","479","463.5","true","-1","135.291456","6.291456","7","-1","1","","","","","","","","","","","","",""
"psychophysics","32","274573","0.0-6.0-0.26","609810a3e824529db49b25b9","609006691f6f4e337c17f836","609a4f4ede74e69a7a74e87d","278.83500000461936","","","","39","","","","key","16.66667105263102","479","463.5","true","1","135.291456","5.033164800000001","8","-1","-1","","","","","","","","","","","","",""
"psychophysics","33","276644","0.0-6.0-0.27","609810a3e824529db49b25b9","609006691f6f4e337c17f836","609a4f4ede74e69a7a74e87d","1068.3449999196455","","","","39","","","","key","16.66658536585358","479","463.5","true","1","130.2582912","5.033164800000001","8","-1","-1","","","","","","","","","","","","",""
"psychophysics","34","278054","0.0-6.0-0.28","609810a3e824529db49b25b9","609006691f6f4e337c17f836","609a4f4ede74e69a7a74e87d","407.65000006649643","","","","39","","","","key","16.670535714285855","479","463.5","true","1","130.2582912","5.033164800000001","8","-1","-1","","","","","","","","","","","","",""
"psychophysics","35","279325","0.0-6.0-0.29","609810a3e824529db49b25b9","609006691f6f4e337c17f836","609a4f4ede74e69a7a74e87d","266.9049999676645","","","","37","","","","key","16.66700000000031","479","463.5","true","1","129","4.0265318400000005","9","1","-1","","","","","","","","","","","","",""
"psychophysics","36","280628","0.0-6.0-0.30","609810a3e824529db49b25b9","609006691f6f4e337c17f836","609a4f4ede74e69a7a74e87d","301.0350000113249","","","","37","","","","key","16.665753246753706","479","463.5","true","-1","133.02653184","4.0265318400000005","9","-1","1","","","","","","","","","","","","",""
"psychophysics","37","281894","0.0-6.0-0.31","609810a3e824529db49b25b9","609006691f6f4e337c17f836","609a4f4ede74e69a7a74e87d","264.3699999898672","","","","39","","","","key","16.670480000000293","479","463.5","true","-1","133.02653184","3.2212254720000004","10","1","-1","","","","","","","","","","","","",""
"psychophysics","38","283132","0.0-6.0-0.32","609810a3e824529db49b25b9","609006691f6f4e337c17f836","609a4f4ede74e69a7a74e87d","237.26500000339","","","","37","","","","key","16.66974324324307","479","463.5","true","-1","136.24775731199998","3.2212254720000004","10","-1","1","","","","","","","","","","","","",""
"psychophysics","39","284414","0.0-6.0-0.33","609810a3e824529db49b25b9","609006691f6f4e337c17f836","609a4f4ede74e69a7a74e87d","279.05999997165054","","","","39","","","","key","16.663986842105118","479","463.5","true","1","136.24775731199998","2.5769803776000004","11","-1","-1","","","","","","","","","","","","",""
"psychophysics","40","285685","0.0-6.0-0.34","609810a3e824529db49b25b9","609006691f6f4e337c17f836","609a4f4ede74e69a7a74e87d","267.2500000335276","","","","39","","","","key","16.66637333333337","479","463.5","true","1","133.67077693439998","2.5769803776000004","11","-1","-1","","","","","","","","","","","","",""
"psychophysics","41","286949","0.0-6.0-0.35","609810a3e824529db49b25b9","609006691f6f4e337c17f836","609a4f4ede74e69a7a74e87d","260.9250000678003","","","","37","","","","key","16.663013333333655","479","463.5","true","-1","133.67077693439998","2.5769803776000004","11","-1","-1","","","","","","","","","","","","",""
"psychophysics","42","288589","0.0-6.0-0.36","609810a3e824529db49b25b9","609006691f6f4e337c17f836","609a4f4ede74e69a7a74e87d","638.3100000675768","","","","39","","","","key","16.66627835051502","479","463.5","true","1","131.0937965568","2.5769803776000004","11","-1","-1","","","","","","","","","","","","",""
"psychophysics","43","289892","0.0-6.0-0.37","609810a3e824529db49b25b9","609006691f6f4e337c17f836","609a4f4ede74e69a7a74e87d","298.97999996319413","","","","37","","","","key","16.665935064935088","479","463.5","true","-1","131.0937965568","2.5769803776000004","11","-1","-1","","","","","","","","","","","","",""
"psychophysics","44","291237","0.0-6.0-0.38","609810a3e824529db49b25b9","609006691f6f4e337c17f836","609a4f4ede74e69a7a74e87d","343.0950000183657","","","","39","","","","key","16.667112500000076","479","463.5","true","-1","129","2.0615843020800004","12","1","-1","","","","","","","","","","","","",""
"psychophysics","45","292492","0.0-6.0-0.39","609810a3e824529db49b25b9","609006691f6f4e337c17f836","609a4f4ede74e69a7a74e87d","251.96500006131828","","","","37","","","","key","16.662202702702267","479","463.5","true","1","131.06158430208","2.0615843020800004","12","1","1","","","","","","","","","","","","",""
"html-keyboard-response","46","297350","0.0-7.0","609810a3e824529db49b25b9","609006691f6f4e337c17f836","609a4f4ede74e69a7a74e87d","4856.490000034682","<p>Well Done !</p><p>Prepare for a new block.</p><p>DON'T EXIT THE FULL SCREEN MODE</p><p>Press the Spacebar to start.</p>","","","32","","","","","","","","","","","","","","","true","132.549253599232","","","","","","","","","","",""
"psychophysics","47","298437","0.0-8.0-0.0","609810a3e824529db49b25b9","609006691f6f4e337c17f836","609a4f4ede74e69a7a74e87d","82.76999997906387","","","","37","","","","key","16.6731384615387","479","463.5","true","-1","180","30","0","-1","","","","","","","","","","","","","",""
"psychophysics","48","299661","0.0-8.0-0.1","609810a3e824529db49b25b9","609006691f6f4e337c17f836","609a4f4ede74e69a7a74e87d","219.98500009067357","","","","39","","","","key","16.66648611111143","479","463.5","true","1","180","30","0","-1","-1","","","","","","","","","","","","",""
"psychophysics","49","300893","0.0-8.0-0.2","609810a3e824529db49b25b9","609006691f6f4e337c17f836","609a4f4ede74e69a7a74e87d","231.2099999981001","","","","39","","","","key","16.667890410958822","479","463.5","true","1","150","30","0","-1","-1","","","","","","","","","","","","",""
"psychophysics","50","302125","0.0-8.0-0.3","609810a3e824529db49b25b9","609006691f6f4e337c17f836","609a4f4ede74e69a7a74e87d","226.76999995019287","","","","37","","","","key","16.66663013698616","479","463.5","true","-1","150","30","0","-1","-1","","","","","","","","","","","","",""
"psychophysics","51","303604","0.0-8.0-0.4","609810a3e824529db49b25b9","609006691f6f4e337c17f836","609a4f4ede74e69a7a74e87d","475.5749999312684","","","","39","","","","key","16.666886363636877","479","463.5","true","1","129","30","0","-1","-1","","","","","","","","","","","","",""
"psychophysics","52","304964","0.0-8.0-0.5","609810a3e824529db49b25b9","609006691f6f4e337c17f836","609a4f4ede74e69a7a74e87d","358.8999999919906","","","","39","","","","key","16.666654320987785","479","463.5","true","1","129","30","0","-1","-1","","","","","","","","","","","","",""
"psychophysics","53","306229","0.0-8.0-0.6","609810a3e824529db49b25b9","609006691f6f4e337c17f836","609a4f4ede74e69a7a74e87d","261.85999996960163","","","","39","","","","key","16.666770270270472","479","463.5","true","1","129","30","0","-1","-1","","","","","","","","","","","","",""
"psychophysics","54","307631","0.0-8.0-0.7","609810a3e824529db49b25b9","609006691f6f4e337c17f836","609a4f4ede74e69a7a74e87d","400.09000001009554","","","","39","","","","key","16.666988095238118","479","463.5","true","-1","129","24","1","1","-1","","","","","","","","","","","","",""
"psychophysics","55","308869","0.0-8.0-0.8","609810a3e824529db49b25b9","609006691f6f4e337c17f836","609a4f4ede74e69a7a74e87d","234.45999994874","","","","37","","","","key","16.668643835617058","479","463.5","true","-1","153","24","1","-1","1","","","","","","","","","","","","",""
"psychophysics","56","310120","0.0-8.0-0.9","609810a3e824529db49b25b9","609006691f6f4e337c17f836","609a4f4ede74e69a7a74e87d","247.1299999160692","","","","37","","","","key","16.66977027027059","479","463.5","true","-1","153","19.2","2","-1","-1","","","","","","","","","","","","",""
"psychophysics","57","311340","0.0-8.0-0.10","609810a3e824529db49b25b9","609006691f6f4e337c17f836","609a4f4ede74e69a7a74e87d","217.19999995548278","","","","39","","","","key","16.664138888888473","479","463.5","true","1","133.8","19.2","2","-1","-1","","","","","","","","","","","","",""
"psychophysics","58","312565","0.0-8.0-0.11","609810a3e824529db49b25b9","609006691f6f4e337c17f836","609a4f4ede74e69a7a74e87d","222.89999993517995","","","","39","","","","key","16.667821917808073","479","463.5","true","1","133.8","19.2","2","-1","-1","","","","","","","","","","","","",""
"psychophysics","59","313902","0.0-8.0-0.12","609810a3e824529db49b25b9","609006691f6f4e337c17f836","609a4f4ede74e69a7a74e87d","332.91999995708466","","","","39","","","","key","16.66255696202537","479","463.5","true","-1","129","15.36","3","1","-1","","","","","","","","","","","","",""
"psychophysics","60","315119","0.0-8.0-0.13","609810a3e824529db49b25b9","609006691f6f4e337c17f836","609a4f4ede74e69a7a74e87d","213.4150000056252","","","","37","","","","key","16.667375000000497","479","463.5","true","-1","144.36","15.36","3","-1","1","","","","","","","","","","","","",""
"psychophysics","61","316389","0.0-8.0-0.14","609810a3e824529db49b25b9","609006691f6f4e337c17f836","609a4f4ede74e69a7a74e87d","267.55500002764165","","","","39","","","","key","16.663293333333762","479","463.5","true","1","144.36","12.287999999999998","4","-1","-1","","","","","","","","","","","","",""
"psychophysics","62","317725","0.0-8.0-0.15","609810a3e824529db49b25b9","609006691f6f4e337c17f836","609a4f4ede74e69a7a74e87d","332.98499998636544","","","","39","","","","key","16.666037974683892","479","463.5","true","-1","132.072","9.8304","5","1","-1","","","","","","","","","","","","",""
"psychophysics","63","318972","0.0-8.0-0.16","609810a3e824529db49b25b9","609006691f6f4e337c17f836","609a4f4ede74e69a7a74e87d","242.909999913536","","","","37","","","","key","16.66505405405376","479","463.5","true","-1","141.9024","9.8304","5","-1","1","","","","","","","","","","","","",""
"psychophysics","64","320182","0.0-8.0-0.17","609810a3e824529db49b25b9","609006691f6f4e337c17f836","609a4f4ede74e69a7a74e87d","207.30000000912696","","","","37","","","","key","16.671333333333475","479","463.5","true","-1","141.9024","7.864319999999999","6","-1","-1","","","","","","","","","","","","",""
"psychophysics","65","321421","0.0-8.0-0.18","609810a3e824529db49b25b9","609006691f6f4e337c17f836","609a4f4ede74e69a7a74e87d","235.56000005919486","","","","37","","","","key","16.66716438356216","479","463.5","true","-1","134.03808","7.864319999999999","6","-1","-1","","","","","","","","","","","","",""
"psychophysics","66","322670","0.0-8.0-0.19","609810a3e824529db49b25b9","609006691f6f4e337c17f836","609a4f4ede74e69a7a74e87d","247.47499998193234","","","","39","","","","key","16.66747297297273","479","463.5","true","1","134.03808","7.864319999999999","6","-1","-1","","","","","","","","","","","","",""
"psychophysics","67","323919","0.0-8.0-0.20","609810a3e824529db49b25b9","609006691f6f4e337c17f836","609a4f4ede74e69a7a74e87d","246.55999999959022","","","","39","","","","key","16.6695675675677","479","463.5","true","1","129","7.864319999999999","6","-1","-1","","","","","","","","","","","","",""
"psychophysics","68","325140","0.0-8.0-0.21","609810a3e824529db49b25b9","609006691f6f4e337c17f836","609a4f4ede74e69a7a74e87d","217.75499999057502","","","","37","","","","key","16.670125000000148","479","463.5","true","1","129","6.291456","7","1","-1","","","","","","","","","","","","",""
"psychophysics","69","326381","0.0-8.0-0.22","609810a3e824529db49b25b9","609006691f6f4e337c17f836","609a4f4ede74e69a7a74e87d","239.36999996658415","","","","39","","","","key","16.669094594595073","479","463.5","true","1","135.291456","6.291456","7","-1","1","","","","","","","","","","","","",""
"psychophysics","70","327580","0.0-8.0-0.23","609810a3e824529db49b25b9","609006691f6f4e337c17f836","609a4f4ede74e69a7a74e87d","194.73999994806945","","","","39","","","","key","16.669774647887376","479","463.5","true","1","135.291456","5.033164800000001","8","-1","-1","","","","","","","","","","","","",""
"psychophysics","71","328893","0.0-8.0-0.24","609810a3e824529db49b25b9","609006691f6f4e337c17f836","609a4f4ede74e69a7a74e87d","307.76500003412366","","","","37","","","","key","16.663233766233997","479","463.5","true","-1","130.2582912","5.033164800000001","8","-1","-1","","","","","","","","","","","","",""
"psychophysics","72","330236","0.0-8.0-0.25","609810a3e824529db49b25b9","609006691f6f4e337c17f836","609a4f4ede74e69a7a74e87d","340.4400000581518","","","","39","","","","key","16.66548750000002","479","463.5","true","1","130.2582912","5.033164800000001","8","-1","-1","","","","","","","","","","","","",""
"psychophysics","73","331605","0.0-8.0-0.26","609810a3e824529db49b25b9","609006691f6f4e337c17f836","609a4f4ede74e69a7a74e87d","366.1599999759346","","","","39","","","","key","16.667333333333378","479","463.5","true","1","129","5.033164800000001","8","-1","-1","","","","","","","","","","","","",""
"psychophysics","74","332932","0.0-8.0-0.27","609810a3e824529db49b25b9","609006691f6f4e337c17f836","609a4f4ede74e69a7a74e87d","325.06499998271465","","","","37","","","","key","16.66936708860692","479","463.5","true","1","129","4.0265318400000005","9","1","-1","","","","","","","","","","","","",""
"psychophysics","75","334212","0.0-8.0-0.28","609810a3e824529db49b25b9","609006691f6f4e337c17f836","609a4f4ede74e69a7a74e87d","276.04499994777143","","","","37","","","","key","16.663413333333253","479","463.5","true","-1","133.02653184","4.0265318400000005","9","-1","1","","","","","","","","","","","","",""
"psychophysics","76","335612","0.0-8.0-0.29","609810a3e824529db49b25b9","609006691f6f4e337c17f836","609a4f4ede74e69a7a74e87d","398.71999993920326","","","","37","","","","key","16.66648809523793","479","463.5","true","-1","133.02653184","3.2212254720000004","10","-1","-1","","","","","","","","","","","","",""
"psychophysics","77","336971","0.0-8.0-0.30","609810a3e824529db49b25b9","609006691f6f4e337c17f836","609a4f4ede74e69a7a74e87d","358.01500000525266","","","","37","","","","key","16.666212500000256","479","463.5","true","-1","129.805306368","3.2212254720000004","10","-1","-1","","","","","","","","","","","","",""
"psychophysics","78","338388","0.0-8.0-0.31","609810a3e824529db49b25b9","609006691f6f4e337c17f836","609a4f4ede74e69a7a74e87d","414.809999987483","","","","39","","","","key","16.66339285714258","479","463.5","true","-1","129.805306368","2.5769803776000004","11","1","-1","","","","","","","","","","","","",""
"psychophysics","79","340014","0.0-8.0-0.32","609810a3e824529db49b25b9","609006691f6f4e337c17f836","609a4f4ede74e69a7a74e87d","624.2799999890849","","","","39","","","","key","16.66449484536028","479","463.5","true","1","132.3822867456","2.5769803776000004","11","-1","1","","","","","","","","","","","","",""
"psychophysics","80","341284","0.0-8.0-0.33","609810a3e824529db49b25b9","609006691f6f4e337c17f836","609a4f4ede74e69a7a74e87d","260.7599999755621","","","","37","","","","key","16.668826666666817","479","463.5","true","-1","132.3822867456","2.0615843020800004","12","-1","-1","","","","","","","","","","","","",""
"psychophysics","81","342581","0.0-8.0-0.34","609810a3e824529db49b25b9","609006691f6f4e337c17f836","609a4f4ede74e69a7a74e87d","293.03499998059124","","","","37","","","","key","16.662519480519045","479","463.5","true","1","130.32070244352","1.6492674416640005","13","1","-1","","","","","","","","","","","","",""
"psychophysics","82","344091","0.0-8.0-0.35","609810a3e824529db49b25b9","609006691f6f4e337c17f836","609a4f4ede74e69a7a74e87d","508.09999997727573","","","","39","","","","key","16.666865168538944","479","463.5","true","1","131.96996988518399","1.6492674416640005","13","-1","1","","","","","","","","","","","","",""
"psychophysics","83","345477","0.0-8.0-0.36","609810a3e824529db49b25b9","609006691f6f4e337c17f836","609a4f4ede74e69a7a74e87d","384.9649999756366","","","","37","","","","key","16.668048780488146","479","463.5","true","-1","131.96996988518399","1.3194139533312006","14","-1","-1","","","","","","","","","","","","",""
"psychophysics","84","346740","0.0-8.0-0.37","609810a3e824529db49b25b9","609006691f6f4e337c17f836","609a4f4ede74e69a7a74e87d","259.5649999566376","","","","39","","","","key","16.665639999999353","479","463.5","true","-1","130.65055593185278","1.0555311626649604","15","1","-1","","","","","","","","","","","","",""
"psychophysics","85","348100","0.0-8.0-0.38","609810a3e824529db49b25b9","609006691f6f4e337c17f836","609a4f4ede74e69a7a74e87d","359.26000005565584","","","","37","","","","key","16.668999999999443","479","463.5","true","-1","131.70608709451773","1.0555311626649604","15","-1","1","","","","","","","","","","","","",""
"psychophysics","86","349468","0.0-8.0-0.39","609810a3e824529db49b25b9","609006691f6f4e337c17f836","609a4f4ede74e69a7a74e87d","363.7350000208244","","","","37","","","","key","16.662555555555752","479","463.5","true","1","131.70608709451773","1","16","1","-1","","","","","","","","","","","","",""
"html-keyboard-response","87","350838","0.0-9.0","609810a3e824529db49b25b9","609006691f6f4e337c17f836","609a4f4ede74e69a7a74e87d","1368.889999925159","<p>Well Done !</p><p>Prepare for a new block.</p><p>DON'T EXIT THE FULL SCREEN MODE</p><p>Press the Spacebar to start.</p>","","","32","","","","","","","","","","","","","","","true","131.13399422946503","","","","","","","","","","",""
"psychophysics","88","352804","0.0-10.0-0.0","609810a3e824529db49b25b9","609006691f6f4e337c17f836","609a4f4ede74e69a7a74e87d","962.8149999771267","","","","37","","","","key","16.66970338983021","479","463.5","true","-1","180","30","0","-1","","","","","","","","","","","","","",""
"psychophysics","89","354099","0.0-10.0-0.1","609810a3e824529db49b25b9","609006691f6f4e337c17f836","609a4f4ede74e69a7a74e87d","292.4649999476969","","","","39","","","","key","16.668584415584036","479","463.5","true","1","180","30","0","-1","-1","","","","","","","","","","","","",""
"psychophysics","90","355415","0.0-10.0-0.2","609810a3e824529db49b25b9","609006691f6f4e337c17f836","609a4f4ede74e69a7a74e87d","314.0099999727681","","","","37","","","","key","16.66414102564121","479","463.5","true","-1","150","30","0","-1","-1","","","","","","","","","","","","",""
"psychophysics","91","356679","0.0-10.0-0.3","609810a3e824529db49b25b9","609006691f6f4e337c17f836","609a4f4ede74e69a7a74e87d","258.7000000057742","","","","37","","","","key","16.66435999999987","479","463.5","true","-1","150","30","0","-1","-1","","","","","","","","","","","","",""
"psychophysics","92","358307","0.0-10.0-0.4","609810a3e824529db49b25b9","609006691f6f4e337c17f836","609a4f4ede74e69a7a74e87d","626.8900000723079","","","","37","","","","key","16.66949999999997","479","463.5","true","-1","129","30","0","-1","-1","","","","","","","","","","","","",""
"psychophysics","93","359629","0.0-10.0-0.5","609810a3e824529db49b25b9","609006691f6f4e337c17f836","609a4f4ede74e69a7a74e87d","318.7949999701232","","","","39","","","","key","16.66685897435841","479","463.5","true","1","129","30","0","-1","-1","","","","","","","","","","","","",""
"psychophysics","94","361187","0.0-10.0-0.6","609810a3e824529db49b25b9","609006691f6f4e337c17f836","609a4f4ede74e69a7a74e87d","555.5100000929087","","","","37","","","","key","16.66558064516103","479","463.5","true","1","129","24","1","1","-1","","","","","","","","","","","","",""
"psychophysics","95","362428","0.0-10.0-0.7","609810a3e824529db49b25b9","609006691f6f4e337c17f836","609a4f4ede74e69a7a74e87d","239.62000000756234","","","","37","","","","key","16.66917808219146","479","463.5","true","-1","153","24","1","-1","1","","","","","","","","","","","","",""
"psychophysics","96","363725","0.0-10.0-0.8","609810a3e824529db49b25b9","609006691f6f4e337c17f836","609a4f4ede74e69a7a74e87d","295.53000000305474","","","","37","","","","key","16.66588311688294","479","463.5","true","-1","153","19.2","2","-1","-1","","","","","","","","","","","","",""
"psychophysics","97","365003","0.0-10.0-0.9","609810a3e824529db49b25b9","609006691f6f4e337c17f836","609a4f4ede74e69a7a74e87d","277.6349999476224","","","","37","","","","key","16.666013157895097","479","463.5","true","-1","133.8","19.2","2","-1","-1","","","","","","","","","","","","",""
"psychophysics","98","366798","0.0-10.0-0.10","609810a3e824529db49b25b9","609006691f6f4e337c17f836","609a4f4ede74e69a7a74e87d","792.8599999286234","","","","39","","","","key","16.670999999999648","479","463.5","true","1","133.8","19.2","2","-1","-1","","","","","","","","","","","","",""
"psychophysics","99","368308","0.0-10.0-0.11","609810a3e824529db49b25b9","609006691f6f4e337c17f836","609a4f4ede74e69a7a74e87d","507.47499999124557","","","","37","","","","key","16.662258426966197","479","463.5","true","-1","129","19.2","2","-1","-1","","","","","","","","","","","","",""
"psychophysics","100","369740","0.0-10.0-0.12","609810a3e824529db49b25b9","609006691f6f4e337c17f836","609a4f4ede74e69a7a74e87d","428.9599999319762","","","","39","","","","key","16.66603529411779","479","463.5","true","1","129","19.2","2","-1","-1","","","","","","","","","","","","",""
"psychophysics","101","371180","0.0-10.0-0.13","609810a3e824529db49b25b9","609006691f6f4e337c17f836","609a4f4ede74e69a7a74e87d","438.410000060685","","","","39","","","","key","16.662999999999787","479","463.5","true","-1","129","15.36","3","1","-1","","","","","","","","","","","","",""
"psychophysics","102","372420","0.0-10.0-0.14","609810a3e824529db49b25b9","609006691f6f4e337c17f836","609a4f4ede74e69a7a74e87d","238.81000000983477","","","","39","","","","key","16.66669863013691","479","463.5","true","1","144.36","15.36","3","-1","1","","","","","","","","","","","","",""
"psychophysics","103","373667","0.0-10.0-0.15","609810a3e824529db49b25b9","609006691f6f4e337c17f836","609a4f4ede74e69a7a74e87d","246.38499994762242","","","","37","","","","key","16.665972972973062","479","463.5","true","-1","144.36","12.287999999999998","4","-1","-1","","","","","","","","","","","","",""
"psychophysics","104","374932","0.0-10.0-0.16","609810a3e824529db49b25b9","609006691f6f4e337c17f836","609a4f4ede74e69a7a74e87d","263.9600000111386","","","","37","","","","key","16.66171999999943","479","463.5","true","1","132.072","9.8304","5","1","-1","","","","","","","","","","","","",""
"psychophysics","105","376215","0.0-10.0-0.17","609810a3e824529db49b25b9","609006691f6f4e337c17f836","609a4f4ede74e69a7a74e87d","279.32999993208796","","","","39","","","","key","16.663828947368433","479","463.5","true","1","141.9024","9.8304","5","-1","1","","","","","","","","","","","","",""
"psychophysics","106","377405","0.0-10.0-0.18","609810a3e824529db49b25b9","609006691f6f4e337c17f836","609a4f4ede74e69a7a74e87d","185.04499993287027","","","","39","","","","key","16.66702857142913","479","463.5","true","1","141.9024","7.864319999999999","6","-1","-1","","","","","","","","","","","","",""
"psychophysics","107","378723","0.0-10.0-0.19","609810a3e824529db49b25b9","609006691f6f4e337c17f836","609a4f4ede74e69a7a74e87d","317.22500000614673","","","","39","","","","key","16.66582051282062","479","463.5","true","1","134.03808","7.864319999999999","6","-1","-1","","","","","","","","","","","","",""
"psychophysics","108","379964","0.0-10.0-0.20","609810a3e824529db49b25b9","609006691f6f4e337c17f836","609a4f4ede74e69a7a74e87d","238.90999995637685","","","","39","","","","key","16.66636486486469","479","463.5","true","1","134.03808","7.864319999999999","6","-1","-1","","","","","","","","","","","","",""
"psychophysics","109","381254","0.0-10.0-0.21","609810a3e824529db49b25b9","609006691f6f4e337c17f836","609a4f4ede74e69a7a74e87d","284.14499992504716","","","","39","","","","key","16.66628947368391","479","463.5","true","-1","129","6.291456","7","1","-1","","","","","","","","","","","","",""
"psychophysics","110","382540","0.0-10.0-0.22","609810a3e824529db49b25b9","609006691f6f4e337c17f836","609a4f4ede74e69a7a74e87d","283.6850000312552","","","","39","","","","key","16.666842105263065","479","463.5","true","1","135.291456","6.291456","7","-1","1","","","","","","","","","","","","",""
"psychophysics","111","383806","0.0-10.0-0.23","609810a3e824529db49b25b9","609006691f6f4e337c17f836","609a4f4ede74e69a7a74e87d","265.2200000593439","","","","37","","","","key","16.66780000000028","479","463.5","true","-1","135.291456","5.033164800000001","8","-1","-1","","","","","","","","","","","","",""
"psychophysics","112","385108","0.0-10.0-0.24","609810a3e824529db49b25b9","609006691f6f4e337c17f836","609a4f4ede74e69a7a74e87d","298.16999996546656","","","","37","","","","key","16.665974025973632","479","463.5","true","1","130.2582912","4.0265318400000005","9","1","-1","","","","","","","","","","","","",""
"psychophysics","113","386388","0.0-10.0-0.25","609810a3e824529db49b25b9","609006691f6f4e337c17f836","609a4f4ede74e69a7a74e87d","278.1150001101196","","","","39","","","","key","16.671710526315636","479","463.5","true","1","134.28482304","4.0265318400000005","9","-1","1","","","","","","","","","","","","",""
"psychophysics","114","388444","0.0-10.0-0.26","609810a3e824529db49b25b9","609006691f6f4e337c17f836","609a4f4ede74e69a7a74e87d","1054.230000008829","","","","39","","","","key","16.666491803278493","479","463.5","true","-1","134.28482304","3.2212254720000004","10","1","-1","","","","","","","","","","","","",""
"psychophysics","115","389724","0.0-10.0-0.27","609810a3e824529db49b25b9","609006691f6f4e337c17f836","609a4f4ede74e69a7a74e87d","277.9749999754131","","","","39","","","","key","16.669184210526414","479","463.5","true","1","137.506048512","3.2212254720000004","10","-1","1","","","","","","","","","","","","",""
"psychophysics","116","390957","0.0-10.0-0.28","609810a3e824529db49b25b9","609006691f6f4e337c17f836","609a4f4ede74e69a7a74e87d","228.39000006206334","","","","37","","","","key","16.667068493150634","479","463.5","true","-1","137.506048512","2.5769803776000004","11","-1","-1","","","","","","","","","","","","",""
"psychophysics","117","392244","0.0-10.0-0.29","609810a3e824529db49b25b9","609006691f6f4e337c17f836","609a4f4ede74e69a7a74e87d","283.4850000217557","","","","39","","","","key","16.669565789473523","479","463.5","true","1","134.9290681344","2.5769803776000004","11","-1","-1","","","","","","","","","","","","",""
"psychophysics","118","393509","0.0-10.0-0.30","609810a3e824529db49b25b9","609006691f6f4e337c17f836","609a4f4ede74e69a7a74e87d","263.24999995995313","","","","39","","","","key","16.671893333333234","479","463.5","true","1","134.9290681344","2.5769803776000004","11","-1","-1","","","","","","","","","","","","",""
"psychophysics","119","394772","0.0-10.0-0.31","609810a3e824529db49b25b9","609006691f6f4e337c17f836","609a4f4ede74e69a7a74e87d","260.8250000048429","","","","39","","","","key","16.66782666666666","479","463.5","true","-1","132.35208775680002","2.0615843020800004","12","1","-1","","","","","","","","","","","","",""
"psychophysics","120","396005","0.0-10.0-0.32","609810a3e824529db49b25b9","609006691f6f4e337c17f836","609a4f4ede74e69a7a74e87d","231.0349999461323","","","","37","","","","key","16.670342465753393","479","463.5","true","1","134.41367205888002","2.0615843020800004","12","1","1","","","","","","","","","","","","",""
"psychophysics","121","397253","0.0-10.0-0.33","609810a3e824529db49b25b9","609006691f6f4e337c17f836","609a4f4ede74e69a7a74e87d","244.81000006198883","","","","37","","","","key","16.666837837838102","479","463.5","true","-1","136.47525636096003","2.0615843020800004","12","-1","1","","","","","","","","","","","","",""
"psychophysics","122","398531","0.0-10.0-0.34","609810a3e824529db49b25b9","609006691f6f4e337c17f836","609a4f4ede74e69a7a74e87d","275.2799999434501","","","","37","","","","key","16.662223684210883","479","463.5","true","-1","136.47525636096003","1.6492674416640005","13","-1","-1","","","","","","","","","","","","",""
"psychophysics","123","399789","0.0-10.0-0.35","609810a3e824529db49b25b9","609006691f6f4e337c17f836","609a4f4ede74e69a7a74e87d","256.04999996721745","","","","39","","","","key","16.671135135135785","479","463.5","true","1","134.82598891929604","1.6492674416640005","13","-1","-1","","","","","","","","","","","","",""
"psychophysics","124","401084","0.0-10.0-0.36","609810a3e824529db49b25b9","609006691f6f4e337c17f836","609a4f4ede74e69a7a74e87d","291.774999932386","","","","39","","","","key","16.663246753246845","479","463.5","true","1","134.82598891929604","1.6492674416640005","13","-1","-1","","","","","","","","","","","","",""
"psychophysics","125","402340","0.0-10.0-0.37","609810a3e824529db49b25b9","609006691f6f4e337c17f836","609a4f4ede74e69a7a74e87d","255.05999999586493","","","","37","","","","key","16.663743243243616","479","463.5","true","-1","133.17672147763204","1.6492674416640005","13","-1","-1","","","","","","","","","","","","",""
"psychophysics","126","403652","0.0-10.0-0.38","609810a3e824529db49b25b9","609006691f6f4e337c17f836","609a4f4ede74e69a7a74e87d","307.5599999865517","","","","37","","","","key","16.66706410256358","479","463.5","true","-1","133.17672147763204","1.6492674416640005","13","-1","-1","","","","","","","","","","","","",""
"psychophysics","127","404957","0.0-10.0-0.39","609810a3e824529db49b25b9","609006691f6f4e337c17f836","609a4f4ede74e69a7a74e87d","304.1199999861419","","","","37","","","","key","16.666688311687828","479","463.5","true","-1","131.52745403596805","1.6492674416640005","13","-1","-1","","","","","","","","","","","","",""
"html-keyboard-response","128","420109","0.0-11.0","609810a3e824529db49b25b9","609006691f6f4e337c17f836","609a4f4ede74e69a7a74e87d","15150.154999922961","<p>Well Done !</p><p>Prepare for a new block.</p><p>DON'T EXIT THE FULL SCREEN MODE</p><p>Press the Spacebar to start.</p>","","","32","","","","","","","","","","","","","","","true","134.71260178268162","","","","","","","","","","",""
"psychophysics","129","421765","0.0-12.0-0.0","609810a3e824529db49b25b9","609006691f6f4e337c17f836","609a4f4ede74e69a7a74e87d","654.3949999613687","","","","37","","","","key","16.667430000000167","479","463.5","true","-1","180","30","0","-1","","","","","","","","","","","","","",""
"psychophysics","130","423080","0.0-12.0-0.1","609810a3e824529db49b25b9","609006691f6f4e337c17f836","609a4f4ede74e69a7a74e87d","312.0649999473244","","","","39","","","","key","16.66729487179486","479","463.5","true","1","180","30","0","-1","-1","","","","","","","","","","","","",""
"psychophysics","131","424348","0.0-12.0-0.2","609810a3e824529db49b25b9","609006691f6f4e337c17f836","609a4f4ede74e69a7a74e87d","265.6100000021979","","","","37","","","","key","16.665746666667207","479","463.5","true","-1","150","30","0","-1","-1","","","","","","","","","","","","",""
"psychophysics","132","425653","0.0-12.0-0.3","609810a3e824529db49b25b9","609006691f6f4e337c17f836","609a4f4ede74e69a7a74e87d","302.70000000018626","","","","37","","","","key","16.668558441559096","479","463.5","true","-1","150","30","0","-1","-1","","","","","","","","","","","","",""
"psychophysics","133","427012","0.0-12.0-0.4","609810a3e824529db49b25b9","609006691f6f4e337c17f836","609a4f4ede74e69a7a74e87d","355.3700000047684","","","","37","","","","key","16.661499999999798","479","463.5","true","1","129","24","1","1","-1","","","","","","","","","","","","",""
"psychophysics","134","428334","0.0-12.0-0.5","609810a3e824529db49b25b9","609006691f6f4e337c17f836","609a4f4ede74e69a7a74e87d","320.949999964796","","","","37","","","","key","16.666797468354012","479","463.5","true","-1","153","24","1","-1","1","","","","","","","","","","","","",""
"psychophysics","135","429620","0.0-12.0-0.6","609810a3e824529db49b25b9","609006691f6f4e337c17f836","609a4f4ede74e69a7a74e87d","282.90500002913177","","","","39","","","","key","16.671973684210617","479","463.5","true","1","153","19.2","2","-1","-1","","","","","","","","","","","","",""
"psychophysics","136","430900","0.0-12.0-0.7","609810a3e824529db49b25b9","609006691f6f4e337c17f836","609a4f4ede74e69a7a74e87d","279.2299999855459","","","","39","","","","key","16.666499999999743","479","463.5","true","1","133.8","19.2","2","-1","-1","","","","","","","","","","","","",""
"psychophysics","137","432189","0.0-12.0-0.8","609810a3e824529db49b25b9","609006691f6f4e337c17f836","609a4f4ede74e69a7a74e87d","287.9099999554455","","","","39","","","","key","16.669881578947656","479","463.5","true","1","133.8","19.2","2","-1","-1","","","","","","","","","","","","",""
"psychophysics","138","434100","0.0-12.0-0.9","609810a3e824529db49b25b9","609006691f6f4e337c17f836","609a4f4ede74e69a7a74e87d","909.1100000077859","","","","39","","","","key","16.66439473684193","479","463.5","true","-1","129","15.36","3","1","-1","","","","","","","","","","","","",""
"psychophysics","139","435557","0.0-12.0-0.10","609810a3e824529db49b25b9","609006691f6f4e337c17f836","609a4f4ede74e69a7a74e87d","452.96000002417713","","","","39","","","","key","16.66393023255812","479","463.5","true","-1","144.36","15.36","3","1","1","","","","","","","","","","","","",""
"psychophysics","140","436861","0.0-12.0-0.11","609810a3e824529db49b25b9","609006691f6f4e337c17f836","609a4f4ede74e69a7a74e87d","299.8050000751391","","","","39","","","","key","16.66355844155822","479","463.5","true","1","159.72000000000003","15.36","3","-1","1","","","","","","","","","","","","",""
"psychophysics","141","438124","0.0-12.0-0.12","609810a3e824529db49b25b9","609006691f6f4e337c17f836","609a4f4ede74e69a7a74e87d","260.7500000158325","","","","39","","","","key","16.67003999999957","479","463.5","true","1","159.72000000000003","12.287999999999998","4","-1","-1","","","","","","","","","","","","",""
"psychophysics","142","439438","0.0-12.0-0.13","609810a3e824529db49b25b9","609006691f6f4e337c17f836","609a4f4ede74e69a7a74e87d","310.4900000616908","","","","39","","","","key","16.669628205128575","479","463.5","true","1","147.43200000000002","12.287999999999998","4","-1","-1","","","","","","","","","","","","",""
"psychophysics","143","440716","0.0-12.0-0.14","609810a3e824529db49b25b9","609006691f6f4e337c17f836","609a4f4ede74e69a7a74e87d","274.86499992664903","","","","37","","","","key","16.6665263157897","479","463.5","true","-1","147.43200000000002","12.287999999999998","4","-1","-1","","","","","","","","","","","","",""
"psychophysics","144","441989","0.0-12.0-0.15","609810a3e824529db49b25b9","609006691f6f4e337c17f836","609a4f4ede74e69a7a74e87d","271.01499994751066","","","","37","","","","key","16.66768000000001","479","463.5","true","-1","135.144","12.287999999999998","4","-1","-1","","","","","","","","","","","","",""
"psychophysics","145","443252","0.0-12.0-0.16","609810a3e824529db49b25b9","609006691f6f4e337c17f836","609a4f4ede74e69a7a74e87d","260.7099999440834","","","","39","","","","key","16.667240000000067","479","463.5","true","1","135.144","12.287999999999998","4","-1","-1","","","","","","","","","","","","",""
"psychophysics","146","444660","0.0-12.0-0.17","609810a3e824529db49b25b9","609006691f6f4e337c17f836","609a4f4ede74e69a7a74e87d","404.61000008508563","","","","39","","","","key","16.666204819276913","479","463.5","true","1","129","12.287999999999998","4","-1","-1","","","","","","","","","","","","",""
"psychophysics","147","446451","0.0-12.0-0.18","609810a3e824529db49b25b9","609006691f6f4e337c17f836","609a4f4ede74e69a7a74e87d","788.2700000191107","","","","39","","","","key","16.66872897196265","479","463.5","true","-1","129","9.8304","5","1","-1","","","","","","","","","","","","",""
"psychophysics","148","447787","0.0-12.0-0.19","609810a3e824529db49b25b9","609006691f6f4e337c17f836","609a4f4ede74e69a7a74e87d","335.4549999348819","","","","39","","","","key","16.66763291139188","479","463.5","true","1","138.8304","9.8304","5","-1","1","","","","","","","","","","","","",""
"psychophysics","149","449051","0.0-12.0-0.20","609810a3e824529db49b25b9","609006691f6f4e337c17f836","609a4f4ede74e69a7a74e87d","261.10000000335276","","","","37","","","","key","16.670399999999596","479","463.5","true","-1","138.8304","7.864319999999999","6","-1","-1","","","","","","","","","","","","",""
"psychophysics","150","450763","0.0-12.0-0.21","609810a3e824529db49b25b9","609006691f6f4e337c17f836","609a4f4ede74e69a7a74e87d","708.589999936521","","","","37","","","","key","16.666999999999852","479","463.5","true","1","130.96608","6.291456","7","1","-1","","","","","","","","","","","","",""
"psychophysics","151","452430","0.0-12.0-0.22","609810a3e824529db49b25b9","609006691f6f4e337c17f836","609a4f4ede74e69a7a74e87d","663.4450000710785","","","","37","","","","key","16.66704040403993","479","463.5","true","-1","137.25753600000002","6.291456","7","-1","1","","","","","","","","","","","","",""
"psychophysics","152","455771","0.0-12.0-0.23","609810a3e824529db49b25b9","609006691f6f4e337c17f836","609a4f4ede74e69a7a74e87d","2338.179999962449","","","","39","","","","key","16.667522613065323","479","463.5","true","-1","137.25753600000002","5.033164800000001","8","1","-1","","","","","","","","","","","","",""
"psychophysics","153","457066","0.0-12.0-0.24","609810a3e824529db49b25b9","609006691f6f4e337c17f836","609a4f4ede74e69a7a74e87d","292.2450000187382","","","","37","","","","key","16.667324675324178","479","463.5","true","-1","142.29070080000002","5.033164800000001","8","-1","1","","","","","","","","","","","","",""
"psychophysics","154","460828","0.0-12.0-0.25","609810a3e824529db49b25b9","609006691f6f4e337c17f836","609a4f4ede74e69a7a74e87d","2759.254999924451","","","","37","","","","key","16.66722767857157","479","463.5","true","-1","142.29070080000002","4.0265318400000005","9","-1","-1","","","","","","","","","","","","",""
"psychophysics","155","462115","0.0-12.0-0.26","609810a3e824529db49b25b9","609006691f6f4e337c17f836","609a4f4ede74e69a7a74e87d","281.6850000526756","","","","37","","","","key","16.6690649350647","479","463.5","true","-1","138.26416896000003","4.0265318400000005","9","-1","-1","","","","","","","","","","","","",""
"psychophysics","156","463380","0.0-12.0-0.27","609810a3e824529db49b25b9","609006691f6f4e337c17f836","609a4f4ede74e69a7a74e87d","262.24499999079853","","","","37","","","","key","16.669493333333328","479","463.5","true","-1","138.26416896000003","4.0265318400000005","9","-1","-1","","","","","","","","","","","","",""
"psychophysics","157","464683","0.0-12.0-0.28","609810a3e824529db49b25b9","609006691f6f4e337c17f836","609a4f4ede74e69a7a74e87d","300.02999992575496","","","","39","","","","key","16.662974025974012","479","463.5","true","1","134.23763712000004","4.0265318400000005","9","-1","-1","","","","","","","","","","","","",""
"psychophysics","158","466538","0.0-12.0-0.29","609810a3e824529db49b25b9","609006691f6f4e337c17f836","609a4f4ede74e69a7a74e87d","854.1500000283122","","","","39","","","","key","16.66839999999978","479","463.5","true","1","134.23763712000004","4.0265318400000005","9","-1","-1","","","","","","","","","","","","",""
"psychophysics","159","468045","0.0-12.0-0.30","609810a3e824529db49b25b9","609006691f6f4e337c17f836","609a4f4ede74e69a7a74e87d","505.2150000119582","","","","39","","","","key","16.663288888888847","479","463.5","true","1","130.21110528000006","4.0265318400000005","9","-1","-1","","","","","","","","","","","","",""
"psychophysics","160","469362","0.0-12.0-0.31","609810a3e824529db49b25b9","609006691f6f4e337c17f836","609a4f4ede74e69a7a74e87d","314.81499993242323","","","","39","","","","key","16.667717948717883","479","463.5","true","1","130.21110528000006","4.0265318400000005","9","-1","-1","","","","","","","","","","","","",""
"psychophysics","161","470915","0.0-12.0-0.32","609810a3e824529db49b25b9","609006691f6f4e337c17f836","609a4f4ede74e69a7a74e87d","551.644999999553","","","","39","","","","key","16.664141304347456","479","463.5","true","1","129","4.0265318400000005","9","-1","-1","","","","","","","","","","","","",""
"psychophysics","162","472379","0.0-12.0-0.33","609810a3e824529db49b25b9","609006691f6f4e337c17f836","609a4f4ede74e69a7a74e87d","461.07499999925494","","","","39","","","","key","16.666551724137825","479","463.5","true","-1","129","3.2212254720000004","10","1","-1","","","","","","","","","","","","",""
"psychophysics","163","473626","0.0-12.0-0.34","609810a3e824529db49b25b9","609006691f6f4e337c17f836","609a4f4ede74e69a7a74e87d","245.83499995060265","","","","37","","","","key","16.66350684931489","479","463.5","true","-1","132.22122547200001","3.2212254720000004","10","-1","1","","","","","","","","","","","","",""
"psychophysics","164","474836","0.0-12.0-0.35","609810a3e824529db49b25b9","609006691f6f4e337c17f836","609a4f4ede74e69a7a74e87d","206.66999998502433","","","","37","","","","key","16.66790277777828","479","463.5","true","1","132.22122547200001","2.5769803776000004","11","1","-1","","","","","","","","","","","","",""
"psychophysics","165","476115","0.0-12.0-0.36","609810a3e824529db49b25b9","609006691f6f4e337c17f836","609a4f4ede74e69a7a74e87d","276.35499997995794","","","","37","","","","key","16.66710526315805","479","463.5","true","-1","134.7982058496","2.5769803776000004","11","-1","1","","","","","","","","","","","","",""
"psychophysics","166","477212","0.0-12.0-0.37","609810a3e824529db49b25b9","609006691f6f4e337c17f836","609a4f4ede74e69a7a74e87d","94.1350000211969","","","","39","","","","key","16.666523076923422","479","463.5","true","1","134.7982058496","2.0615843020800004","12","-1","-1","","","","","","","","","","","","",""
"psychophysics","167","478346","0.0-12.0-0.38","609810a3e824529db49b25b9","609006691f6f4e337c17f836","609a4f4ede74e69a7a74e87d","131.27000001259148","","","","37","","","","key","16.66613432835812","479","463.5","true","-1","132.73662154752","2.0615843020800004","12","-1","-1","","","","","","","","","","","","",""
"psychophysics","168","480075","0.0-12.0-0.39","609810a3e824529db49b25b9","609006691f6f4e337c17f836","609a4f4ede74e69a7a74e87d","726.5699999406934","","","","39","","","","key","16.66482352941153","479","463.5","true","1","132.73662154752","2.0615843020800004","12","-1","-1","","","","","","","","","","","","",""
"html-keyboard-response","169","481764","0.0-13.0","609810a3e824529db49b25b9","609006691f6f4e337c17f836","609a4f4ede74e69a7a74e87d","1686.835000058636","<p>Well Done !</p><p>Prepare for a new block.</p><p>DON'T EXIT THE FULL SCREEN MODE</p><p>Press the Spacebar to start.</p>","","","32","","","","","","","","","","","","","","","true","133.681908617216","","","","","","","","","","",""
"html-keyboard-response","170","481867","0.0-14.0","609810a3e824529db49b25b9","609006691f6f4e337c17f836","609a4f4ede74e69a7a74e87d","null","","","","null","","","","","","","","","","","","","","","","","133.01943955714867","true","138.03887911429734","","","","","","","",""
"instructions","171","504777","0.0-15.0","609810a3e824529db49b25b9","609006691f6f4e337c17f836","609a4f4ede74e69a7a74e87d","22908.969999989495","","","","","","","[{""page_index"":0,""viewing_time"":19359.144999994896},{""page_index"":1,""viewing_time"":1097.5900000194088},{""page_index"":2,""viewing_time"":2451.989999972284}]","","","","","","","","","","","","","","","","","","","","","","","",""
"psychophysics","172","507786","0.0-16.0-0.0","609810a3e824529db49b25b9","609006691f6f4e337c17f836","609a4f4ede74e69a7a74e87d","null","","","","null","","","","key","16.668499999999767","479","463.5","","","","","","","","","","","","","","","","","","","",""
"psychophysics","173","508288","0.0-16.0-1.0","609810a3e824529db49b25b9","609006691f6f4e337c17f836","609a4f4ede74e69a7a74e87d","null","","","","null","","","","key","16.665448275862406","479","463.5","","","","","","","","","","","","","138","-1","6","false","","","",""
"psychophysics","174","509307","0.0-16.0-2.0","609810a3e824529db49b25b9","609006691f6f4e337c17f836","609a4f4ede74e69a7a74e87d","1014.9749999400228","","","","77","","","","key","16.66396666666648","479","463.5","","","","","","","","","","","","","","","","","","","",""
"psychophysics","175","510309","0.0-16.0-0.1","609810a3e824529db49b25b9","609006691f6f4e337c17f836","609a4f4ede74e69a7a74e87d","null","","","","null","","","","key","16.666491525423304","479","463.5","","","","","","","","","","","","","","","","","","","",""
"psychophysics","176","510812","0.0-16.0-1.1","609810a3e824529db49b25b9","609006691f6f4e337c17f836","609a4f4ede74e69a7a74e87d","null","","","","null","","","","key","16.666766666665595","479","463.5","","","","","","","","","","","","","138","1","3","false","","","",""
"psychophysics","177","511419","0.0-16.0-2.1","609810a3e824529db49b25b9","609006691f6f4e337c17f836","609a4f4ede74e69a7a74e87d","601.0050000622869","","","","90","","","","key","16.672885714285076","479","463.5","","","","","","","","","","","","","","","","","","","",""
"psychophysics","178","512421","0.0-16.0-0.2","609810a3e824529db49b25b9","609006691f6f4e337c17f836","609a4f4ede74e69a7a74e87d","null","","","","null","","","","key","16.668372881356074","479","463.5","","","","","","","","","","","","","","","","","","","",""
"psychophysics","179","512924","0.0-16.0-1.2","609810a3e824529db49b25b9","609006691f6f4e337c17f836","609a4f4ede74e69a7a74e87d","null","","","","null","","","","key","16.674000000001076","479","463.5","","","","","","","","","","","","","138","1","0","false","","","",""
"psychophysics","180","513258","0.0-16.0-2.2","609810a3e824529db49b25b9","609006691f6f4e337c17f836","609a4f4ede74e69a7a74e87d","332.2199999820441","","","","90","","","","key","16.654736842105386","479","463.5","","","","","","","","","","","","","","","","","","","",""
"psychophysics","181","514259","0.0-16.0-0.3","609810a3e824529db49b25b9","609006691f6f4e337c17f836","609a4f4ede74e69a7a74e87d","null","","","","null","","","","key","16.670627118643743","479","463.5","","","","","","","","","","","","","","","","","","","",""
"psychophysics","182","514761","0.0-16.0-1.3","609810a3e824529db49b25b9","609006691f6f4e337c17f836","609a4f4ede74e69a7a74e87d","null","","","","null","","","","key","16.674033333333984","479","463.5","","","","","","","","","","","","","138","-1","5","false","","","",""
"psychophysics","183","515203","0.0-16.0-2.3","609810a3e824529db49b25b9","609006691f6f4e337c17f836","609a4f4ede74e69a7a74e87d","440.085000009276","","","","77","","","","key","16.660400000000372","479","463.5","","","","","","","","","","","","","","","","","","","",""
"psychophysics","184","516206","0.0-16.0-0.4","609810a3e824529db49b25b9","609006691f6f4e337c17f836","609a4f4ede74e69a7a74e87d","null","","","","null","","","","key","16.67210169491492","479","463.5","","","","","","","","","","","","","","","","","","","",""
"psychophysics","185","516709","0.0-16.0-1.4","609810a3e824529db49b25b9","609006691f6f4e337c17f836","609a4f4ede74e69a7a74e87d","null","","","","null","","","","key","16.66437931034457","479","463.5","","","","","","","","","","","","","138","1","4","false","","","",""
"psychophysics","186","516985","0.0-16.0-2.4","609810a3e824529db49b25b9","609006691f6f4e337c17f836","609a4f4ede74e69a7a74e87d","271.16500004194677","","","","77","","","","key","16.663249999997788","479","463.5","","","","","","","","","","","","","","","","","","","",""
"psychophysics","187","517987","0.0-16.0-0.5","609810a3e824529db49b25b9","609006691f6f4e337c17f836","609a4f4ede74e69a7a74e87d","null","","","","null","","","","key","16.67183050847419","479","463.5","","","","","","","","","","","","","","","","","","","",""
"psychophysics","188","518487","0.0-16.0-1.5","609810a3e824529db49b25b9","609006691f6f4e337c17f836","609a4f4ede74e69a7a74e87d","null","","","","null","","","","key","16.65834482758635","479","463.5","","","","","","","","","","","","","138","1","5","false","","","",""
"psychophysics","189","518883","0.0-16.0-2.5","609810a3e824529db49b25b9","609006691f6f4e337c17f836","609a4f4ede74e69a7a74e87d","392.63999997638166","","","","77","","","","key","16.659956521739293","479","463.5","","","","","","","","","","","","","","","","","","","",""
"psychophysics","190","519884","0.0-16.0-0.6","609810a3e824529db49b25b9","609006691f6f4e337c17f836","609a4f4ede74e69a7a74e87d","null","","","","null","","","","key","16.66655932203472","479","463.5","","","","","","","","","","","","","","","","","","","",""
"psychophysics","191","520389","0.0-16.0-1.6","609810a3e824529db49b25b9","609006691f6f4e337c17f836","609a4f4ede74e69a7a74e87d","null","","","","null","","","","key","16.671034482759342","479","463.5","","","","","","","","","","","","","138","1","6","false","","","",""
"psychophysics","192","520826","0.0-16.0-2.6","609810a3e824529db49b25b9","609006691f6f4e337c17f836","609a4f4ede74e69a7a74e87d","433.8250000728294","","","","77","","","","key","16.672160000000147","479","463.5","","","","","","","","","","","","","","","","","","","",""
"psychophysics","193","521827","0.0-16.0-0.7","609810a3e824529db49b25b9","609006691f6f4e337c17f836","609a4f4ede74e69a7a74e87d","null","","","","null","","","","key","16.672372881355656","479","463.5","","","","","","","","","","","","","","","","","","","",""
"psychophysics","194","522330","0.0-16.0-1.7","609810a3e824529db49b25b9","609006691f6f4e337c17f836","609a4f4ede74e69a7a74e87d","null","","","","null","","","","key","16.663300000001133","479","463.5","","","","","","","","","","","","","138","-1","2","false","","","",""
"psychophysics","195","548627","0.0-16.0-2.7","609810a3e824529db49b25b9","609006691f6f4e337c17f836","609a4f4ede74e69a7a74e87d","26294.159999932162","","","","77","","","","key","16.666597081218256","479","463.5","","","","","","","","","","","","","","","","","","","",""
"psychophysics","196","549629","0.0-16.0-0.8","609810a3e824529db49b25b9","609006691f6f4e337c17f836","609a4f4ede74e69a7a74e87d","null","","","","null","","","","key","16.668066666665254","479","463.5","","","","","","","","","","","","","","","","","","","",""
"psychophysics","197","550139","0.0-16.0-1.8","609810a3e824529db49b25b9","609006691f6f4e337c17f836","609a4f4ede74e69a7a74e87d","null","","","","null","","","","key","16.662620689655686","479","463.5","","","","","","","","","","","","","138","-1","0","false","","","",""
"psychophysics","198","550515","0.0-16.0-2.8","609810a3e824529db49b25b9","609006691f6f4e337c17f836","609a4f4ede74e69a7a74e87d","371.93000002298504","","","","77","","","","key","16.677454545453656","479","463.5","","","","","","","","","","","","","","","","","","","",""
"psychophysics","199","551527","0.0-16.0-0.9","609810a3e824529db49b25b9","609006691f6f4e337c17f836","609a4f4ede74e69a7a74e87d","null","","","","null","","","","key","16.668135593219077","479","463.5","","","","","","","","","","","","","","","","","","","",""
"psychophysics","200","552029","0.0-16.0-1.9","609810a3e824529db49b25b9","609006691f6f4e337c17f836","609a4f4ede74e69a7a74e87d","null","","","","null","","","","key","16.666633333335632","479","463.5","","","","","","","","","","","","","138","-1","4","false","","","",""
"psychophysics","201","552434","0.0-16.0-2.9","609810a3e824529db49b25b9","609006691f6f4e337c17f836","609a4f4ede74e69a7a74e87d","402.0799999125302","","","","77","","","","key","16.652173913043477","479","463.5","","","","","","","","","","","","","","","","","","","",""
"psychophysics","202","553435","0.0-16.0-0.10","609810a3e824529db49b25b9","609006691f6f4e337c17f836","609a4f4ede74e69a7a74e87d","null","","","","null","","","","key","16.67137288135453","479","463.5","","","","","","","","","","","","","","","","","","","",""
"psychophysics","203","553944","0.0-16.0-1.10","609810a3e824529db49b25b9","609006691f6f4e337c17f836","609a4f4ede74e69a7a74e87d","null","","","","null","","","","key","16.661896551726386","479","463.5","","","","","","","","","","","","","138","1","2","false","","","",""
"psychophysics","204","554331","0.0-16.0-2.10","609810a3e824529db49b25b9","609006691f6f4e337c17f836","609a4f4ede74e69a7a74e87d","381.79500005207956","","","","90","","","","key","16.65486956521889","479","463.5","","","","","","","","","","","","","","","","","","","",""
"psychophysics","205","555338","0.0-16.0-0.11","609810a3e824529db49b25b9","609006691f6f4e337c17f836","609a4f4ede74e69a7a74e87d","null","","","","null","","","","key","16.671254237288988","479","463.5","","","","","","","","","","","","","","","","","","","",""
"psychophysics","206","555844","0.0-16.0-1.11","609810a3e824529db49b25b9","609006691f6f4e337c17f836","609a4f4ede74e69a7a74e87d","null","","","","null","","","","key","16.674482758618602","479","463.5","","","","","","","","","","","","","138","-1","3","false","","","",""
"psychophysics","207","556275","0.0-16.0-2.11","609810a3e824529db49b25b9","609006691f6f4e337c17f836","609a4f4ede74e69a7a74e87d","425.6100000347942","","","","77","","","","key","16.665720000001603","479","463.5","","","","","","","","","","","","","","","","","","","",""
"psychophysics","208","557277","0.0-16.0-0.12","609810a3e824529db49b25b9","609006691f6f4e337c17f836","609a4f4ede74e69a7a74e87d","null","","","","null","","","","key","16.66905084745643","479","463.5","","","","","","","","","","","","","","","","","","","",""
"psychophysics","209","557793","0.0-16.0-1.12","609810a3e824529db49b25b9","609006691f6f4e337c17f836","609a4f4ede74e69a7a74e87d","null","","","","null","","","","key","16.656300000000435","479","463.5","","","","","","","","","","","","","138","-1","6","false","","","",""
"psychophysics","210","558170","0.0-16.0-2.12","609810a3e824529db49b25b9","609006691f6f4e337c17f836","609a4f4ede74e69a7a74e87d","374.1900000022724","","","","77","","","","key","16.659136363638524","479","463.5","","","","","","","","","","","","","","","","","","","",""
"psychophysics","211","559176","0.0-16.0-0.13","609810a3e824529db49b25b9","609006691f6f4e337c17f836","609a4f4ede74e69a7a74e87d","null","","","","null","","","","key","16.666661016948883","479","463.5","","","","","","","","","","","","","","","","","","","",""
"psychophysics","212","559678","0.0-16.0-1.13","609810a3e824529db49b25b9","609006691f6f4e337c17f836","609a4f4ede74e69a7a74e87d","null","","","","null","","","","key","16.667500000000775","479","463.5","","","","","","","","","","","","","138","-1","5","false","","","",""
"psychophysics","213","560074","0.0-16.0-2.13","609810a3e824529db49b25b9","609006691f6f4e337c17f836","609a4f4ede74e69a7a74e87d","393.9750000135973","","","","77","","","","key","16.66754545454486","479","463.5","","","","","","","","","","","","","","","","","","","",""
"psychophysics","214","561076","0.0-16.0-0.14","609810a3e824529db49b25b9","609006691f6f4e337c17f836","609a4f4ede74e69a7a74e87d","null","","","","null","","","","key","16.66601694915128","479","463.5","","","","","","","","","","","","","","","","","","","",""
"psychophysics","215","561584","0.0-16.0-1.14","609810a3e824529db49b25b9","609006691f6f4e337c17f836","609a4f4ede74e69a7a74e87d","null","","","","null","","","","key","16.66736666666499","479","463.5","","","","","","","","","","","","","138","-1","0","false","","","",""
"psychophysics","216","561995","0.0-16.0-2.14","609810a3e824529db49b25b9","609006691f6f4e337c17f836","609a4f4ede74e69a7a74e87d","408.0949999624863","","","","90","","","","key","16.664874999997362","479","463.5","","","","","","","","","","","","","","","","","","","",""
"psychophysics","217","563010","0.0-16.0-0.15","609810a3e824529db49b25b9","609006691f6f4e337c17f836","609a4f4ede74e69a7a74e87d","null","","","","null","","","","key","16.672440677966087","479","463.5","","","","","","","","","","","","","","","","","","","",""
"psychophysics","218","563512","0.0-16.0-1.15","609810a3e824529db49b25b9","609006691f6f4e337c17f836","609a4f4ede74e69a7a74e87d","null","","","","null","","","","key","16.676966666666946","479","463.5","","","","","","","","","","","","","138","-1","3","false","","","",""
"psychophysics","219","564018","0.0-16.0-2.15","609810a3e824529db49b25b9","609006691f6f4e337c17f836","609a4f4ede74e69a7a74e87d","503.3900000853464","","","","90","","","","key","16.666034482756693","479","463.5","","","","","","","","","","","","","","","","","","","",""
"psychophysics","220","565022","0.0-16.0-0.16","609810a3e824529db49b25b9","609006691f6f4e337c17f836","609a4f4ede74e69a7a74e87d","null","","","","null","","","","key","16.664983050846416","479","463.5","","","","","","","","","","","","","","","","","","","",""
"psychophysics","221","565527","0.0-16.0-1.16","609810a3e824529db49b25b9","609006691f6f4e337c17f836","609a4f4ede74e69a7a74e87d","null","","","","null","","","","key","16.658206896551338","479","463.5","","","","","","","","","","","","","138","1","3","false","","","",""
"psychophysics","222","565979","0.0-16.0-2.16","609810a3e824529db49b25b9","609006691f6f4e337c17f836","609a4f4ede74e69a7a74e87d","444.1749999532476","","","","90","","","","key","16.67796296296486","479","463.5","","","","","","","","","","","","","","","","","","","",""
"psychophysics","223","566990","0.0-16.0-0.17","609810a3e824529db49b25b9","609006691f6f4e337c17f836","609a4f4ede74e69a7a74e87d","null","","","","null","","","","key","16.66874576271196","479","463.5","","","","","","","","","","","","","","","","","","","",""
"psychophysics","224","567495","0.0-16.0-1.17","609810a3e824529db49b25b9","609006691f6f4e337c17f836","609a4f4ede74e69a7a74e87d","null","","","","null","","","","key","16.67558620689469","479","463.5","","","","","","","","","","","","","138","-1","2","false","","","",""
"psychophysics","225","567867","0.0-16.0-2.17","609810a3e824529db49b25b9","609006691f6f4e337c17f836","609a4f4ede74e69a7a74e87d","367.4299999838695","","","","90","","","","key","16.669500000002287","479","463.5","","","","","","","","","","","","","","","","","","","",""
"psychophysics","226","568872","0.0-16.0-0.18","609810a3e824529db49b25b9","609006691f6f4e337c17f836","609a4f4ede74e69a7a74e87d","null","","","","null","","","","key","16.66642372881386","479","463.5","","","","","","","","","","","","","","","","","","","",""
"psychophysics","227","569377","0.0-16.0-1.18","609810a3e824529db49b25b9","609006691f6f4e337c17f836","609a4f4ede74e69a7a74e87d","null","","","","null","","","","key","16.662172413792398","479","463.5","","","","","","","","","","","","","138","1","0","false","","","",""
"psychophysics","228","569739","0.0-16.0-2.18","609810a3e824529db49b25b9","609006691f6f4e337c17f836","609a4f4ede74e69a7a74e87d","359.944999916479","","","","77","","","","key","16.679666666663252","479","463.5","","","","","","","","","","","","","","","","","","","",""
"psychophysics","229","570744","0.0-16.0-0.19","609810a3e824529db49b25b9","609006691f6f4e337c17f836","609a4f4ede74e69a7a74e87d","null","","","","null","","","","key","16.6704406779658","479","463.5","","","","","","","","","","","","","","","","","","","",""
"psychophysics","230","571258","0.0-16.0-1.19","609810a3e824529db49b25b9","609006691f6f4e337c17f836","609a4f4ede74e69a7a74e87d","null","","","","null","","","","key","16.66433333333504","479","463.5","","","","","","","","","","","","","138","1","6","false","","","",""
"psychophysics","231","571589","0.0-16.0-2.19","609810a3e824529db49b25b9","609006691f6f4e337c17f836","609a4f4ede74e69a7a74e87d","325.09500009473413","","","","77","","","","key","16.681631578947417","479","463.5","","","","","","","","","","","","","","","","","","","",""
"psychophysics","232","572595","0.0-16.0-0.20","609810a3e824529db49b25b9","609006691f6f4e337c17f836","609a4f4ede74e69a7a74e87d","null","","","","null","","","","key","16.663847457627387","479","463.5","","","","","","","","","","","","","","","","","","","",""
"psychophysics","233","573102","0.0-16.0-1.20","609810a3e824529db49b25b9","609006691f6f4e337c17f836","609a4f4ede74e69a7a74e87d","null","","","","null","","","","key","16.660033333336468","479","463.5","","","","","","","","","","","","","138","1","2","false","","","",""
"psychophysics","234","573426","0.0-16.0-2.20","609810a3e824529db49b25b9","609006691f6f4e337c17f836","609a4f4ede74e69a7a74e87d","321.35500002186745","","","","90","","","","key","16.651611111113905","479","463.5","","","","","","","","","","","","","","","","","","","",""
"psychophysics","235","574429","0.0-16.0-0.21","609810a3e824529db49b25b9","609006691f6f4e337c17f836","609a4f4ede74e69a7a74e87d","null","","","","null","","","","key","16.67203389830548","479","463.5","","","","","","","","","","","","","","","","","","","",""
"psychophysics","236","574936","0.0-16.0-1.21","609810a3e824529db49b25b9","609006691f6f4e337c17f836","609a4f4ede74e69a7a74e87d","null","","","","null","","","","key","16.664133333333304","479","463.5","","","","","","","","","","","","","138","-1","4","false","","","",""
"psychophysics","237","575266","0.0-16.0-2.21","609810a3e824529db49b25b9","609006691f6f4e337c17f836","609a4f4ede74e69a7a74e87d","324.92000004276633","","","","77","","","","key","16.668473684210575","479","463.5","","","","","","","","","","","","","","","","","","","",""
"psychophysics","238","576277","0.0-16.0-0.22","609810a3e824529db49b25b9","609006691f6f4e337c17f836","609a4f4ede74e69a7a74e87d","null","","","","null","","","","key","16.665711864406813","479","463.5","","","","","","","","","","","","","","","","","","","",""
"psychophysics","239","576791","0.0-16.0-1.22","609810a3e824529db49b25b9","609006691f6f4e337c17f836","609a4f4ede74e69a7a74e87d","null","","","","null","","","","key","16.67106666666999","479","463.5","","","","","","","","","","","","","138","1","5","false","","","",""
"psychophysics","240","577026","0.0-16.0-2.22","609810a3e824529db49b25b9","609006691f6f4e337c17f836","609a4f4ede74e69a7a74e87d","233.03499992471188","","","","77","","","","key","16.660538461542902","479","463.5","","","","","","","","","","","","","","","","","","","",""
"psychophysics","241","578027","0.0-16.0-0.23","609810a3e824529db49b25b9","609006691f6f4e337c17f836","609a4f4ede74e69a7a74e87d","null","","","","null","","","","key","16.66820338983049","479","463.5","","","","","","","","","","","","","","","","","","","",""
"psychophysics","242","578539","0.0-16.0-1.23","609810a3e824529db49b25b9","609006691f6f4e337c17f836","609a4f4ede74e69a7a74e87d","null","","","","null","","","","key","16.667066666666262","479","463.5","","","","","","","","","","","","","138","1","4","false","","","",""
"psychophysics","243","578707","0.0-16.0-2.23","609810a3e824529db49b25b9","609006691f6f4e337c17f836","609a4f4ede74e69a7a74e87d","165.0750000262633","","","","77","","","","key","16.673222222223153","479","463.5","","","","","","","","","","","","","","","","","","","",""
"html-keyboard-response","244","583155","0.0-17.0","609810a3e824529db49b25b9","609006691f6f4e337c17f836","609a4f4ede74e69a7a74e87d","4447.025000001304","<p>Well Done !</p><p>Training Complete. Press the spacebar to start.</p><p>DON'T EXIT THE FULL SCREEN MODE</p>","","","32","","","","","","","","","","","","","","","","","","","","","","","","","","",""
"psychophysics","245","586162","0.0-18.0-0.0","609810a3e824529db49b25b9","609006691f6f4e337c17f836","609a4f4ede74e69a7a74e87d","null","","","","null","","","","key","16.667749999999067","479","463.5","","","","","","","","","","","","","","","","","","","",""
"psychophysics","246","586666","0.0-18.0-1.0","609810a3e824529db49b25b9","609006691f6f4e337c17f836","609a4f4ede74e69a7a74e87d","null","","","","null","","","","key","16.666965517239518","479","463.5","","","","","","","","","","","","","138","-1","3","true","","","",""
"psychophysics","247","586971","0.0-18.0-2.0","609810a3e824529db49b25b9","609006691f6f4e337c17f836","609a4f4ede74e69a7a74e87d","303.8350000279024","","","","77","","","","key","16.648058823528974","479","463.5","","","","","","","","","","","","","","","","","","","",""
"psychophysics","248","587973","0.0-18.0-0.1","609810a3e824529db49b25b9","609006691f6f4e337c17f836","609a4f4ede74e69a7a74e87d","null","","","","null","","","","key","16.668491525423587","479","463.5","","","","","","","","","","","","","","","","","","","",""
"psychophysics","249","588475","0.0-18.0-1.1","609810a3e824529db49b25b9","609006691f6f4e337c17f836","609a4f4ede74e69a7a74e87d","null","","","","null","","","","key","16.664689655174854","479","463.5","","","","","","","","","","","","","138","-1","4","true","","","",""
"psychophysics","250","588763","0.0-18.0-2.1","609810a3e824529db49b25b9","609006691f6f4e337c17f836","609a4f4ede74e69a7a74e87d","286.2500000046566","","","","77","","","","key","16.662411764709223","479","463.5","","","","","","","","","","","","","","","","","","","",""
"psychophysics","251","589764","0.0-18.0-0.2","609810a3e824529db49b25b9","609006691f6f4e337c17f836","609a4f4ede74e69a7a74e87d","null","","","","null","","","","key","16.66789830508405","479","463.5","","","","","","","","","","","","","","","","","","","",""
"psychophysics","252","590265","0.0-18.0-1.2","609810a3e824529db49b25b9","609006691f6f4e337c17f836","609a4f4ede74e69a7a74e87d","null","","","","null","","","","key","16.669275862068453","479","463.5","","","","","","","","","","","","","138","-1","2","true","","","",""
"psychophysics","253","590539","0.0-18.0-2.2","609810a3e824529db49b25b9","609006691f6f4e337c17f836","609a4f4ede74e69a7a74e87d","270.85500000976026","","","","90","","","","key","16.671466666669584","479","463.5","","","","","","","","","","","","","","","","","","","",""
"psychophysics","254","591541","0.0-18.0-0.3","609810a3e824529db49b25b9","609006691f6f4e337c17f836","609a4f4ede74e69a7a74e87d","null","","","","null","","","","key","16.667694915253747","479","463.5","","","","","","","","","","","","","","","","","","","",""
"psychophysics","255","592043","0.0-18.0-1.3","609810a3e824529db49b25b9","609006691f6f4e337c17f836","609a4f4ede74e69a7a74e87d","null","","","","null","","","","key","16.662034482759392","479","463.5","","","","","","","","","","","","","138","-1","0","true","","","",""
"psychophysics","256","592330","0.0-18.0-2.3","609810a3e824529db49b25b9","609006691f6f4e337c17f836","609a4f4ede74e69a7a74e87d","285.4550000047311","","","","90","","","","key","16.664411764708348","479","463.5","","","","","","","","","","","","","","","","","","","",""
"psychophysics","257","593332","0.0-18.0-0.4","609810a3e824529db49b25b9","609006691f6f4e337c17f836","609a4f4ede74e69a7a74e87d","null","","","","null","","","","key","16.664542372881087","479","463.5","","","","","","","","","","","","","","","","","","","",""
"psychophysics","258","593834","0.0-18.0-1.4","609810a3e824529db49b25b9","609006691f6f4e337c17f836","609a4f4ede74e69a7a74e87d","null","","","","null","","","","key","16.675965517241476","479","463.5","","","","","","","","","","","","","138","1","5","true","","","",""
"psychophysics","259","594155","0.0-18.0-2.4","609810a3e824529db49b25b9","609006691f6f4e337c17f836","609a4f4ede74e69a7a74e87d","317.9150000214577","","","","77","","","","key","16.650055555555607","479","463.5","","","","","","","","","","","","","","","","","","","",""
"psychophysics","260","595158","0.0-18.0-0.5","609810a3e824529db49b25b9","609006691f6f4e337c17f836","609a4f4ede74e69a7a74e87d","null","","","","null","","","","key","16.67184745762655","479","463.5","","","","","","","","","","","","","","","","","","","",""
"psychophysics","261","595660","0.0-18.0-1.5","609810a3e824529db49b25b9","609006691f6f4e337c17f836","609a4f4ede74e69a7a74e87d","null","","","","null","","","","key","16.673655172416556","479","463.5","","","","","","","","","","","","","138","-1","5","true","","","",""
"psychophysics","262","595997","0.0-18.0-2.5","609810a3e824529db49b25b9","609006691f6f4e337c17f836","609a4f4ede74e69a7a74e87d","334.8149999510497","","","","77","","","","key","16.66744999999646","479","463.5","","","","","","","","","","","","","","","","","","","",""
"psychophysics","263","597001","0.0-18.0-0.6","609810a3e824529db49b25b9","609006691f6f4e337c17f836","609a4f4ede74e69a7a74e87d","null","","","","null","","","","key","16.671491525424013","479","463.5","","","","","","","","","","","","","","","","","","","",""
"psychophysics","264","597503","0.0-18.0-1.6","609810a3e824529db49b25b9","609006691f6f4e337c17f836","609a4f4ede74e69a7a74e87d","null","","","","null","","","","key","16.66813793103612","479","463.5","","","","","","","","","","","","","138","1","0","true","","","",""
"psychophysics","265","597874","0.0-18.0-2.6","609810a3e824529db49b25b9","609006691f6f4e337c17f836","609a4f4ede74e69a7a74e87d","367.7750000497326","","","","90","","","","key","16.679523809524696","479","463.5","","","","","","","","","","","","","","","","","","","",""
"psychophysics","266","598876","0.0-18.0-0.7","609810a3e824529db49b25b9","609006691f6f4e337c17f836","609a4f4ede74e69a7a74e87d","null","","","","null","","","","key","16.668762711863334","479","463.5","","","","","","","","","","","","","","","","","","","",""
"psychophysics","267","599379","0.0-18.0-1.7","609810a3e824529db49b25b9","609006691f6f4e337c17f836","609a4f4ede74e69a7a74e87d","null","","","","null","","","","key","16.666866666664525","479","463.5","","","","","","","","","","","","","138","1","3","true","","","",""
"psychophysics","268","599754","0.0-18.0-2.7","609810a3e824529db49b25b9","609006691f6f4e337c17f836","609a4f4ede74e69a7a74e87d","372.2449999768287","","","","77","","","","key","16.67571428571717","479","463.5","","","","","","","","","","","","","","","","","","","",""
"psychophysics","269","600755","0.0-18.0-0.8","609810a3e824529db49b25b9","609006691f6f4e337c17f836","609a4f4ede74e69a7a74e87d","null","","","","null","","","","key","16.666711864406953","479","463.5","","","","","","","","","","","","","","","","","","","",""
"psychophysics","270","601257","0.0-18.0-1.8","609810a3e824529db49b25b9","609006691f6f4e337c17f836","609a4f4ede74e69a7a74e87d","null","","","","null","","","","key","16.668896551721666","479","463.5","","","","","","","","","","","","","138","-1","6","true","","","",""
"psychophysics","271","601883","0.0-18.0-2.8","609810a3e824529db49b25b9","609006691f6f4e337c17f836","609a4f4ede74e69a7a74e87d","623.920000041835","","","","77","","","","key","16.65983783783756","479","463.5","","","","","","","","","","","","","","","","","","","",""
"psychophysics","272","602885","0.0-18.0-0.9","609810a3e824529db49b25b9","609006691f6f4e337c17f836","609a4f4ede74e69a7a74e87d","null","","","","null","","","","key","16.667305084746488","479","463.5","","","","","","","","","","","","","","","","","","","",""
"psychophysics","273","603387","0.0-18.0-1.9","609810a3e824529db49b25b9","609006691f6f4e337c17f836","609a4f4ede74e69a7a74e87d","null","","","","null","","","","key","16.674275862069095","479","463.5","","","","","","","","","","","","","138","1","2","true","","","",""
"psychophysics","274","603731","0.0-18.0-2.9","609810a3e824529db49b25b9","609006691f6f4e337c17f836","609a4f4ede74e69a7a74e87d","341.3899999577552","","","","90","","","","key","16.653899999998977","479","463.5","","","","","","","","","","","","","","","","","","","",""
"psychophysics","275","604733","0.0-18.0-0.10","609810a3e824529db49b25b9","609006691f6f4e337c17f836","609a4f4ede74e69a7a74e87d","null","","","","null","","","","key","16.66189830508517","479","463.5","","","","","","","","","","","","","","","","","","","",""
"psychophysics","276","605234","0.0-18.0-1.10","609810a3e824529db49b25b9","609006691f6f4e337c17f836","609a4f4ede74e69a7a74e87d","null","","","","null","","","","key","16.669862068964747","479","463.5","","","","","","","","","","","","","138","1","4","true","","","",""
"psychophysics","277","605444","0.0-18.0-2.10","609810a3e824529db49b25b9","609006691f6f4e337c17f836","609a4f4ede74e69a7a74e87d","206.77000004798174","","","","77","","","","key","16.645818181822754","479","463.5","","","","","","","","","","","","","","","","","","","",""
"psychophysics","278","606446","0.0-18.0-0.11","609810a3e824529db49b25b9","609006691f6f4e337c17f836","609a4f4ede74e69a7a74e87d","null","","","","null","","","","key","16.67150000000062","479","463.5","","","","","","","","","","","","","","","","","","","",""
"psychophysics","279","606949","0.0-18.0-1.11","609810a3e824529db49b25b9","609006691f6f4e337c17f836","609a4f4ede74e69a7a74e87d","null","","","","null","","","","key","16.664448275861073","479","463.5","","","","","","","","","","","","","138","1","6","true","","","",""
"psychophysics","280","607419","0.0-18.0-2.11","609810a3e824529db49b25b9","609006691f6f4e337c17f836","609a4f4ede74e69a7a74e87d","467.4349999986589","","","","77","","","","key","16.675777777775053","479","463.5","","","","","","","","","","","","","","","","","","","",""
"psychophysics","281","608420","0.0-18.0-0.12","609810a3e824529db49b25b9","609006691f6f4e337c17f836","609a4f4ede74e69a7a74e87d","null","","","","null","","","","key","16.662508474576082","479","463.5","","","","","","","","","","","","","","","","","","","",""
"psychophysics","282","608921","0.0-18.0-1.12","609810a3e824529db49b25b9","609006691f6f4e337c17f836","609a4f4ede74e69a7a74e87d","null","","","","null","","","","key","16.665931034483947","479","463.5","","","","","","","","","","","","","138","1","6","true","","","",""
"psychophysics","283","609244","0.0-18.0-2.12","609810a3e824529db49b25b9","609006691f6f4e337c17f836","609a4f4ede74e69a7a74e87d","319.5250000571832","","","","77","","","","key","16.662736842108547","479","463.5","","","","","","","","","","","","","","","","","","","",""
"psychophysics","284","610245","0.0-18.0-0.13","609810a3e824529db49b25b9","609006691f6f4e337c17f836","609a4f4ede74e69a7a74e87d","null","","","","null","","","","key","16.664084745762413","479","463.5","","","","","","","","","","","","","","","","","","","",""
"psychophysics","285","610748","0.0-18.0-1.13","609810a3e824529db49b25b9","609006691f6f4e337c17f836","609a4f4ede74e69a7a74e87d","null","","","","null","","","","key","16.66886206896542","479","463.5","","","","","","","","","","","","","138","-1","3","true","","","",""
"psychophysics","286","611371","0.0-18.0-2.13","609810a3e824529db49b25b9","609006691f6f4e337c17f836","609a4f4ede74e69a7a74e87d","621.4999998919666","","","","77","","","","key","16.673555555552916","479","463.5","","","","","","","","","","","","","","","","","","","",""
"psychophysics","287","612373","0.0-18.0-0.14","609810a3e824529db49b25b9","609006691f6f4e337c17f836","609a4f4ede74e69a7a74e87d","null","","","","null","","","","key","16.665779661016256","479","463.5","","","","","","","","","","","","","","","","","","","",""
"psychophysics","288","612874","0.0-18.0-1.14","609810a3e824529db49b25b9","609006691f6f4e337c17f836","609a4f4ede74e69a7a74e87d","null","","","","null","","","","key","16.66855172413514","479","463.5","","","","","","","","","","","","","138","-1","6","true","","","",""
"psychophysics","289","613138","0.0-18.0-2.14","609810a3e824529db49b25b9","609006691f6f4e337c17f836","609a4f4ede74e69a7a74e87d","260.50500001292676","","","","77","","","","key","16.684199999994597","479","463.5","","","","","","","","","","","","","","","","","","","",""
"psychophysics","290","614140","0.0-18.0-0.15","609810a3e824529db49b25b9","609006691f6f4e337c17f836","609a4f4ede74e69a7a74e87d","null","","","","null","","","","key","16.662322033899127","479","463.5","","","","","","","","","","","","","","","","","","","",""
"psychophysics","291","614643","0.0-18.0-1.15","609810a3e824529db49b25b9","609006691f6f4e337c17f836","609a4f4ede74e69a7a74e87d","null","","","","null","","","","key","16.66737931034656","479","463.5","","","","","","","","","","","","","138","1","3","true","","","",""
"psychophysics","292","614962","0.0-18.0-2.15","609810a3e824529db49b25b9","609006691f6f4e337c17f836","609a4f4ede74e69a7a74e87d","316.4000000106171","","","","90","","","","key","16.66900000000054","479","463.5","","","","","","","","","","","","","","","","","","","",""
"psychophysics","293","615964","0.0-18.0-0.16","609810a3e824529db49b25b9","609006691f6f4e337c17f836","609a4f4ede74e69a7a74e87d","null","","","","null","","","","key","16.66405084745769","479","463.5","","","","","","","","","","","","","","","","","","","",""
"psychophysics","294","616467","0.0-18.0-1.16","609810a3e824529db49b25b9","609006691f6f4e337c17f836","609a4f4ede74e69a7a74e87d","null","","","","null","","","","key","16.676758620687277","479","463.5","","","","","","","","","","","","","138","-1","5","true","","","",""
"psychophysics","295","616779","0.0-18.0-2.16","609810a3e824529db49b25b9","609006691f6f4e337c17f836","609a4f4ede74e69a7a74e87d","309.6000000368804","","","","77","","","","key","16.665777777774363","479","463.5","","","","","","","","","","","","","","","","","","","",""
"psychophysics","296","617781","0.0-18.0-0.17","609810a3e824529db49b25b9","609006691f6f4e337c17f836","609a4f4ede74e69a7a74e87d","null","","","","null","","","","key","16.66581355932295","479","463.5","","","","","","","","","","","","","","","","","","","",""
"psychophysics","297","618283","0.0-18.0-1.17","609810a3e824529db49b25b9","609006691f6f4e337c17f836","609a4f4ede74e69a7a74e87d","null","","","","null","","","","key","16.67589655172497","479","463.5","","","","","","","","","","","","","138","1","4","true","","","",""
"psychophysics","298","618412","0.0-18.0-2.17","609810a3e824529db49b25b9","609006691f6f4e337c17f836","609a4f4ede74e69a7a74e87d","126.40499998815358","","","","77","","","","key","16.677000000008515","479","463.5","","","","","","","","","","","","","","","","","","","",""
"psychophysics","299","619416","0.0-18.0-0.18","609810a3e824529db49b25b9","609006691f6f4e337c17f836","609a4f4ede74e69a7a74e87d","null","","","","null","","","","key","16.666389830509136","479","463.5","","","","","","","","","","","","","","","","","","","",""
"psychophysics","300","619918","0.0-18.0-1.18","609810a3e824529db49b25b9","609006691f6f4e337c17f836","609a4f4ede74e69a7a74e87d","null","","","","null","","","","key","16.675206896547902","479","463.5","","","","","","","","","","","","","138","1","5","true","","","",""
"psychophysics","301","620130","0.0-18.0-2.18","609810a3e824529db49b25b9","609006691f6f4e337c17f836","609a4f4ede74e69a7a74e87d","209.84499994665384","","","","77","","","","key","16.67149999999674","479","463.5","","","","","","","","","","","","","","","","","","","",""
"psychophysics","302","621131","0.0-18.0-0.19","609810a3e824529db49b25b9","609006691f6f4e337c17f836","609a4f4ede74e69a7a74e87d","null","","","","null","","","","key","16.664983050848388","479","463.5","","","","","","","","","","","","","","","","","","","",""
"psychophysics","303","621634","0.0-18.0-1.19","609810a3e824529db49b25b9","609006691f6f4e337c17f836","609a4f4ede74e69a7a74e87d","null","","","","null","","","","key","16.67306896552026","479","463.5","","","","","","","","","","","","","138","-1","2","true","","","",""
"psychophysics","304","621754","0.0-18.0-2.19","609810a3e824529db49b25b9","609006691f6f4e337c17f836","609a4f4ede74e69a7a74e87d","118.63000004086643","","","","90","","","","key","16.659500000008848","479","463.5","","","","","","","","","","","","","","","","","","","",""
"psychophysics","305","622757","0.0-18.0-0.20","609810a3e824529db49b25b9","609006691f6f4e337c17f836","609a4f4ede74e69a7a74e87d","null","","","","null","","","","key","16.665610169492645","479","463.5","","","","","","","","","","","","","","","","","","","",""
"psychophysics","306","623259","0.0-18.0-1.20","609810a3e824529db49b25b9","609006691f6f4e337c17f836","609a4f4ede74e69a7a74e87d","null","","","","null","","","","key","16.666793103450267","479","463.5","","","","","","","","","","","","","138","-1","4","true","","","",""
"psychophysics","307","623500","0.0-18.0-2.20","609810a3e824529db49b25b9","609006691f6f4e337c17f836","609a4f4ede74e69a7a74e87d","238.49000001791865","","","","77","","","","key","16.667428571431497","479","463.5","","","","","","","","","","","","","","","","","","","",""
"psychophysics","308","624502","0.0-18.0-0.21","609810a3e824529db49b25b9","609006691f6f4e337c17f836","609a4f4ede74e69a7a74e87d","null","","","","null","","","","key","16.66940677966094","479","463.5","","","","","","","","","","","","","","","","","","","",""
"psychophysics","309","625004","0.0-18.0-1.21","609810a3e824529db49b25b9","609006691f6f4e337c17f836","609a4f4ede74e69a7a74e87d","null","","","","null","","","","key","16.674310344825336","479","463.5","","","","","","","","","","","","","138","1","2","true","","","",""
"psychophysics","310","625338","0.0-18.0-2.21","609810a3e824529db49b25b9","609006691f6f4e337c17f836","609a4f4ede74e69a7a74e87d","332.85000000614673","","","","90","","","","key","16.668736842105556","479","463.5","","","","","","","","","","","","","","","","","","","",""
"psychophysics","311","626340","0.0-18.0-0.22","609810a3e824529db49b25b9","609006691f6f4e337c17f836","609a4f4ede74e69a7a74e87d","null","","","","null","","","","key","16.666898305083908","479","463.5","","","","","","","","","","","","","","","","","","","",""
"psychophysics","312","626841","0.0-18.0-1.22","609810a3e824529db49b25b9","609006691f6f4e337c17f836","609a4f4ede74e69a7a74e87d","null","","","","null","","","","key","16.667413793102806","479","463.5","","","","","","","","","","","","","138","1","0","true","","","",""
"psychophysics","313","627277","0.0-18.0-2.22","609810a3e824529db49b25b9","609006691f6f4e337c17f836","609a4f4ede74e69a7a74e87d","433.63500002305955","","","","90","","","","key","16.668461538461717","479","463.5","","","","","","","","","","","","","","","","","","","",""
"psychophysics","314","628278","0.0-18.0-0.23","609810a3e824529db49b25b9","609006691f6f4e337c17f836","609a4f4ede74e69a7a74e87d","null","","","","null","","","","key","16.667525423728165","479","463.5","","","","","","","","","","","","","","","","","","","",""
"psychophysics","315","628780","0.0-18.0-1.23","609810a3e824529db49b25b9","609006691f6f4e337c17f836","609a4f4ede74e69a7a74e87d","null","","","","null","","","","key","16.675931034481216","479","463.5","","","","","","","","","","","","","138","-1","0","true","","","",""
"psychophysics","316","629059","0.0-18.0-2.23","609810a3e824529db49b25b9","609006691f6f4e337c17f836","609a4f4ede74e69a7a74e87d","276.9800000824034","","","","77","","","","key","16.669533333337554","479","463.5","","","","","","","","","","","","","","","","","","","",""
"psychophysics","317","630062","0.0-18.0-0.24","609810a3e824529db49b25b9","609006691f6f4e337c17f836","609a4f4ede74e69a7a74e87d","null","","","","null","","","","key","16.667683333333116","479","463.5","","","","","","","","","","","","","","","","","","","",""
"psychophysics","318","630564","0.0-18.0-1.24","609810a3e824529db49b25b9","609006691f6f4e337c17f836","609a4f4ede74e69a7a74e87d","null","","","","null","","","","key","16.661206896549317","479","463.5","","","","","","","","","","","","","138","-1","5","true","","","",""
"psychophysics","319","630866","0.0-18.0-2.24","609810a3e824529db49b25b9","609006691f6f4e337c17f836","609a4f4ede74e69a7a74e87d","300.06999999750406","","","","77","","","","key","16.658705882351462","479","463.5","","","","","","","","","","","","","","","","","","","",""
"psychophysics","320","631868","0.0-18.0-0.25","609810a3e824529db49b25b9","609006691f6f4e337c17f836","609a4f4ede74e69a7a74e87d","null","","","","null","","","","key","16.6676779661004","479","463.5","","","","","","","","","","","","","","","","","","","",""
"psychophysics","321","632370","0.0-18.0-1.25","609810a3e824529db49b25b9","609006691f6f4e337c17f836","609a4f4ede74e69a7a74e87d","null","","","","null","","","","key","16.65658620689546","479","463.5","","","","","","","","","","","","","138","1","2","true","","","",""
"psychophysics","322","632618","0.0-18.0-2.25","609810a3e824529db49b25b9","609006691f6f4e337c17f836","609a4f4ede74e69a7a74e87d","237.4300000956282","","","","90","","","","key","16.671357142855413","479","463.5","","","","","","","","","","","","","","","","","","","",""
"psychophysics","323","633620","0.0-18.0-0.26","609810a3e824529db49b25b9","609006691f6f4e337c17f836","609a4f4ede74e69a7a74e87d","null","","","","null","","","","key","16.665949152541835","479","463.5","","","","","","","","","","","","","","","","","","","",""
"psychophysics","324","634121","0.0-18.0-1.26","609810a3e824529db49b25b9","609006691f6f4e337c17f836","609a4f4ede74e69a7a74e87d","null","","","","null","","","","key","16.65682758620924","479","463.5","","","","","","","","","","","","","138","1","6","true","","","",""
"psychophysics","325","634401","0.0-18.0-2.26","609810a3e824529db49b25b9","609006691f6f4e337c17f836","609a4f4ede74e69a7a74e87d","277.7350000105798","","","","90","","","","key","16.664499999998952","479","463.5","","","","","","","","","","","","","","","","","","","",""
"psychophysics","326","635402","0.0-18.0-0.27","609810a3e824529db49b25b9","609006691f6f4e337c17f836","609a4f4ede74e69a7a74e87d","null","","","","null","","","","key","16.67057627118666","479","463.5","","","","","","","","","","","","","","","","","","","",""
"psychophysics","327","635904","0.0-18.0-1.27","609810a3e824529db49b25b9","609006691f6f4e337c17f836","609a4f4ede74e69a7a74e87d","null","","","","null","","","","key","16.663620689659027","479","463.5","","","","","","","","","","","","","138","1","4","true","","","",""
"psychophysics","328","636202","0.0-18.0-2.27","609810a3e824529db49b25b9","609006691f6f4e337c17f836","609a4f4ede74e69a7a74e87d","294.1149999387562","","","","90","","","","key","16.667235294117262","479","463.5","","","","","","","","","","","","","","","","","","","",""
