"trial_type","trial_index","time_elapsed","internal_node_id","PROLIFIC_PID","STUDY_ID","SESSION_ID","rt","stimulus","button_pressed","success","key_press","responses","isData","view_history","response_type","avg_frame_time","center_x","center_y","isSC","stim_side","trial_luminance","step_size","nReversal","correct","prev_ans","isThreshold","SC_threshold","final_threshold","isLuminance","FF_luminance","luminance","stimSide","ISInt","isFF","question_order","isSPQ","isCAPS","isAQ"
"pavlovia","0","46","0.0-0.0","60998e29280e93d7614351df","609006691f6f4e337c17f836","609a6162fac8687e8bb83fd2","","","","","","","","","","","","","","","","","","","","","","","","","","","","","","","",""
"html-button-response","1","69646","0.0-1.0","60998e29280e93d7614351df","609006691f6f4e337c17f836","609a6162fac8687e8bb83fd2","69597.79500000877","<div style='background-color: white; width:60%; margin: auto; padding: 50px; text-align: justify; text-justify: inter-word; margin-bottom: 20px;'><h1 style='text-align: center;'>Consent Form</h1><p>Please read this consent form carefully before deciding whether you would like to participate in this study. You have to be 18 years old or older to participate to this study.</p><p style='text-decoration: underline;'>Participation is voluntary:</p><p>It is your choice whether or not to participate in this research. If you choose to participate, you may change your mind and leave the study at any time. Refusal to participate or stopping your participation will involve no penalty or loss of benefits to which you are otherwise entitled.</p><p style='text-decoration: underline;'>Purpose of the Study:</p><p>To understand the mechanisms underlying human perception.</p><p style='text-decoration: underline;'>What you will do in this study:</p><p>You will be presented with a series of visual images and then you will press buttons on the keyboard of your computer to respond to simple questions about the images (e.g. Were one or two images presented?). In addition, you will be asked to complete a questionnaire concerning your beliefs and everyday mental and perceptual experiences.'</p><p style='text-decoration: underline;'> Time Required:</p><p>The study will take 40 minutes to complete. </p><p style='text-decoration: underline;'>Risks:</p><p>There are no anticipated risks associated with participating in this study that are beyond those experienced in everyday life. </p><p style='text-decoration: underline;'>Benefits:</p><p>There are no benefits to you in participating in the study. However, this study may lead to a better understanding of how different kinds of visual information are used.</p><p style='text-decoration: underline;'>Compensation:</p><p>You will be paid US$6.6/hour. </p><p style='text-decoration: underline;'>Privacy and Confidentiality:</p><p>Your participation in this study will be anonymous. No personal information about your name or identity will be asked or recorded. This anonymous data will be stored for several years and may be used for a variety of research purposes. The overall results of the study may be published, or the data files may be shared with other researchers, but your identity will not be revealed in any way. The online services we are using for this study may temporarily store your data, but this data will be downloaded and then promptly deleted from those services.Your data will not be permanently associated with your name, IP address, or any other identifiable information (e.g., your information will only be connected to your payment, not to any of your responses), though they may be temporarily stored together before we download and separate them. Even so, no guarantee of internet survey security can be given because, although unlikely, transmissions can be intercepted and IP addresses can be identified. The anonymous data may be shared publicly (for example, in conjunction with a resulting academic publication).</p><p style='text-decoration: underline;'>Participation and Withdrawal:</p><p>Your participation in this study is completely voluntary. You may stop responding to the stimuli or stop answering questions if you so choose and without penalty by exiting the full screen mode, closing this tab of your browser or redirecting it to a different website.</p><p style='text-decoration: underline;'>Contact Info of the Researcher: </p><p>If you have questions about this study, or if you would like to talk to the research team, please contact David Melcher (david.melcher@nyu.edu, md5050@nyu.edu) at the Perception and Active Cognition Laboratory, New York University Abu Dhabi, Computational Research Building, Saadiyat Island, Abu Dhabi, UAE.This research has been reviewed by the New York University Abu Dhabi Institutional Review Board (NYUAD IRB). To contact about your rights in this research, for questions, suggestions, or complaints that are not addressed by the researchers, please email IRBnyuad@nyu.edu, or call the NYUAD IRB at +971 2 628 4313. </p></div>","0","","","","","","","","","","","","","","","","","","","","","","","","","","","","",""
"fullscreen","2","75297","0.0-2.0","60998e29280e93d7614351df","609006691f6f4e337c17f836","609a6162fac8687e8bb83fd2","","","","true","","","","","","","","","","","","","","","","","","","","","","","","","","","",""
"html-keyboard-response","3","97631","0.0-3.0","60998e29280e93d7614351df","609006691f6f4e337c17f836","609a6162fac8687e8bb83fd2","22333.069999993313","<p>Welcome !</p><p>READ CAREFULLY THE FOLLOWING INDICATIONS:</p><p>From this moment you have ~40 minutes to complete the experiment.</p><p>During the experiment you will be prompted to take several breaks. Each break should not last longer than 2-3 minutes.</p><p>Make sure that your computer is plugged in and it's not running on battery power, even if the battery is already fully charged.</p><p>Turn off your phone and music, make sure that you are in a quiet room and that you will not be distracted for the next hour.</p><p>Failure to comply with the instructions and indications provided during the experiment will most likely result in the rejection of your data.<p>Press the spacebar to start.</p>","","","32","","","","","","","","","","","","","","","","","","","","","","","","","","",""
"survey-html-form","4","102011","0.0-4.0","60998e29280e93d7614351df","609006691f6f4e337c17f836","609a6162fac8687e8bb83fd2","4377.139999996871","","","","","{""age"":""21"",""sex"":""M""}","true","","","","","","","","","","","","","","","","","","","","","","","","",""
"instructions","5","141060","0.0-5.0","60998e29280e93d7614351df","609006691f6f4e337c17f836","609a6162fac8687e8bb83fd2","39048.22500003502","","","","","","","[{""page_index"":0,""viewing_time"":17434.070000017527},{""page_index"":1,""viewing_time"":13612.855000013951},{""page_index"":2,""viewing_time"":8000.914999982342}]","","","","","","","","","","","","","","","","","","","","","","","",""
"psychophysics","6","142198","0.0-6.0-0.0","60998e29280e93d7614351df","609006691f6f4e337c17f836","609a6162fac8687e8bb83fd2","128.72500001685694","","","","37","","","","key","16.66691176470597","960","503.5","true","-1","180","30","0","-1","","","","","","","","","","","","","",""
"psychophysics","7","143629","0.0-6.0-0.1","60998e29280e93d7614351df","609006691f6f4e337c17f836","609a6162fac8687e8bb83fd2","427.4100000038743","","","","39","","","","key","16.665317647058778","960","503.5","true","1","180","30","0","-1","-1","","","","","","","","","","","","",""
"psychophysics","8","145254","0.0-6.0-0.2","60998e29280e93d7614351df","609006691f6f4e337c17f836","609a6162fac8687e8bb83fd2","622.8550000232644","","","","39","","","","key","16.668093749999873","960","503.5","true","1","150","30","0","-1","-1","","","","","","","","","","","","",""
"psychophysics","9","146703","0.0-6.0-0.3","60998e29280e93d7614351df","609006691f6f4e337c17f836","609a6162fac8687e8bb83fd2","443.654999951832","","","","37","","","","key","16.66609302325598","960","503.5","true","-1","150","30","0","-1","-1","","","","","","","","","","","","",""
"psychophysics","10","148903","0.0-6.0-0.4","60998e29280e93d7614351df","609006691f6f4e337c17f836","609a6162fac8687e8bb83fd2","1195.6450000288896","","","","39","","","","key","16.66516793893143","960","503.5","true","1","129","30","0","-1","-1","","","","","","","","","","","","",""
"psychophysics","11","150627","0.0-6.0-0.5","60998e29280e93d7614351df","609006691f6f4e337c17f836","609a6162fac8687e8bb83fd2","719.0900000277907","","","","37","","","","key","16.66558252427206","960","503.5","true","1","129","24","1","1","-1","","","","","","","","","","","","",""
"psychophysics","12","152066","0.0-6.0-0.6","60998e29280e93d7614351df","609006691f6f4e337c17f836","609a6162fac8687e8bb83fd2","435.1650000317022","","","","37","","","","key","16.66654117647045","960","503.5","true","-1","153","24","1","-1","1","","","","","","","","","","","","",""
"psychophysics","13","153306","0.0-6.0-0.7","60998e29280e93d7614351df","609006691f6f4e337c17f836","609a6162fac8687e8bb83fd2","235.5000000097789","","","","37","","","","key","16.666808219178428","960","503.5","true","-1","153","19.2","2","-1","-1","","","","","","","","","","","","",""
"psychophysics","14","154656","0.0-6.0-0.8","60998e29280e93d7614351df","609006691f6f4e337c17f836","609a6162fac8687e8bb83fd2","316.6499999933876","","","","37","","","","key","16.87558227848104","960","503.5","true","-1","133.8","19.2","2","-1","-1","","","","","","","","","","","","",""
"psychophysics","15","155931","0.0-6.0-0.9","60998e29280e93d7614351df","609006691f6f4e337c17f836","609a6162fac8687e8bb83fd2","267.96000002650544","","","","39","","","","key","16.6653947368422","960","503.5","true","1","133.8","19.2","2","-1","-1","","","","","","","","","","","","",""
"psychophysics","16","157714","0.0-6.0-0.10","60998e29280e93d7614351df","609006691f6f4e337c17f836","609a6162fac8687e8bb83fd2","775.7599999895319","","","","39","","","","key","16.666462264151118","960","503.5","true","-1","129","15.36","3","1","-1","","","","","","","","","","","","",""
"psychophysics","17","159016","0.0-6.0-0.11","60998e29280e93d7614351df","609006691f6f4e337c17f836","609a6162fac8687e8bb83fd2","294.47000002255663","","","","39","","","","key","16.66492207792199","960","503.5","true","1","144.36","15.36","3","-1","1","","","","","","","","","","","","",""
"psychophysics","18","160341","0.0-6.0-0.12","60998e29280e93d7614351df","609006691f6f4e337c17f836","609a6162fac8687e8bb83fd2","319.98999998904765","","","","39","","","","key","16.667797468354355","960","503.5","true","1","144.36","12.287999999999998","4","-1","-1","","","","","","","","","","","","",""
"psychophysics","19","162165","0.0-6.0-0.13","60998e29280e93d7614351df","609006691f6f4e337c17f836","609a6162fac8687e8bb83fd2","811.8350000004284","","","","37","","","","key","16.666824074074004","960","503.5","true","-1","132.072","12.287999999999998","4","-1","-1","","","","","","","","","","","","",""
"psychophysics","20","163462","0.0-6.0-0.14","60998e29280e93d7614351df","609006691f6f4e337c17f836","609a6162fac8687e8bb83fd2","290.6800000346266","","","","37","","","","key","16.66474025974023","960","503.5","true","-1","132.072","12.287999999999998","4","-1","-1","","","","","","","","","","","","",""
"psychophysics","21","165121","0.0-6.0-0.15","60998e29280e93d7614351df","609006691f6f4e337c17f836","609a6162fac8687e8bb83fd2","658.3049999899231","","","","39","","","","key","16.666316326530602","960","503.5","true","1","129","12.287999999999998","4","-1","-1","","","","","","","","","","","","",""
"psychophysics","22","166507","0.0-6.0-0.16","60998e29280e93d7614351df","609006691f6f4e337c17f836","609a6162fac8687e8bb83fd2","371.2200000300072","","","","37","","","","key","16.665060240963644","960","503.5","true","-1","129","12.287999999999998","4","-1","-1","","","","","","","","","","","","",""
"psychophysics","23","168242","0.0-6.0-0.17","60998e29280e93d7614351df","609006691f6f4e337c17f836","609a6162fac8687e8bb83fd2","730.199999990873","","","","39","","","","key","16.666407766990428","960","503.5","true","-1","129","9.8304","5","1","-1","","","","","","","","","","","","",""
"psychophysics","24","169573","0.0-6.0-0.18","60998e29280e93d7614351df","609006691f6f4e337c17f836","609a6162fac8687e8bb83fd2","325.92999999178573","","","","37","","","","key","16.666696202531575","960","503.5","true","-1","138.8304","9.8304","5","-1","1","","","","","","","","","","","","",""
"psychophysics","25","170907","0.0-6.0-0.19","60998e29280e93d7614351df","609006691f6f4e337c17f836","609a6162fac8687e8bb83fd2","319.16500005172566","","","","39","","","","key","16.66622784810142","960","503.5","true","1","138.8304","7.864319999999999","6","-1","-1","","","","","","","","","","","","",""
"psychophysics","26","172934","0.0-6.0-0.20","60998e29280e93d7614351df","609006691f6f4e337c17f836","609a6162fac8687e8bb83fd2","1023.92999996664","","","","37","","","","key","16.666116666666735","960","503.5","true","-1","130.96608","7.864319999999999","6","-1","-1","","","","","","","","","","","","",""
"psychophysics","27","175473","0.0-6.0-0.21","60998e29280e93d7614351df","609006691f6f4e337c17f836","609a6162fac8687e8bb83fd2","1535.2449999772944","","","","39","","","","key","16.666315789473675","960","503.5","true","1","130.96608","7.864319999999999","6","-1","-1","","","","","","","","","","","","",""
"psychophysics","28","176998","0.0-6.0-0.22","60998e29280e93d7614351df","609006691f6f4e337c17f836","609a6162fac8687e8bb83fd2","514.740000013262","","","","37","","","","key","16.66518888888887","960","503.5","true","1","129","6.291456","7","1","-1","","","","","","","","","","","","",""
"psychophysics","29","178319","0.0-6.0-0.23","60998e29280e93d7614351df","609006691f6f4e337c17f836","609a6162fac8687e8bb83fd2","318.6350000323728","","","","39","","","","key","16.667141025640795","960","503.5","true","1","135.291456","6.291456","7","-1","1","","","","","","","","","","","","",""
"psychophysics","30","179616","0.0-6.0-0.24","60998e29280e93d7614351df","609006691f6f4e337c17f836","609a6162fac8687e8bb83fd2","277.86999999079853","","","","39","","","","key","16.66474025974023","960","503.5","true","1","135.291456","5.033164800000001","8","-1","-1","","","","","","","","","","","","",""
"psychophysics","31","181546","0.0-6.0-0.25","60998e29280e93d7614351df","609006691f6f4e337c17f836","609a6162fac8687e8bb83fd2","925.3099999623373","","","","37","","","","key","16.666660869565195","960","503.5","true","-1","130.2582912","5.033164800000001","8","-1","-1","","","","","","","","","","","","",""
"psychophysics","32","183021","0.0-6.0-0.26","60998e29280e93d7614351df","609006691f6f4e337c17f836","609a6162fac8687e8bb83fd2","467.26999996462837","","","","37","","","","key","16.66642528735623","960","503.5","true","-1","130.2582912","5.033164800000001","8","-1","-1","","","","","","","","","","","","",""
"psychophysics","33","184622","0.0-6.0-0.27","60998e29280e93d7614351df","609006691f6f4e337c17f836","609a6162fac8687e8bb83fd2","587.5949999899603","","","","39","","","","key","16.666104166666628","960","503.5","true","-1","129","4.0265318400000005","9","1","-1","","","","","","","","","","","","",""
"psychophysics","34","185978","0.0-6.0-0.28","60998e29280e93d7614351df","609006691f6f4e337c17f836","609a6162fac8687e8bb83fd2","342.35499997157604","","","","37","","","","key","16.66715000000004","960","503.5","true","-1","133.02653184","4.0265318400000005","9","-1","1","","","","","","","","","","","","",""
"psychophysics","35","187341","0.0-6.0-0.29","60998e29280e93d7614351df","609006691f6f4e337c17f836","609a6162fac8687e8bb83fd2","359.61499996483326","","","","37","","","","key","16.667814814815095","960","503.5","true","-1","133.02653184","3.2212254720000004","10","-1","-1","","","","","","","","","","","","",""
"psychophysics","36","188849","0.0-6.0-0.30","60998e29280e93d7614351df","609006691f6f4e337c17f836","609a6162fac8687e8bb83fd2","503.2349999528378","","","","37","","","","key","16.85601136363634","960","503.5","true","1","129.805306368","2.5769803776000004","11","1","-1","","","","","","","","","","","","",""
"psychophysics","37","190136","0.0-6.0-0.31","60998e29280e93d7614351df","609006691f6f4e337c17f836","609a6162fac8687e8bb83fd2","281.67499997653067","","","","39","","","","key","16.666460526315955","960","503.5","true","1","132.3822867456","2.5769803776000004","11","-1","1","","","","","","","","","","","","",""
"psychophysics","38","191405","0.0-6.0-0.32","60998e29280e93d7614351df","609006691f6f4e337c17f836","609a6162fac8687e8bb83fd2","264.8499999777414","","","","37","","","","key","16.665133333333458","960","503.5","true","-1","132.3822867456","2.0615843020800004","12","-1","-1","","","","","","","","","","","","",""
"psychophysics","39","192989","0.0-6.0-0.33","60998e29280e93d7614351df","609006691f6f4e337c17f836","609a6162fac8687e8bb83fd2","574.2650000029244","","","","37","","","","key","16.66633684210522","960","503.5","true","1","130.32070244352","1.6492674416640005","13","1","-1","","","","","","","","","","","","",""
"psychophysics","40","194301","0.0-6.0-0.34","60998e29280e93d7614351df","609006691f6f4e337c17f836","609a6162fac8687e8bb83fd2","309.49499999405816","","","","37","","","","key","16.66689610389604","960","503.5","true","-1","131.96996988518399","1.6492674416640005","13","-1","1","","","","","","","","","","","","",""
"psychophysics","41","195986","0.0-6.0-0.35","60998e29280e93d7614351df","609006691f6f4e337c17f836","609a6162fac8687e8bb83fd2","681.1450000386685","","","","39","","","","key","16.666600000000034","960","503.5","true","1","131.96996988518399","1.3194139533312006","14","-1","-1","","","","","","","","","","","","",""
"psychophysics","42","197278","0.0-6.0-0.36","60998e29280e93d7614351df","609006691f6f4e337c17f836","609a6162fac8687e8bb83fd2","289.55499996664","","","","37","","","","key","16.666909090909265","960","503.5","true","-1","130.65055593185278","1.3194139533312006","14","-1","-1","","","","","","","","","","","","",""
"psychophysics","43","198600","0.0-6.0-0.37","60998e29280e93d7614351df","609006691f6f4e337c17f836","609a6162fac8687e8bb83fd2","309.7950000083074","","","","39","","","","key","16.666371794871594","960","503.5","true","1","130.65055593185278","1.3194139533312006","14","-1","-1","","","","","","","","","","","","",""
"psychophysics","44","201185","0.0-6.0-0.38","60998e29280e93d7614351df","609006691f6f4e337c17f836","609a6162fac8687e8bb83fd2","1580.3799999994226","","","","37","","","","key","16.666201298701306","960","503.5","true","1","129.33114197852157","1.0555311626649604","15","1","-1","","","","","","","","","","","","",""
"psychophysics","45","202654","0.0-6.0-0.39","60998e29280e93d7614351df","609006691f6f4e337c17f836","609a6162fac8687e8bb83fd2","455.65000001806766","","","","39","","","","key","16.665816091953765","960","503.5","true","1","130.38667314118652","1.0555311626649604","15","-1","1","","","","","","","","","","","","",""
"html-keyboard-response","46","209807","0.0-7.0","60998e29280e93d7614351df","609006691f6f4e337c17f836","609a6162fac8687e8bb83fd2","7149.64499999769","<p>Well Done !</p><p>Prepare for a new block.</p><p>DON'T EXIT THE FULL SCREEN MODE</p><p>Press the Spacebar to start.</p>","","","32","","","","","","","","","","","","","","","true","131.02793967576676","","","","","","","","","","",""
"psychophysics","47","214339","0.0-8.0-0.0","60998e29280e93d7614351df","609006691f6f4e337c17f836","609a6162fac8687e8bb83fd2","3527.6650000014342","","","","37","","","","key","16.728180811808116","960","503.5","true","-1","180","30","0","-1","","","","","","","","","","","","","",""
"psychophysics","48","215750","0.0-8.0-0.1","60998e29280e93d7614351df","609006691f6f4e337c17f836","609a6162fac8687e8bb83fd2","396.72499999869615","","","","39","","","","key","16.665807228915515","960","503.5","true","1","180","30","0","-1","-1","","","","","","","","","","","","",""
"psychophysics","49","217067","0.0-8.0-0.2","60998e29280e93d7614351df","609006691f6f4e337c17f836","609a6162fac8687e8bb83fd2","313.51500004529953","","","","37","","","","key","16.666705128205088","960","503.5","true","-1","150","30","0","-1","-1","","","","","","","","","","","","",""
"psychophysics","50","218359","0.0-8.0-0.3","60998e29280e93d7614351df","609006691f6f4e337c17f836","609a6162fac8687e8bb83fd2","286.35499998927116","","","","39","","","","key","16.665363636363733","960","503.5","true","1","150","30","0","-1","-1","","","","","","","","","","","","",""
"psychophysics","51","219822","0.0-8.0-0.4","60998e29280e93d7614351df","609006691f6f4e337c17f836","609a6162fac8687e8bb83fd2","453.464999969583","","","","37","","","","key","16.666873563218182","960","503.5","true","1","129","24","1","1","-1","","","","","","","","","","","","",""
"psychophysics","52","221101","0.0-8.0-0.5","60998e29280e93d7614351df","609006691f6f4e337c17f836","609a6162fac8687e8bb83fd2","268.0149999796413","","","","37","","","","key","16.666226666666333","960","503.5","true","-1","153","24","1","-1","1","","","","","","","","","","","","",""
"psychophysics","53","222435","0.0-8.0-0.6","60998e29280e93d7614351df","609006691f6f4e337c17f836","609a6162fac8687e8bb83fd2","328.864999988582","","","","39","","","","key","16.6658227848102","960","503.5","true","1","153","19.2","2","-1","-1","","","","","","","","","","","","",""
"psychophysics","54","223726","0.0-8.0-0.7","60998e29280e93d7614351df","609006691f6f4e337c17f836","609a6162fac8687e8bb83fd2","282.09499997319654","","","","39","","","","key","16.66657142857144","960","503.5","true","1","133.8","19.2","2","-1","-1","","","","","","","","","","","","",""
"psychophysics","55","224989","0.0-8.0-0.8","60998e29280e93d7614351df","609006691f6f4e337c17f836","609a6162fac8687e8bb83fd2","252.89000000339","","","","37","","","","key","16.666133333333224","960","503.5","true","-1","133.8","19.2","2","-1","-1","","","","","","","","","","","","",""
"psychophysics","56","226632","0.0-8.0-0.9","60998e29280e93d7614351df","609006691f6f4e337c17f836","609a6162fac8687e8bb83fd2","634.5499999588355","","","","39","","","","key","16.66616494845378","960","503.5","true","-1","129","15.36","3","1","-1","","","","","","","","","","","","",""
"psychophysics","57","227768","0.0-8.0-0.10","60998e29280e93d7614351df","609006691f6f4e337c17f836","609a6162fac8687e8bb83fd2","117.17500002123415","","","","39","","","","key","16.665253731343068","960","503.5","true","1","144.36","15.36","3","-1","1","","","","","","","","","","","","",""
"psychophysics","58","228977","0.0-8.0-0.11","60998e29280e93d7614351df","609006691f6f4e337c17f836","609a6162fac8687e8bb83fd2","191.4550000219606","","","","37","","","","key","16.665583333333213","960","503.5","true","-1","144.36","12.287999999999998","4","-1","-1","","","","","","","","","","","","",""
"psychophysics","59","230267","0.0-8.0-0.12","60998e29280e93d7614351df","609006691f6f4e337c17f836","609a6162fac8687e8bb83fd2","286.88999998848885","","","","37","","","","key","16.667763157894736","960","503.5","true","-1","132.072","12.287999999999998","4","-1","-1","","","","","","","","","","","","",""
"psychophysics","60","231862","0.0-8.0-0.13","60998e29280e93d7614351df","609006691f6f4e337c17f836","609a6162fac8687e8bb83fd2","590.5449999845587","","","","39","","","","key","16.665642105263206","960","503.5","true","-1","132.072","9.8304","5","1","-1","","","","","","","","","","","","",""
"psychophysics","61","233054","0.0-8.0-0.14","60998e29280e93d7614351df","609006691f6f4e337c17f836","609a6162fac8687e8bb83fd2","186.08499999390915","","","","37","","","","key","16.666295774647487","960","503.5","true","-1","141.9024","9.8304","5","-1","1","","","","","","","","","","","","",""
"psychophysics","62","234315","0.0-8.0-0.15","60998e29280e93d7614351df","609006691f6f4e337c17f836","609a6162fac8687e8bb83fd2","244.43999998038635","","","","37","","","","key","16.6682432432434","960","503.5","true","-1","141.9024","7.864319999999999","6","-1","-1","","","","","","","","","","","","",""
"psychophysics","63","235525","0.0-8.0-0.16","60998e29280e93d7614351df","609006691f6f4e337c17f836","609a6162fac8687e8bb83fd2","205.1550000323914","","","","39","","","","key","16.666277777777495","960","503.5","true","1","134.03808","7.864319999999999","6","-1","-1","","","","","","","","","","","","",""
"psychophysics","64","236660","0.0-8.0-0.17","60998e29280e93d7614351df","609006691f6f4e337c17f836","609a6162fac8687e8bb83fd2","127.64000002061948","","","","37","","","","key","16.6666417910449","960","503.5","true","-1","134.03808","7.864319999999999","6","-1","-1","","","","","","","","","","","","",""
"psychophysics","65","238396","0.0-8.0-0.18","60998e29280e93d7614351df","609006691f6f4e337c17f836","609a6162fac8687e8bb83fd2","726.5250000054948","","","","39","","","","key","16.666407766990428","960","503.5","true","1","129","7.864319999999999","6","-1","-1","","","","","","","","","","","","",""
"psychophysics","66","239746","0.0-8.0-0.19","60998e29280e93d7614351df","609006691f6f4e337c17f836","609a6162fac8687e8bb83fd2","343.51000003516674","","","","37","","","","key","16.66779999999999","960","503.5","true","1","129","6.291456","7","1","-1","","","","","","","","","","","","",""
"psychophysics","67","241033","0.0-8.0-0.20","60998e29280e93d7614351df","609006691f6f4e337c17f836","609a6162fac8687e8bb83fd2","279.86500004772097","","","","39","","","","key","16.666684210526384","960","503.5","true","1","135.291456","6.291456","7","-1","1","","","","","","","","","","","","",""
"psychophysics","68","242193","0.0-8.0-0.21","60998e29280e93d7614351df","609006691f6f4e337c17f836","609a6162fac8687e8bb83fd2","142.31500000460073","","","","37","","","","key","16.665289855072448","960","503.5","true","-1","135.291456","5.033164800000001","8","-1","-1","","","","","","","","","","","","",""
"psychophysics","69","243666","0.0-8.0-0.22","60998e29280e93d7614351df","609006691f6f4e337c17f836","609a6162fac8687e8bb83fd2","462.74999994784594","","","","39","","","","key","16.666735632183837","960","503.5","true","1","130.2582912","5.033164800000001","8","-1","-1","","","","","","","","","","","","",""
"psychophysics","70","245012","0.0-8.0-0.23","60998e29280e93d7614351df","609006691f6f4e337c17f836","609a6162fac8687e8bb83fd2","342.9599999799393","","","","37","","","","key","16.664849999999934","960","503.5","true","1","130.2582912","4.0265318400000005","9","1","-1","","","","","","","","","","","","",""
"psychophysics","71","246223","0.0-8.0-0.24","60998e29280e93d7614351df","609006691f6f4e337c17f836","609a6162fac8687e8bb83fd2","202.35000003594905","","","","39","","","","key","16.667305555555586","960","503.5","true","1","134.28482304","4.0265318400000005","9","-1","1","","","","","","","","","","","","",""
"psychophysics","72","247479","0.0-8.0-0.25","60998e29280e93d7614351df","609006691f6f4e337c17f836","609a6162fac8687e8bb83fd2","249.2099999799393","","","","39","","","","key","16.66582432432404","960","503.5","true","1","134.28482304","3.2212254720000004","10","-1","-1","","","","","","","","","","","","",""
"psychophysics","73","248904","0.0-8.0-0.26","60998e29280e93d7614351df","609006691f6f4e337c17f836","609a6162fac8687e8bb83fd2","417.90000000037253","","","","37","","","","key","16.665821428571473","960","503.5","true","-1","131.06359756799998","3.2212254720000004","10","-1","-1","","","","","","","","","","","","",""
"psychophysics","74","250372","0.0-8.0-0.27","60998e29280e93d7614351df","609006691f6f4e337c17f836","609a6162fac8687e8bb83fd2","456.66999998502433","","","","37","","","","key","16.66674999999999","960","503.5","true","-1","131.06359756799998","3.2212254720000004","10","-1","-1","","","","","","","","","","","","",""
"psychophysics","75","251925","0.0-8.0-0.28","60998e29280e93d7614351df","609006691f6f4e337c17f836","609a6162fac8687e8bb83fd2","539.7900000098161","","","","39","","","","key","16.665956521738934","960","503.5","true","1","129","3.2212254720000004","10","-1","-1","","","","","","","","","","","","",""
"psychophysics","76","253598","0.0-8.0-0.29","60998e29280e93d7614351df","609006691f6f4e337c17f836","609a6162fac8687e8bb83fd2","666.765000030864","","","","37","","","","key","16.66719191919188","960","503.5","true","-1","129","3.2212254720000004","10","-1","-1","","","","","","","","","","","","",""
"psychophysics","77","255214","0.0-8.0-0.30","60998e29280e93d7614351df","609006691f6f4e337c17f836","609a6162fac8687e8bb83fd2","611.5600000484847","","","","39","","","","key","16.665854166666577","960","503.5","true","-1","129","2.5769803776000004","11","1","-1","","","","","","","","","","","","",""
"psychophysics","78","256435","0.0-8.0-0.31","60998e29280e93d7614351df","609006691f6f4e337c17f836","609a6162fac8687e8bb83fd2","215.59999999590218","","","","39","","","","key","16.666805555555282","960","503.5","true","1","131.5769803776","2.5769803776000004","11","-1","1","","","","","","","","","","","","",""
"psychophysics","79","257760","0.0-8.0-0.32","60998e29280e93d7614351df","609006691f6f4e337c17f836","609a6162fac8687e8bb83fd2","309.4050000072457","","","","37","","","","key","16.66655696202563","960","503.5","true","-1","131.5769803776","2.0615843020800004","12","-1","-1","","","","","","","","","","","","",""
"psychophysics","80","259124","0.0-8.0-0.33","60998e29280e93d7614351df","609006691f6f4e337c17f836","609a6162fac8687e8bb83fd2","354.5750000048429","","","","37","","","","key","16.66539506172872","960","503.5","true","-1","129.51539607552","2.0615843020800004","12","-1","-1","","","","","","","","","","","","",""
"psychophysics","81","260509","0.0-8.0-0.34","60998e29280e93d7614351df","609006691f6f4e337c17f836","609a6162fac8687e8bb83fd2","381.3300000037998","","","","37","","","","key","16.667481481481378","960","503.5","true","1","129.51539607552","1.6492674416640005","13","1","-1","","","","","","","","","","","","",""
"psychophysics","82","261838","0.0-8.0-0.35","60998e29280e93d7614351df","609006691f6f4e337c17f836","609a6162fac8687e8bb83fd2","318.4050000272691","","","","39","","","","key","16.66600000000035","960","503.5","true","-1","131.16466351718398","1.6492674416640005","13","1","1","","","","","","","","","","","","",""
"psychophysics","83","264460","0.0-8.0-0.36","60998e29280e93d7614351df","609006691f6f4e337c17f836","609a6162fac8687e8bb83fd2","1606.5400000079535","","","","39","","","","key","16.666301282051464","960","503.5","true","1","132.81393095884798","1.6492674416640005","13","-1","1","","","","","","","","","","","","",""
"psychophysics","84","265780","0.0-8.0-0.37","60998e29280e93d7614351df","609006691f6f4e337c17f836","609a6162fac8687e8bb83fd2","310.6499999994412","","","","39","","","","key","16.66653846153834","960","503.5","true","1","132.81393095884798","1.3194139533312006","14","-1","-1","","","","","","","","","","","","",""
"psychophysics","85","267458","0.0-8.0-0.38","60998e29280e93d7614351df","609006691f6f4e337c17f836","609a6162fac8687e8bb83fd2","671.4100000099279","","","","37","","","","key","16.66601000000024","960","503.5","true","1","131.49451700551677","1.0555311626649604","15","1","-1","","","","","","","","","","","","",""
"psychophysics","86","268790","0.0-8.0-0.39","60998e29280e93d7614351df","609006691f6f4e337c17f836","609a6162fac8687e8bb83fd2","323.3250000048429","","","","37","","","","key","16.666316455696514","960","503.5","true","-1","132.55004816818172","1.0555311626649604","15","-1","1","","","","","","","","","","","","",""
"html-keyboard-response","87","275526","0.0-9.0","60998e29280e93d7614351df","609006691f6f4e337c17f836","609a6162fac8687e8bb83fd2","6734.059999987949","<p>Well Done !</p><p>Prepare for a new block.</p><p>DON'T EXIT THE FULL SCREEN MODE</p><p>Press the Spacebar to start.</p>","","","32","","","","","","","","","","","","","","","true","131.0955907793879","","","","","","","","","","",""
"psychophysics","88","276745","0.0-10.0-0.0","60998e29280e93d7614351df","609006691f6f4e337c17f836","609a6162fac8687e8bb83fd2","216.34500002255663","","","","39","","","","key","16.665630136986504","960","503.5","true","1","180","30","0","-1","","","","","","","","","","","","","",""
"psychophysics","89","278494","0.0-10.0-0.1","60998e29280e93d7614351df","609006691f6f4e337c17f836","609a6162fac8687e8bb83fd2","746.6849999618717","","","","37","","","","key","16.666394230769722","960","503.5","true","-1","180","30","0","-1","-1","","","","","","","","","","","","",""
"psychophysics","90","279859","0.0-10.0-0.2","60998e29280e93d7614351df","609006691f6f4e337c17f836","609a6162fac8687e8bb83fd2","361.5099999587983","","","","39","","","","key","16.667024691357785","960","503.5","true","1","150","30","0","-1","-1","","","","","","","","","","","","",""
"psychophysics","91","281171","0.0-10.0-0.3","60998e29280e93d7614351df","609006691f6f4e337c17f836","609a6162fac8687e8bb83fd2","309.4050000072457","","","","37","","","","key","16.66585897435867","960","503.5","true","-1","150","30","0","-1","-1","","","","","","","","","","","","",""
"psychophysics","92","282865","0.0-10.0-0.4","60998e29280e93d7614351df","609006691f6f4e337c17f836","609a6162fac8687e8bb83fd2","691.3799999747425","","","","39","","","","key","16.666140000000013","960","503.5","true","1","129","30","0","-1","-1","","","","","","","","","","","","",""
"psychophysics","93","284524","0.0-10.0-0.5","60998e29280e93d7614351df","609006691f6f4e337c17f836","609a6162fac8687e8bb83fd2","655.9850000194274","","","","37","","","","key","16.66615151515174","960","503.5","true","1","129","24","1","1","-1","","","","","","","","","","","","",""
"psychophysics","94","285834","0.0-10.0-0.6","60998e29280e93d7614351df","609006691f6f4e337c17f836","609a6162fac8687e8bb83fd2","306.71999999322","","","","39","","","","key","16.66564935064941","960","503.5","true","1","153","24","1","-1","1","","","","","","","","","","","","",""
"psychophysics","95","287087","0.0-10.0-0.7","60998e29280e93d7614351df","609006691f6f4e337c17f836","609a6162fac8687e8bb83fd2","250.2000000094995","","","","37","","","","key","16.666000000000157","960","503.5","true","-1","153","19.2","2","-1","-1","","","","","","","","","","","","",""
"psychophysics","96","288359","0.0-10.0-0.8","60998e29280e93d7614351df","609006691f6f4e337c17f836","609a6162fac8687e8bb83fd2","271.1600000038743","","","","39","","","","key","16.66806666666642","960","503.5","true","1","133.8","19.2","2","-1","-1","","","","","","","","","","","","",""
"psychophysics","97","289677","0.0-10.0-0.9","60998e29280e93d7614351df","609006691f6f4e337c17f836","609a6162fac8687e8bb83fd2","314.74500003969297","","","","37","","","","key","16.666987179487478","960","503.5","true","-1","133.8","19.2","2","-1","-1","","","","","","","","","","","","",""
"psychophysics","98","291261","0.0-10.0-0.10","60998e29280e93d7614351df","609006691f6f4e337c17f836","609a6162fac8687e8bb83fd2","579.959999944549","","","","37","","","","key","16.665329787233706","960","503.5","true","1","129","15.36","3","1","-1","","","","","","","","","","","","",""
"psychophysics","99","292503","0.0-10.0-0.11","60998e29280e93d7614351df","609006691f6f4e337c17f836","609a6162fac8687e8bb83fd2","240.67500000819564","","","","37","","","","key","16.66736486486499","960","503.5","true","-1","144.36","15.36","3","-1","1","","","","","","","","","","","","",""
"psychophysics","100","293713","0.0-10.0-0.12","60998e29280e93d7614351df","609006691f6f4e337c17f836","609a6162fac8687e8bb83fd2","207.29500002926216","","","","37","","","","key","16.666408450704257","960","503.5","true","-1","144.36","12.287999999999998","4","-1","-1","","","","","","","","","","","","",""
"psychophysics","101","294962","0.0-10.0-0.13","60998e29280e93d7614351df","609006691f6f4e337c17f836","609a6162fac8687e8bb83fd2","244.7950000059791","","","","39","","","","key","16.66705405405436","960","503.5","true","1","132.072","12.287999999999998","4","-1","-1","","","","","","","","","","","","",""
"psychophysics","102","296233","0.0-10.0-0.14","60998e29280e93d7614351df","609006691f6f4e337c17f836","609a6162fac8687e8bb83fd2","267.9000000352971","","","","39","","","","key","16.667053333333072","960","503.5","true","1","132.072","12.287999999999998","4","-1","-1","","","","","","","","","","","","",""
"psychophysics","103","298338","0.0-10.0-0.15","60998e29280e93d7614351df","609006691f6f4e337c17f836","609a6162fac8687e8bb83fd2","1101.7199999769218","","","","37","","","","key","16.667753968254335","960","503.5","true","-1","129","12.287999999999998","4","-1","-1","","","","","","","","","","","","",""
"psychophysics","104","299932","0.0-10.0-0.16","60998e29280e93d7614351df","609006691f6f4e337c17f836","609a6162fac8687e8bb83fd2","589.2049999674782","","","","37","","","","key","16.666691489361643","960","503.5","true","1","129","9.8304","5","1","-1","","","","","","","","","","","","",""
"psychophysics","105","301055","0.0-10.0-0.17","60998e29280e93d7614351df","609006691f6f4e337c17f836","609a6162fac8687e8bb83fd2","120.92000001575798","","","","39","","","","key","16.665835820896024","960","503.5","true","1","138.8304","9.8304","5","-1","1","","","","","","","","","","","","",""
"psychophysics","106","302103","0.0-10.0-0.18","60998e29280e93d7614351df","609006691f6f4e337c17f836","609a6162fac8687e8bb83fd2","45.12500000419095","","","","39","","","","key","16.666467741935424","960","503.5","true","1","138.8304","7.864319999999999","6","-1","-1","","","","","","","","","","","","",""
"psychophysics","107","303807","0.0-10.0-0.19","60998e29280e93d7614351df","609006691f6f4e337c17f836","609a6162fac8687e8bb83fd2","702.8400000417605","","","","39","","","","key","16.666613861386512","960","503.5","true","1","130.96608","7.864319999999999","6","-1","-1","","","","","","","","","","","","",""
"psychophysics","108","305227","0.0-10.0-0.20","60998e29280e93d7614351df","609006691f6f4e337c17f836","609a6162fac8687e8bb83fd2","416.9899999978952","","","","37","","","","key","16.66648809523793","960","503.5","true","-1","130.96608","7.864319999999999","6","-1","-1","","","","","","","","","","","","",""
"psychophysics","109","306971","0.0-10.0-0.21","60998e29280e93d7614351df","609006691f6f4e337c17f836","609a6162fac8687e8bb83fd2","740.990000020247","","","","37","","","","key","16.666346153846042","960","503.5","true","-1","129","7.864319999999999","6","-1","-1","","","","","","","","","","","","",""
"psychophysics","110","308384","0.0-10.0-0.22","60998e29280e93d7614351df","609006691f6f4e337c17f836","609a6162fac8687e8bb83fd2","410.2100000018254","","","","39","","","","key","16.666204819276913","960","503.5","true","-1","129","6.291456","7","1","-1","","","","","","","","","","","","",""
"psychophysics","111","309740","0.0-10.0-0.23","60998e29280e93d7614351df","609006691f6f4e337c17f836","609a6162fac8687e8bb83fd2","353.94999996060506","","","","39","","","","key","16.666530864197547","960","503.5","true","1","135.291456","6.291456","7","-1","1","","","","","","","","","","","","",""
"psychophysics","112","311010","0.0-10.0-0.24","60998e29280e93d7614351df","609006691f6f4e337c17f836","609a6162fac8687e8bb83fd2","267.90999999502674","","","","37","","","","key","16.665933333333427","960","503.5","true","-1","135.291456","5.033164800000001","8","-1","-1","","","","","","","","","","","","",""
"psychophysics","113","312500","0.0-10.0-0.25","60998e29280e93d7614351df","609006691f6f4e337c17f836","609a6162fac8687e8bb83fd2","486.06999998446554","","","","39","","","","key","16.666977272727475","960","503.5","true","-1","130.2582912","4.0265318400000005","9","1","-1","","","","","","","","","","","","",""
"psychophysics","114","313694","0.0-10.0-0.26","60998e29280e93d7614351df","609006691f6f4e337c17f836","609a6162fac8687e8bb83fd2","192.5700000138022","","","","39","","","","key","16.6663098591552","960","503.5","true","1","134.28482304","4.0265318400000005","9","-1","1","","","","","","","","","","","","",""
"psychophysics","115","314892","0.0-10.0-0.27","60998e29280e93d7614351df","609006691f6f4e337c17f836","609a6162fac8687e8bb83fd2","194.66000003740191","","","","37","","","","key","16.666126760563152","960","503.5","true","-1","134.28482304","3.2212254720000004","10","-1","-1","","","","","","","","","","","","",""
"psychophysics","116","316811","0.0-10.0-0.28","60998e29280e93d7614351df","609006691f6f4e337c17f836","609a6162fac8687e8bb83fd2","916.4299999829382","","","","37","","","","key","16.666307017543627","960","503.5","true","-1","131.06359756799998","3.2212254720000004","10","-1","-1","","","","","","","","","","","","",""
"psychophysics","117","319058","0.0-10.0-0.29","60998e29280e93d7614351df","609006691f6f4e337c17f836","609a6162fac8687e8bb83fd2","1239.2049999907613","","","","39","","","","key","16.666201492537372","960","503.5","true","-1","131.06359756799998","2.5769803776000004","11","1","-1","","","","","","","","","","","","",""
"psychophysics","118","320239","0.0-10.0-0.30","60998e29280e93d7614351df","609006691f6f4e337c17f836","609a6162fac8687e8bb83fd2","177.7400000137277","","","","39","","","","key","16.666242857142684","960","503.5","true","1","133.64057794559997","2.5769803776000004","11","-1","1","","","","","","","","","","","","",""
"psychophysics","119","321458","0.0-10.0-0.31","60998e29280e93d7614351df","609006691f6f4e337c17f836","609a6162fac8687e8bb83fd2","205.19499998772517","","","","39","","","","key","16.66654166666639","960","503.5","true","1","133.64057794559997","2.0615843020800004","12","-1","-1","","","","","","","","","","","","",""
"psychophysics","120","322988","0.0-10.0-0.32","60998e29280e93d7614351df","609006691f6f4e337c17f836","609a6162fac8687e8bb83fd2","519.2149999784306","","","","39","","","","key","16.852433333333142","960","503.5","true","-1","131.57899364351996","1.6492674416640005","13","1","-1","","","","","","","","","","","","",""
"psychophysics","121","324210","0.0-10.0-0.33","60998e29280e93d7614351df","609006691f6f4e337c17f836","609a6162fac8687e8bb83fd2","218.1500000297092","","","","37","","","","key","16.66555555555533","960","503.5","true","-1","133.22826108518396","1.6492674416640005","13","-1","1","","","","","","","","","","","","",""
"psychophysics","122","325353","0.0-10.0-0.34","60998e29280e93d7614351df","609006691f6f4e337c17f836","609a6162fac8687e8bb83fd2","132.75499996962026","","","","37","","","","key","16.667925373134167","960","503.5","true","-1","133.22826108518396","1.3194139533312006","14","-1","-1","","","","","","","","","","","","",""
"psychophysics","123","326445","0.0-10.0-0.35","60998e29280e93d7614351df","609006691f6f4e337c17f836","609a6162fac8687e8bb83fd2","81.42500004032627","","","","37","","","","key","16.665861538461805","960","503.5","true","-1","131.90884713185275","1.3194139533312006","14","-1","-1","","","","","","","","","","","","",""
"psychophysics","124","327694","0.0-10.0-0.36","60998e29280e93d7614351df","609006691f6f4e337c17f836","609a6162fac8687e8bb83fd2","242.08500003442168","","","","39","","","","key","16.66617567567595","960","503.5","true","1","131.90884713185275","1.3194139533312006","14","-1","-1","","","","","","","","","","","","",""
"psychophysics","125","329256","0.0-10.0-0.37","60998e29280e93d7614351df","609006691f6f4e337c17f836","609a6162fac8687e8bb83fd2","554.3349999934435","","","","39","","","","key","16.666795698925227","960","503.5","true","1","130.58943317852155","1.3194139533312006","14","-1","-1","","","","","","","","","","","","",""
"psychophysics","126","331375","0.0-10.0-0.38","60998e29280e93d7614351df","609006691f6f4e337c17f836","609a6162fac8687e8bb83fd2","1106.3699999940582","","","","37","","","","key","16.665119047618994","960","503.5","true","1","130.58943317852155","1.0555311626649604","15","1","-1","","","","","","","","","","","","",""
"psychophysics","127","332422","0.0-10.0-0.39","60998e29280e93d7614351df","609006691f6f4e337c17f836","609a6162fac8687e8bb83fd2","36.82999999728054","","","","37","","","","key","16.667645161289858","960","503.5","true","-1","131.6449643411865","1.0555311626649604","15","-1","1","","","","","","","","","","","","",""
"html-keyboard-response","128","340180","0.0-11.0","60998e29280e93d7614351df","609006691f6f4e337c17f836","609a6162fac8687e8bb83fd2","7755.899999989197","<p>Well Done !</p><p>Prepare for a new block.</p><p>DON'T EXIT THE FULL SCREEN MODE</p><p>Press the Spacebar to start.</p>","","","32","","","","","","","","","","","","","","","true","132.1942219388682","","","","","","","","","","",""
"psychophysics","129","342067","0.0-12.0-0.0","60998e29280e93d7614351df","609006691f6f4e337c17f836","609a6162fac8687e8bb83fd2","882.6349999872036","","","","37","","","","key","16.8158928571429","960","503.5","true","-1","180","30","0","-1","","","","","","","","","","","","","",""
"psychophysics","130","343210","0.0-12.0-0.1","60998e29280e93d7614351df","609006691f6f4e337c17f836","609a6162fac8687e8bb83fd2","132.69999995827675","","","","37","","","","key","16.66548529411803","960","503.5","true","-1","180","30","0","-1","-1","","","","","","","","","","","","",""
"psychophysics","131","344304","0.0-12.0-0.2","60998e29280e93d7614351df","609006691f6f4e337c17f836","609a6162fac8687e8bb83fd2","85.21499997004867","","","","37","","","","key","16.667738461538324","960","503.5","true","-1","150","30","0","-1","-1","","","","","","","","","","","","",""
"psychophysics","132","345431","0.0-12.0-0.3","60998e29280e93d7614351df","609006691f6f4e337c17f836","609a6162fac8687e8bb83fd2","122.18000000575557","","","","37","","","","key","16.66650000000002","960","503.5","true","-1","150","30","0","-1","-1","","","","","","","","","","","","",""
"psychophysics","133","347033","0.0-12.0-0.4","60998e29280e93d7614351df","609006691f6f4e337c17f836","609a6162fac8687e8bb83fd2","597.8949999553151","","","","37","","","","key","16.66688421052623","960","503.5","true","-1","129","30","0","-1","-1","","","","","","","","","","","","",""
"psychophysics","134","348355","0.0-12.0-0.5","60998e29280e93d7614351df","609006691f6f4e337c17f836","609a6162fac8687e8bb83fd2","310.0400000112131","","","","37","","","","key","16.66437974683513","960","503.5","true","1","129","24","1","1","-1","","","","","","","","","","","","",""
"psychophysics","135","349466","0.0-12.0-0.6","60998e29280e93d7614351df","609006691f6f4e337c17f836","609a6162fac8687e8bb83fd2","107.66500001773238","","","","37","","","","key","16.66672307692307","960","503.5","true","-1","153","24","1","-1","1","","","","","","","","","","","","",""
"psychophysics","136","350529","0.0-12.0-0.7","60998e29280e93d7614351df","609006691f6f4e337c17f836","609a6162fac8687e8bb83fd2","61.040000000502914","","","","37","","","","key","16.66720634920611","960","503.5","true","-1","153","19.2","2","-1","-1","","","","","","","","","","","","",""
"psychophysics","137","351793","0.0-12.0-0.8","60998e29280e93d7614351df","609006691f6f4e337c17f836","609a6162fac8687e8bb83fd2","258.32500000251457","","","","37","","","","key","16.665626666666938","960","503.5","true","-1","133.8","19.2","2","-1","-1","","","","","","","","","","","","",""
"psychophysics","138","352920","0.0-12.0-0.9","60998e29280e93d7614351df","609006691f6f4e337c17f836","609a6162fac8687e8bb83fd2","118.74000000534579","","","","39","","","","key","16.66688059701466","960","503.5","true","1","133.8","19.2","2","-1","-1","","","","","","","","","","","","",""
"psychophysics","139","354941","0.0-12.0-0.10","60998e29280e93d7614351df","609006691f6f4e337c17f836","609a6162fac8687e8bb83fd2","1008.6149999988265","","","","39","","","","key","16.66685833333322","960","503.5","true","1","129","19.2","2","-1","-1","","","","","","","","","","","","",""
"psychophysics","140","356397","0.0-12.0-0.11","60998e29280e93d7614351df","609006691f6f4e337c17f836","609a6162fac8687e8bb83fd2","447.29499996174127","","","","39","","","","key","16.66637209302348","960","503.5","true","1","129","19.2","2","-1","-1","","","","","","","","","","","","",""
"psychophysics","141","357744","0.0-12.0-0.12","60998e29280e93d7614351df","609006691f6f4e337c17f836","609a6162fac8687e8bb83fd2","344.3800000241026","","","","37","","","","key","16.666424999999435","960","503.5","true","-1","129","19.2","2","-1","-1","","","","","","","","","","","","",""
"psychophysics","142","359072","0.0-12.0-0.13","60998e29280e93d7614351df","609006691f6f4e337c17f836","609a6162fac8687e8bb83fd2","320.6550000468269","","","","39","","","","key","16.66567088607581","960","503.5","true","1","129","19.2","2","-1","-1","","","","","","","","","","","","",""
"psychophysics","143","360402","0.0-12.0-0.14","60998e29280e93d7614351df","609006691f6f4e337c17f836","609a6162fac8687e8bb83fd2","315.76500000664964","","","","37","","","","key","16.666551282051024","960","503.5","true","-1","129","19.2","2","-1","-1","","","","","","","","","","","","",""
"psychophysics","144","361711","0.0-12.0-0.15","60998e29280e93d7614351df","609006691f6f4e337c17f836","609a6162fac8687e8bb83fd2","305.79000001307577","","","","39","","","","key","16.665935897436263","960","503.5","true","-1","129","15.36","3","1","-1","","","","","","","","","","","","",""
"psychophysics","145","362893","0.0-12.0-0.16","60998e29280e93d7614351df","609006691f6f4e337c17f836","609a6162fac8687e8bb83fd2","175.7400000351481","","","","39","","","","key","16.666814285714644","960","503.5","true","1","144.36","15.36","3","-1","1","","","","","","","","","","","","",""
"psychophysics","146","364070","0.0-12.0-0.17","60998e29280e93d7614351df","609006691f6f4e337c17f836","609a6162fac8687e8bb83fd2","172.41500003729016","","","","39","","","","key","16.66594285714257","960","503.5","true","1","144.36","12.287999999999998","4","-1","-1","","","","","","","","","","","","",""
"psychophysics","147","365934","0.0-12.0-0.18","60998e29280e93d7614351df","609006691f6f4e337c17f836","609a6162fac8687e8bb83fd2","860.3049999801442","","","","39","","","","key","16.66700909090895","960","503.5","true","-1","132.072","9.8304","5","1","-1","","","","","","","","","","","","",""
"psychophysics","148","367086","0.0-12.0-0.19","60998e29280e93d7614351df","609006691f6f4e337c17f836","609a6162fac8687e8bb83fd2","143.54499999899417","","","","39","","","","key","16.666492753623363","960","503.5","true","1","141.9024","9.8304","5","-1","1","","","","","","","","","","","","",""
"psychophysics","149","368218","0.0-12.0-0.20","60998e29280e93d7614351df","609006691f6f4e337c17f836","609a6162fac8687e8bb83fd2","124.68000000808388","","","","39","","","","key","16.66592537313387","960","503.5","true","1","141.9024","7.864319999999999","6","-1","-1","","","","","","","","","","","","",""
"psychophysics","150","369326","0.0-12.0-0.21","60998e29280e93d7614351df","609006691f6f4e337c17f836","609a6162fac8687e8bb83fd2","102.454999985639","","","","37","","","","key","16.666769230769624","960","503.5","true","-1","134.03808","7.864319999999999","6","-1","-1","","","","","","","","","","","","",""
"psychophysics","151","370431","0.0-12.0-0.22","60998e29280e93d7614351df","609006691f6f4e337c17f836","609a6162fac8687e8bb83fd2","96.69500001473352","","","","37","","","","key","16.667507692307343","960","503.5","true","-1","134.03808","7.864319999999999","6","-1","-1","","","","","","","","","","","","",""
"psychophysics","152","371776","0.0-12.0-0.23","60998e29280e93d7614351df","609006691f6f4e337c17f836","609a6162fac8687e8bb83fd2","341.22499998193234","","","","37","","","","key","16.665524999999615","960","503.5","true","1","129","6.291456","7","1","-1","","","","","","","","","","","","",""
"psychophysics","153","372947","0.0-12.0-0.24","60998e29280e93d7614351df","609006691f6f4e337c17f836","609a6162fac8687e8bb83fd2","163.29499997664243","","","","37","","","","key","16.665492753623106","960","503.5","true","-1","135.291456","6.291456","7","-1","1","","","","","","","","","","","","",""
"psychophysics","154","373997","0.0-12.0-0.25","60998e29280e93d7614351df","609006691f6f4e337c17f836","609a6162fac8687e8bb83fd2","45.79500004183501","","","","39","","","","key","16.665741935484075","960","503.5","true","1","135.291456","5.033164800000001","8","-1","-1","","","","","","","","","","","","",""
"psychophysics","155","375447","0.0-12.0-0.26","60998e29280e93d7614351df","609006691f6f4e337c17f836","609a6162fac8687e8bb83fd2","447.7999999653548","","","","37","","","","key","16.86261176470571","960","503.5","true","1","130.2582912","4.0265318400000005","9","1","-1","","","","","","","","","","","","",""
"psychophysics","156","376516","0.0-12.0-0.27","60998e29280e93d7614351df","609006691f6f4e337c17f836","609a6162fac8687e8bb83fd2","65.15500001842156","","","","39","","","","key","16.66677777777751","960","503.5","true","1","134.28482304","4.0265318400000005","9","-1","1","","","","","","","","","","","","",""
"psychophysics","157","377600","0.0-12.0-0.28","60998e29280e93d7614351df","609006691f6f4e337c17f836","609a6162fac8687e8bb83fd2","66.70000002486631","","","","39","","","","key","16.66643750000003","960","503.5","true","1","134.28482304","3.2212254720000004","10","-1","-1","","","","","","","","","","","","",""
"psychophysics","158","379032","0.0-12.0-0.29","60998e29280e93d7614351df","609006691f6f4e337c17f836","609a6162fac8687e8bb83fd2","427.7599999913946","","","","39","","","","key","16.665623529411523","960","503.5","true","1","131.06359756799998","3.2212254720000004","10","-1","-1","","","","","","","","","","","","",""
"psychophysics","159","380125","0.0-12.0-0.30","60998e29280e93d7614351df","609006691f6f4e337c17f836","609a6162fac8687e8bb83fd2","91.42499999143183","","","","37","","","","key","16.6672307692307","960","503.5","true","1","131.06359756799998","2.5769803776000004","11","1","-1","","","","","","","","","","","","",""
"psychophysics","160","381170","0.0-12.0-0.31","60998e29280e93d7614351df","609006691f6f4e337c17f836","609a6162fac8687e8bb83fd2","36.95999999763444","","","","37","","","","key","16.66661290322607","960","503.5","true","-1","133.64057794559997","2.5769803776000004","11","-1","1","","","","","","","","","","","","",""
"psychophysics","161","383019","0.0-12.0-0.32","60998e29280e93d7614351df","609006691f6f4e337c17f836","609a6162fac8687e8bb83fd2","840.3799999505281","","","","39","","","","key","16.666372727272524","960","503.5","true","1","133.64057794559997","2.0615843020800004","12","-1","-1","","","","","","","","","","","","",""
"psychophysics","162","384343","0.0-12.0-0.33","60998e29280e93d7614351df","609006691f6f4e337c17f836","609a6162fac8687e8bb83fd2","309.575000021141","","","","39","","","","key","16.666807692307675","960","503.5","true","1","131.57899364351996","2.0615843020800004","12","-1","-1","","","","","","","","","","","","",""
"psychophysics","163","385424","0.0-12.0-0.34","60998e29280e93d7614351df","609006691f6f4e337c17f836","609a6162fac8687e8bb83fd2","77.77999999234453","","","","37","","","","key","16.66534374999992","960","503.5","true","-1","131.57899364351996","2.0615843020800004","12","-1","-1","","","","","","","","","","","","",""
"psychophysics","164","386959","0.0-12.0-0.35","60998e29280e93d7614351df","609006691f6f4e337c17f836","609a6162fac8687e8bb83fd2","525.4700000514276","","","","37","","","","key","16.66645054945052","960","503.5","true","-1","129.51740934143996","2.0615843020800004","12","-1","-1","","","","","","","","","","","","",""
"psychophysics","165","388670","0.0-12.0-0.36","60998e29280e93d7614351df","609006691f6f4e337c17f836","609a6162fac8687e8bb83fd2","703.0849999864586","","","","39","","","","key","16.666539215686498","960","503.5","true","1","129.51740934143996","2.0615843020800004","12","-1","-1","","","","","","","","","","","","",""
"psychophysics","166","389928","0.0-12.0-0.37","60998e29280e93d7614351df","609006691f6f4e337c17f836","609a6162fac8687e8bb83fd2","245.30499998945743","","","","39","","","","key","16.66547297297291","960","503.5","true","1","129","2.0615843020800004","12","-1","-1","","","","","","","","","","","","",""
"psychophysics","167","391291","0.0-12.0-0.38","60998e29280e93d7614351df","609006691f6f4e337c17f836","609a6162fac8687e8bb83fd2","360.1699999999255","","","","37","","","","key","16.666888888888664","960","503.5","true","-1","129","2.0615843020800004","12","-1","-1","","","","","","","","","","","","",""
"psychophysics","168","392426","0.0-12.0-0.39","60998e29280e93d7614351df","609006691f6f4e337c17f836","609a6162fac8687e8bb83fd2","125.850000011269","","","","39","","","","key","16.665343283581784","960","503.5","true","-1","129","1.6492674416640005","13","1","-1","","","","","","","","","","","","",""
"html-keyboard-response","169","404845","0.0-13.0","60998e29280e93d7614351df","609006691f6f4e337c17f836","609a6162fac8687e8bb83fd2","12417.06999996677","<p>Well Done !</p><p>Prepare for a new block.</p><p>DON'T EXIT THE FULL SCREEN MODE</p><p>Press the Spacebar to start.</p>","","","32","","","","","","","","","","","","","","","true","131.51470335180798","","","","","","","","","","",""
"html-keyboard-response","170","404961","0.0-14.0","60998e29280e93d7614351df","609006691f6f4e337c17f836","609a6162fac8687e8bb83fd2","null","","","","null","","","","","","","","","","","","","","","","","131.4581139364577","true","134.91622787291539","","","","","","","",""
"instructions","171","460472","0.0-15.0","60998e29280e93d7614351df","609006691f6f4e337c17f836","609a6162fac8687e8bb83fd2","55509.075000009034","","","","","","","[{""page_index"":0,""viewing_time"":18352.599999983795},{""page_index"":1,""viewing_time"":9509.96000005398},{""page_index"":2,""viewing_time"":27646.109999972396}]","","","","","","","","","","","","","","","","","","","","","","","",""
"psychophysics","172","463483","0.0-16.0-0.0","60998e29280e93d7614351df","609006691f6f4e337c17f836","609a6162fac8687e8bb83fd2","null","","","","null","","","","key","16.666483333333357","960","503.5","","","","","","","","","","","","","","","","","","","",""
"psychophysics","173","463992","0.0-16.0-1.0","60998e29280e93d7614351df","609006691f6f4e337c17f836","609a6162fac8687e8bb83fd2","null","","","","null","","","","key","16.66663333333369","960","503.5","","","","","","","","","","","","","135","-1","3","false","","","",""
"psychophysics","174","467986","0.0-16.0-2.0","60998e29280e93d7614351df","609006691f6f4e337c17f836","609a6162fac8687e8bb83fd2","3991.184999991674","","","","77","","","","key","16.66652719665267","960","503.5","","","","","","","","","","","","","","","","","","","",""
"psychophysics","175","468994","0.0-16.0-0.1","60998e29280e93d7614351df","609006691f6f4e337c17f836","609a6162fac8687e8bb83fd2","null","","","","null","","","","key","16.66425423728898","960","503.5","","","","","","","","","","","","","","","","","","","",""
"psychophysics","176","469499","0.0-16.0-1.1","60998e29280e93d7614351df","609006691f6f4e337c17f836","609a6162fac8687e8bb83fd2","null","","","","null","","","","key","16.66837931034388","960","503.5","","","","","","","","","","","","","135","1","5","false","","","",""
"psychophysics","177","469875","0.0-16.0-2.1","60998e29280e93d7614351df","609006691f6f4e337c17f836","609a6162fac8687e8bb83fd2","366.6250000242144","","","","77","","","","key","16.667590909092475","960","503.5","","","","","","","","","","","","","","","","","","","",""
"psychophysics","178","470883","0.0-16.0-0.2","60998e29280e93d7614351df","609006691f6f4e337c17f836","609a6162fac8687e8bb83fd2","null","","","","null","","","","key","16.665186440677704","960","503.5","","","","","","","","","","","","","","","","","","","",""
"psychophysics","179","471396","0.0-16.0-1.2","60998e29280e93d7614351df","609006691f6f4e337c17f836","609a6162fac8687e8bb83fd2","null","","","","null","","","","key","17.24144827586133","960","503.5","","","","","","","","","","","","","135","-1","6","false","","","",""
"psychophysics","180","471685","0.0-16.0-2.2","60998e29280e93d7614351df","609006691f6f4e337c17f836","609a6162fac8687e8bb83fd2","282.34500001417473","","","","77","","","","key","16.66517647058936","960","503.5","","","","","","","","","","","","","","","","","","","",""
"psychophysics","181","472692","0.0-16.0-0.3","60998e29280e93d7614351df","609006691f6f4e337c17f836","609a6162fac8687e8bb83fd2","null","","","","null","","","","key","16.665186440677704","960","503.5","","","","","","","","","","","","","","","","","","","",""
"psychophysics","182","473199","0.0-16.0-1.3","60998e29280e93d7614351df","609006691f6f4e337c17f836","609a6162fac8687e8bb83fd2","null","","","","null","","","","key","16.66548275862066","960","503.5","","","","","","","","","","","","","135","1","3","false","","","",""
"psychophysics","183","473560","0.0-16.0-2.3","60998e29280e93d7614351df","609006691f6f4e337c17f836","609a6162fac8687e8bb83fd2","355.44499999377877","","","","77","","","","key","16.666571428569675","960","503.5","","","","","","","","","","","","","","","","","","","",""
"psychophysics","184","474566","0.0-16.0-0.4","60998e29280e93d7614351df","609006691f6f4e337c17f836","609a6162fac8687e8bb83fd2","null","","","","null","","","","key","16.66620338983021","960","503.5","","","","","","","","","","","","","","","","","","","",""
"psychophysics","185","475083","0.0-16.0-1.4","60998e29280e93d7614351df","609006691f6f4e337c17f836","609a6162fac8687e8bb83fd2","null","","","","null","","","","key","16.665133333334232","960","503.5","","","","","","","","","","","","","135","1","6","false","","","",""
"psychophysics","186","475303","0.0-16.0-2.4","60998e29280e93d7614351df","609006691f6f4e337c17f836","609a6162fac8687e8bb83fd2","215.18499997910112","","","","77","","","","key","16.66707692307402","960","503.5","","","","","","","","","","","","","","","","","","","",""
"psychophysics","187","476313","0.0-16.0-0.5","60998e29280e93d7614351df","609006691f6f4e337c17f836","609a6162fac8687e8bb83fd2","null","","","","null","","","","key","16.953120689654465","960","503.5","","","","","","","","","","","","","","","","","","","",""
"psychophysics","188","476817","0.0-16.0-1.5","60998e29280e93d7614351df","609006691f6f4e337c17f836","609a6162fac8687e8bb83fd2","null","","","","null","","","","key","16.667866666667397","960","503.5","","","","","","","","","","","","","135","-1","4","false","","","",""
"psychophysics","189","477117","0.0-16.0-2.5","60998e29280e93d7614351df","609006691f6f4e337c17f836","609a6162fac8687e8bb83fd2","297.4299999768846","","","","77","","","","key","16.661529411767226","960","503.5","","","","","","","","","","","","","","","","","","","",""
"psychophysics","190","478132","0.0-16.0-0.6","60998e29280e93d7614351df","609006691f6f4e337c17f836","609a6162fac8687e8bb83fd2","null","","","","null","","","","key","16.66627118644064","960","503.5","","","","","","","","","","","","","","","","","","","",""
"psychophysics","191","478648","0.0-16.0-1.6","60998e29280e93d7614351df","609006691f6f4e337c17f836","609a6162fac8687e8bb83fd2","null","","","","null","","","","key","16.668866666666386","960","503.5","","","","","","","","","","","","","135","1","2","false","","","",""
"psychophysics","192","478945","0.0-16.0-2.6","60998e29280e93d7614351df","609006691f6f4e337c17f836","609a6162fac8687e8bb83fd2","290.6550000188872","","","","90","","","","key","16.663058823529248","960","503.5","","","","","","","","","","","","","","","","","","","",""
"psychophysics","193","479949","0.0-16.0-0.7","60998e29280e93d7614351df","609006691f6f4e337c17f836","609a6162fac8687e8bb83fd2","null","","","","null","","","","key","16.665254237288135","960","503.5","","","","","","","","","","","","","","","","","","","",""
"psychophysics","194","480464","0.0-16.0-1.7","60998e29280e93d7614351df","609006691f6f4e337c17f836","609a6162fac8687e8bb83fd2","null","","","","null","","","","key","16.664633333333768","960","503.5","","","","","","","","","","","","","135","1","0","false","","","",""
"psychophysics","195","480691","0.0-16.0-2.7","60998e29280e93d7614351df","609006691f6f4e337c17f836","609a6162fac8687e8bb83fd2","223.969999991823","","","","90","","","","key","16.66223076923052","960","503.5","","","","","","","","","","","","","","","","","","","",""
"psychophysics","196","481699","0.0-16.0-0.8","60998e29280e93d7614351df","609006691f6f4e337c17f836","609a6162fac8687e8bb83fd2","null","","","","null","","","","key","16.66633898305107","960","503.5","","","","","","","","","","","","","","","","","","","",""
"psychophysics","197","482205","0.0-16.0-1.8","60998e29280e93d7614351df","609006691f6f4e337c17f836","609a6162fac8687e8bb83fd2","null","","","","null","","","","key","16.668233333332076","960","503.5","","","","","","","","","","","","","135","-1","2","false","","","",""
"psychophysics","198","482395","0.0-16.0-2.8","60998e29280e93d7614351df","609006691f6f4e337c17f836","609a6162fac8687e8bb83fd2","186.61500001326203","","","","77","","","","key","16.661999999999534","960","503.5","","","","","","","","","","","","","","","","","","","",""
"psychophysics","199","483399","0.0-16.0-0.9","60998e29280e93d7614351df","609006691f6f4e337c17f836","609a6162fac8687e8bb83fd2","null","","","","null","","","","key","16.66654237288137","960","503.5","","","","","","","","","","","","","","","","","","","",""
"psychophysics","200","483910","0.0-16.0-1.9","60998e29280e93d7614351df","609006691f6f4e337c17f836","609a6162fac8687e8bb83fd2","null","","","","null","","","","key","16.665866666665533","960","503.5","","","","","","","","","","","","","135","-1","5","false","","","",""
"psychophysics","201","484241","0.0-16.0-2.9","60998e29280e93d7614351df","609006691f6f4e337c17f836","609a6162fac8687e8bb83fd2","326.04000001447275","","","","77","","","","key","16.66831578947236","960","503.5","","","","","","","","","","","","","","","","","","","",""
"psychophysics","202","485249","0.0-16.0-0.10","60998e29280e93d7614351df","609006691f6f4e337c17f836","609a6162fac8687e8bb83fd2","null","","","","null","","","","key","16.666457627118582","960","503.5","","","","","","","","","","","","","","","","","","","",""
"psychophysics","203","485756","0.0-16.0-1.10","60998e29280e93d7614351df","609006691f6f4e337c17f836","609a6162fac8687e8bb83fd2","null","","","","null","","","","key","16.666400000000916","960","503.5","","","","","","","","","","","","","135","1","4","false","","","",""
"psychophysics","204","486134","0.0-16.0-2.10","60998e29280e93d7614351df","609006691f6f4e337c17f836","609a6162fac8687e8bb83fd2","374.4099999894388","","","","77","","","","key","16.665409090907566","960","503.5","","","","","","","","","","","","","","","","","","","",""
"psychophysics","205","487145","0.0-16.0-0.11","60998e29280e93d7614351df","609006691f6f4e337c17f836","609a6162fac8687e8bb83fd2","null","","","","null","","","","key","16.667288135593143","960","503.5","","","","","","","","","","","","","","","","","","","",""
"psychophysics","206","487649","0.0-16.0-1.11","60998e29280e93d7614351df","609006691f6f4e337c17f836","609a6162fac8687e8bb83fd2","null","","","","null","","","","key","16.66396551724154","960","503.5","","","","","","","","","","","","","135","-1","0","false","","","",""
"psychophysics","207","488606","0.0-16.0-2.11","60998e29280e93d7614351df","609006691f6f4e337c17f836","609a6162fac8687e8bb83fd2","955.2649999968708","","","","77","","","","key","16.66512280701672","960","503.5","","","","","","","","","","","","","","","","","","","",""
"psychophysics","208","489614","0.0-16.0-0.12","60998e29280e93d7614351df","609006691f6f4e337c17f836","609a6162fac8687e8bb83fd2","null","","","","null","","","","key","16.66633898305107","960","503.5","","","","","","","","","","","","","","","","","","","",""
"psychophysics","209","490116","0.0-16.0-1.12","60998e29280e93d7614351df","609006691f6f4e337c17f836","609a6162fac8687e8bb83fd2","null","","","","null","","","","key","16.667933333333348","960","503.5","","","","","","","","","","","","","135","-1","4","false","","","",""
"psychophysics","210","490407","0.0-16.0-2.12","60998e29280e93d7614351df","609006691f6f4e337c17f836","609a6162fac8687e8bb83fd2","288.5649999952875","","","","77","","","","key","16.672124999997322","960","503.5","","","","","","","","","","","","","","","","","","","",""
"psychophysics","211","491416","0.0-16.0-0.13","60998e29280e93d7614351df","609006691f6f4e337c17f836","609a6162fac8687e8bb83fd2","null","","","","null","","","","key","16.66788135593169","960","503.5","","","","","","","","","","","","","","","","","","","",""
"psychophysics","212","491920","0.0-16.0-1.13","60998e29280e93d7614351df","609006691f6f4e337c17f836","609a6162fac8687e8bb83fd2","null","","","","null","","","","key","16.665900000000452","960","503.5","","","","","","","","","","","","","135","1","2","false","","","",""
"psychophysics","213","492254","0.0-16.0-2.13","60998e29280e93d7614351df","609006691f6f4e337c17f836","609a6162fac8687e8bb83fd2","331.79500000551343","","","","90","","","","key","16.666052631577355","960","503.5","","","","","","","","","","","","","","","","","","","",""
"psychophysics","214","493265","0.0-16.0-0.14","60998e29280e93d7614351df","609006691f6f4e337c17f836","609a6162fac8687e8bb83fd2","null","","","","null","","","","key","16.666423728812873","960","503.5","","","","","","","","","","","","","","","","","","","",""
"psychophysics","215","493782","0.0-16.0-1.14","60998e29280e93d7614351df","609006691f6f4e337c17f836","609a6162fac8687e8bb83fd2","null","","","","null","","","","key","16.66559999999978","960","503.5","","","","","","","","","","","","","135","1","4","false","","","",""
"psychophysics","216","493972","0.0-16.0-2.14","60998e29280e93d7614351df","609006691f6f4e337c17f836","609a6162fac8687e8bb83fd2","184.65999996988103","","","","77","","","","key","16.669818181814414","960","503.5","","","","","","","","","","","","","","","","","","","",""
"psychophysics","217","494982","0.0-16.0-0.15","60998e29280e93d7614351df","609006691f6f4e337c17f836","609a6162fac8687e8bb83fd2","null","","","","null","","","","key","16.665711864406813","960","503.5","","","","","","","","","","","","","","","","","","","",""
"psychophysics","218","495489","0.0-16.0-1.15","60998e29280e93d7614351df","609006691f6f4e337c17f836","609a6162fac8687e8bb83fd2","null","","","","null","","","","key","16.668066666667194","960","503.5","","","","","","","","","","","","","135","1","6","false","","","",""
"psychophysics","219","496343","0.0-16.0-2.15","60998e29280e93d7614351df","609006691f6f4e337c17f836","609a6162fac8687e8bb83fd2","850.2950000111014","","","","77","","","","key","16.664919999999693","960","503.5","","","","","","","","","","","","","","","","","","","",""
"psychophysics","220","497349","0.0-16.0-0.16","60998e29280e93d7614351df","609006691f6f4e337c17f836","609a6162fac8687e8bb83fd2","null","","","","null","","","","key","16.666966101695326","960","503.5","","","","","","","","","","","","","","","","","","","",""
"psychophysics","221","497858","0.0-16.0-1.16","60998e29280e93d7614351df","609006691f6f4e337c17f836","609a6162fac8687e8bb83fd2","null","","","","null","","","","key","16.667666666665657","960","503.5","","","","","","","","","","","","","135","1","0","false","","","",""
"psychophysics","222","498294","0.0-16.0-2.16","60998e29280e93d7614351df","609006691f6f4e337c17f836","609a6162fac8687e8bb83fd2","432.6700000092387","","","","90","","","","key","16.66339999999851","960","503.5","","","","","","","","","","","","","","","","","","","",""
"psychophysics","223","499298","0.0-16.0-0.17","60998e29280e93d7614351df","609006691f6f4e337c17f836","609a6162fac8687e8bb83fd2","null","","","","null","","","","key","16.665983050847544","960","503.5","","","","","","","","","","","","","","","","","","","",""
"psychophysics","224","499811","0.0-16.0-1.17","60998e29280e93d7614351df","609006691f6f4e337c17f836","609a6162fac8687e8bb83fd2","null","","","","null","","","","key","16.66810000000017","960","503.5","","","","","","","","","","","","","135","-1","2","false","","","",""
"psychophysics","225","500201","0.0-16.0-2.17","60998e29280e93d7614351df","609006691f6f4e337c17f836","609a6162fac8687e8bb83fd2","387.8250000416301","","","","90","","","","key","16.666869565219436","960","503.5","","","","","","","","","","","","","","","","","","","",""
"psychophysics","226","501214","0.0-16.0-0.18","60998e29280e93d7614351df","609006691f6f4e337c17f836","609a6162fac8687e8bb83fd2","null","","","","null","","","","key","16.66718644067799","960","503.5","","","","","","","","","","","","","","","","","","","",""
"psychophysics","227","501728","0.0-16.0-1.18","60998e29280e93d7614351df","609006691f6f4e337c17f836","609a6162fac8687e8bb83fd2","null","","","","null","","","","key","16.665033333333366","960","503.5","","","","","","","","","","","","","135","-1","3","false","","","",""
"psychophysics","228","502017","0.0-16.0-2.18","60998e29280e93d7614351df","609006691f6f4e337c17f836","609a6162fac8687e8bb83fd2","285.2100000018254","","","","77","","","","key","16.66729411764947","960","503.5","","","","","","","","","","","","","","","","","","","",""
"psychophysics","229","503021","0.0-16.0-0.19","60998e29280e93d7614351df","609006691f6f4e337c17f836","609a6162fac8687e8bb83fd2","null","","","","null","","","","key","16.665932203389474","960","503.5","","","","","","","","","","","","","","","","","","","",""
"psychophysics","230","503526","0.0-16.0-1.19","60998e29280e93d7614351df","609006691f6f4e337c17f836","609a6162fac8687e8bb83fd2","null","","","","null","","","","key","16.664689655172847","960","503.5","","","","","","","","","","","","","135","1","3","false","","","",""
"psychophysics","231","504094","0.0-16.0-2.19","60998e29280e93d7614351df","609006691f6f4e337c17f836","609a6162fac8687e8bb83fd2","565.7599999685772","","","","90","","","","key","16.665909090908386","960","503.5","","","","","","","","","","","","","","","","","","","",""
"psychophysics","232","505099","0.0-16.0-0.20","60998e29280e93d7614351df","609006691f6f4e337c17f836","609a6162fac8687e8bb83fd2","null","","","","null","","","","key","16.66818644067813","960","503.5","","","","","","","","","","","","","","","","","","","",""
"psychophysics","233","505608","0.0-16.0-1.20","60998e29280e93d7614351df","609006691f6f4e337c17f836","609a6162fac8687e8bb83fd2","null","","","","null","","","","key","16.66570000000065","960","503.5","","","","","","","","","","","","","135","1","5","false","","","",""
"psychophysics","234","505896","0.0-16.0-2.20","60998e29280e93d7614351df","609006691f6f4e337c17f836","609a6162fac8687e8bb83fd2","283.92499999608845","","","","77","","","","key","16.665062500000204","960","503.5","","","","","","","","","","","","","","","","","","","",""
"psychophysics","235","506899","0.0-16.0-0.21","60998e29280e93d7614351df","609006691f6f4e337c17f836","609a6162fac8687e8bb83fd2","null","","","","null","","","","key","16.665966101695183","960","503.5","","","","","","","","","","","","","","","","","","","",""
"psychophysics","236","507404","0.0-16.0-1.21","60998e29280e93d7614351df","609006691f6f4e337c17f836","609a6162fac8687e8bb83fd2","null","","","","null","","","","key","16.663833333332636","960","503.5","","","","","","","","","","","","","135","-1","6","false","","","",""
"psychophysics","237","508363","0.0-16.0-2.21","60998e29280e93d7614351df","609006691f6f4e337c17f836","609a6162fac8687e8bb83fd2","955.4450000287034","","","","90","","","","key","16.667160714285274","960","503.5","","","","","","","","","","","","","","","","","","","",""
"psychophysics","238","509365","0.0-16.0-0.22","60998e29280e93d7614351df","609006691f6f4e337c17f836","609a6162fac8687e8bb83fd2","null","","","","null","","","","key","16.66652542372901","960","503.5","","","","","","","","","","","","","","","","","","","",""
"psychophysics","239","509868","0.0-16.0-1.22","60998e29280e93d7614351df","609006691f6f4e337c17f836","609a6162fac8687e8bb83fd2","null","","","","null","","","","key","16.66610000000025","960","503.5","","","","","","","","","","","","","135","-1","0","false","","","",""
"psychophysics","240","510310","0.0-16.0-2.22","60998e29280e93d7614351df","609006691f6f4e337c17f836","609a6162fac8687e8bb83fd2","439.44500002544373","","","","90","","","","key","16.66752000000095","960","503.5","","","","","","","","","","","","","","","","","","","",""
"psychophysics","241","511315","0.0-16.0-0.23","60998e29280e93d7614351df","609006691f6f4e337c17f836","609a6162fac8687e8bb83fd2","null","","","","null","","","","key","16.952913793103953","960","503.5","","","","","","","","","","","","","","","","","","","",""
"psychophysics","242","511822","0.0-16.0-1.23","60998e29280e93d7614351df","609006691f6f4e337c17f836","609a6162fac8687e8bb83fd2","null","","","","null","","","","key","16.666400000000916","960","503.5","","","","","","","","","","","","","135","-1","5","false","","","",""
"psychophysics","243","512180","0.0-16.0-2.23","60998e29280e93d7614351df","609006691f6f4e337c17f836","609a6162fac8687e8bb83fd2","355.3599999868311","","","","77","","","","key","16.669699999998556","960","503.5","","","","","","","","","","","","","","","","","","","",""
"html-keyboard-response","244","523019","0.0-17.0","60998e29280e93d7614351df","609006691f6f4e337c17f836","609a6162fac8687e8bb83fd2","10836.989999981597","<p>Well Done !</p><p>Training Complete. Press the spacebar to start.</p><p>DON'T EXIT THE FULL SCREEN MODE</p>","","","32","","","","","","","","","","","","","","","","","","","","","","","","","","",""
"psychophysics","245","526031","0.0-18.0-0.0","60998e29280e93d7614351df","609006691f6f4e337c17f836","609a6162fac8687e8bb83fd2","null","","","","null","","","","key","16.66643333333389","960","503.5","","","","","","","","","","","","","","","","","","","",""
"psychophysics","246","526542","0.0-18.0-1.0","60998e29280e93d7614351df","609006691f6f4e337c17f836","609a6162fac8687e8bb83fd2","null","","","","null","","","","key","16.66626666666707","960","503.5","","","","","","","","","","","","","135","-1","2","true","","","",""
"psychophysics","247","527045","0.0-18.0-2.0","60998e29280e93d7614351df","609006691f6f4e337c17f836","609a6162fac8687e8bb83fd2","498.19000001298264","","","","90","","","","key","16.666068965516953","960","503.5","","","","","","","","","","","","","","","","","","","",""
"psychophysics","248","528048","0.0-18.0-0.1","60998e29280e93d7614351df","609006691f6f4e337c17f836","609a6162fac8687e8bb83fd2","null","","","","null","","","","key","16.665966101695183","960","503.5","","","","","","","","","","","","","","","","","","","",""
"psychophysics","249","528559","0.0-18.0-1.1","60998e29280e93d7614351df","609006691f6f4e337c17f836","609a6162fac8687e8bb83fd2","null","","","","null","","","","key","16.66893333333234","960","503.5","","","","","","","","","","","","","135","-1","5","true","","","",""
"psychophysics","250","528841","0.0-18.0-2.1","60998e29280e93d7614351df","609006691f6f4e337c17f836","609a6162fac8687e8bb83fd2","279.465000028722","","","","77","","","","key","16.66150000000198","960","503.5","","","","","","","","","","","","","","","","","","","",""
"psychophysics","251","529848","0.0-18.0-0.2","60998e29280e93d7614351df","609006691f6f4e337c17f836","609a6162fac8687e8bb83fd2","null","","","","null","","","","key","16.666220338983557","960","503.5","","","","","","","","","","","","","","","","","","","",""
"psychophysics","252","530350","0.0-18.0-1.2","60998e29280e93d7614351df","609006691f6f4e337c17f836","609a6162fac8687e8bb83fd2","null","","","","null","","","","key","17.245172413792623","960","503.5","","","","","","","","","","","","","135","1","6","true","","","",""
"psychophysics","253","530677","0.0-18.0-2.2","60998e29280e93d7614351df","609006691f6f4e337c17f836","609a6162fac8687e8bb83fd2","325.11999999405816","","","","77","","","","key","16.659388888885992","960","503.5","","","","","","","","","","","","","","","","","","","",""
"psychophysics","254","531680","0.0-18.0-0.3","60998e29280e93d7614351df","609006691f6f4e337c17f836","609a6162fac8687e8bb83fd2","null","","","","null","","","","key","16.6681694915238","960","503.5","","","","","","","","","","","","","","","","","","","",""
"psychophysics","255","532194","0.0-18.0-1.3","60998e29280e93d7614351df","609006691f6f4e337c17f836","609a6162fac8687e8bb83fd2","null","","","","null","","","","key","16.6661666666662","960","503.5","","","","","","","","","","","","","135","1","4","true","","","",""
"psychophysics","256","532444","0.0-18.0-2.3","60998e29280e93d7614351df","609006691f6f4e337c17f836","609a6162fac8687e8bb83fd2","247.1699999878183","","","","77","","","","key","16.66185714285322","960","503.5","","","","","","","","","","","","","","","","","","","",""
"psychophysics","257","533446","0.0-18.0-0.4","60998e29280e93d7614351df","609006691f6f4e337c17f836","609a6162fac8687e8bb83fd2","null","","","","null","","","","key","16.665711864406813","960","503.5","","","","","","","","","","","","","","","","","","","",""
"psychophysics","258","533948","0.0-18.0-1.4","60998e29280e93d7614351df","609006691f6f4e337c17f836","609a6162fac8687e8bb83fd2","null","","","","null","","","","key","16.669344827584954","960","503.5","","","","","","","","","","","","","135","-1","4","true","","","",""
"psychophysics","259","534131","0.0-18.0-2.4","60998e29280e93d7614351df","609006691f6f4e337c17f836","609a6162fac8687e8bb83fd2","179.36000000918284","","","","77","","","","key","16.657500000006983","960","503.5","","","","","","","","","","","","","","","","","","","",""
"psychophysics","260","535132","0.0-18.0-0.5","60998e29280e93d7614351df","609006691f6f4e337c17f836","609a6162fac8687e8bb83fd2","null","","","","null","","","","key","16.668249999999535","960","503.5","","","","","","","","","","","","","","","","","","","",""
"psychophysics","261","535644","0.0-18.0-1.5","60998e29280e93d7614351df","609006691f6f4e337c17f836","609a6162fac8687e8bb83fd2","null","","","","null","","","","key","16.66351724137825","960","503.5","","","","","","","","","","","","","135","-1","3","true","","","",""
"psychophysics","262","535911","0.0-18.0-2.5","60998e29280e93d7614351df","609006691f6f4e337c17f836","609a6162fac8687e8bb83fd2","265.15499997185543","","","","77","","","","key","16.667799999999502","960","503.5","","","","","","","","","","","","","","","","","","","",""
"psychophysics","263","536915","0.0-18.0-0.6","60998e29280e93d7614351df","609006691f6f4e337c17f836","609a6162fac8687e8bb83fd2","null","","","","null","","","","key","16.667050847458118","960","503.5","","","","","","","","","","","","","","","","","","","",""
"psychophysics","264","537418","0.0-18.0-1.6","60998e29280e93d7614351df","609006691f6f4e337c17f836","609a6162fac8687e8bb83fd2","null","","","","null","","","","key","16.666499999999846","960","503.5","","","","","","","","","","","","","135","-1","0","true","","","",""
"psychophysics","265","537745","0.0-18.0-2.6","60998e29280e93d7614351df","609006691f6f4e337c17f836","609a6162fac8687e8bb83fd2","322.87500001257285","","","","90","","","","key","16.666888888886508","960","503.5","","","","","","","","","","","","","","","","","","","",""
"psychophysics","266","538747","0.0-18.0-0.7","60998e29280e93d7614351df","609006691f6f4e337c17f836","609a6162fac8687e8bb83fd2","null","","","","null","","","","key","16.665305084746205","960","503.5","","","","","","","","","","","","","","","","","","","",""
"psychophysics","267","539263","0.0-18.0-1.7","60998e29280e93d7614351df","609006691f6f4e337c17f836","609a6162fac8687e8bb83fd2","null","","","","null","","","","key","16.665933333333427","960","503.5","","","","","","","","","","","","","135","1","5","true","","","",""
"psychophysics","268","540071","0.0-18.0-2.7","60998e29280e93d7614351df","609006691f6f4e337c17f836","609a6162fac8687e8bb83fd2","803.5950000048615","","","","77","","","","key","16.66441666666651","960","503.5","","","","","","","","","","","","","","","","","","","",""
"psychophysics","269","541081","0.0-18.0-0.8","60998e29280e93d7614351df","609006691f6f4e337c17f836","609a6162fac8687e8bb83fd2","null","","","","null","","","","key","16.6667288135603","960","503.5","","","","","","","","","","","","","","","","","","","",""
"psychophysics","270","541592","0.0-18.0-1.8","60998e29280e93d7614351df","609006691f6f4e337c17f836","609a6162fac8687e8bb83fd2","null","","","","null","","","","key","16.668800000000434","960","503.5","","","","","","","","","","","","","135","1","2","true","","","",""
"psychophysics","271","542608","0.0-18.0-2.8","60998e29280e93d7614351df","609006691f6f4e337c17f836","609a6162fac8687e8bb83fd2","1013.0200000130571","","","","77","","","","key","16.665950000000883","960","503.5","","","","","","","","","","","","","","","","","","","",""
"psychophysics","272","543615","0.0-18.0-0.9","60998e29280e93d7614351df","609006691f6f4e337c17f836","609a6162fac8687e8bb83fd2","null","","","","null","","","","key","16.666440677967206","960","503.5","","","","","","","","","","","","","","","","","","","",""
"psychophysics","273","544121","0.0-18.0-1.9","60998e29280e93d7614351df","609006691f6f4e337c17f836","609a6162fac8687e8bb83fd2","null","","","","null","","","","key","16.663200000002202","960","503.5","","","","","","","","","","","","","135","1","3","true","","","",""
"psychophysics","274","544698","0.0-18.0-2.9","60998e29280e93d7614351df","609006691f6f4e337c17f836","609a6162fac8687e8bb83fd2","574.7050000354648","","","","77","","","","key","16.667939393936347","960","503.5","","","","","","","","","","","","","","","","","","","",""
"psychophysics","275","545712","0.0-18.0-0.10","60998e29280e93d7614351df","609006691f6f4e337c17f836","609a6162fac8687e8bb83fd2","null","","","","null","","","","key","16.665249999998682","960","503.5","","","","","","","","","","","","","","","","","","","",""
"psychophysics","276","546215","0.0-18.0-1.10","60998e29280e93d7614351df","609006691f6f4e337c17f836","609a6162fac8687e8bb83fd2","null","","","","null","","","","key","16.670655172414563","960","503.5","","","","","","","","","","","","","135","1","0","true","","","",""
"psychophysics","277","547647","0.0-18.0-2.10","60998e29280e93d7614351df","609006691f6f4e337c17f836","609a6162fac8687e8bb83fd2","1426.7749999999069","","","","90","","","","key","16.66576470588197","960","503.5","","","","","","","","","","","","","","","","","","","",""
"psychophysics","278","548648","0.0-18.0-0.11","60998e29280e93d7614351df","609006691f6f4e337c17f836","609a6162fac8687e8bb83fd2","null","","","","null","","","","key","16.666516666665363","960","503.5","","","","","","","","","","","","","","","","","","","",""
"psychophysics","279","549164","0.0-18.0-1.11","60998e29280e93d7614351df","609006691f6f4e337c17f836","609a6162fac8687e8bb83fd2","null","","","","null","","","","key","16.66458620689408","960","503.5","","","","","","","","","","","","","135","-1","6","true","","","",""
"psychophysics","280","549372","0.0-18.0-2.11","60998e29280e93d7614351df","609006691f6f4e337c17f836","609a6162fac8687e8bb83fd2","205.72999998694286","","","","77","","","","key","16.673750000006596","960","503.5","","","","","","","","","","","","","","","","","","","",""
"psychophysics","281","550381","0.0-18.0-0.12","60998e29280e93d7614351df","609006691f6f4e337c17f836","609a6162fac8687e8bb83fd2","null","","","","null","","","","key","16.665423728813717","960","503.5","","","","","","","","","","","","","","","","","","","",""
"psychophysics","282","550887","0.0-18.0-1.12","60998e29280e93d7614351df","609006691f6f4e337c17f836","609a6162fac8687e8bb83fd2","null","","","","null","","","","key","16.665133333334232","960","503.5","","","","","","","","","","","","","135","-1","3","true","","","",""
"psychophysics","283","551212","0.0-18.0-2.12","60998e29280e93d7614351df","609006691f6f4e337c17f836","609a6162fac8687e8bb83fd2","321.42500003101304","","","","77","","","","key","16.668944444442687","960","503.5","","","","","","","","","","","","","","","","","","","",""
"psychophysics","284","552214","0.0-18.0-0.13","60998e29280e93d7614351df","609006691f6f4e337c17f836","609a6162fac8687e8bb83fd2","null","","","","null","","","","key","16.667508474576792","960","503.5","","","","","","","","","","","","","","","","","","","",""
"psychophysics","285","552723","0.0-18.0-1.13","60998e29280e93d7614351df","609006691f6f4e337c17f836","609a6162fac8687e8bb83fd2","null","","","","null","","","","key","16.666233333332155","960","503.5","","","","","","","","","","","","","135","1","2","true","","","",""
"psychophysics","286","553245","0.0-18.0-2.13","60998e29280e93d7614351df","609006691f6f4e337c17f836","609a6162fac8687e8bb83fd2","519.3200000212528","","","","77","","","","key","16.66559999999978","960","503.5","","","","","","","","","","","","","","","","","","","",""
"psychophysics","287","554248","0.0-18.0-0.14","60998e29280e93d7614351df","609006691f6f4e337c17f836","609a6162fac8687e8bb83fd2","null","","","","null","","","","key","16.665200000000187","960","503.5","","","","","","","","","","","","","","","","","","","",""
"psychophysics","288","554756","0.0-18.0-1.14","60998e29280e93d7614351df","609006691f6f4e337c17f836","609a6162fac8687e8bb83fd2","null","","","","null","","","","key","16.668068965515605","960","503.5","","","","","","","","","","","","","135","1","6","true","","","",""
"psychophysics","289","555065","0.0-18.0-2.14","60998e29280e93d7614351df","609006691f6f4e337c17f836","609a6162fac8687e8bb83fd2","303.04000002797693","","","","77","","","","key","16.665117647060576","960","503.5","","","","","","","","","","","","","","","","","","","",""
"psychophysics","290","556071","0.0-18.0-0.15","60998e29280e93d7614351df","609006691f6f4e337c17f836","609a6162fac8687e8bb83fd2","null","","","","null","","","","key","16.667299999999038","960","503.5","","","","","","","","","","","","","","","","","","","",""
"psychophysics","291","556578","0.0-18.0-1.15","60998e29280e93d7614351df","609006691f6f4e337c17f836","609a6162fac8687e8bb83fd2","null","","","","null","","","","key","16.666310344830734","960","503.5","","","","","","","","","","","","","135","1","0","true","","","",""
"psychophysics","292","556970","0.0-18.0-2.15","60998e29280e93d7614351df","609006691f6f4e337c17f836","609a6162fac8687e8bb83fd2","389.0499999979511","","","","90","","","","key","16.6676521739143","960","503.5","","","","","","","","","","","","","","","","","","","",""
"psychophysics","293","557981","0.0-18.0-0.16","60998e29280e93d7614351df","609006691f6f4e337c17f836","609a6162fac8687e8bb83fd2","null","","","","null","","","","key","16.667271186441766","960","503.5","","","","","","","","","","","","","","","","","","","",""
"psychophysics","294","558485","0.0-18.0-1.16","60998e29280e93d7614351df","609006691f6f4e337c17f836","609a6162fac8687e8bb83fd2","null","","","","null","","","","key","16.663266666668157","960","503.5","","","","","","","","","","","","","135","1","5","true","","","",""
"psychophysics","295","558787","0.0-18.0-2.16","60998e29280e93d7614351df","609006691f6f4e337c17f836","609a6162fac8687e8bb83fd2","299.73000002792105","","","","77","","","","key","16.668235294116826","960","503.5","","","","","","","","","","","","","","","","","","","",""
"psychophysics","296","559794","0.0-18.0-0.17","60998e29280e93d7614351df","609006691f6f4e337c17f836","609a6162fac8687e8bb83fd2","null","","","","null","","","","key","16.666101694916044","960","503.5","","","","","","","","","","","","","","","","","","","",""
"psychophysics","297","560297","0.0-18.0-1.17","60998e29280e93d7614351df","609006691f6f4e337c17f836","609a6162fac8687e8bb83fd2","null","","","","null","","","","key","16.665517241380915","960","503.5","","","","","","","","","","","","","135","-1","6","true","","","",""
"psychophysics","298","560535","0.0-18.0-2.17","60998e29280e93d7614351df","609006691f6f4e337c17f836","609a6162fac8687e8bb83fd2","235.8150000218302","","","","77","","","","key","16.67307142856797","960","503.5","","","","","","","","","","","","","","","","","","","",""
"psychophysics","299","561538","0.0-18.0-0.18","60998e29280e93d7614351df","609006691f6f4e337c17f836","609a6162fac8687e8bb83fd2","null","","","","null","","","","key","16.665203389830065","960","503.5","","","","","","","","","","","","","","","","","","","",""
"psychophysics","300","562048","0.0-18.0-1.18","60998e29280e93d7614351df","609006691f6f4e337c17f836","609a6162fac8687e8bb83fd2","null","","","","null","","","","key","16.669206896551948","960","503.5","","","","","","","","","","","","","135","-1","2","true","","","",""
"psychophysics","301","562327","0.0-18.0-2.18","60998e29280e93d7614351df","609006691f6f4e337c17f836","609a6162fac8687e8bb83fd2","274.5299999951385","","","","90","","","","key","16.661687499996333","960","503.5","","","","","","","","","","","","","","","","","","","",""
"psychophysics","302","563331","0.0-18.0-0.19","60998e29280e93d7614351df","609006691f6f4e337c17f836","609a6162fac8687e8bb83fd2","null","","","","null","","","","key","16.666389830507164","960","503.5","","","","","","","","","","","","","","","","","","","",""
"psychophysics","303","563845","0.0-18.0-1.19","60998e29280e93d7614351df","609006691f6f4e337c17f836","609a6162fac8687e8bb83fd2","null","","","","null","","","","key","16.66406666666347","960","503.5","","","","","","","","","","","","","135","-1","5","true","","","",""
"psychophysics","304","564156","0.0-18.0-2.19","60998e29280e93d7614351df","609006691f6f4e337c17f836","609a6162fac8687e8bb83fd2","307.91000003227964","","","","77","","","","key","16.665999999994206","960","503.5","","","","","","","","","","","","","","","","","","","",""
"psychophysics","305","565158","0.0-18.0-0.20","60998e29280e93d7614351df","609006691f6f4e337c17f836","609a6162fac8687e8bb83fd2","null","","","","null","","","","key","16.668189655172494","960","503.5","","","","","","","","","","","","","","","","","","","",""
"psychophysics","306","565662","0.0-18.0-1.20","60998e29280e93d7614351df","609006691f6f4e337c17f836","609a6162fac8687e8bb83fd2","null","","","","null","","","","key","16.663066666666417","960","503.5","","","","","","","","","","","","","135","-1","4","true","","","",""
"psychophysics","307","565938","0.0-18.0-2.20","60998e29280e93d7614351df","609006691f6f4e337c17f836","609a6162fac8687e8bb83fd2","272.70500001031905","","","","77","","","","key","16.67756250000093","960","503.5","","","","","","","","","","","","","","","","","","","",""
"psychophysics","308","566940","0.0-18.0-0.21","60998e29280e93d7614351df","609006691f6f4e337c17f836","609a6162fac8687e8bb83fd2","null","","","","null","","","","key","16.666525423728025","960","503.5","","","","","","","","","","","","","","","","","","","",""
"psychophysics","309","567443","0.0-18.0-1.21","60998e29280e93d7614351df","609006691f6f4e337c17f836","609a6162fac8687e8bb83fd2","null","","","","null","","","","key","16.66672413792975","960","503.5","","","","","","","","","","","","","135","1","4","true","","","",""
"psychophysics","310","567713","0.0-18.0-2.21","60998e29280e93d7614351df","609006691f6f4e337c17f836","609a6162fac8687e8bb83fd2","267.77500001480803","","","","77","","","","key","16.670999999996276","960","503.5","","","","","","","","","","","","","","","","","","","",""
"psychophysics","311","568716","0.0-18.0-0.22","60998e29280e93d7614351df","609006691f6f4e337c17f836","609a6162fac8687e8bb83fd2","null","","","","null","","","","key","16.665383333332525","960","503.5","","","","","","","","","","","","","","","","","","","",""
"psychophysics","312","569217","0.0-18.0-1.22","60998e29280e93d7614351df","609006691f6f4e337c17f836","609a6162fac8687e8bb83fd2","null","","","","null","","","","key","16.66586206896343","960","503.5","","","","","","","","","","","","","135","-1","0","true","","","",""
"psychophysics","313","569896","0.0-18.0-2.22","60998e29280e93d7614351df","609006691f6f4e337c17f836","609a6162fac8687e8bb83fd2","675.8399999816902","","","","77","","","","key","16.66507692307604","960","503.5","","","","","","","","","","","","","","","","","","","",""
"psychophysics","314","570898","0.0-18.0-0.23","60998e29280e93d7614351df","609006691f6f4e337c17f836","609a6162fac8687e8bb83fd2","null","","","","null","","","","key","16.66553333333383","960","503.5","","","","","","","","","","","","","","","","","","","",""
"psychophysics","315","571401","0.0-18.0-1.23","60998e29280e93d7614351df","609006691f6f4e337c17f836","609a6162fac8687e8bb83fd2","null","","","","null","","","","key","16.6647931034476","960","503.5","","","","","","","","","","","","","135","1","3","true","","","",""
"psychophysics","316","571667","0.0-18.0-2.23","60998e29280e93d7614351df","609006691f6f4e337c17f836","609a6162fac8687e8bb83fd2","262.8149999654852","","","","77","","","","key","16.668399999996957","960","503.5","","","","","","","","","","","","","","","","","","","",""
"psychophysics","317","572669","0.0-18.0-0.24","60998e29280e93d7614351df","609006691f6f4e337c17f836","609a6162fac8687e8bb83fd2","null","","","","null","","","","key","16.66825423728856","960","503.5","","","","","","","","","","","","","","","","","","","",""
"psychophysics","318","573172","0.0-18.0-1.24","60998e29280e93d7614351df","609006691f6f4e337c17f836","609a6162fac8687e8bb83fd2","null","","","","null","","","","key","16.66320689655198","960","503.5","","","","","","","","","","","","","135","-1","5","true","","","",""
"psychophysics","319","573837","0.0-18.0-2.24","60998e29280e93d7614351df","609006691f6f4e337c17f836","609a6162fac8687e8bb83fd2","662.9400000092573","","","","77","","","","key","16.668282051281167","960","503.5","","","","","","","","","","","","","","","","","","","",""
"psychophysics","320","574840","0.0-18.0-0.25","60998e29280e93d7614351df","609006691f6f4e337c17f836","609a6162fac8687e8bb83fd2","null","","","","null","","","","key","16.666457627118582","960","503.5","","","","","","","","","","","","","","","","","","","",""
"psychophysics","321","575342","0.0-18.0-1.25","60998e29280e93d7614351df","609006691f6f4e337c17f836","609a6162fac8687e8bb83fd2","null","","","","null","","","","key","16.6686551724119","960","503.5","","","","","","","","","","","","","135","-1","2","true","","","",""
"psychophysics","322","575649","0.0-18.0-2.25","60998e29280e93d7614351df","609006691f6f4e337c17f836","609a6162fac8687e8bb83fd2","305.3300000028685","","","","90","","","","key","16.670000000000822","960","503.5","","","","","","","","","","","","","","","","","","","",""
"psychophysics","323","576652","0.0-18.0-0.26","60998e29280e93d7614351df","609006691f6f4e337c17f836","609a6162fac8687e8bb83fd2","null","","","","null","","","","key","16.666550000000278","960","503.5","","","","","","","","","","","","","","","","","","","",""
"psychophysics","324","577155","0.0-18.0-1.26","60998e29280e93d7614351df","609006691f6f4e337c17f836","609a6162fac8687e8bb83fd2","null","","","","null","","","","key","16.664689655174854","960","503.5","","","","","","","","","","","","","135","1","3","true","","","",""
"psychophysics","325","577578","0.0-18.0-2.26","60998e29280e93d7614351df","609006691f6f4e337c17f836","609a6162fac8687e8bb83fd2","419.7799999965355","","","","90","","","","key","16.66608333333473","960","503.5","","","","","","","","","","","","","","","","","","","",""
"psychophysics","326","578580","0.0-18.0-0.27","60998e29280e93d7614351df","609006691f6f4e337c17f836","609a6162fac8687e8bb83fd2","null","","","","null","","","","key","16.667406779660652","960","503.5","","","","","","","","","","","","","","","","","","","",""
"psychophysics","327","579083","0.0-18.0-1.27","60998e29280e93d7614351df","609006691f6f4e337c17f836","609a6162fac8687e8bb83fd2","null","","","","null","","","","key","16.66369999999879","960","503.5","","","","","","","","","","","","","135","1","4","true","","","",""
"psychophysics","328","579212","0.0-18.0-2.27","60998e29280e93d7614351df","609006691f6f4e337c17f836","609a6162fac8687e8bb83fd2","126.35000003501773","","","","77","","","","key","16.685166666672256","960","503.5","","","","","","","","","","","","","","","","","","","",""
