"trial_type","trial_index","time_elapsed","internal_node_id","PROLIFIC_PID","STUDY_ID","SESSION_ID","rt","stimulus","button_pressed","success","key_press","responses","isData","view_history","response_type","avg_frame_time","center_x","center_y","isSC","stim_side","trial_luminance","step_size","nReversal","correct","prev_ans","isThreshold","SC_threshold","final_threshold","isLuminance","FF_luminance","luminance","stimSide","ISInt","isFF","question_order","isSPQ","isCAPS","isAQ"
"pavlovia","0","3","0.0-0.0","5fc174a2a1e4b021258895cf","609006691f6f4e337c17f836","609a612d14fe089e4028adf6","","","","","","","","","","","","","","","","","","","","","","","","","","","","","","","",""
"html-button-response","1","23951","0.0-1.0","5fc174a2a1e4b021258895cf","609006691f6f4e337c17f836","609a612d14fe089e4028adf6","23945.92499999999","<div style='background-color: white; width:60%; margin: auto; padding: 50px; text-align: justify; text-justify: inter-word; margin-bottom: 20px;'><h1 style='text-align: center;'>Consent Form</h1><p>Please read this consent form carefully before deciding whether you would like to participate in this study. You have to be 18 years old or older to participate to this study.</p><p style='text-decoration: underline;'>Participation is voluntary:</p><p>It is your choice whether or not to participate in this research. If you choose to participate, you may change your mind and leave the study at any time. Refusal to participate or stopping your participation will involve no penalty or loss of benefits to which you are otherwise entitled.</p><p style='text-decoration: underline;'>Purpose of the Study:</p><p>To understand the mechanisms underlying human perception.</p><p style='text-decoration: underline;'>What you will do in this study:</p><p>You will be presented with a series of visual images and then you will press buttons on the keyboard of your computer to respond to simple questions about the images (e.g. Were one or two images presented?). In addition, you will be asked to complete a questionnaire concerning your beliefs and everyday mental and perceptual experiences.'</p><p style='text-decoration: underline;'> Time Required:</p><p>The study will take 40 minutes to complete. </p><p style='text-decoration: underline;'>Risks:</p><p>There are no anticipated risks associated with participating in this study that are beyond those experienced in everyday life. </p><p style='text-decoration: underline;'>Benefits:</p><p>There are no benefits to you in participating in the study. However, this study may lead to a better understanding of how different kinds of visual information are used.</p><p style='text-decoration: underline;'>Compensation:</p><p>You will be paid US$6.6/hour. </p><p style='text-decoration: underline;'>Privacy and Confidentiality:</p><p>Your participation in this study will be anonymous. No personal information about your name or identity will be asked or recorded. This anonymous data will be stored for several years and may be used for a variety of research purposes. The overall results of the study may be published, or the data files may be shared with other researchers, but your identity will not be revealed in any way. The online services we are using for this study may temporarily store your data, but this data will be downloaded and then promptly deleted from those services.Your data will not be permanently associated with your name, IP address, or any other identifiable information (e.g., your information will only be connected to your payment, not to any of your responses), though they may be temporarily stored together before we download and separate them. Even so, no guarantee of internet survey security can be given because, although unlikely, transmissions can be intercepted and IP addresses can be identified. The anonymous data may be shared publicly (for example, in conjunction with a resulting academic publication).</p><p style='text-decoration: underline;'>Participation and Withdrawal:</p><p>Your participation in this study is completely voluntary. You may stop responding to the stimuli or stop answering questions if you so choose and without penalty by exiting the full screen mode, closing this tab of your browser or redirecting it to a different website.</p><p style='text-decoration: underline;'>Contact Info of the Researcher: </p><p>If you have questions about this study, or if you would like to talk to the research team, please contact David Melcher (david.melcher@nyu.edu, md5050@nyu.edu) at the Perception and Active Cognition Laboratory, New York University Abu Dhabi, Computational Research Building, Saadiyat Island, Abu Dhabi, UAE.This research has been reviewed by the New York University Abu Dhabi Institutional Review Board (NYUAD IRB). To contact about your rights in this research, for questions, suggestions, or complaints that are not addressed by the researchers, please email IRBnyuad@nyu.edu, or call the NYUAD IRB at +971 2 628 4313. </p></div>","0","","","","","","","","","","","","","","","","","","","","","","","","","","","","",""
"fullscreen","2","27139","0.0-2.0","5fc174a2a1e4b021258895cf","609006691f6f4e337c17f836","609a612d14fe089e4028adf6","","","","true","","","","","","","","","","","","","","","","","","","","","","","","","","","",""
"html-keyboard-response","3","57870","0.0-3.0","5fc174a2a1e4b021258895cf","609006691f6f4e337c17f836","609a612d14fe089e4028adf6","30730.500000000116","<p>Welcome !</p><p>READ CAREFULLY THE FOLLOWING INDICATIONS:</p><p>From this moment you have ~40 minutes to complete the experiment.</p><p>During the experiment you will be prompted to take several breaks. Each break should not last longer than 2-3 minutes.</p><p>Make sure that your computer is plugged in and it's not running on battery power, even if the battery is already fully charged.</p><p>Turn off your phone and music, make sure that you are in a quiet room and that you will not be distracted for the next hour.</p><p>Failure to comply with the instructions and indications provided during the experiment will most likely result in the rejection of your data.<p>Press the spacebar to start.</p>","","","32","","","","","","","","","","","","","","","","","","","","","","","","","","",""
"survey-html-form","4","74736","0.0-4.0","5fc174a2a1e4b021258895cf","609006691f6f4e337c17f836","609a612d14fe089e4028adf6","16863.90000000006","","","","","{""age"":""47"",""sex"":""Male""}","true","","","","","","","","","","","","","","","","","","","","","","","","",""
"instructions","5","125331","0.0-5.0","5fc174a2a1e4b021258895cf","609006691f6f4e337c17f836","609a612d14fe089e4028adf6","50594.45500000015","","","","","","","[{""page_index"":0,""viewing_time"":32640.91000000006},{""page_index"":1,""viewing_time"":11541.079999999973},{""page_index"":2,""viewing_time"":6412.129999999932}]","","","","","","","","","","","","","","","","","","","","","","","",""
"psychophysics","6","126437","0.0-6.0-0.0","5fc174a2a1e4b021258895cf","609006691f6f4e337c17f836","609a612d14fe089e4028adf6","101.50999999996566","","","","39","","","","key","16.669776119402986","960","484.5","true","1","180","30","0","-1","","","","","","","","","","","","","",""
"psychophysics","7","127478","0.0-6.0-0.1","5fc174a2a1e4b021258895cf","609006691f6f4e337c17f836","609a612d14fe089e4028adf6","37.94999999990978","","","","39","","","","key","16.668016393442798","960","484.5","true","1","180","30","0","-1","-1","","","","","","","","","","","","",""
"psychophysics","8","132228","0.0-6.0-0.2","5fc174a2a1e4b021258895cf","609006691f6f4e337c17f836","609a612d14fe089e4028adf6","3747.6550000001153","","","","37","","","","key","16.66732746478876","960","484.5","true","-1","150","30","0","-1","-1","","","","","","","","","","","","",""
"psychophysics","9","133584","0.0-6.0-0.3","5fc174a2a1e4b021258895cf","609006691f6f4e337c17f836","609a612d14fe089e4028adf6","352.2949999998964","","","","37","","","","key","16.66956250000003","960","484.5","true","-1","150","30","0","-1","-1","","","","","","","","","","","","",""
"psychophysics","10","136167","0.0-6.0-0.4","5fc174a2a1e4b021258895cf","609006691f6f4e337c17f836","609a612d14fe089e4028adf6","1580.9500000000116","","","","39","","","","key","16.666798701298546","960","484.5","true","-1","129","24","1","1","-1","","","","","","","","","","","","",""
"psychophysics","11","137659","0.0-6.0-0.5","5fc174a2a1e4b021258895cf","609006691f6f4e337c17f836","609a612d14fe089e4028adf6","491.35999999998603","","","","37","","","","key","16.671730337078483","960","484.5","true","-1","153","24","1","-1","1","","","","","","","","","","","","",""
"psychophysics","12","139094","0.0-6.0-0.6","5fc174a2a1e4b021258895cf","609006691f6f4e337c17f836","609a612d14fe089e4028adf6","433.39999999987776","","","","39","","","","key","16.671352941176497","960","484.5","true","1","153","19.2","2","-1","-1","","","","","","","","","","","","",""
"psychophysics","13","141953","0.0-6.0-0.7","5fc174a2a1e4b021258895cf","609006691f6f4e337c17f836","609a612d14fe089e4028adf6","1848.2850000000326","","","","37","","","","key","16.666491228070182","960","484.5","true","-1","133.8","19.2","2","-1","-1","","","","","","","","","","","","",""
"psychophysics","14","144181","0.0-6.0-0.8","5fc174a2a1e4b021258895cf","609006691f6f4e337c17f836","609a612d14fe089e4028adf6","1225.904999999795","","","","39","","","","key","16.664613636363576","960","484.5","true","-1","133.8","15.36","3","1","-1","","","","","","","","","","","","",""
"psychophysics","15","145634","0.0-6.0-0.9","5fc174a2a1e4b021258895cf","609006691f6f4e337c17f836","609a612d14fe089e4028adf6","450.7249999999185","","","","39","","","","key","16.66674712643659","960","484.5","true","1","149.16000000000003","15.36","3","-1","1","","","","","","","","","","","","",""
"psychophysics","16","147148","0.0-6.0-0.10","5fc174a2a1e4b021258895cf","609006691f6f4e337c17f836","609a612d14fe089e4028adf6","513.7449999999953","","","","39","","","","key","16.6665505617978","960","484.5","true","1","149.16000000000003","12.287999999999998","4","-1","-1","","","","","","","","","","","","",""
"psychophysics","17","148591","0.0-6.0-0.11","5fc174a2a1e4b021258895cf","609006691f6f4e337c17f836","609a612d14fe089e4028adf6","441.78000000008615","","","","39","","","","key","16.666988372093076","960","484.5","true","1","136.872","12.287999999999998","4","-1","-1","","","","","","","","","","","","",""
"psychophysics","18","149955","0.0-6.0-0.12","5fc174a2a1e4b021258895cf","609006691f6f4e337c17f836","609a612d14fe089e4028adf6","362.81500000017695","","","","39","","","","key","16.66175308641992","960","484.5","true","1","136.872","12.287999999999998","4","-1","-1","","","","","","","","","","","","",""
"psychophysics","19","152872","0.0-6.0-0.13","5fc174a2a1e4b021258895cf","609006691f6f4e337c17f836","609a612d14fe089e4028adf6","1916.2149999999674","","","","37","","","","key","16.664500000000125","960","484.5","true","1","129","9.8304","5","1","-1","","","","","","","","","","","","",""
"psychophysics","20","154469","0.0-6.0-0.14","5fc174a2a1e4b021258895cf","609006691f6f4e337c17f836","609a612d14fe089e4028adf6","594.5349999999453","","","","37","","","","key","16.667705263157902","960","484.5","true","-1","138.8304","9.8304","5","-1","1","","","","","","","","","","","","",""
"psychophysics","21","156063","0.0-6.0-0.15","5fc174a2a1e4b021258895cf","609006691f6f4e337c17f836","609a612d14fe089e4028adf6","592.8450000001176","","","","37","","","","key","16.669819148936362","960","484.5","true","-1","138.8304","7.864319999999999","6","-1","-1","","","","","","","","","","","","",""
"psychophysics","22","158372","0.0-6.0-0.16","5fc174a2a1e4b021258895cf","609006691f6f4e337c17f836","609a612d14fe089e4028adf6","1307.6300000000047","","","","37","","","","key","16.668021739130474","960","484.5","true","-1","130.96608","7.864319999999999","6","-1","-1","","","","","","","","","","","","",""
"psychophysics","23","160261","0.0-6.0-0.17","5fc174a2a1e4b021258895cf","609006691f6f4e337c17f836","609a612d14fe089e4028adf6","887.7850000001199","","","","37","","","","key","16.66791964285715","960","484.5","true","-1","130.96608","7.864319999999999","6","-1","-1","","","","","","","","","","","","",""
"psychophysics","24","162525","0.0-6.0-0.18","5fc174a2a1e4b021258895cf","609006691f6f4e337c17f836","609a612d14fe089e4028adf6","1262.9150000000373","","","","39","","","","key","16.666733333333266","960","484.5","true","1","129","7.864319999999999","6","-1","-1","","","","","","","","","","","","",""
"psychophysics","25","165511","0.0-6.0-0.19","5fc174a2a1e4b021258895cf","609006691f6f4e337c17f836","609a612d14fe089e4028adf6","1984.5049999999173","","","","37","","","","key","16.666837078651604","960","484.5","true","1","129","6.291456","7","1","-1","","","","","","","","","","","","",""
"psychophysics","26","169207","0.0-6.0-0.20","5fc174a2a1e4b021258895cf","609006691f6f4e337c17f836","609a612d14fe089e4028adf6","2694.199999999895","","","","39","","","","key","16.668343891402706","960","484.5","true","1","135.291456","6.291456","7","-1","1","","","","","","","","","","","","",""
"psychophysics","27","171954","0.0-6.0-0.21","5fc174a2a1e4b021258895cf","609006691f6f4e337c17f836","609a612d14fe089e4028adf6","1745.5800000000163","","","","39","","","","key","16.668402439024494","960","484.5","true","1","135.291456","5.033164800000001","8","-1","-1","","","","","","","","","","","","",""
"psychophysics","28","173462","0.0-6.0-0.22","5fc174a2a1e4b021258895cf","609006691f6f4e337c17f836","609a612d14fe089e4028adf6","506.92499999990105","","","","37","","","","key","16.667044943820205","960","484.5","true","1","130.2582912","4.0265318400000005","9","1","-1","","","","","","","","","","","","",""
"psychophysics","29","176036","0.0-6.0-0.23","5fc174a2a1e4b021258895cf","609006691f6f4e337c17f836","609a612d14fe089e4028adf6","1572.6299999998882","","","","39","","","","key","16.66861688311691","960","484.5","true","-1","134.28482304","4.0265318400000005","9","1","1","","","","","","","","","","","","",""
"psychophysics","30","177456","0.0-6.0-0.24","5fc174a2a1e4b021258895cf","609006691f6f4e337c17f836","609a612d14fe089e4028adf6","418.6950000000652","","","","37","","","","key","16.66297619047622","960","484.5","true","-1","138.31135487999998","4.0265318400000005","9","-1","1","","","","","","","","","","","","",""
"psychophysics","31","179168","0.0-6.0-0.25","5fc174a2a1e4b021258895cf","609006691f6f4e337c17f836","609a612d14fe089e4028adf6","709.0849999999627","","","","39","","","","key","16.66437254901964","960","484.5","true","1","138.31135487999998","3.2212254720000004","10","-1","-1","","","","","","","","","","","","",""
"psychophysics","32","180985","0.0-6.0-0.26","5fc174a2a1e4b021258895cf","609006691f6f4e337c17f836","609a612d14fe089e4028adf6","815.7750000000233","","","","39","","","","key","16.668675925925694","960","484.5","true","1","135.090129408","3.2212254720000004","10","-1","-1","","","","","","","","","","","","",""
"psychophysics","33","182542","0.0-6.0-0.27","5fc174a2a1e4b021258895cf","609006691f6f4e337c17f836","609a612d14fe089e4028adf6","555.9149999998917","","","","39","","","","key","16.667902173912886","960","484.5","true","1","135.090129408","3.2212254720000004","10","-1","-1","","","","","","","","","","","","",""
"psychophysics","34","184184","0.0-6.0-0.28","5fc174a2a1e4b021258895cf","609006691f6f4e337c17f836","609a612d14fe089e4028adf6","639.5600000000559","","","","37","","","","key","16.666020408163455","960","484.5","true","-1","131.86890393599998","3.2212254720000004","10","-1","-1","","","","","","","","","","","","",""
"psychophysics","35","185932","0.0-6.0-0.29","5fc174a2a1e4b021258895cf","609006691f6f4e337c17f836","609a612d14fe089e4028adf6","746.5500000000757","","","","37","","","","key","16.665650485436945","960","484.5","true","-1","131.86890393599998","3.2212254720000004","10","-1","-1","","","","","","","","","","","","",""
"psychophysics","36","188147","0.0-6.0-0.30","5fc174a2a1e4b021258895cf","609006691f6f4e337c17f836","609a612d14fe089e4028adf6","1212.9250000000466","","","","37","","","","key","16.668575757575816","960","484.5","true","1","129","2.5769803776000004","11","1","-1","","","","","","","","","","","","",""
"psychophysics","37","190030","0.0-6.0-0.31","5fc174a2a1e4b021258895cf","609006691f6f4e337c17f836","609a612d14fe089e4028adf6","881.7750000000815","","","","37","","","","key","16.66718750000005","960","484.5","true","-1","131.5769803776","2.5769803776000004","11","-1","1","","","","","","","","","","","","",""
"psychophysics","38","192725","0.0-6.0-0.32","5fc174a2a1e4b021258895cf","609006691f6f4e337c17f836","609a612d14fe089e4028adf6","1693.1150000000198","","","","37","","","","key","16.666335403726702","960","484.5","true","1","131.5769803776","2.0615843020800004","12","1","-1","","","","","","","","","","","","",""
"psychophysics","39","194729","0.0-6.0-0.33","5fc174a2a1e4b021258895cf","609006691f6f4e337c17f836","609a612d14fe089e4028adf6","1002.6849999999104","","","","39","","","","key","16.665092436974856","960","484.5","true","1","133.63856467968","2.0615843020800004","12","-1","1","","","","","","","","","","","","",""
"psychophysics","40","197254","0.0-6.0-0.34","5fc174a2a1e4b021258895cf","609006691f6f4e337c17f836","609a612d14fe089e4028adf6","1523.215000000142","","","","39","","","","key","16.666311258278032","960","484.5","true","-1","133.63856467968","1.6492674416640005","13","1","-1","","","","","","","","","","","","",""
"psychophysics","41","199001","0.0-6.0-0.35","5fc174a2a1e4b021258895cf","609006691f6f4e337c17f836","609a612d14fe089e4028adf6","745.8300000000745","","","","39","","","","key","16.6639615384615","960","484.5","true","1","135.287832121344","1.6492674416640005","13","-1","1","","","","","","","","","","","","",""
"psychophysics","42","201902","0.0-6.0-0.36","5fc174a2a1e4b021258895cf","609006691f6f4e337c17f836","609a612d14fe089e4028adf6","1899.6200000001409","","","","39","","","","key","16.66693063583807","960","484.5","true","-1","135.287832121344","1.3194139533312006","14","1","-1","","","","","","","","","","","","",""
"psychophysics","43","203245","0.0-6.0-0.37","5fc174a2a1e4b021258895cf","609006691f6f4e337c17f836","609a612d14fe089e4028adf6","341.384999999922","","","","37","","","","key","16.6714936708862","960","484.5","true","-1","136.6072460746752","1.3194139533312006","14","-1","1","","","","","","","","","","","","",""
"psychophysics","44","204610","0.0-6.0-0.38","5fc174a2a1e4b021258895cf","609006691f6f4e337c17f836","609a612d14fe089e4028adf6","363.105000000156","","","","37","","","","key","16.665679012345837","960","484.5","true","-1","136.6072460746752","1.0555311626649604","15","-1","-1","","","","","","","","","","","","",""
"psychophysics","45","205956","0.0-6.0-0.39","5fc174a2a1e4b021258895cf","609006691f6f4e337c17f836","609a612d14fe089e4028adf6","344.6949999999779","","","","37","","","","key","16.668062500000087","960","484.5","true","-1","135.55171491201025","1.0555311626649604","15","-1","-1","","","","","","","","","","","","",""
"html-keyboard-response","46","246085","0.0-7.0","5fc174a2a1e4b021258895cf","609006691f6f4e337c17f836","609a612d14fe089e4028adf6","40128.445000000065","<p>Well Done !</p><p>Prepare for a new block.</p><p>DON'T EXIT THE FULL SCREEN MODE</p><p>Press the Spacebar to start.</p>","","","32","","","","","","","","","","","","","","","true","134.0668255324406","","","","","","","","","","",""
"psychophysics","47","247745","0.0-8.0-0.0","5fc174a2a1e4b021258895cf","609006691f6f4e337c17f836","609a612d14fe089e4028adf6","657.0650000001187","","","","39","","","","key","16.681393939394074","960","484.5","true","1","180","30","0","-1","","","","","","","","","","","","","",""
"psychophysics","48","249184","0.0-8.0-0.1","5fc174a2a1e4b021258895cf","609006691f6f4e337c17f836","609a612d14fe089e4028adf6","437.4049999999115","","","","37","","","","key","16.664383720930093","960","484.5","true","-1","180","30","0","-1","-1","","","","","","","","","","","","",""
"psychophysics","49","250546","0.0-8.0-0.2","5fc174a2a1e4b021258895cf","609006691f6f4e337c17f836","609a612d14fe089e4028adf6","361.33500000005006","","","","39","","","","key","16.666712499999996","960","484.5","true","1","150","30","0","-1","-1","","","","","","","","","","","","",""
"psychophysics","50","251877","0.0-8.0-0.3","5fc174a2a1e4b021258895cf","609006691f6f4e337c17f836","609a612d14fe089e4028adf6","328.3000000001048","","","","39","","","","key","16.66673417721508","960","484.5","true","1","150","30","0","-1","-1","","","","","","","","","","","","",""
"psychophysics","51","253950","0.0-8.0-0.4","5fc174a2a1e4b021258895cf","609006691f6f4e337c17f836","609a612d14fe089e4028adf6","1072.4299999999348","","","","37","","","","key","16.668024390243794","960","484.5","true","-1","129","30","0","-1","-1","","","","","","","","","","","","",""
"psychophysics","52","255475","0.0-8.0-0.5","5fc174a2a1e4b021258895cf","609006691f6f4e337c17f836","609a612d14fe089e4028adf6","522.9799999999523","","","","39","","","","key","16.670032967032945","960","484.5","true","1","129","30","0","-1","-1","","","","","","","","","","","","",""
"psychophysics","53","257552","0.0-8.0-0.6","5fc174a2a1e4b021258895cf","609006691f6f4e337c17f836","609a612d14fe089e4028adf6","1075.6499999999942","","","","39","","","","key","16.668572580645325","960","484.5","true","1","129","30","0","-1","-1","","","","","","","","","","","","",""
"psychophysics","54","260038","0.0-8.0-0.7","5fc174a2a1e4b021258895cf","609006691f6f4e337c17f836","609a612d14fe089e4028adf6","1484.740000000107","","","","37","","","","key","16.665722972972986","960","484.5","true","-1","129","30","0","-1","-1","","","","","","","","","","","","",""
"psychophysics","55","261970","0.0-8.0-0.8","5fc174a2a1e4b021258895cf","609006691f6f4e337c17f836","609a612d14fe089e4028adf6","930.7750000000815","","","","37","","","","key","16.66413043478261","960","484.5","true","1","129","24","1","1","-1","","","","","","","","","","","","",""
"psychophysics","56","263439","0.0-8.0-0.9","5fc174a2a1e4b021258895cf","609006691f6f4e337c17f836","609a612d14fe089e4028adf6","465.78999999997905","","","","39","","","","key","16.66106896551698","960","484.5","true","1","153","24","1","-1","1","","","","","","","","","","","","",""
"psychophysics","57","264840","0.0-8.0-0.10","5fc174a2a1e4b021258895cf","609006691f6f4e337c17f836","609a612d14fe089e4028adf6","400.3299999998999","","","","37","","","","key","16.67320481927698","960","484.5","true","-1","153","19.2","2","-1","-1","","","","","","","","","","","","",""
"psychophysics","58","266143","0.0-8.0-0.11","5fc174a2a1e4b021258895cf","609006691f6f4e337c17f836","609a612d14fe089e4028adf6","301.85000000009313","","","","39","","","","key","16.664896103895916","960","484.5","true","1","133.8","19.2","2","-1","-1","","","","","","","","","","","","",""
"psychophysics","59","267431","0.0-8.0-0.12","5fc174a2a1e4b021258895cf","609006691f6f4e337c17f836","609a612d14fe089e4028adf6","286.0350000000908","","","","39","","","","key","16.661986842105858","960","484.5","true","1","133.8","19.2","2","-1","-1","","","","","","","","","","","","",""
"psychophysics","60","269315","0.0-8.0-0.13","5fc174a2a1e4b021258895cf","609006691f6f4e337c17f836","609a612d14fe089e4028adf6","881.8399999999674","","","","39","","","","key","16.666651785714098","960","484.5","true","-1","129","15.36","3","1","-1","","","","","","","","","","","","",""
"psychophysics","61","270689","0.0-8.0-0.14","5fc174a2a1e4b021258895cf","609006691f6f4e337c17f836","609a612d14fe089e4028adf6","372.68000000016764","","","","37","","","","key","16.663182926829194","960","484.5","true","-1","144.36","15.36","3","-1","1","","","","","","","","","","","","",""
"psychophysics","62","272087","0.0-8.0-0.15","5fc174a2a1e4b021258895cf","609006691f6f4e337c17f836","609a612d14fe089e4028adf6","395.95000000006985","","","","37","","","","key","16.66672289156683","960","484.5","true","-1","144.36","12.287999999999998","4","-1","-1","","","","","","","","","","","","",""
"psychophysics","63","274190","0.0-8.0-0.16","5fc174a2a1e4b021258895cf","609006691f6f4e337c17f836","609a612d14fe089e4028adf6","1101.1650000000373","","","","37","","","","key","16.666959999999964","960","484.5","true","-1","132.072","12.287999999999998","4","-1","-1","","","","","","","","","","","","",""
"psychophysics","64","275863","0.0-8.0-0.17","5fc174a2a1e4b021258895cf","609006691f6f4e337c17f836","609a612d14fe089e4028adf6","670.1549999997951","","","","37","","","","key","16.66919191919192","960","484.5","true","1","132.072","9.8304","5","1","-1","","","","","","","","","","","","",""
"psychophysics","65","277183","0.0-8.0-0.18","5fc174a2a1e4b021258895cf","609006691f6f4e337c17f836","609a612d14fe089e4028adf6","317.35999999998603","","","","37","","","","key","16.667038461538212","960","484.5","true","-1","141.9024","9.8304","5","-1","1","","","","","","","","","","","","",""
"psychophysics","66","278484","0.0-8.0-0.19","5fc174a2a1e4b021258895cf","609006691f6f4e337c17f836","609a612d14fe089e4028adf6","299.9549999999581","","","","37","","","","key","16.66700000000016","960","484.5","true","-1","141.9024","7.864319999999999","6","-1","-1","","","","","","","","","","","","",""
"psychophysics","67","279908","0.0-8.0-0.20","5fc174a2a1e4b021258895cf","609006691f6f4e337c17f836","609a612d14fe089e4028adf6","422.695000000007","","","","37","","","","key","16.672107142857776","960","484.5","true","-1","134.03808","7.864319999999999","6","-1","-1","","","","","","","","","","","","",""
"psychophysics","68","281187","0.0-8.0-0.21","5fc174a2a1e4b021258895cf","609006691f6f4e337c17f836","609a612d14fe089e4028adf6","277.18499999993946","","","","39","","","","key","16.667302631579286","960","484.5","true","1","134.03808","7.864319999999999","6","-1","-1","","","","","","","","","","","","",""
"psychophysics","69","283155","0.0-8.0-0.22","5fc174a2a1e4b021258895cf","609006691f6f4e337c17f836","609a612d14fe089e4028adf6","966.7600000000093","","","","39","","","","key","16.666452991452793","960","484.5","true","-1","129","6.291456","7","1","-1","","","","","","","","","","","","",""
"psychophysics","70","284485","0.0-8.0-0.23","5fc174a2a1e4b021258895cf","609006691f6f4e337c17f836","609a612d14fe089e4028adf6","328.74500000005355","","","","39","","","","key","16.666911392405634","960","484.5","true","1","135.291456","6.291456","7","-1","1","","","","","","","","","","","","",""
"psychophysics","71","285799","0.0-8.0-0.24","5fc174a2a1e4b021258895cf","609006691f6f4e337c17f836","609a612d14fe089e4028adf6","311.8050000000512","","","","37","","","","key","16.663350649350384","960","484.5","true","-1","135.291456","5.033164800000001","8","-1","-1","","","","","","","","","","","","",""
"psychophysics","72","287904","0.0-8.0-0.25","5fc174a2a1e4b021258895cf","609006691f6f4e337c17f836","609a612d14fe089e4028adf6","1103.2449999999953","","","","37","","","","key","16.663960317460198","960","484.5","true","1","130.2582912","4.0265318400000005","9","1","-1","","","","","","","","","","","","",""
"psychophysics","73","289291","0.0-8.0-0.26","5fc174a2a1e4b021258895cf","609006691f6f4e337c17f836","609a612d14fe089e4028adf6","385.1600000000326","","","","39","","","","key","16.67252439024458","960","484.5","true","1","134.28482304","4.0265318400000005","9","-1","1","","","","","","","","","","","","",""
"psychophysics","74","290606","0.0-8.0-0.27","5fc174a2a1e4b021258895cf","609006691f6f4e337c17f836","609a612d14fe089e4028adf6","313.3099999999977","","","","37","","","","key","16.671410256410198","960","484.5","true","-1","134.28482304","3.2212254720000004","10","-1","-1","","","","","","","","","","","","",""
"psychophysics","75","291889","0.0-8.0-0.28","5fc174a2a1e4b021258895cf","609006691f6f4e337c17f836","609a612d14fe089e4028adf6","281.4550000000745","","","","39","","","","key","16.66710526315805","960","484.5","true","1","131.06359756799998","3.2212254720000004","10","-1","-1","","","","","","","","","","","","",""
"psychophysics","76","293624","0.0-8.0-0.29","5fc174a2a1e4b021258895cf","609006691f6f4e337c17f836","609a612d14fe089e4028adf6","733.714999999851","","","","37","","","","key","16.662951456310534","960","484.5","true","-1","131.06359756799998","3.2212254720000004","10","-1","-1","","","","","","","","","","","","",""
"psychophysics","77","295531","0.0-8.0-0.30","5fc174a2a1e4b021258895cf","609006691f6f4e337c17f836","609a612d14fe089e4028adf6","905.2300000000396","","","","37","","","","key","16.663814159292023","960","484.5","true","-1","129","3.2212254720000004","10","-1","-1","","","","","","","","","","","","",""
"psychophysics","78","298754","0.0-8.0-0.31","5fc174a2a1e4b021258895cf","609006691f6f4e337c17f836","609a612d14fe089e4028adf6","2221.9650000002002","","","","39","","","","key","16.666450777202073","960","484.5","true","1","129","3.2212254720000004","10","-1","-1","","","","","","","","","","","","",""
"psychophysics","79","300124","0.0-8.0-0.32","5fc174a2a1e4b021258895cf","609006691f6f4e337c17f836","609a612d14fe089e4028adf6","368.9549999998999","","","","39","","","","key","16.66891358024728","960","484.5","true","-1","129","2.5769803776000004","11","1","-1","","","","","","","","","","","","",""
"psychophysics","80","301893","0.0-8.0-0.33","5fc174a2a1e4b021258895cf","609006691f6f4e337c17f836","609a612d14fe089e4028adf6","766.2749999999651","","","","39","","","","key","16.666857142856767","960","484.5","true","-1","131.5769803776","2.5769803776000004","11","1","1","","","","","","","","","","","","",""
"psychophysics","81","303228","0.0-8.0-0.34","5fc174a2a1e4b021258895cf","609006691f6f4e337c17f836","609a612d14fe089e4028adf6","333.7200000000885","","","","39","","","","key","16.66827848101259","960","484.5","true","1","134.1539607552","2.5769803776000004","11","-1","1","","","","","","","","","","","","",""
"psychophysics","82","304560","0.0-8.0-0.35","5fc174a2a1e4b021258895cf","609006691f6f4e337c17f836","609a612d14fe089e4028adf6","330.36000000016065","","","","39","","","","key","16.67097468354409","960","484.5","true","1","134.1539607552","2.0615843020800004","12","-1","-1","","","","","","","","","","","","",""
"psychophysics","83","306655","0.0-8.0-0.36","5fc174a2a1e4b021258895cf","609006691f6f4e337c17f836","609a612d14fe089e4028adf6","1091.3499999999185","","","","37","","","","key","16.66646399999969","960","484.5","true","-1","132.09237645311998","2.0615843020800004","12","-1","-1","","","","","","","","","","","","",""
"psychophysics","84","309474","0.0-8.0-0.37","5fc174a2a1e4b021258895cf","609006691f6f4e337c17f836","609a612d14fe089e4028adf6","1817.0399999998626","","","","39","","","","key","16.6653630952382","960","484.5","true","1","132.09237645311998","2.0615843020800004","12","-1","-1","","","","","","","","","","","","",""
"psychophysics","85","311415","0.0-8.0-0.38","5fc174a2a1e4b021258895cf","609006691f6f4e337c17f836","609a612d14fe089e4028adf6","938.4999999999418","","","","37","","","","key","16.666573913043123","960","484.5","true","-1","130.03079215103998","2.0615843020800004","12","-1","-1","","","","","","","","","","","","",""
"psychophysics","86","312781","0.0-8.0-0.39","5fc174a2a1e4b021258895cf","609006691f6f4e337c17f836","609a612d14fe089e4028adf6","364.0350000000326","","","","39","","","","key","16.666839506173144","960","484.5","true","1","130.03079215103998","2.0615843020800004","12","-1","-1","","","","","","","","","","","","",""
"html-keyboard-response","87","318458","0.0-9.0","5fc174a2a1e4b021258895cf","609006691f6f4e337c17f836","609a612d14fe089e4028adf6","5676.104999999981","<p>Well Done !</p><p>Prepare for a new block.</p><p>DON'T EXIT THE FULL SCREEN MODE</p><p>Press the Spacebar to start.</p>","","","32","","","","","","","","","","","","","","","true","131.47242476748798","","","","","","","","","","",""
"psychophysics","88","319903","0.0-10.0-0.0","5fc174a2a1e4b021258895cf","609006691f6f4e337c17f836","609a612d14fe089e4028adf6","440.2500000001164","","","","37","","","","key","16.667781609195504","960","484.5","true","-1","180","30","0","-1","","","","","","","","","","","","","",""
"psychophysics","89","321283","0.0-10.0-0.1","5fc174a2a1e4b021258895cf","609006691f6f4e337c17f836","609a612d14fe089e4028adf6","377.1600000000326","","","","39","","","","key","16.66829629629681","960","484.5","true","1","180","30","0","-1","-1","","","","","","","","","","","","",""
"psychophysics","90","322651","0.0-10.0-0.2","5fc174a2a1e4b021258895cf","609006691f6f4e337c17f836","609a612d14fe089e4028adf6","366.5950000002049","","","","37","","","","key","16.665975308642192","960","484.5","true","-1","150","30","0","-1","-1","","","","","","","","","","","","",""
"psychophysics","91","323966","0.0-10.0-0.3","5fc174a2a1e4b021258895cf","609006691f6f4e337c17f836","609a612d14fe089e4028adf6","314.340000000142","","","","37","","","","key","16.66705128205164","960","484.5","true","-1","150","30","0","-1","-1","","","","","","","","","","","","",""
"psychophysics","92","325707","0.0-10.0-0.4","5fc174a2a1e4b021258895cf","609006691f6f4e337c17f836","609a612d14fe089e4028adf6","739.5549999998766","","","","37","","","","key","16.670701923076614","960","484.5","true","1","129","24","1","1","-1","","","","","","","","","","","","",""
"psychophysics","93","327165","0.0-10.0-0.5","5fc174a2a1e4b021258895cf","609006691f6f4e337c17f836","609a612d14fe089e4028adf6","455.13000000006286","","","","39","","","","key","16.676941860465163","960","484.5","true","1","153","24","1","-1","1","","","","","","","","","","","","",""
"psychophysics","94","328620","0.0-10.0-0.6","5fc174a2a1e4b021258895cf","609006691f6f4e337c17f836","609a612d14fe089e4028adf6","453.4549999998417","","","","39","","","","key","16.666965517241525","960","484.5","true","1","153","19.2","2","-1","-1","","","","","","","","","","","","",""
"psychophysics","95","329993","0.0-10.0-0.7","5fc174a2a1e4b021258895cf","609006691f6f4e337c17f836","609a612d14fe089e4028adf6","371.47000000003027","","","","39","","","","key","16.66662962962931","960","484.5","true","1","133.8","19.2","2","-1","-1","","","","","","","","","","","","",""
"psychophysics","96","331304","0.0-10.0-0.8","5fc174a2a1e4b021258895cf","609006691f6f4e337c17f836","609a612d14fe089e4028adf6","309.09499999985565","","","","37","","","","key","16.667756410255933","960","484.5","true","-1","133.8","19.2","2","-1","-1","","","","","","","","","","","","",""
"psychophysics","97","333418","0.0-10.0-0.9","5fc174a2a1e4b021258895cf","609006691f6f4e337c17f836","609a612d14fe089e4028adf6","1111.8649999998743","","","","39","","","","key","16.669080000000076","960","484.5","true","-1","129","15.36","3","1","-1","","","","","","","","","","","","",""
"psychophysics","98","334706","0.0-10.0-0.10","5fc174a2a1e4b021258895cf","609006691f6f4e337c17f836","609a612d14fe089e4028adf6","286.70999999984633","","","","37","","","","key","16.667688311688458","960","484.5","true","-1","144.36","15.36","3","-1","1","","","","","","","","","","","","",""
"psychophysics","99","335997","0.0-10.0-0.11","5fc174a2a1e4b021258895cf","609006691f6f4e337c17f836","609a612d14fe089e4028adf6","289.07500000012806","","","","37","","","","key","16.66468421052636","960","484.5","true","-1","144.36","12.287999999999998","4","-1","-1","","","","","","","","","","","","",""
"psychophysics","100","338135","0.0-10.0-0.12","5fc174a2a1e4b021258895cf","609006691f6f4e337c17f836","609a612d14fe089e4028adf6","1136.4699999999139","","","","37","","","","key","16.666281249999884","960","484.5","true","1","132.072","9.8304","5","1","-1","","","","","","","","","","","","",""
"psychophysics","101","339470","0.0-10.0-0.13","5fc174a2a1e4b021258895cf","609006691f6f4e337c17f836","609a612d14fe089e4028adf6","333.7699999999604","","","","37","","","","key","16.67045569620272","960","484.5","true","-1","141.9024","9.8304","5","-1","1","","","","","","","","","","","","",""
"psychophysics","102","340870","0.0-10.0-0.14","5fc174a2a1e4b021258895cf","609006691f6f4e337c17f836","609a612d14fe089e4028adf6","398.85499999992317","","","","39","","","","key","16.667927710842957","960","484.5","true","1","141.9024","7.864319999999999","6","-1","-1","","","","","","","","","","","","",""
"psychophysics","103","342243","0.0-10.0-0.15","5fc174a2a1e4b021258895cf","609006691f6f4e337c17f836","609a612d14fe089e4028adf6","371.8750000000582","","","","39","","","","key","16.664839506173006","960","484.5","true","1","134.03808","7.864319999999999","6","-1","-1","","","","","","","","","","","","",""
"psychophysics","104","343541","0.0-10.0-0.16","5fc174a2a1e4b021258895cf","609006691f6f4e337c17f836","609a612d14fe089e4028adf6","296.36499999987427","","","","39","","","","key","16.67015584415602","960","484.5","true","1","134.03808","7.864319999999999","6","-1","-1","","","","","","","","","","","","",""
"psychophysics","105","345244","0.0-10.0-0.17","5fc174a2a1e4b021258895cf","609006691f6f4e337c17f836","609a612d14fe089e4028adf6","701.6300000000047","","","","39","","","","key","16.666267326732726","960","484.5","true","-1","129","6.291456","7","1","-1","","","","","","","","","","","","",""
"psychophysics","106","346302","0.0-10.0-0.18","5fc174a2a1e4b021258895cf","609006691f6f4e337c17f836","609a612d14fe089e4028adf6","56.36999999999534","","","","39","","","","key","16.67224193548393","960","484.5","true","1","135.291456","6.291456","7","-1","1","","","","","","","","","","","","",""
"psychophysics","107","347629","0.0-10.0-0.19","5fc174a2a1e4b021258895cf","609006691f6f4e337c17f836","609a612d14fe089e4028adf6","324.55000000004657","","","","39","","","","key","16.66759493670948","960","484.5","true","1","135.291456","5.033164800000001","8","-1","-1","","","","","","","","","","","","",""
"psychophysics","108","349097","0.0-10.0-0.20","5fc174a2a1e4b021258895cf","609006691f6f4e337c17f836","609a612d14fe089e4028adf6","467.0150000001886","","","","39","","","","key","16.668804597701","960","484.5","true","-1","130.2582912","4.0265318400000005","9","1","-1","","","","","","","","","","","","",""
"psychophysics","109","350429","0.0-10.0-0.21","5fc174a2a1e4b021258895cf","609006691f6f4e337c17f836","609a612d14fe089e4028adf6","329.5000000000582","","","","39","","","","key","16.669911392405186","960","484.5","true","1","134.28482304","4.0265318400000005","9","-1","1","","","","","","","","","","","","",""
"psychophysics","110","351684","0.0-10.0-0.22","5fc174a2a1e4b021258895cf","609006691f6f4e337c17f836","609a612d14fe089e4028adf6","252.63500000006752","","","","39","","","","key","16.66736486486499","960","484.5","true","1","134.28482304","3.2212254720000004","10","-1","-1","","","","","","","","","","","","",""
"psychophysics","111","353103","0.0-10.0-0.23","5fc174a2a1e4b021258895cf","609006691f6f4e337c17f836","609a612d14fe089e4028adf6","418.0000000001164","","","","37","","","","key","16.666199999999748","960","484.5","true","-1","131.06359756799998","3.2212254720000004","10","-1","-1","","","","","","","","","","","","",""
"psychophysics","112","354979","0.0-10.0-0.24","5fc174a2a1e4b021258895cf","609006691f6f4e337c17f836","609a612d14fe089e4028adf6","874.3650000001071","","","","37","","","","key","16.66529729729728","960","484.5","true","-1","131.06359756799998","3.2212254720000004","10","-1","-1","","","","","","","","","","","","",""
"psychophysics","113","356501","0.0-10.0-0.25","5fc174a2a1e4b021258895cf","609006691f6f4e337c17f836","609a612d14fe089e4028adf6","519.8149999998277","","","","39","","","","key","16.66324444444423","960","484.5","true","-1","129","2.5769803776000004","11","1","-1","","","","","","","","","","","","",""
"psychophysics","114","358237","0.0-10.0-0.26","5fc174a2a1e4b021258895cf","609006691f6f4e337c17f836","609a612d14fe089e4028adf6","735.1899999998859","","","","39","","","","key","16.668442307692132","960","484.5","true","1","131.5769803776","2.5769803776000004","11","-1","1","","","","","","","","","","","","",""
"psychophysics","115","359478","0.0-10.0-0.27","5fc174a2a1e4b021258895cf","609006691f6f4e337c17f836","609a612d14fe089e4028adf6","240.46000000019558","","","","39","","","","key","16.663684931507156","960","484.5","true","1","131.5769803776","2.0615843020800004","12","-1","-1","","","","","","","","","","","","",""
"psychophysics","116","360793","0.0-10.0-0.28","5fc174a2a1e4b021258895cf","609006691f6f4e337c17f836","609a612d14fe089e4028adf6","313.8950000000186","","","","39","","","","key","16.66332051282053","960","484.5","true","-1","129.51539607552","1.6492674416640005","13","1","-1","","","","","","","","","","","","",""
"psychophysics","117","362505","0.0-10.0-0.29","5fc174a2a1e4b021258895cf","609006691f6f4e337c17f836","609a612d14fe089e4028adf6","711.1399999998393","","","","37","","","","key","16.665284313725458","960","484.5","true","-1","131.16466351718398","1.6492674416640005","13","-1","1","","","","","","","","","","","","",""
"psychophysics","118","364198","0.0-10.0-0.30","5fc174a2a1e4b021258895cf","609006691f6f4e337c17f836","609a612d14fe089e4028adf6","691.640000000014","","","","37","","","","key","16.663610000000336","960","484.5","true","1","131.16466351718398","1.3194139533312006","14","1","-1","","","","","","","","","","","","",""
"psychophysics","119","365593","0.0-10.0-0.31","5fc174a2a1e4b021258895cf","609006691f6f4e337c17f836","609a612d14fe089e4028adf6","393.5449999999255","","","","39","","","","key","16.667421686747083","960","484.5","true","1","132.4840774705152","1.3194139533312006","14","-1","1","","","","","","","","","","","","",""
"psychophysics","120","366928","0.0-10.0-0.32","5fc174a2a1e4b021258895cf","609006691f6f4e337c17f836","609a612d14fe089e4028adf6","334.32500000001164","","","","37","","","","key","16.6668481012656","960","484.5","true","-1","132.4840774705152","1.0555311626649604","15","-1","-1","","","","","","","","","","","","",""
"psychophysics","121","368902","0.0-10.0-0.33","5fc174a2a1e4b021258895cf","609006691f6f4e337c17f836","609a612d14fe089e4028adf6","973.2449999998789","","","","39","","","","key","16.66644067796622","960","484.5","true","-1","131.42854630785024","1","16","1","-1","","","","","","","","","","","","",""
"psychophysics","122","371248","0.0-10.0-0.34","5fc174a2a1e4b021258895cf","609006691f6f4e337c17f836","609a612d14fe089e4028adf6","1344.8350000000792","","","","39","","","","key","16.666553956834623","960","484.5","true","1","132.42854630785024","1","16","-1","1","","","","","","","","","","","","",""
"psychophysics","123","373291","0.0-10.0-0.35","5fc174a2a1e4b021258895cf","609006691f6f4e337c17f836","609a612d14fe089e4028adf6","1040.8950000000768","","","","37","","","","key","16.668393442622904","960","484.5","true","-1","132.42854630785024","1","17","-1","-1","","","","","","","","","","","","",""
"psychophysics","124","375805","0.0-10.0-0.36","5fc174a2a1e4b021258895cf","609006691f6f4e337c17f836","609a612d14fe089e4028adf6","1511.0500000000466","","","","39","","","","key","16.669853333333354","960","484.5","true","-1","131.42854630785024","1","18","1","-1","","","","","","","","","","","","",""
"psychophysics","125","377653","0.0-10.0-0.37","5fc174a2a1e4b021258895cf","609006691f6f4e337c17f836","609a612d14fe089e4028adf6","846.109999999986","","","","39","","","","key","16.6658545454546","960","484.5","true","1","132.42854630785024","1","18","-1","1","","","","","","","","","","","","",""
"psychophysics","126","379008","0.0-10.0-0.38","5fc174a2a1e4b021258895cf","609006691f6f4e337c17f836","609a612d14fe089e4028adf6","354.4899999999325","","","","37","","","","key","16.666912500000034","960","484.5","true","-1","132.42854630785024","1","19","-1","-1","","","","","","","","","","","","",""
"psychophysics","127","381580","0.0-10.0-0.39","5fc174a2a1e4b021258895cf","609006691f6f4e337c17f836","609a612d14fe089e4028adf6","1568.9799999999814","","","","37","","","","key","16.66915686274506","960","484.5","true","1","131.42854630785024","1","20","1","-1","","","","","","","","","","","","",""
"html-keyboard-response","128","393040","0.0-11.0","5fc174a2a1e4b021258895cf","609006691f6f4e337c17f836","609a612d14fe089e4028adf6","11459.714999999967","<p>Well Done !</p><p>Prepare for a new block.</p><p>DON'T EXIT THE FULL SCREEN MODE</p><p>Press the Spacebar to start.</p>","","","32","","","","","","","","","","","","","","","true","131.5311108640713","","","","","","","","","","",""
"psychophysics","129","394472","0.0-12.0-0.0","5fc174a2a1e4b021258895cf","609006691f6f4e337c17f836","609a612d14fe089e4028adf6","428.1249999999418","","","","37","","","","key","16.671581395349445","960","484.5","true","-1","180","30","0","-1","","","","","","","","","","","","","",""
"psychophysics","130","395899","0.0-12.0-0.1","5fc174a2a1e4b021258895cf","609006691f6f4e337c17f836","609a612d14fe089e4028adf6","424.76500000001397","","","","39","","","","key","16.666833333332935","960","484.5","true","1","180","30","0","-1","-1","","","","","","","","","","","","",""
"psychophysics","131","397308","0.0-12.0-0.2","5fc174a2a1e4b021258895cf","609006691f6f4e337c17f836","609a612d14fe089e4028adf6","406.7050000000745","","","","37","","","","key","16.66529761904773","960","484.5","true","-1","150","30","0","-1","-1","","","","","","","","","","","","",""
"psychophysics","132","398617","0.0-12.0-0.3","5fc174a2a1e4b021258895cf","609006691f6f4e337c17f836","609a612d14fe089e4028adf6","308.2599999998347","","","","39","","","","key","16.66684415584427","960","484.5","true","1","150","30","0","-1","-1","","","","","","","","","","","","",""
"psychophysics","133","400214","0.0-12.0-0.4","5fc174a2a1e4b021258895cf","609006691f6f4e337c17f836","609a612d14fe089e4028adf6","597.0850000000792","","","","39","","","","key","16.66651578947387","960","484.5","true","-1","129","24","1","1","-1","","","","","","","","","","","","",""
"psychophysics","134","401535","0.0-12.0-0.5","5fc174a2a1e4b021258895cf","609006691f6f4e337c17f836","609a612d14fe089e4028adf6","319.0249999999651","","","","37","","","","key","16.66832051282071","960","484.5","true","-1","153","24","1","-1","1","","","","","","","","","","","","",""
"psychophysics","135","402862","0.0-12.0-0.6","5fc174a2a1e4b021258895cf","609006691f6f4e337c17f836","609a612d14fe089e4028adf6","326.10999999998603","","","","39","","","","key","16.66737974683542","960","484.5","true","1","153","19.2","2","-1","-1","","","","","","","","","","","","",""
"psychophysics","136","404827","0.0-12.0-0.7","5fc174a2a1e4b021258895cf","609006691f6f4e337c17f836","609a612d14fe089e4028adf6","962.3800000001793","","","","39","","","","key","16.668965811965567","960","484.5","true","1","133.8","19.2","2","-1","-1","","","","","","","","","","","","",""
"psychophysics","137","406131","0.0-12.0-0.8","5fc174a2a1e4b021258895cf","609006691f6f4e337c17f836","609a612d14fe089e4028adf6","302.47999999980675","","","","37","","","","key","16.662194805194822","960","484.5","true","-1","133.8","19.2","2","-1","-1","","","","","","","","","","","","",""
"psychophysics","138","408014","0.0-12.0-0.9","5fc174a2a1e4b021258895cf","609006691f6f4e337c17f836","609a612d14fe089e4028adf6","881.8300000000163","","","","37","","","","key","16.666669642857283","960","484.5","true","-1","129","19.2","2","-1","-1","","","","","","","","","","","","",""
"psychophysics","139","409882","0.0-12.0-0.10","5fc174a2a1e4b021258895cf","609006691f6f4e337c17f836","609a612d14fe089e4028adf6","866.7199999999721","","","","37","","","","key","16.67049549549539","960","484.5","true","-1","129","19.2","2","-1","-1","","","","","","","","","","","","",""
"psychophysics","140","411996","0.0-12.0-0.11","5fc174a2a1e4b021258895cf","609006691f6f4e337c17f836","609a612d14fe089e4028adf6","1110.9449999999488","","","","39","","","","key","16.668373015872756","960","484.5","true","1","129","19.2","2","-1","-1","","","","","","","","","","","","",""
"psychophysics","141","413928","0.0-12.0-0.12","5fc174a2a1e4b021258895cf","609006691f6f4e337c17f836","609a612d14fe089e4028adf6","931.5349999999162","","","","39","","","","key","16.666382608695827","960","484.5","true","-1","129","15.36","3","1","-1","","","","","","","","","","","","",""
"psychophysics","142","415124","0.0-12.0-0.13","5fc174a2a1e4b021258895cf","609006691f6f4e337c17f836","609a612d14fe089e4028adf6","194.3100000001141","","","","39","","","","key","16.666492957747245","960","484.5","true","1","144.36","15.36","3","-1","1","","","","","","","","","","","","",""
"psychophysics","143","416320","0.0-12.0-0.14","5fc174a2a1e4b021258895cf","609006691f6f4e337c17f836","609a612d14fe089e4028adf6","194.25","","","","37","","","","key","16.67138028169021","960","484.5","true","-1","144.36","12.287999999999998","4","-1","-1","","","","","","","","","","","","",""
"psychophysics","144","418367","0.0-12.0-0.15","5fc174a2a1e4b021258895cf","609006691f6f4e337c17f836","609a612d14fe089e4028adf6","1045.3099999999395","","","","37","","","","key","16.665429752066053","960","484.5","true","1","132.072","9.8304","5","1","-1","","","","","","","","","","","","",""
"psychophysics","145","419678","0.0-12.0-0.16","5fc174a2a1e4b021258895cf","609006691f6f4e337c17f836","609a612d14fe089e4028adf6","309.0999999999185","","","","39","","","","key","16.67123076923114","960","484.5","true","1","141.9024","9.8304","5","-1","1","","","","","","","","","","","","",""
"psychophysics","146","420982","0.0-12.0-0.17","5fc174a2a1e4b021258895cf","609006691f6f4e337c17f836","609a612d14fe089e4028adf6","302.445000000007","","","","39","","","","key","16.665935064935088","960","484.5","true","1","141.9024","7.864319999999999","6","-1","-1","","","","","","","","","","","","",""
"psychophysics","147","422273","0.0-12.0-0.18","5fc174a2a1e4b021258895cf","609006691f6f4e337c17f836","609a612d14fe089e4028adf6","289.25499999988824","","","","37","","","","key","16.66632467532506","960","484.5","true","-1","134.03808","7.864319999999999","6","-1","-1","","","","","","","","","","","","",""
"psychophysics","148","423609","0.0-12.0-0.19","5fc174a2a1e4b021258895cf","609006691f6f4e337c17f836","609a612d14fe089e4028adf6","333.9400000000023","","","","37","","","","key","16.66544303797477","960","484.5","true","-1","134.03808","7.864319999999999","6","-1","-1","","","","","","","","","","","","",""
"psychophysics","149","426328","0.0-12.0-0.20","5fc174a2a1e4b021258895cf","609006691f6f4e337c17f836","609a612d14fe089e4028adf6","1716.8349999999045","","","","37","","","","key","16.667012345678902","960","484.5","true","1","129","6.291456","7","1","-1","","","","","","","","","","","","",""
"psychophysics","150","427468","0.0-12.0-0.21","5fc174a2a1e4b021258895cf","609006691f6f4e337c17f836","609a612d14fe089e4028adf6","139.12000000005355","","","","37","","","","key","16.668149253731393","960","484.5","true","-1","135.291456","6.291456","7","-1","1","","","","","","","","","","","","",""
"psychophysics","151","428647","0.0-12.0-0.22","5fc174a2a1e4b021258895cf","609006691f6f4e337c17f836","609a612d14fe089e4028adf6","177.2599999998929","","","","37","","","","key","16.665685714285686","960","484.5","true","-1","135.291456","5.033164800000001","8","-1","-1","","","","","","","","","","","","",""
"psychophysics","152","430393","0.0-12.0-0.23","5fc174a2a1e4b021258895cf","609006691f6f4e337c17f836","609a612d14fe089e4028adf6","744.4649999999674","","","","39","","","","key","16.668086538461257","960","484.5","true","-1","130.2582912","4.0265318400000005","9","1","-1","","","","","","","","","","","","",""
"psychophysics","153","431699","0.0-12.0-0.24","5fc174a2a1e4b021258895cf","609006691f6f4e337c17f836","609a612d14fe089e4028adf6","304.89999999984866","","","","39","","","","key","16.671246753246585","960","484.5","true","1","134.28482304","4.0265318400000005","9","-1","1","","","","","","","","","","","","",""
"psychophysics","154","432915","0.0-12.0-0.25","5fc174a2a1e4b021258895cf","609006691f6f4e337c17f836","609a612d14fe089e4028adf6","215.4800000000978","","","","37","","","","key","16.666013888888603","960","484.5","true","-1","134.28482304","3.2212254720000004","10","-1","-1","","","","","","","","","","","","",""
"psychophysics","155","435161","0.0-12.0-0.26","5fc174a2a1e4b021258895cf","609006691f6f4e337c17f836","609a612d14fe089e4028adf6","1243.5000000000582","","","","37","","","","key","16.668022388059807","960","484.5","true","1","131.06359756799998","2.5769803776000004","11","1","-1","","","","","","","","","","","","",""
"psychophysics","156","436403","0.0-12.0-0.27","5fc174a2a1e4b021258895cf","609006691f6f4e337c17f836","609a612d14fe089e4028adf6","241.43499999993946","","","","37","","","","key","16.66745945945936","960","484.5","true","-1","133.64057794559997","2.5769803776000004","11","-1","1","","","","","","","","","","","","",""
"psychophysics","157","437655","0.0-12.0-0.28","5fc174a2a1e4b021258895cf","609006691f6f4e337c17f836","609a612d14fe089e4028adf6","250.14000000007218","","","","39","","","","key","16.665662162162434","960","484.5","true","1","133.64057794559997","2.0615843020800004","12","-1","-1","","","","","","","","","","","","",""
"psychophysics","158","439928","0.0-12.0-0.29","5fc174a2a1e4b021258895cf","609006691f6f4e337c17f836","609a612d14fe089e4028adf6","1270.954999999958","","","","39","","","","key","16.66725925925938","960","484.5","true","1","131.57899364351996","2.0615843020800004","12","-1","-1","","","","","","","","","","","","",""
"psychophysics","159","441436","0.0-12.0-0.30","5fc174a2a1e4b021258895cf","609006691f6f4e337c17f836","609a612d14fe089e4028adf6","507.6899999998859","","","","39","","","","key","16.662855555555627","960","484.5","true","1","131.57899364351996","2.0615843020800004","12","-1","-1","","","","","","","","","","","","",""
"psychophysics","160","443256","0.0-12.0-0.31","5fc174a2a1e4b021258895cf","609006691f6f4e337c17f836","609a612d14fe089e4028adf6","819.2050000000163","","","","39","","","","key","16.669722222221836","960","484.5","true","-1","129.51740934143996","1.6492674416640005","13","1","-1","","","","","","","","","","","","",""
"psychophysics","161","444958","0.0-12.0-0.32","5fc174a2a1e4b021258895cf","609006691f6f4e337c17f836","609a612d14fe089e4028adf6","700.5100000000675","","","","37","","","","key","16.666742574257572","960","484.5","true","-1","131.16667678310395","1.6492674416640005","13","-1","1","","","","","","","","","","","","",""
"psychophysics","162","446399","0.0-12.0-0.33","5fc174a2a1e4b021258895cf","609006691f6f4e337c17f836","609a612d14fe089e4028adf6","439.84499999991385","","","","37","","","","key","16.669964705882183","960","484.5","true","1","131.16667678310395","1.3194139533312006","14","1","-1","","","","","","","","","","","","",""
"psychophysics","163","448148","0.0-12.0-0.34","5fc174a2a1e4b021258895cf","609006691f6f4e337c17f836","609a612d14fe089e4028adf6","747.7600000000093","","","","39","","","","key","16.667173076923063","960","484.5","true","1","132.48609073643516","1.3194139533312006","14","-1","1","","","","","","","","","","","","",""
"psychophysics","164","450539","0.0-12.0-0.35","5fc174a2a1e4b021258895cf","609006691f6f4e337c17f836","609a612d14fe089e4028adf6","1389.369999999879","","","","37","","","","key","16.669657342657334","960","484.5","true","1","132.48609073643516","1.0555311626649604","15","1","-1","","","","","","","","","","","","",""
"psychophysics","165","451934","0.0-12.0-0.36","5fc174a2a1e4b021258895cf","609006691f6f4e337c17f836","609a612d14fe089e4028adf6","393.28000000002794","","","","37","","","","key","16.665939024390465","960","484.5","true","-1","133.5416218991001","1.0555311626649604","15","-1","1","","","","","","","","","","","","",""
"psychophysics","166","453205","0.0-12.0-0.37","5fc174a2a1e4b021258895cf","609006691f6f4e337c17f836","609a612d14fe089e4028adf6","270.0950000000885","","","","37","","","","key","16.667710526315588","960","484.5","true","-1","133.5416218991001","1","16","-1","-1","","","","","","","","","","","","",""
"psychophysics","167","455203","0.0-12.0-0.38","5fc174a2a1e4b021258895cf","609006691f6f4e337c17f836","609a612d14fe089e4028adf6","996.2299999999814","","","","37","","","","key","16.664470588235172","960","484.5","true","1","132.5416218991001","1","17","1","-1","","","","","","","","","","","","",""
"psychophysics","168","456397","0.0-12.0-0.39","5fc174a2a1e4b021258895cf","609006691f6f4e337c17f836","609a612d14fe089e4028adf6","192.74499999982072","","","","39","","","","key","16.665814285713715","960","484.5","true","1","133.5416218991001","1","17","-1","1","","","","","","","","","","","","",""
"html-keyboard-response","169","460413","0.0-13.0","5fc174a2a1e4b021258895cf","609006691f6f4e337c17f836","609a612d14fe089e4028adf6","4015.429999999935","<p>Well Done !</p><p>Prepare for a new block.</p><p>DON'T EXIT THE FULL SCREEN MODE</p><p>Press the Spacebar to start.</p>","","","32","","","","","","","","","","","","","","","true","132.38513305087724","","","","","","","","","","",""
"html-keyboard-response","170","460515","0.0-14.0","5fc174a2a1e4b021258895cf","609006691f6f4e337c17f836","609a612d14fe089e4028adf6","null","","","","null","","","","","","","","","","","","","","","","","132.36387355371926","true","136.72774710743852","","","","","","","",""
"instructions","171","499334","0.0-15.0","5fc174a2a1e4b021258895cf","609006691f6f4e337c17f836","609a612d14fe089e4028adf6","38818.38500000001","","","","","","","[{""page_index"":0,""viewing_time"":24985.539999999863},{""page_index"":1,""viewing_time"":5677.655000000203},{""page_index"":0,""viewing_time"":4500.4349999999395},{""page_index"":1,""viewing_time"":1668.5199999999604},{""page_index"":2,""viewing_time"":1986.1049999999232}]","","","","","","","","","","","","","","","","","","","","","","","",""
"psychophysics","172","502336","0.0-16.0-0.0","5fc174a2a1e4b021258895cf","609006691f6f4e337c17f836","609a612d14fe089e4028adf6","null","","","","null","","","","key","16.67325862068964","960","484.5","","","","","","","","","","","","","","","","","","","",""
"psychophysics","173","502838","0.0-16.0-1.0","5fc174a2a1e4b021258895cf","609006691f6f4e337c17f836","609a612d14fe089e4028adf6","null","","","","null","","","","key","16.66010000000048","960","484.5","","","","","","","","","","","","","137","-1","4","false","","","",""
"psychophysics","174","505861","0.0-16.0-2.0","5fc174a2a1e4b021258895cf","609006691f6f4e337c17f836","609a612d14fe089e4028adf6","3020.649999999907","","","","90","","","","key","16.664983333333254","960","484.5","","","","","","","","","","","","","","","","","","","",""
"psychophysics","175","506862","0.0-16.0-0.1","5fc174a2a1e4b021258895cf","609006691f6f4e337c17f836","609a612d14fe089e4028adf6","null","","","","null","","","","key","16.669033898305052","960","484.5","","","","","","","","","","","","","","","","","","","",""
"psychophysics","176","507363","0.0-16.0-1.1","5fc174a2a1e4b021258895cf","609006691f6f4e337c17f836","609a612d14fe089e4028adf6","null","","","","null","","","","key","16.68020689655055","960","484.5","","","","","","","","","","","","","137","-1","5","false","","","",""
"psychophysics","177","508470","0.0-16.0-2.1","5fc174a2a1e4b021258895cf","609006691f6f4e337c17f836","609a612d14fe089e4028adf6","1104.9600000001374","","","","90","","","","key","16.668333333333123","960","484.5","","","","","","","","","","","","","","","","","","","",""
"psychophysics","178","509472","0.0-16.0-0.2","5fc174a2a1e4b021258895cf","609006691f6f4e337c17f836","609a612d14fe089e4028adf6","null","","","","null","","","","key","16.67362711864417","960","484.5","","","","","","","","","","","","","","","","","","","",""
"psychophysics","179","509974","0.0-16.0-1.2","5fc174a2a1e4b021258895cf","609006691f6f4e337c17f836","609a612d14fe089e4028adf6","null","","","","null","","","","key","16.665586206895412","960","484.5","","","","","","","","","","","","","137","1","2","false","","","",""
"psychophysics","180","510498","0.0-16.0-2.2","5fc174a2a1e4b021258895cf","609006691f6f4e337c17f836","609a612d14fe089e4028adf6","521.5250000001397","","","","77","","","","key","16.67893333333195","960","484.5","","","","","","","","","","","","","","","","","","","",""
"psychophysics","181","511499","0.0-16.0-0.3","5fc174a2a1e4b021258895cf","609006691f6f4e337c17f836","609a612d14fe089e4028adf6","null","","","","null","","","","key","16.66777966101654","960","484.5","","","","","","","","","","","","","","","","","","","",""
"psychophysics","182","512000","0.0-16.0-1.3","5fc174a2a1e4b021258895cf","609006691f6f4e337c17f836","609a612d14fe089e4028adf6","null","","","","null","","","","key","16.67844827586167","960","484.5","","","","","","","","","","","","","137","-1","2","false","","","",""
"psychophysics","183","512729","0.0-16.0-2.3","5fc174a2a1e4b021258895cf","609006691f6f4e337c17f836","609a612d14fe089e4028adf6","726.3800000000629","","","","90","","","","key","16.668116279069583","960","484.5","","","","","","","","","","","","","","","","","","","",""
"psychophysics","184","513729","0.0-16.0-0.4","5fc174a2a1e4b021258895cf","609006691f6f4e337c17f836","609a612d14fe089e4028adf6","null","","","","null","","","","key","16.667593220338595","960","484.5","","","","","","","","","","","","","","","","","","","",""
"psychophysics","185","514231","0.0-16.0-1.4","5fc174a2a1e4b021258895cf","609006691f6f4e337c17f836","609a612d14fe089e4028adf6","null","","","","null","","","","key","16.662862068965453","960","484.5","","","","","","","","","","","","","137","1","0","false","","","",""
"psychophysics","186","514855","0.0-16.0-2.4","5fc174a2a1e4b021258895cf","609006691f6f4e337c17f836","609a612d14fe089e4028adf6","622.0149999999558","","","","77","","","","key","16.667783783783356","960","484.5","","","","","","","","","","","","","","","","","","","",""
"psychophysics","187","515856","0.0-16.0-0.5","5fc174a2a1e4b021258895cf","609006691f6f4e337c17f836","609a612d14fe089e4028adf6","null","","","","null","","","","key","16.65859322033929","960","484.5","","","","","","","","","","","","","","","","","","","",""
"psychophysics","188","516357","0.0-16.0-1.5","5fc174a2a1e4b021258895cf","609006691f6f4e337c17f836","609a612d14fe089e4028adf6","null","","","","null","","","","key","16.66527586206914","960","484.5","","","","","","","","","","","","","137","1","4","false","","","",""
"psychophysics","189","519000","0.0-16.0-2.5","5fc174a2a1e4b021258895cf","609006691f6f4e337c17f836","609a612d14fe089e4028adf6","2641.509999999893","","","","77","","","","key","16.66674522292996","960","484.5","","","","","","","","","","","","","","","","","","","",""
"psychophysics","190","520002","0.0-16.0-0.6","5fc174a2a1e4b021258895cf","609006691f6f4e337c17f836","609a612d14fe089e4028adf6","null","","","","null","","","","key","16.66967796610167","960","484.5","","","","","","","","","","","","","","","","","","","",""
"psychophysics","191","520504","0.0-16.0-1.6","5fc174a2a1e4b021258895cf","609006691f6f4e337c17f836","609a612d14fe089e4028adf6","null","","","","null","","","","key","16.665566666666805","960","484.5","","","","","","","","","","","","","137","-1","0","false","","","",""
"psychophysics","192","521073","0.0-16.0-2.6","5fc174a2a1e4b021258895cf","609006691f6f4e337c17f836","609a612d14fe089e4028adf6","566.8649999999907","","","","90","","","","key","16.66351515151539","960","484.5","","","","","","","","","","","","","","","","","","","",""
"psychophysics","193","522074","0.0-16.0-0.7","5fc174a2a1e4b021258895cf","609006691f6f4e337c17f836","609a612d14fe089e4028adf6","null","","","","null","","","","key","16.672169491525352","960","484.5","","","","","","","","","","","","","","","","","","","",""
"psychophysics","194","522575","0.0-16.0-1.7","5fc174a2a1e4b021258895cf","609006691f6f4e337c17f836","609a612d14fe089e4028adf6","null","","","","null","","","","key","16.680689655172092","960","484.5","","","","","","","","","","","","","137","1","3","false","","","",""
"psychophysics","195","525213","0.0-16.0-2.7","5fc174a2a1e4b021258895cf","609006691f6f4e337c17f836","609a612d14fe089e4028adf6","2635.8700000000536","","","","90","","","","key","16.6688152866243","960","484.5","","","","","","","","","","","","","","","","","","","",""
"psychophysics","196","526214","0.0-16.0-0.8","5fc174a2a1e4b021258895cf","609006691f6f4e337c17f836","609a612d14fe089e4028adf6","null","","","","null","","","","key","16.67361016949181","960","484.5","","","","","","","","","","","","","","","","","","","",""
"psychophysics","197","526716","0.0-16.0-1.8","5fc174a2a1e4b021258895cf","609006691f6f4e337c17f836","609a612d14fe089e4028adf6","null","","","","null","","","","key","16.659310344827425","960","484.5","","","","","","","","","","","","","137","1","5","false","","","",""
"psychophysics","198","527142","0.0-16.0-2.8","5fc174a2a1e4b021258895cf","609006691f6f4e337c17f836","609a612d14fe089e4028adf6","424.3499999999767","","","","77","","","","key","16.676959999999962","960","484.5","","","","","","","","","","","","","","","","","","","",""
"psychophysics","199","528143","0.0-16.0-0.9","5fc174a2a1e4b021258895cf","609006691f6f4e337c17f836","609a612d14fe089e4028adf6","null","","","","null","","","","key","16.659949152542957","960","484.5","","","","","","","","","","","","","","","","","","","",""
"psychophysics","200","528645","0.0-16.0-1.9","5fc174a2a1e4b021258895cf","609006691f6f4e337c17f836","609a612d14fe089e4028adf6","null","","","","null","","","","key","16.657551724138543","960","484.5","","","","","","","","","","","","","137","1","6","false","","","",""
"psychophysics","201","529373","0.0-16.0-2.9","5fc174a2a1e4b021258895cf","609006691f6f4e337c17f836","609a612d14fe089e4028adf6","726.1900000000605","","","","77","","","","key","16.667999999998354","960","484.5","","","","","","","","","","","","","","","","","","","",""
"psychophysics","202","530373","0.0-16.0-0.10","5fc174a2a1e4b021258895cf","609006691f6f4e337c17f836","609a612d14fe089e4028adf6","null","","","","null","","","","key","16.660474576271074","960","484.5","","","","","","","","","","","","","","","","","","","",""
"psychophysics","203","530875","0.0-16.0-1.10","5fc174a2a1e4b021258895cf","609006691f6f4e337c17f836","609a612d14fe089e4028adf6","null","","","","null","","","","key","16.668999999998427","960","484.5","","","","","","","","","","","","","137","-1","3","false","","","",""
"psychophysics","204","531408","0.0-16.0-2.10","5fc174a2a1e4b021258895cf","609006691f6f4e337c17f836","609a612d14fe089e4028adf6","530.589999999851","","","","77","","","","key","16.670645161291525","960","484.5","","","","","","","","","","","","","","","","","","","",""
"psychophysics","205","532409","0.0-16.0-0.11","5fc174a2a1e4b021258895cf","609006691f6f4e337c17f836","609a612d14fe089e4028adf6","null","","","","null","","","","key","16.67281355932197","960","484.5","","","","","","","","","","","","","","","","","","","",""
"psychophysics","206","532911","0.0-16.0-1.11","5fc174a2a1e4b021258895cf","609006691f6f4e337c17f836","609a612d14fe089e4028adf6","null","","","","null","","","","key","16.667551724139827","960","484.5","","","","","","","","","","","","","137","-1","6","false","","","",""
"psychophysics","207","533268","0.0-16.0-2.11","5fc174a2a1e4b021258895cf","609006691f6f4e337c17f836","609a612d14fe089e4028adf6","355.8450000000885","","","","77","","","","key","16.666700000001583","960","484.5","","","","","","","","","","","","","","","","","","","",""
"psychophysics","208","534270","0.0-16.0-0.12","5fc174a2a1e4b021258895cf","609006691f6f4e337c17f836","609a612d14fe089e4028adf6","null","","","","null","","","","key","16.667516666668234","960","484.5","","","","","","","","","","","","","","","","","","","",""
"psychophysics","209","534770","0.0-16.0-1.12","5fc174a2a1e4b021258895cf","609006691f6f4e337c17f836","609a612d14fe089e4028adf6","null","","","","null","","","","key","16.67251724138021","960","484.5","","","","","","","","","","","","","137","1","2","false","","","",""
"psychophysics","210","535167","0.0-16.0-2.12","5fc174a2a1e4b021258895cf","609006691f6f4e337c17f836","609a612d14fe089e4028adf6","394.1600000000326","","","","90","","","","key","16.673818181819197","960","484.5","","","","","","","","","","","","","","","","","","","",""
"psychophysics","211","536168","0.0-16.0-0.13","5fc174a2a1e4b021258895cf","609006691f6f4e337c17f836","609a612d14fe089e4028adf6","null","","","","null","","","","key","16.6727627118639","960","484.5","","","","","","","","","","","","","","","","","","","",""
"psychophysics","212","536669","0.0-16.0-1.13","5fc174a2a1e4b021258895cf","609006691f6f4e337c17f836","609a612d14fe089e4028adf6","null","","","","null","","","","key","16.670000000001767","960","484.5","","","","","","","","","","","","","137","-1","5","false","","","",""
"psychophysics","213","537071","0.0-16.0-2.13","5fc174a2a1e4b021258895cf","609006691f6f4e337c17f836","609a612d14fe089e4028adf6","399.82500000018626","","","","77","","","","key","16.651875000000775","960","484.5","","","","","","","","","","","","","","","","","","","",""
"psychophysics","214","538073","0.0-16.0-0.14","5fc174a2a1e4b021258895cf","609006691f6f4e337c17f836","609a612d14fe089e4028adf6","null","","","","null","","","","key","16.671118644068127","960","484.5","","","","","","","","","","","","","","","","","","","",""
"psychophysics","215","538576","0.0-16.0-1.14","5fc174a2a1e4b021258895cf","609006691f6f4e337c17f836","609a612d14fe089e4028adf6","null","","","","null","","","","key","16.67237931034319","960","484.5","","","","","","","","","","","","","137","-1","0","false","","","",""
"psychophysics","216","539141","0.0-16.0-2.14","5fc174a2a1e4b021258895cf","609006691f6f4e337c17f836","609a612d14fe089e4028adf6","560.8999999999069","","","","77","","","","key","16.66909090908964","960","484.5","","","","","","","","","","","","","","","","","","","",""
"psychophysics","217","540142","0.0-16.0-0.15","5fc174a2a1e4b021258895cf","609006691f6f4e337c17f836","609a612d14fe089e4028adf6","null","","","","null","","","","key","16.665220338983413","960","484.5","","","","","","","","","","","","","","","","","","","",""
"psychophysics","218","540643","0.0-16.0-1.15","5fc174a2a1e4b021258895cf","609006691f6f4e337c17f836","609a612d14fe089e4028adf6","null","","","","null","","","","key","16.66320689655198","960","484.5","","","","","","","","","","","","","137","1","4","false","","","",""
"psychophysics","219","541541","0.0-16.0-2.15","5fc174a2a1e4b021258895cf","609006691f6f4e337c17f836","609a612d14fe089e4028adf6","895.4300000000512","","","","77","","","","key","16.659396226416817","960","484.5","","","","","","","","","","","","","","","","","","","",""
"psychophysics","220","542542","0.0-16.0-0.16","5fc174a2a1e4b021258895cf","609006691f6f4e337c17f836","609a612d14fe089e4028adf6","null","","","","null","","","","key","16.663050847457548","960","484.5","","","","","","","","","","","","","","","","","","","",""
"psychophysics","221","543043","0.0-16.0-1.16","5fc174a2a1e4b021258895cf","609006691f6f4e337c17f836","609a612d14fe089e4028adf6","null","","","","null","","","","key","16.656965517242245","960","484.5","","","","","","","","","","","","","137","1","3","false","","","",""
"psychophysics","222","543564","0.0-16.0-2.16","5fc174a2a1e4b021258895cf","609006691f6f4e337c17f836","609a612d14fe089e4028adf6","518.8250000000698","","","","77","","","","key","16.66893333333622","960","484.5","","","","","","","","","","","","","","","","","","","",""
"psychophysics","223","544565","0.0-16.0-0.17","5fc174a2a1e4b021258895cf","609006691f6f4e337c17f836","609a612d14fe089e4028adf6","null","","","","null","","","","key","16.658864406780022","960","484.5","","","","","","","","","","","","","","","","","","","",""
"psychophysics","224","545066","0.0-16.0-1.17","5fc174a2a1e4b021258895cf","609006691f6f4e337c17f836","609a612d14fe089e4028adf6","null","","","","null","","","","key","16.65606896551567","960","484.5","","","","","","","","","","","","","137","1","0","false","","","",""
"psychophysics","225","545461","0.0-16.0-2.17","5fc174a2a1e4b021258895cf","609006691f6f4e337c17f836","609a612d14fe089e4028adf6","392.4799999999814","","","","90","","","","key","16.65486956521383","960","484.5","","","","","","","","","","","","","","","","","","","",""
"psychophysics","226","546463","0.0-16.0-0.18","5fc174a2a1e4b021258895cf","609006691f6f4e337c17f836","609a612d14fe089e4028adf6","null","","","","null","","","","key","16.65913559321977","960","484.5","","","","","","","","","","","","","","","","","","","",""
"psychophysics","227","546964","0.0-16.0-1.18","5fc174a2a1e4b021258895cf","609006691f6f4e337c17f836","609a612d14fe089e4028adf6","null","","","","null","","","","key","16.676000000001736","960","484.5","","","","","","","","","","","","","137","1","5","false","","","",""
"psychophysics","228","547377","0.0-16.0-2.18","5fc174a2a1e4b021258895cf","609006691f6f4e337c17f836","609a612d14fe089e4028adf6","411.16499999992084","","","","77","","","","key","16.64883333333516","960","484.5","","","","","","","","","","","","","","","","","","","",""
"psychophysics","229","548377","0.0-16.0-0.19","5fc174a2a1e4b021258895cf","609006691f6f4e337c17f836","609a612d14fe089e4028adf6","null","","","","null","","","","key","16.666983050848675","960","484.5","","","","","","","","","","","","","","","","","","","",""
"psychophysics","230","548879","0.0-16.0-1.19","5fc174a2a1e4b021258895cf","609006691f6f4e337c17f836","609a612d14fe089e4028adf6","null","","","","null","","","","key","16.677103448277823","960","484.5","","","","","","","","","","","","","137","-1","2","false","","","",""
"psychophysics","231","549356","0.0-16.0-2.19","5fc174a2a1e4b021258895cf","609006691f6f4e337c17f836","609a612d14fe089e4028adf6","475.0250000000233","","","","90","","","","key","16.666642857141728","960","484.5","","","","","","","","","","","","","","","","","","","",""
"psychophysics","232","550357","0.0-16.0-0.20","5fc174a2a1e4b021258895cf","609006691f6f4e337c17f836","609a612d14fe089e4028adf6","null","","","","null","","","","key","16.6616440677968","960","484.5","","","","","","","","","","","","","","","","","","","",""
"psychophysics","233","550859","0.0-16.0-1.20","5fc174a2a1e4b021258895cf","609006691f6f4e337c17f836","609a612d14fe089e4028adf6","null","","","","null","","","","key","16.673310344826014","960","484.5","","","","","","","","","","","","","137","1","6","false","","","",""
"psychophysics","234","551216","0.0-16.0-2.20","5fc174a2a1e4b021258895cf","609006691f6f4e337c17f836","609a612d14fe089e4028adf6","354.51500000001397","","","","77","","","","key","16.66830000000191","960","484.5","","","","","","","","","","","","","","","","","","","",""
"psychophysics","235","552217","0.0-16.0-0.21","5fc174a2a1e4b021258895cf","609006691f6f4e337c17f836","609a612d14fe089e4028adf6","null","","","","null","","","","key","16.66832203389998","960","484.5","","","","","","","","","","","","","","","","","","","",""
"psychophysics","236","552718","0.0-16.0-1.21","5fc174a2a1e4b021258895cf","609006691f6f4e337c17f836","609a612d14fe089e4028adf6","null","","","","null","","","","key","16.669034482758686","960","484.5","","","","","","","","","","","","","137","-1","3","false","","","",""
"psychophysics","237","553584","0.0-16.0-2.21","5fc174a2a1e4b021258895cf","609006691f6f4e337c17f836","609a612d14fe089e4028adf6","863.2099999999627","","","","77","","","","key","16.666686274510734","960","484.5","","","","","","","","","","","","","","","","","","","",""
"psychophysics","238","554586","0.0-16.0-0.22","5fc174a2a1e4b021258895cf","609006691f6f4e337c17f836","609a612d14fe089e4028adf6","null","","","","null","","","","key","16.668677966102514","960","484.5","","","","","","","","","","","","","","","","","","","",""
"psychophysics","239","555087","0.0-16.0-1.22","5fc174a2a1e4b021258895cf","609006691f6f4e337c17f836","609a612d14fe089e4028adf6","null","","","","null","","","","key","16.673199999999877","960","484.5","","","","","","","","","","","","","137","-1","6","false","","","",""
"psychophysics","240","555422","0.0-16.0-2.22","5fc174a2a1e4b021258895cf","609006691f6f4e337c17f836","609a612d14fe089e4028adf6","333.7600000000093","","","","77","","","","key","16.669631578953396","960","484.5","","","","","","","","","","","","","","","","","","","",""
"psychophysics","241","556424","0.0-16.0-0.23","5fc174a2a1e4b021258895cf","609006691f6f4e337c17f836","609a612d14fe089e4028adf6","null","","","","null","","","","key","16.662999999999478","960","484.5","","","","","","","","","","","","","","","","","","","",""
"psychophysics","242","556927","0.0-16.0-1.23","5fc174a2a1e4b021258895cf","609006691f6f4e337c17f836","609a612d14fe089e4028adf6","null","","","","null","","","","key","16.67506896551891","960","484.5","","","","","","","","","","","","","137","-1","4","false","","","",""
"psychophysics","243","557231","0.0-16.0-2.23","5fc174a2a1e4b021258895cf","609006691f6f4e337c17f836","609a612d14fe089e4028adf6","301.84499999997206","","","","77","","","","key","16.687000000000218","960","484.5","","","","","","","","","","","","","","","","","","","",""
"html-keyboard-response","244","559512","0.0-17.0","5fc174a2a1e4b021258895cf","609006691f6f4e337c17f836","609a612d14fe089e4028adf6","2279.8050000001676","<p>Well Done !</p><p>Training Complete. Press the spacebar to start.</p><p>DON'T EXIT THE FULL SCREEN MODE</p>","","","32","","","","","","","","","","","","","","","","","","","","","","","","","","",""
"psychophysics","245","562513","0.0-18.0-0.0","5fc174a2a1e4b021258895cf","609006691f6f4e337c17f836","609a612d14fe089e4028adf6","null","","","","null","","","","key","16.669183333332573","960","484.5","","","","","","","","","","","","","","","","","","","",""
"psychophysics","246","563016","0.0-18.0-1.0","5fc174a2a1e4b021258895cf","609006691f6f4e337c17f836","609a612d14fe089e4028adf6","null","","","","null","","","","key","16.66931034482871","960","484.5","","","","","","","","","","","","","137","1","5","true","","","",""
"psychophysics","247","563275","0.0-18.0-2.0","5fc174a2a1e4b021258895cf","609006691f6f4e337c17f836","609a612d14fe089e4028adf6","257.5250000000233","","","","77","","","","key","16.636666666669772","960","484.5","","","","","","","","","","","","","","","","","","","",""
"psychophysics","248","564276","0.0-18.0-0.1","5fc174a2a1e4b021258895cf","609006691f6f4e337c17f836","609a612d14fe089e4028adf6","null","","","","null","","","","key","16.669084745763122","960","484.5","","","","","","","","","","","","","","","","","","","",""
"psychophysics","249","564777","0.0-18.0-1.1","5fc174a2a1e4b021258895cf","609006691f6f4e337c17f836","609a612d14fe089e4028adf6","null","","","","null","","","","key","16.67658620689803","960","484.5","","","","","","","","","","","","","137","-1","2","true","","","",""
"psychophysics","250","565284","0.0-18.0-2.1","5fc174a2a1e4b021258895cf","609006691f6f4e337c17f836","609a612d14fe089e4028adf6","504.45999999984633","","","","77","","","","key","16.653137931034195","960","484.5","","","","","","","","","","","","","","","","","","","",""
"psychophysics","251","566285","0.0-18.0-0.2","5fc174a2a1e4b021258895cf","609006691f6f4e337c17f836","609a612d14fe089e4028adf6","null","","","","null","","","","key","16.675203389831488","960","484.5","","","","","","","","","","","","","","","","","","","",""
"psychophysics","252","566786","0.0-18.0-1.2","5fc174a2a1e4b021258895cf","609006691f6f4e337c17f836","609a612d14fe089e4028adf6","null","","","","null","","","","key","16.666931034483273","960","484.5","","","","","","","","","","","","","137","-1","3","true","","","",""
"psychophysics","253","567137","0.0-18.0-2.2","5fc174a2a1e4b021258895cf","609006691f6f4e337c17f836","609a612d14fe089e4028adf6","349.46999999985565","","","","77","","","","key","16.66323809523601","960","484.5","","","","","","","","","","","","","","","","","","","",""
"psychophysics","254","568138","0.0-18.0-0.3","5fc174a2a1e4b021258895cf","609006691f6f4e337c17f836","609a612d14fe089e4028adf6","null","","","","null","","","","key","16.665220338983413","960","484.5","","","","","","","","","","","","","","","","","","","",""
"psychophysics","255","568640","0.0-18.0-1.3","5fc174a2a1e4b021258895cf","609006691f6f4e337c17f836","609a612d14fe089e4028adf6","null","","","","null","","","","key","16.67731034482733","960","484.5","","","","","","","","","","","","","137","-1","6","true","","","",""
"psychophysics","256","569003","0.0-18.0-2.3","5fc174a2a1e4b021258895cf","609006691f6f4e337c17f836","609a612d14fe089e4028adf6","361.31500000006054","","","","77","","","","key","16.66425000000163","960","484.5","","","","","","","","","","","","","","","","","","","",""
"psychophysics","257","570003","0.0-18.0-0.4","5fc174a2a1e4b021258895cf","609006691f6f4e337c17f836","609a612d14fe089e4028adf6","null","","","","null","","","","key","16.66939999999983","960","484.5","","","","","","","","","","","","","","","","","","","",""
"psychophysics","258","570505","0.0-18.0-1.4","5fc174a2a1e4b021258895cf","609006691f6f4e337c17f836","609a612d14fe089e4028adf6","null","","","","null","","","","key","16.675241379312176","960","484.5","","","","","","","","","","","","","137","1","0","true","","","",""
"psychophysics","259","570855","0.0-18.0-2.4","5fc174a2a1e4b021258895cf","609006691f6f4e337c17f836","609a612d14fe089e4028adf6","346.66500000003725","","","","77","","","","key","16.662200000003214","960","484.5","","","","","","","","","","","","","","","","","","","",""
"psychophysics","260","571857","0.0-18.0-0.5","5fc174a2a1e4b021258895cf","609006691f6f4e337c17f836","609a612d14fe089e4028adf6","null","","","","null","","","","key","16.667254237286446","960","484.5","","","","","","","","","","","","","","","","","","","",""
"psychophysics","261","572358","0.0-18.0-1.5","5fc174a2a1e4b021258895cf","609006691f6f4e337c17f836","609a612d14fe089e4028adf6","null","","","","null","","","","key","16.66779310344558","960","484.5","","","","","","","","","","","","","137","-1","4","true","","","",""
"psychophysics","262","572653","0.0-18.0-2.5","5fc174a2a1e4b021258895cf","609006691f6f4e337c17f836","609a612d14fe089e4028adf6","292.81500000006054","","","","77","","","","key","16.675750000002154","960","484.5","","","","","","","","","","","","","","","","","","","",""
"psychophysics","263","573653","0.0-18.0-0.6","5fc174a2a1e4b021258895cf","609006691f6f4e337c17f836","609a612d14fe089e4028adf6","null","","","","null","","","","key","16.668800000000434","960","484.5","","","","","","","","","","","","","","","","","","","",""
"psychophysics","264","574155","0.0-18.0-1.6","5fc174a2a1e4b021258895cf","609006691f6f4e337c17f836","609a612d14fe089e4028adf6","null","","","","null","","","","key","16.669551724138476","960","484.5","","","","","","","","","","","","","137","-1","0","true","","","",""
"psychophysics","265","574519","0.0-18.0-2.6","5fc174a2a1e4b021258895cf","609006691f6f4e337c17f836","609a612d14fe089e4028adf6","362.45999999984633","","","","90","","","","key","16.682050000003073","960","484.5","","","","","","","","","","","","","","","","","","","",""
"psychophysics","266","575520","0.0-18.0-0.7","5fc174a2a1e4b021258895cf","609006691f6f4e337c17f836","609a612d14fe089e4028adf6","null","","","","null","","","","key","16.66593220339046","960","484.5","","","","","","","","","","","","","","","","","","","",""
"psychophysics","267","576021","0.0-18.0-1.7","5fc174a2a1e4b021258895cf","609006691f6f4e337c17f836","609a612d14fe089e4028adf6","null","","","","null","","","","key","16.65469999999817","960","484.5","","","","","","","","","","","","","137","1","4","true","","","",""
"psychophysics","268","576372","0.0-18.0-2.7","5fc174a2a1e4b021258895cf","609006691f6f4e337c17f836","609a612d14fe089e4028adf6","348.84000000020023","","","","77","","","","key","16.638099999999394","960","484.5","","","","","","","","","","","","","","","","","","","",""
"psychophysics","269","577374","0.0-18.0-0.8","5fc174a2a1e4b021258895cf","609006691f6f4e337c17f836","609a612d14fe089e4028adf6","null","","","","null","","","","key","16.66733898305121","960","484.5","","","","","","","","","","","","","","","","","","","",""
"psychophysics","270","577876","0.0-18.0-1.8","5fc174a2a1e4b021258895cf","609006691f6f4e337c17f836","609a612d14fe089e4028adf6","null","","","","null","","","","key","16.64931034482614","960","484.5","","","","","","","","","","","","","137","1","3","true","","","",""
"psychophysics","271","578314","0.0-18.0-2.8","5fc174a2a1e4b021258895cf","609006691f6f4e337c17f836","609a612d14fe089e4028adf6","435.60000000009313","","","","90","","","","key","16.67711999999825","960","484.5","","","","","","","","","","","","","","","","","","","",""
"psychophysics","272","579316","0.0-18.0-0.9","5fc174a2a1e4b021258895cf","609006691f6f4e337c17f836","609a612d14fe089e4028adf6","null","","","","null","","","","key","16.66655932203472","960","484.5","","","","","","","","","","","","","","","","","","","",""
"psychophysics","273","579817","0.0-18.0-1.9","5fc174a2a1e4b021258895cf","609006691f6f4e337c17f836","609a612d14fe089e4028adf6","null","","","","null","","","","key","16.677172413794324","960","484.5","","","","","","","","","","","","","137","1","2","true","","","",""
"psychophysics","274","580230","0.0-18.0-2.9","5fc174a2a1e4b021258895cf","609006691f6f4e337c17f836","609a612d14fe089e4028adf6","410.7299999999814","","","","90","","","","key","16.665833333332557","960","484.5","","","","","","","","","","","","","","","","","","","",""
"psychophysics","275","581232","0.0-18.0-0.10","5fc174a2a1e4b021258895cf","609006691f6f4e337c17f836","609a612d14fe089e4028adf6","null","","","","null","","","","key","16.66377966101597","960","484.5","","","","","","","","","","","","","","","","","","","",""
"psychophysics","276","581733","0.0-18.0-1.10","5fc174a2a1e4b021258895cf","609006691f6f4e337c17f836","609a612d14fe089e4028adf6","null","","","","null","","","","key","16.6679310344826","960","484.5","","","","","","","","","","","","","137","-1","5","true","","","",""
"psychophysics","277","582192","0.0-18.0-2.10","5fc174a2a1e4b021258895cf","609006691f6f4e337c17f836","609a612d14fe089e4028adf6","457.16500000003725","","","","90","","","","key","16.67185185185237","960","484.5","","","","","","","","","","","","","","","","","","","",""
"psychophysics","278","583194","0.0-18.0-0.11","5fc174a2a1e4b021258895cf","609006691f6f4e337c17f836","609a612d14fe089e4028adf6","null","","","","null","","","","key","16.66742372881203","960","484.5","","","","","","","","","","","","","","","","","","","",""
"psychophysics","279","583696","0.0-18.0-1.11","5fc174a2a1e4b021258895cf","609006691f6f4e337c17f836","609a612d14fe089e4028adf6","null","","","","null","","","","key","16.668413793106147","960","484.5","","","","","","","","","","","","","137","1","6","true","","","",""
"psychophysics","280","584054","0.0-18.0-2.11","5fc174a2a1e4b021258895cf","609006691f6f4e337c17f836","609a612d14fe089e4028adf6","356.824999999837","","","","77","","","","key","16.688904761907732","960","484.5","","","","","","","","","","","","","","","","","","","",""
"psychophysics","281","585056","0.0-18.0-0.12","5fc174a2a1e4b021258895cf","609006691f6f4e337c17f836","609a612d14fe089e4028adf6","null","","","","null","","","","key","16.6697457627121","960","484.5","","","","","","","","","","","","","","","","","","","",""
"psychophysics","282","585557","0.0-18.0-1.12","5fc174a2a1e4b021258895cf","609006691f6f4e337c17f836","609a612d14fe089e4028adf6","null","","","","null","","","","key","16.670068965514254","960","484.5","","","","","","","","","","","","","137","1","3","true","","","",""
"psychophysics","283","585865","0.0-18.0-2.12","5fc174a2a1e4b021258895cf","609006691f6f4e337c17f836","609a612d14fe089e4028adf6","305.21500000020023","","","","77","","","","key","16.645705882350313","960","484.5","","","","","","","","","","","","","","","","","","","",""
"psychophysics","284","586866","0.0-18.0-0.13","5fc174a2a1e4b021258895cf","609006691f6f4e337c17f836","609a612d14fe089e4028adf6","null","","","","null","","","","key","16.663542372880947","960","484.5","","","","","","","","","","","","","","","","","","","",""
"psychophysics","285","587368","0.0-18.0-1.13","5fc174a2a1e4b021258895cf","609006691f6f4e337c17f836","609a612d14fe089e4028adf6","null","","","","null","","","","key","16.65775862068805","960","484.5","","","","","","","","","","","","","137","1","2","true","","","",""
"psychophysics","286","587755","0.0-18.0-2.13","5fc174a2a1e4b021258895cf","609006691f6f4e337c17f836","609a612d14fe089e4028adf6","385.0350000000326","","","","90","","","","key","16.68300000000138","960","484.5","","","","","","","","","","","","","","","","","","","",""
"psychophysics","287","588756","0.0-18.0-0.14","5fc174a2a1e4b021258895cf","609006691f6f4e337c17f836","609a612d14fe089e4028adf6","null","","","","null","","","","key","16.661305084745635","960","484.5","","","","","","","","","","","","","","","","","","","",""
"psychophysics","288","589257","0.0-18.0-1.14","5fc174a2a1e4b021258895cf","609006691f6f4e337c17f836","609a612d14fe089e4028adf6","null","","","","null","","","","key","16.6655172413769","960","484.5","","","","","","","","","","","","","137","-1","3","true","","","",""
"psychophysics","289","590027","0.0-18.0-2.14","5fc174a2a1e4b021258895cf","609006691f6f4e337c17f836","609a612d14fe089e4028adf6","767.1800000000512","","","","77","","","","key","16.669400000000476","960","484.5","","","","","","","","","","","","","","","","","","","",""
"psychophysics","290","591027","0.0-18.0-0.15","5fc174a2a1e4b021258895cf","609006691f6f4e337c17f836","609a612d14fe089e4028adf6","null","","","","null","","","","key","16.66825423728856","960","484.5","","","","","","","","","","","","","","","","","","","",""
"psychophysics","291","591528","0.0-18.0-1.15","5fc174a2a1e4b021258895cf","609006691f6f4e337c17f836","609a612d14fe089e4028adf6","null","","","","null","","","","key","16.664413793104828","960","484.5","","","","","","","","","","","","","137","1","6","true","","","",""
"psychophysics","292","591764","0.0-18.0-2.15","5fc174a2a1e4b021258895cf","609006691f6f4e337c17f836","609a612d14fe089e4028adf6","233.68499999993946","","","","77","","","","key","16.633153846156066","960","484.5","","","","","","","","","","","","","","","","","","","",""
"psychophysics","293","592766","0.0-18.0-0.16","5fc174a2a1e4b021258895cf","609006691f6f4e337c17f836","609a612d14fe089e4028adf6","null","","","","null","","","","key","16.669542372881796","960","484.5","","","","","","","","","","","","","","","","","","","",""
"psychophysics","294","593268","0.0-18.0-1.16","5fc174a2a1e4b021258895cf","609006691f6f4e337c17f836","609a612d14fe089e4028adf6","null","","","","null","","","","key","16.682379310344473","960","484.5","","","","","","","","","","","","","137","-1","0","true","","","",""
"psychophysics","295","593611","0.0-18.0-2.16","5fc174a2a1e4b021258895cf","609006691f6f4e337c17f836","609a612d14fe089e4028adf6","340.88500000012573","","","","90","","","","key","16.667149999999673","960","484.5","","","","","","","","","","","","","","","","","","","",""
"psychophysics","296","594611","0.0-18.0-0.17","5fc174a2a1e4b021258895cf","609006691f6f4e337c17f836","609a612d14fe089e4028adf6","null","","","","null","","","","key","16.67355932203374","960","484.5","","","","","","","","","","","","","","","","","","","",""
"psychophysics","297","595112","0.0-18.0-1.17","5fc174a2a1e4b021258895cf","609006691f6f4e337c17f836","609a612d14fe089e4028adf6","null","","","","null","","","","key","16.654068965517016","960","484.5","","","","","","","","","","","","","137","-1","4","true","","","",""
"psychophysics","298","595457","0.0-18.0-2.17","5fc174a2a1e4b021258895cf","609006691f6f4e337c17f836","609a612d14fe089e4028adf6","343.14500000013504","","","","77","","","","key","16.653400000004332","960","484.5","","","","","","","","","","","","","","","","","","","",""
"psychophysics","299","596458","0.0-18.0-0.18","5fc174a2a1e4b021258895cf","609006691f6f4e337c17f836","609a612d14fe089e4028adf6","null","","","","null","","","","key","16.66642372881386","960","484.5","","","","","","","","","","","","","","","","","","","",""
"psychophysics","300","596959","0.0-18.0-1.18","5fc174a2a1e4b021258895cf","609006691f6f4e337c17f836","609a612d14fe089e4028adf6","null","","","","null","","","","key","16.653275862071215","960","484.5","","","","","","","","","","","","","137","-1","2","true","","","",""
"psychophysics","301","597346","0.0-18.0-2.18","5fc174a2a1e4b021258895cf","609006691f6f4e337c17f836","609a612d14fe089e4028adf6","384.38000000000466","","","","90","","","","key","16.656272727271162","960","484.5","","","","","","","","","","","","","","","","","","","",""
"psychophysics","302","598347","0.0-18.0-0.19","5fc174a2a1e4b021258895cf","609006691f6f4e337c17f836","609a612d14fe089e4028adf6","null","","","","null","","","","key","16.672389830508017","960","484.5","","","","","","","","","","","","","","","","","","","",""
"psychophysics","303","598848","0.0-18.0-1.19","5fc174a2a1e4b021258895cf","609006691f6f4e337c17f836","609a612d14fe089e4028adf6","null","","","","null","","","","key","16.66862068965164","960","484.5","","","","","","","","","","","","","137","-1","5","true","","","",""
"psychophysics","304","599166","0.0-18.0-2.19","5fc174a2a1e4b021258895cf","609006691f6f4e337c17f836","609a612d14fe089e4028adf6","315.40500000002794","","","","77","","","","key","16.665944444442477","960","484.5","","","","","","","","","","","","","","","","","","","",""
"psychophysics","305","600167","0.0-18.0-0.20","5fc174a2a1e4b021258895cf","609006691f6f4e337c17f836","609a612d14fe089e4028adf6","null","","","","null","","","","key","16.66789830508405","960","484.5","","","","","","","","","","","","","","","","","","","",""
"psychophysics","306","600669","0.0-18.0-1.20","5fc174a2a1e4b021258895cf","609006691f6f4e337c17f836","609a612d14fe089e4028adf6","null","","","","null","","","","key","16.659655172413952","960","484.5","","","","","","","","","","","","","137","-1","6","true","","","",""
"psychophysics","307","601109","0.0-18.0-2.20","5fc174a2a1e4b021258895cf","609006691f6f4e337c17f836","609a612d14fe089e4028adf6","438.3299999999581","","","","77","","","","key","16.670461538462686","960","484.5","","","","","","","","","","","","","","","","","","","",""
"psychophysics","308","602110","0.0-18.0-0.21","5fc174a2a1e4b021258895cf","609006691f6f4e337c17f836","609a612d14fe089e4028adf6","null","","","","null","","","","key","16.666983050848675","960","484.5","","","","","","","","","","","","","","","","","","","",""
"psychophysics","309","602611","0.0-18.0-1.21","5fc174a2a1e4b021258895cf","609006691f6f4e337c17f836","609a612d14fe089e4028adf6","null","","","","null","","","","key","16.66758620689607","960","484.5","","","","","","","","","","","","","137","1","5","true","","","",""
"psychophysics","310","602915","0.0-18.0-2.21","5fc174a2a1e4b021258895cf","609006691f6f4e337c17f836","609a612d14fe089e4028adf6","301.5700000000652","","","","77","","","","key","16.68200000000241","960","484.5","","","","","","","","","","","","","","","","","","","",""
"psychophysics","311","603917","0.0-18.0-0.22","5fc174a2a1e4b021258895cf","609006691f6f4e337c17f836","609a612d14fe089e4028adf6","null","","","","null","","","","key","16.672881355933388","960","484.5","","","","","","","","","","","","","","","","","","","",""
"psychophysics","312","604418","0.0-18.0-1.22","5fc174a2a1e4b021258895cf","609006691f6f4e337c17f836","609a612d14fe089e4028adf6","null","","","","null","","","","key","16.667862068966095","960","484.5","","","","","","","","","","","","","137","1","4","true","","","",""
"psychophysics","313","604623","0.0-18.0-2.22","5fc174a2a1e4b021258895cf","609006691f6f4e337c17f836","609a612d14fe089e4028adf6","203.2149999999674","","","","77","","","","key","16.639916666666977","960","484.5","","","","","","","","","","","","","","","","","","","",""
"psychophysics","314","605625","0.0-18.0-0.23","5fc174a2a1e4b021258895cf","609006691f6f4e337c17f836","609a612d14fe089e4028adf6","null","","","","null","","","","key","16.670254237288844","960","484.5","","","","","","","","","","","","","","","","","","","",""
"psychophysics","315","606127","0.0-18.0-1.23","5fc174a2a1e4b021258895cf","609006691f6f4e337c17f836","609a612d14fe089e4028adf6","null","","","","null","","","","key","16.667517241379567","960","484.5","","","","","","","","","","","","","137","1","0","true","","","",""
"psychophysics","316","606393","0.0-18.0-2.23","5fc174a2a1e4b021258895cf","609006691f6f4e337c17f836","609a612d14fe089e4028adf6","263.18499999993946","","","","90","","","","key","16.659866666669647","960","484.5","","","","","","","","","","","","","","","","","","","",""
"psychophysics","317","607394","0.0-18.0-0.24","5fc174a2a1e4b021258895cf","609006691f6f4e337c17f836","609a612d14fe089e4028adf6","null","","","","null","","","","key","16.660915254236404","960","484.5","","","","","","","","","","","","","","","","","","","",""
"psychophysics","318","607896","0.0-18.0-1.24","5fc174a2a1e4b021258895cf","609006691f6f4e337c17f836","609a612d14fe089e4028adf6","null","","","","null","","","","key","16.668344827585628","960","484.5","","","","","","","","","","","","","137","1","5","true","","","",""
"psychophysics","319","608710","0.0-18.0-2.24","5fc174a2a1e4b021258895cf","609006691f6f4e337c17f836","609a612d14fe089e4028adf6","812.7150000000838","","","","90","","","","key","16.65833333333285","960","484.5","","","","","","","","","","","","","","","","","","","",""
"psychophysics","320","609712","0.0-18.0-0.25","5fc174a2a1e4b021258895cf","609006691f6f4e337c17f836","609a612d14fe089e4028adf6","null","","","","null","","","","key","16.661000000001167","960","484.5","","","","","","","","","","","","","","","","","","","",""
"psychophysics","321","610213","0.0-18.0-1.25","5fc174a2a1e4b021258895cf","609006691f6f4e337c17f836","609a612d14fe089e4028adf6","null","","","","null","","","","key","16.669655172411225","960","484.5","","","","","","","","","","","","","137","1","3","true","","","",""
"psychophysics","322","610628","0.0-18.0-2.25","5fc174a2a1e4b021258895cf","609006691f6f4e337c17f836","609a612d14fe089e4028adf6","411.6799999999348","","","","77","","","","key","16.65837499999907","960","484.5","","","","","","","","","","","","","","","","","","","",""
"psychophysics","323","611629","0.0-18.0-0.26","5fc174a2a1e4b021258895cf","609006691f6f4e337c17f836","609a612d14fe089e4028adf6","null","","","","null","","","","key","16.665830508474325","960","484.5","","","","","","","","","","","","","","","","","","","",""
"psychophysics","324","612130","0.0-18.0-1.26","5fc174a2a1e4b021258895cf","609006691f6f4e337c17f836","609a612d14fe089e4028adf6","null","","","","null","","","","key","16.670034482762023","960","484.5","","","","","","","","","","","","","137","-1","0","true","","","",""
"psychophysics","325","612607","0.0-18.0-2.26","5fc174a2a1e4b021258895cf","609006691f6f4e337c17f836","609a612d14fe089e4028adf6","474.54999999993015","","","","90","","","","key","16.667928571430302","960","484.5","","","","","","","","","","","","","","","","","","","",""
"psychophysics","326","613608","0.0-18.0-0.27","5fc174a2a1e4b021258895cf","609006691f6f4e337c17f836","609a612d14fe089e4028adf6","null","","","","null","","","","key","16.669203389830635","960","484.5","","","","","","","","","","","","","","","","","","","",""
"psychophysics","327","614109","0.0-18.0-1.27","5fc174a2a1e4b021258895cf","609006691f6f4e337c17f836","609a612d14fe089e4028adf6","null","","","","null","","","","key","16.66958620689472","960","484.5","","","","","","","","","","","","","137","-1","3","true","","","",""
"psychophysics","328","614598","0.0-18.0-2.27","5fc174a2a1e4b021258895cf","609006691f6f4e337c17f836","609a612d14fe089e4028adf6","486.69999999995343","","","","90","","","","key","16.6781785714307","960","484.5","","","","","","","","","","","","","","","","","","","",""
