"trial_type","trial_index","time_elapsed","internal_node_id","PROLIFIC_PID","STUDY_ID","SESSION_ID","rt","stimulus","button_pressed","success","key_press","responses","isData","view_history","response_type","avg_frame_time","center_x","center_y","isSC","stim_side","trial_luminance","step_size","nReversal","correct","prev_ans","isThreshold","SC_threshold","final_threshold","isLuminance","FF_luminance","luminance","stimSide","ISInt","isFF","question_order","isSPQ","isCAPS","isAQ"
"pavlovia","0","8","0.0-0.0","5f8586b33e4d65036ae018f9","609006691f6f4e337c17f836","609a6129293af9b0add99bf1","","","","","","","","","","","","","","","","","","","","","","","","","","","","","","","",""
"html-button-response","1","25842","0.0-1.0","5f8586b33e4d65036ae018f9","609006691f6f4e337c17f836","609a6129293af9b0add99bf1","25830.485000042245","<div style='background-color: white; width:60%; margin: auto; padding: 50px; text-align: justify; text-justify: inter-word; margin-bottom: 20px;'><h1 style='text-align: center;'>Consent Form</h1><p>Please read this consent form carefully before deciding whether you would like to participate in this study. You have to be 18 years old or older to participate to this study.</p><p style='text-decoration: underline;'>Participation is voluntary:</p><p>It is your choice whether or not to participate in this research. If you choose to participate, you may change your mind and leave the study at any time. Refusal to participate or stopping your participation will involve no penalty or loss of benefits to which you are otherwise entitled.</p><p style='text-decoration: underline;'>Purpose of the Study:</p><p>To understand the mechanisms underlying human perception.</p><p style='text-decoration: underline;'>What you will do in this study:</p><p>You will be presented with a series of visual images and then you will press buttons on the keyboard of your computer to respond to simple questions about the images (e.g. Were one or two images presented?). In addition, you will be asked to complete a questionnaire concerning your beliefs and everyday mental and perceptual experiences.'</p><p style='text-decoration: underline;'> Time Required:</p><p>The study will take 40 minutes to complete. </p><p style='text-decoration: underline;'>Risks:</p><p>There are no anticipated risks associated with participating in this study that are beyond those experienced in everyday life. </p><p style='text-decoration: underline;'>Benefits:</p><p>There are no benefits to you in participating in the study. However, this study may lead to a better understanding of how different kinds of visual information are used.</p><p style='text-decoration: underline;'>Compensation:</p><p>You will be paid US$6.6/hour. </p><p style='text-decoration: underline;'>Privacy and Confidentiality:</p><p>Your participation in this study will be anonymous. No personal information about your name or identity will be asked or recorded. This anonymous data will be stored for several years and may be used for a variety of research purposes. The overall results of the study may be published, or the data files may be shared with other researchers, but your identity will not be revealed in any way. The online services we are using for this study may temporarily store your data, but this data will be downloaded and then promptly deleted from those services.Your data will not be permanently associated with your name, IP address, or any other identifiable information (e.g., your information will only be connected to your payment, not to any of your responses), though they may be temporarily stored together before we download and separate them. Even so, no guarantee of internet survey security can be given because, although unlikely, transmissions can be intercepted and IP addresses can be identified. The anonymous data may be shared publicly (for example, in conjunction with a resulting academic publication).</p><p style='text-decoration: underline;'>Participation and Withdrawal:</p><p>Your participation in this study is completely voluntary. You may stop responding to the stimuli or stop answering questions if you so choose and without penalty by exiting the full screen mode, closing this tab of your browser or redirecting it to a different website.</p><p style='text-decoration: underline;'>Contact Info of the Researcher: </p><p>If you have questions about this study, or if you would like to talk to the research team, please contact David Melcher (david.melcher@nyu.edu, md5050@nyu.edu) at the Perception and Active Cognition Laboratory, New York University Abu Dhabi, Computational Research Building, Saadiyat Island, Abu Dhabi, UAE.This research has been reviewed by the New York University Abu Dhabi Institutional Review Board (NYUAD IRB). To contact about your rights in this research, for questions, suggestions, or complaints that are not addressed by the researchers, please email IRBnyuad@nyu.edu, or call the NYUAD IRB at +971 2 628 4313. </p></div>","0","","","","","","","","","","","","","","","","","","","","","","","","","","","","",""
"fullscreen","2","27407","0.0-2.0","5f8586b33e4d65036ae018f9","609006691f6f4e337c17f836","609a6129293af9b0add99bf1","","","","true","","","","","","","","","","","","","","","","","","","","","","","","","","","",""
"html-keyboard-response","3","48270","0.0-3.0","5f8586b33e4d65036ae018f9","609006691f6f4e337c17f836","609a6129293af9b0add99bf1","20860.85500009358","<p>Welcome !</p><p>READ CAREFULLY THE FOLLOWING INDICATIONS:</p><p>From this moment you have ~40 minutes to complete the experiment.</p><p>During the experiment you will be prompted to take several breaks. Each break should not last longer than 2-3 minutes.</p><p>Make sure that your computer is plugged in and it's not running on battery power, even if the battery is already fully charged.</p><p>Turn off your phone and music, make sure that you are in a quiet room and that you will not be distracted for the next hour.</p><p>Failure to comply with the instructions and indications provided during the experiment will most likely result in the rejection of your data.<p>Press the spacebar to start.</p>","","","32","","","","","","","","","","","","","","","","","","","","","","","","","","",""
"survey-html-form","4","54325","0.0-4.0","5f8586b33e4d65036ae018f9","609006691f6f4e337c17f836","609a6129293af9b0add99bf1","6052.984999958426","","","","","{""age"":""40"",""sex"":""M""}","true","","","","","","","","","","","","","","","","","","","","","","","","",""
"instructions","5","119392","0.0-5.0","5f8586b33e4d65036ae018f9","609006691f6f4e337c17f836","609a6129293af9b0add99bf1","65066.50499999523","","","","","","","[{""page_index"":0,""viewing_time"":49130.61499991454},{""page_index"":1,""viewing_time"":13147.730000084266},{""page_index"":2,""viewing_time"":2787.799999816343}]","","","","","","","","","","","","","","","","","","","","","","","",""
"psychophysics","6","125222","0.0-6.0-0.0","5f8586b33e4d65036ae018f9","609006691f6f4e337c17f836","609a6129293af9b0add99bf1","4823.00000009127","","","","39","","","","key","16.657757142857132","768","377","true","1","180","30","0","-1","","","","","","","","","","","","","",""
"psychophysics","7","128191","0.0-6.0-0.1","5f8586b33e4d65036ae018f9","609006691f6f4e337c17f836","609a6129293af9b0add99bf1","1961.6149999201298","","","","39","","","","key","16.657819209039513","768","377","true","1","180","30","0","-1","-1","","","","","","","","","","","","",""
"psychophysics","8","130296","0.0-6.0-0.2","5f8586b33e4d65036ae018f9","609006691f6f4e337c17f836","609a6129293af9b0add99bf1","1090.834999922663","","","","37","","","","key","16.65876190476191","768","377","true","-1","150","30","0","-1","-1","","","","","","","","","","","","",""
"psychophysics","9","131817","0.0-6.0-0.3","5f8586b33e4d65036ae018f9","609006691f6f4e337c17f836","609a6129293af9b0add99bf1","510.37999987602234","","","","39","","","","key","16.656099999999828","768","377","true","1","150","30","0","-1","-1","","","","","","","","","","","","",""
"psychophysics","10","135334","0.0-6.0-0.4","5f8586b33e4d65036ae018f9","609006691f6f4e337c17f836","609a6129293af9b0add99bf1","2513.0400001071393","","","","37","","","","key","16.65753333333331","768","377","true","1","129","24","1","1","-1","","","","","","","","","","","","",""
"psychophysics","11","136816","0.0-6.0-0.5","5f8586b33e4d65036ae018f9","609006691f6f4e337c17f836","609a6129293af9b0add99bf1","477.1999998483807","","","","39","","","","key","16.66034090909075","768","377","true","1","153","24","1","-1","1","","","","","","","","","","","","",""
"psychophysics","12","138234","0.0-6.0-0.6","5f8586b33e4d65036ae018f9","609006691f6f4e337c17f836","609a6129293af9b0add99bf1","412.4799999408424","","","","39","","","","key","16.657928571428265","768","377","true","1","153","19.2","2","-1","-1","","","","","","","","","","","","",""
"psychophysics","13","139915","0.0-6.0-0.7","5f8586b33e4d65036ae018f9","609006691f6f4e337c17f836","609a6129293af9b0add99bf1","677.2299997974187","","","","39","","","","key","16.66040000000008","768","377","true","-1","133.8","15.36","3","1","-1","","","","","","","","","","","","",""
"psychophysics","14","141338","0.0-6.0-0.8","5f8586b33e4d65036ae018f9","609006691f6f4e337c17f836","609a6129293af9b0add99bf1","419.08999998122454","","","","39","","","","key","16.65825882352964","768","377","true","1","149.16000000000003","15.36","3","-1","1","","","","","","","","","","","","",""
"psychophysics","15","142634","0.0-6.0-0.9","5f8586b33e4d65036ae018f9","609006691f6f4e337c17f836","609a6129293af9b0add99bf1","287.13499987497926","","","","37","","","","key","16.659855263157958","768","377","true","-1","149.16000000000003","12.287999999999998","4","-1","-1","","","","","","","","","","","","",""
"psychophysics","16","144017","0.0-6.0-0.10","5f8586b33e4d65036ae018f9","609006691f6f4e337c17f836","609a6129293af9b0add99bf1","368.6299999244511","","","","39","","","","key","16.6598658536585","768","377","true","1","136.872","12.287999999999998","4","-1","-1","","","","","","","","","","","","",""
"psychophysics","17","145444","0.0-6.0-0.11","5f8586b33e4d65036ae018f9","609006691f6f4e337c17f836","609a6129293af9b0add99bf1","413.78499986603856","","","","37","","","","key","16.656952941176645","768","377","true","-1","136.872","12.287999999999998","4","-1","-1","","","","","","","","","","","","",""
"psychophysics","18","147529","0.0-6.0-0.12","5f8586b33e4d65036ae018f9","609006691f6f4e337c17f836","609a6129293af9b0add99bf1","1079.2549999896437","","","","39","","","","key","16.656701612903085","768","377","true","-1","129","9.8304","5","1","-1","","","","","","","","","","","","",""
"psychophysics","19","148737","0.0-6.0-0.13","5f8586b33e4d65036ae018f9","609006691f6f4e337c17f836","609a6129293af9b0add99bf1","205.48499980941415","","","","39","","","","key","16.661111111111193","768","377","true","1","138.8304","9.8304","5","-1","1","","","","","","","","","","","","",""
"psychophysics","20","149797","0.0-6.0-0.14","5f8586b33e4d65036ae018f9","609006691f6f4e337c17f836","609a6129293af9b0add99bf1","52.124999929219484","","","","39","","","","key","16.656741935483765","768","377","true","1","138.8304","7.864319999999999","6","-1","-1","","","","","","","","","","","","",""
"psychophysics","21","151599","0.0-6.0-0.15","5f8586b33e4d65036ae018f9","609006691f6f4e337c17f836","609a6129293af9b0add99bf1","788.4800001047552","","","","37","","","","key","16.65740740740741","768","377","true","-1","130.96608","7.864319999999999","6","-1","-1","","","","","","","","","","","","",""
"psychophysics","22","153532","0.0-6.0-0.16","5f8586b33e4d65036ae018f9","609006691f6f4e337c17f836","609a6129293af9b0add99bf1","923.3450000174344","","","","37","","","","key","16.656295652173803","768","377","true","-1","130.96608","7.864319999999999","6","-1","-1","","","","","","","","","","","","",""
"psychophysics","23","155359","0.0-6.0-0.17","5f8586b33e4d65036ae018f9","609006691f6f4e337c17f836","609a6129293af9b0add99bf1","819.0899998880923","","","","39","","","","key","16.65979629629631","768","377","true","1","129","7.864319999999999","6","-1","-1","","","","","","","","","","","","",""
"psychophysics","24","156949","0.0-6.0-0.18","5f8586b33e4d65036ae018f9","609006691f6f4e337c17f836","609a6129293af9b0add99bf1","584.6550001297146","","","","39","","","","key","16.657326315789742","768","377","true","-1","129","6.291456","7","1","-1","","","","","","","","","","","","",""
"psychophysics","25","158566","0.0-6.0-0.19","5f8586b33e4d65036ae018f9","609006691f6f4e337c17f836","609a6129293af9b0add99bf1","609.1150001157075","","","","37","","","","key","16.656031250000222","768","377","true","-1","135.291456","6.291456","7","-1","1","","","","","","","","","","","","",""
"psychophysics","26","159963","0.0-6.0-0.20","5f8586b33e4d65036ae018f9","609006691f6f4e337c17f836","609a6129293af9b0add99bf1","392.03500002622604","","","","39","","","","key","16.652650602409793","768","377","true","1","135.291456","5.033164800000001","8","-1","-1","","","","","","","","","","","","",""
"psychophysics","27","161489","0.0-6.0-0.21","5f8586b33e4d65036ae018f9","609006691f6f4e337c17f836","609a6129293af9b0add99bf1","515.8999999985099","","","","39","","","","key","16.661322222222225","768","377","true","-1","130.2582912","4.0265318400000005","9","1","-1","","","","","","","","","","","","",""
"psychophysics","28","163026","0.0-6.0-0.22","5f8586b33e4d65036ae018f9","609006691f6f4e337c17f836","609a6129293af9b0add99bf1","523.2949999626726","","","","39","","","","key","16.65576086956508","768","377","true","1","134.28482304","4.0265318400000005","9","-1","1","","","","","","","","","","","","",""
"psychophysics","29","164426","0.0-6.0-0.23","5f8586b33e4d65036ae018f9","609006691f6f4e337c17f836","609a6129293af9b0add99bf1","391.39000000432134","","","","37","","","","key","16.654891566265057","768","377","true","-1","134.28482304","3.2212254720000004","10","-1","-1","","","","","","","","","","","","",""
"psychophysics","30","166371","0.0-6.0-0.24","5f8586b33e4d65036ae018f9","609006691f6f4e337c17f836","609a6129293af9b0add99bf1","934.8500000778586","","","","39","","","","key","16.656878260869544","768","377","true","-1","131.06359756799998","2.5769803776000004","11","1","-1","","","","","","","","","","","","",""
"psychophysics","31","167761","0.0-6.0-0.25","5f8586b33e4d65036ae018f9","609006691f6f4e337c17f836","609a6129293af9b0add99bf1","375.63999998383224","","","","39","","","","key","16.66059036144576","768","377","true","1","133.64057794559997","2.5769803776000004","11","-1","1","","","","","","","","","","","","",""
"psychophysics","32","169164","0.0-6.0-0.26","5f8586b33e4d65036ae018f9","609006691f6f4e337c17f836","609a6129293af9b0add99bf1","396.6449999716133","","","","39","","","","key","16.656048192770967","768","377","true","1","133.64057794559997","2.0615843020800004","12","-1","-1","","","","","","","","","","","","",""
"psychophysics","33","170674","0.0-6.0-0.27","5f8586b33e4d65036ae018f9","609006691f6f4e337c17f836","609a6129293af9b0add99bf1","502.5299999397248","","","","39","","","","key","16.656611111111125","768","377","true","-1","131.57899364351996","1.6492674416640005","13","1","-1","","","","","","","","","","","","",""
"psychophysics","34","172066","0.0-6.0-0.28","5f8586b33e4d65036ae018f9","609006691f6f4e337c17f836","609a6129293af9b0add99bf1","382.9299998469651","","","","37","","","","key","16.6565487804878","768","377","true","-1","133.22826108518396","1.6492674416640005","13","-1","1","","","","","","","","","","","","",""
"psychophysics","35","173404","0.0-6.0-0.29","5f8586b33e4d65036ae018f9","609006691f6f4e337c17f836","609a6129293af9b0add99bf1","333.33500009030104","","","","39","","","","key","16.660775000000285","768","377","true","1","133.22826108518396","1.3194139533312006","14","-1","-1","","","","","","","","","","","","",""
"psychophysics","36","174709","0.0-6.0-0.30","5f8586b33e4d65036ae018f9","609006691f6f4e337c17f836","609a6129293af9b0add99bf1","295.5599999986589","","","","37","","","","key","16.656584415584426","768","377","true","-1","131.90884713185275","1.3194139533312006","14","-1","-1","","","","","","","","","","","","",""
"psychophysics","37","176363","0.0-6.0-0.31","5f8586b33e4d65036ae018f9","609006691f6f4e337c17f836","609a6129293af9b0add99bf1","651.1200000531971","","","","37","","","","key","16.657204081632532","768","377","true","-1","131.90884713185275","1.3194139533312006","14","-1","-1","","","","","","","","","","","","",""
"psychophysics","38","177742","0.0-6.0-0.32","5f8586b33e4d65036ae018f9","609006691f6f4e337c17f836","609a6129293af9b0add99bf1","374.15000004693866","","","","39","","","","key","16.66003658536576","768","377","true","1","130.58943317852155","1.3194139533312006","14","-1","-1","","","","","","","","","","","","",""
"psychophysics","39","179242","0.0-6.0-0.33","5f8586b33e4d65036ae018f9","609006691f6f4e337c17f836","609a6129293af9b0add99bf1","493.20499994792044","","","","39","","","","key","16.65738202247205","768","377","true","1","130.58943317852155","1.3194139533312006","14","-1","-1","","","","","","","","","","","","",""
"psychophysics","40","180836","0.0-6.0-0.34","5f8586b33e4d65036ae018f9","609006691f6f4e337c17f836","609a6129293af9b0add99bf1","588.5650001000613","","","","39","","","","key","16.660021052631475","768","377","true","1","129.27001922519034","1.3194139533312006","14","-1","-1","","","","","","","","","","","","",""
"psychophysics","41","182315","0.0-6.0-0.35","5f8586b33e4d65036ae018f9","609006691f6f4e337c17f836","609a6129293af9b0add99bf1","472.47999999672174","","","","37","","","","key","16.654613636363635","768","377","true","-1","129.27001922519034","1.3194139533312006","14","-1","-1","","","","","","","","","","","","",""
"psychophysics","42","184127","0.0-6.0-0.36","5f8586b33e4d65036ae018f9","609006691f6f4e337c17f836","609a6129293af9b0add99bf1","799.424999859184","","","","37","","","","key","16.657841121495284","768","377","true","-1","129","1.3194139533312006","14","-1","-1","","","","","","","","","","","","",""
"psychophysics","43","185604","0.0-6.0-0.37","5f8586b33e4d65036ae018f9","609006691f6f4e337c17f836","609a6129293af9b0add99bf1","464.5100000780076","","","","39","","","","key","16.657465909090785","768","377","true","1","129","1.3194139533312006","14","-1","-1","","","","","","","","","","","","",""
"psychophysics","44","187170","0.0-6.0-0.38","5f8586b33e4d65036ae018f9","609006691f6f4e337c17f836","609a6129293af9b0add99bf1","559.6000000368804","","","","39","","","","key","16.66025806451623","768","377","true","-1","129","1.0555311626649604","15","1","-1","","","","","","","","","","","","",""
"psychophysics","45","189164","0.0-6.0-0.39","5f8586b33e4d65036ae018f9","609006691f6f4e337c17f836","609a6129293af9b0add99bf1","986.9550000876188","","","","37","","","","key","16.65777310924365","768","377","true","-1","130.05553116266495","1.0555311626649604","15","-1","1","","","","","","","","","","","","",""
"html-keyboard-response","46","192185","0.0-7.0","5f8586b33e4d65036ae018f9","609006691f6f4e337c17f836","609a6129293af9b0add99bf1","3018.97000009194","<p>Well Done !</p><p>Prepare for a new block.</p><p>DON'T EXIT THE FULL SCREEN MODE</p><p>Press the Spacebar to start.</p>","","","32","","","","","","","","","","","","","","","true","131.06058679592545","","","","","","","","","","",""
"psychophysics","47","193487","0.0-8.0-0.0","5f8586b33e4d65036ae018f9","609006691f6f4e337c17f836","609a6129293af9b0add99bf1","292.2700000926852","","","","39","","","","key","16.752538461538514","768","377","true","1","180","30","0","-1","","","","","","","","","","","","","",""
"psychophysics","48","195211","0.0-8.0-0.1","5f8586b33e4d65036ae018f9","609006691f6f4e337c17f836","609a6129293af9b0add99bf1","718.3550000190735","","","","37","","","","key","16.65741176470571","768","377","true","-1","180","30","0","-1","-1","","","","","","","","","","","","",""
"psychophysics","49","196665","0.0-8.0-0.2","5f8586b33e4d65036ae018f9","609006691f6f4e337c17f836","609a6129293af9b0add99bf1","450.3899998962879","","","","39","","","","key","16.658942528735732","768","377","true","1","150","30","0","-1","-1","","","","","","","","","","","","",""
"psychophysics","50","198070","0.0-8.0-0.3","5f8586b33e4d65036ae018f9","609006691f6f4e337c17f836","609a6129293af9b0add99bf1","395.98999987356365","","","","37","","","","key","16.660662650602664","768","377","true","-1","150","30","0","-1","-1","","","","","","","","","","","","",""
"psychophysics","51","199818","0.0-8.0-0.4","5f8586b33e4d65036ae018f9","609006691f6f4e337c17f836","609a6129293af9b0add99bf1","742.094999877736","","","","39","","","","key","16.656874999999744","768","377","true","1","129","30","0","-1","-1","","","","","","","","","","","","",""
"psychophysics","52","201267","0.0-8.0-0.5","5f8586b33e4d65036ae018f9","609006691f6f4e337c17f836","609a6129293af9b0add99bf1","443.6300001107156","","","","39","","","","key","16.654930232558062","768","377","true","1","129","30","0","-1","-1","","","","","","","","","","","","",""
"psychophysics","53","202822","0.0-8.0-0.6","5f8586b33e4d65036ae018f9","609006691f6f4e337c17f836","609a6129293af9b0add99bf1","548.2700001448393","","","","39","","","","key","16.654728260869728","768","377","true","1","129","30","0","-1","-1","","","","","","","","","","","","",""
"psychophysics","54","204858","0.0-8.0-0.7","5f8586b33e4d65036ae018f9","609006691f6f4e337c17f836","609a6129293af9b0add99bf1","1031.2300000805408","","","","39","","","","key","16.65946280991746","768","377","true","-1","129","24","1","1","-1","","","","","","","","","","","","",""
"psychophysics","55","206249","0.0-8.0-0.8","5f8586b33e4d65036ae018f9","609006691f6f4e337c17f836","609a6129293af9b0add99bf1","378.20999999530613","","","","39","","","","key","16.66034939759011","768","377","true","1","153","24","1","-1","1","","","","","","","","","","","","",""
"psychophysics","56","207689","0.0-8.0-0.9","5f8586b33e4d65036ae018f9","609006691f6f4e337c17f836","609a6129293af9b0add99bf1","436.0250001773238","","","","39","","","","key","16.65437647058827","768","377","true","1","153","19.2","2","-1","-1","","","","","","","","","","","","",""
"psychophysics","57","209133","0.0-8.0-0.10","5f8586b33e4d65036ae018f9","609006691f6f4e337c17f836","609a6129293af9b0add99bf1","432.7849999535829","","","","39","","","","key","16.661430232558157","768","377","true","1","133.8","19.2","2","-1","-1","","","","","","","","","","","","",""
"psychophysics","58","210640","0.0-8.0-0.11","5f8586b33e4d65036ae018f9","609006691f6f4e337c17f836","609a6129293af9b0add99bf1","503.72999999672174","","","","39","","","","key","16.656533333333208","768","377","true","1","133.8","19.2","2","-1","-1","","","","","","","","","","","","",""
"psychophysics","59","212101","0.0-8.0-0.12","5f8586b33e4d65036ae018f9","609006691f6f4e337c17f836","609a6129293af9b0add99bf1","450.37500001490116","","","","39","","","","key","16.658186046511876","768","377","true","-1","129","15.36","3","1","-1","","","","","","","","","","","","",""
"psychophysics","60","213503","0.0-8.0-0.13","5f8586b33e4d65036ae018f9","609006691f6f4e337c17f836","609a6129293af9b0add99bf1","397.690000012517","","","","39","","","","key","16.659265060241108","768","377","true","1","144.36","15.36","3","-1","1","","","","","","","","","","","","",""
"psychophysics","61","214871","0.0-8.0-0.14","5f8586b33e4d65036ae018f9","609006691f6f4e337c17f836","609a6129293af9b0add99bf1","355.5550000164658","","","","37","","","","key","16.65854878048803","768","377","true","-1","144.36","12.287999999999998","4","-1","-1","","","","","","","","","","","","",""
"psychophysics","62","216304","0.0-8.0-0.15","5f8586b33e4d65036ae018f9","609006691f6f4e337c17f836","609a6129293af9b0add99bf1","418.67499984800816","","","","39","","","","key","16.655129411764552","768","377","true","1","132.072","12.287999999999998","4","-1","-1","","","","","","","","","","","","",""
"psychophysics","63","218553","0.0-8.0-0.16","5f8586b33e4d65036ae018f9","609006691f6f4e337c17f836","609a6129293af9b0add99bf1","1239.324999973178","","","","37","","","","key","16.65651492537312","768","377","true","-1","132.072","12.287999999999998","4","-1","-1","","","","","","","","","","","","",""
"psychophysics","64","220063","0.0-8.0-0.17","5f8586b33e4d65036ae018f9","609006691f6f4e337c17f836","609a6129293af9b0add99bf1","501.72000005841255","","","","39","","","","key","16.660000000000224","768","377","true","-1","129","9.8304","5","1","-1","","","","","","","","","","","","",""
"psychophysics","65","221479","0.0-8.0-0.18","5f8586b33e4d65036ae018f9","609006691f6f4e337c17f836","609a6129293af9b0add99bf1","411.9850001297891","","","","39","","","","key","16.66010714285741","768","377","true","1","138.8304","9.8304","5","-1","1","","","","","","","","","","","","",""
"psychophysics","66","222927","0.0-8.0-0.19","5f8586b33e4d65036ae018f9","609006691f6f4e337c17f836","609a6129293af9b0add99bf1","442.01500015333295","","","","39","","","","key","16.658395348837246","768","377","true","1","138.8304","7.864319999999999","6","-1","-1","","","","","","","","","","","","",""
"psychophysics","67","225635","0.0-8.0-0.20","5f8586b33e4d65036ae018f9","609006691f6f4e337c17f836","609a6129293af9b0add99bf1","1704.179999884218","","","","37","","","","key","16.65904320987663","768","377","true","-1","130.96608","7.864319999999999","6","-1","-1","","","","","","","","","","","","",""
"psychophysics","68","227182","0.0-8.0-0.21","5f8586b33e4d65036ae018f9","609006691f6f4e337c17f836","609a6129293af9b0add99bf1","535.9449998941272","","","","39","","","","key","16.65745652173886","768","377","true","1","130.96608","7.864319999999999","6","-1","-1","","","","","","","","","","","","",""
"psychophysics","69","228605","0.0-8.0-0.22","5f8586b33e4d65036ae018f9","609006691f6f4e337c17f836","609a6129293af9b0add99bf1","410.619999980554","","","","37","","","","key","16.654238095238163","768","377","true","-1","129","7.864319999999999","6","-1","-1","","","","","","","","","","","","",""
"psychophysics","70","229977","0.0-8.0-0.23","5f8586b33e4d65036ae018f9","609006691f6f4e337c17f836","609a6129293af9b0add99bf1","365.4899999964982","","","","39","","","","key","16.655777777777985","768","377","true","1","129","7.864319999999999","6","-1","-1","","","","","","","","","","","","",""
"psychophysics","71","231917","0.0-8.0-0.24","5f8586b33e4d65036ae018f9","609006691f6f4e337c17f836","609a6129293af9b0add99bf1","926.2849998194724","","","","37","","","","key","16.65939655172431","768","377","true","-1","129","7.864319999999999","6","-1","-1","","","","","","","","","","","","",""
"psychophysics","72","235947","0.0-8.0-0.25","5f8586b33e4d65036ae018f9","609006691f6f4e337c17f836","609a6129293af9b0add99bf1","3023.7450001295656","","","","39","","","","key","16.65746058091288","768","377","true","-1","129","6.291456","7","1","-1","","","","","","","","","","","","",""
"psychophysics","73","237367","0.0-8.0-0.26","5f8586b33e4d65036ae018f9","609006691f6f4e337c17f836","609a6129293af9b0add99bf1","411.1900001298636","","","","37","","","","key","16.658619047618966","768","377","true","-1","135.291456","6.291456","7","-1","1","","","","","","","","","","","","",""
"psychophysics","74","238769","0.0-8.0-0.27","5f8586b33e4d65036ae018f9","609006691f6f4e337c17f836","609a6129293af9b0add99bf1","395.4650000669062","","","","37","","","","key","16.65969879518078","768","377","true","-1","135.291456","5.033164800000001","8","-1","-1","","","","","","","","","","","","",""
"psychophysics","75","240586","0.0-8.0-0.28","5f8586b33e4d65036ae018f9","609006691f6f4e337c17f836","609a6129293af9b0add99bf1","811.4199999254197","","","","39","","","","key","16.659361111110936","768","377","true","-1","130.2582912","4.0265318400000005","9","1","-1","","","","","","","","","","","","",""
"psychophysics","76","241955","0.0-8.0-0.29","5f8586b33e4d65036ae018f9","609006691f6f4e337c17f836","609a6129293af9b0add99bf1","364.5150000229478","","","","39","","","","key","16.657234567901288","768","377","true","1","134.28482304","4.0265318400000005","9","-1","1","","","","","","","","","","","","",""
"psychophysics","77","243371","0.0-8.0-0.30","5f8586b33e4d65036ae018f9","609006691f6f4e337c17f836","609a6129293af9b0add99bf1","403.54999992996454","","","","39","","","","key","16.66005952380926","768","377","true","1","134.28482304","3.2212254720000004","10","-1","-1","","","","","","","","","","","","",""
"psychophysics","78","245670","0.0-8.0-0.31","5f8586b33e4d65036ae018f9","609006691f6f4e337c17f836","609a6129293af9b0add99bf1","1287.4450001399964","","","","39","","","","key","16.65837226277383","768","377","true","-1","131.06359756799998","2.5769803776000004","11","1","-1","","","","","","","","","","","","",""
"psychophysics","79","247013","0.0-8.0-0.32","5f8586b33e4d65036ae018f9","609006691f6f4e337c17f836","609a6129293af9b0add99bf1","330.9400000143796","","","","37","","","","key","16.659937499999796","768","377","true","-1","133.64057794559997","2.5769803776000004","11","-1","1","","","","","","","","","","","","",""
"psychophysics","80","248381","0.0-8.0-0.33","5f8586b33e4d65036ae018f9","609006691f6f4e337c17f836","609a6129293af9b0add99bf1","350.5150000564754","","","","39","","","","key","16.659296296296546","768","377","true","1","133.64057794559997","2.0615843020800004","12","-1","-1","","","","","","","","","","","","",""
"psychophysics","81","249831","0.0-8.0-0.34","5f8586b33e4d65036ae018f9","609006691f6f4e337c17f836","609a6129293af9b0add99bf1","445.27000002563","","","","37","","","","key","16.659895348837086","768","377","true","-1","131.57899364351996","2.0615843020800004","12","-1","-1","","","","","","","","","","","","",""
"psychophysics","82","251138","0.0-8.0-0.35","5f8586b33e4d65036ae018f9","609006691f6f4e337c17f836","609a6129293af9b0add99bf1","303.9849998895079","","","","39","","","","key","16.661717948717968","768","377","true","1","131.57899364351996","2.0615843020800004","12","-1","-1","","","","","","","","","","","","",""
"psychophysics","83","252557","0.0-8.0-0.36","5f8586b33e4d65036ae018f9","609006691f6f4e337c17f836","609a6129293af9b0add99bf1","410.8299999497831","","","","39","","","","key","16.65745238095232","768","377","true","-1","129.51740934143996","1.6492674416640005","13","1","-1","","","","","","","","","","","","",""
"psychophysics","84","254128","0.0-8.0-0.37","5f8586b33e4d65036ae018f9","609006691f6f4e337c17f836","609a6129293af9b0add99bf1","564.4300000276417","","","","37","","","","key","16.65487096774184","768","377","true","-1","131.16667678310395","1.6492674416640005","13","-1","1","","","","","","","","","","","","",""
"psychophysics","85","255626","0.0-8.0-0.38","5f8586b33e4d65036ae018f9","609006691f6f4e337c17f836","609a6129293af9b0add99bf1","495.37000013515353","","","","37","","","","key","16.66203370786519","768","377","true","1","131.16667678310395","1.3194139533312006","14","1","-1","","","","","","","","","","","","",""
"psychophysics","86","257119","0.0-8.0-0.39","5f8586b33e4d65036ae018f9","609006691f6f4e337c17f836","609a6129293af9b0add99bf1","488.39000007137656","","","","39","","","","key","16.657134831460844","768","377","true","-1","132.48609073643516","1.3194139533312006","14","1","1","","","","","","","","","","","","",""
"html-keyboard-response","87","260504","0.0-9.0","5f8586b33e4d65036ae018f9","609006691f6f4e337c17f836","609a6129293af9b0add99bf1","3382.654999848455","<p>Well Done !</p><p>Prepare for a new block.</p><p>DON'T EXIT THE FULL SCREEN MODE</p><p>Press the Spacebar to start.</p>","","","32","","","","","","","","","","","","","","","true","132.28336291135486","","","","","","","","","","",""
"psychophysics","88","262041","0.0-10.0-0.0","5f8586b33e4d65036ae018f9","609006691f6f4e337c17f836","609a6129293af9b0add99bf1","530.3849999327213","","","","39","","","","key","16.78749999999981","768","377","true","1","180","30","0","-1","","","","","","","","","","","","","",""
"psychophysics","89","263382","0.0-10.0-0.1","5f8586b33e4d65036ae018f9","609006691f6f4e337c17f836","609a6129293af9b0add99bf1","338.1499999668449","","","","39","","","","key","16.655670886076074","768","377","true","1","180","30","0","-1","-1","","","","","","","","","","","","",""
"psychophysics","90","264784","0.0-10.0-0.2","5f8586b33e4d65036ae018f9","609006691f6f4e337c17f836","609a6129293af9b0add99bf1","399.0849999245256","","","","37","","","","key","16.65774698795173","768","377","true","-1","150","30","0","-1","-1","","","","","","","","","","","","",""
"psychophysics","91","266139","0.0-10.0-0.3","5f8586b33e4d65036ae018f9","609006691f6f4e337c17f836","609a6129293af9b0add99bf1","350.5750000476837","","","","37","","","","key","16.656765432099174","768","377","true","-1","150","30","0","-1","-1","","","","","","","","","","","","",""
"psychophysics","92","267619","0.0-10.0-0.4","5f8586b33e4d65036ae018f9","609006691f6f4e337c17f836","609a6129293af9b0add99bf1","469.6549999061972","","","","39","","","","key","16.66045977011518","768","377","true","-1","129","24","1","1","-1","","","","","","","","","","","","",""
"psychophysics","93","270794","0.0-10.0-0.5","5f8586b33e4d65036ae018f9","609006691f6f4e337c17f836","609a6129293af9b0add99bf1","2161.0350001137704","","","","39","","","","key","16.658757894736787","768","377","true","1","153","24","1","-1","1","","","","","","","","","","","","",""
"psychophysics","94","272243","0.0-10.0-0.6","5f8586b33e4d65036ae018f9","609006691f6f4e337c17f836","609a6129293af9b0add99bf1","444.8750000447035","","","","37","","","","key","16.657058139534687","768","377","true","-1","153","19.2","2","-1","-1","","","","","","","","","","","","",""
"psychophysics","95","273903","0.0-10.0-0.7","5f8586b33e4d65036ae018f9","609006691f6f4e337c17f836","609a6129293af9b0add99bf1","655.2750000264496","","","","37","","","","key","16.659767676768073","768","377","true","-1","133.8","19.2","2","-1","-1","","","","","","","","","","","","",""
"psychophysics","96","276283","0.0-10.0-0.8","5f8586b33e4d65036ae018f9","609006691f6f4e337c17f836","609a6129293af9b0add99bf1","1370.2350000385195","","","","39","","","","key","16.656401408450517","768","377","true","1","133.8","19.2","2","-1","-1","","","","","","","","","","","","",""
"psychophysics","97","277797","0.0-10.0-0.9","5f8586b33e4d65036ae018f9","609006691f6f4e337c17f836","609a6129293af9b0add99bf1","501.55499996617436","","","","39","","","","key","16.655797752808763","768","377","true","1","129","19.2","2","-1","-1","","","","","","","","","","","","",""
"psychophysics","98","279417","0.0-10.0-0.10","5f8586b33e4d65036ae018f9","609006691f6f4e337c17f836","609a6129293af9b0add99bf1","615.3899999335408","","","","39","","","","key","16.65978350515415","768","377","true","-1","129","15.36","3","1","-1","","","","","","","","","","","","",""
"psychophysics","99","280892","0.0-10.0-0.11","5f8586b33e4d65036ae018f9","609006691f6f4e337c17f836","609a6129293af9b0add99bf1","463.95500004291534","","","","39","","","","key","16.653551724137895","768","377","true","1","144.36","15.36","3","-1","1","","","","","","","","","","","","",""
"psychophysics","100","282310","0.0-10.0-0.12","5f8586b33e4d65036ae018f9","609006691f6f4e337c17f836","609a6129293af9b0add99bf1","413.535000057891","","","","39","","","","key","16.657559523809358","768","377","true","1","144.36","12.287999999999998","4","-1","-1","","","","","","","","","","","","",""
"psychophysics","101","283848","0.0-10.0-0.13","5f8586b33e4d65036ae018f9","609006691f6f4e337c17f836","609a6129293af9b0add99bf1","534.1250000055879","","","","37","","","","key","16.65715217391287","768","377","true","-1","132.072","12.287999999999998","4","-1","-1","","","","","","","","","","","","",""
"psychophysics","102","285358","0.0-10.0-0.14","5f8586b33e4d65036ae018f9","609006691f6f4e337c17f836","609a6129293af9b0add99bf1","499.73500007763505","","","","37","","","","key","16.65565168539329","768","377","true","-1","132.072","12.287999999999998","4","-1","-1","","","","","","","","","","","","",""
"psychophysics","103","286851","0.0-10.0-0.15","5f8586b33e4d65036ae018f9","609006691f6f4e337c17f836","609a6129293af9b0add99bf1","489.3300000112504","","","","39","","","","key","16.660471910112435","768","377","true","-1","129","9.8304","5","1","-1","","","","","","","","","","","","",""
"psychophysics","104","288272","0.0-10.0-0.16","5f8586b33e4d65036ae018f9","609006691f6f4e337c17f836","609a6129293af9b0add99bf1","413.88999996706843","","","","39","","","","key","16.654261904761718","768","377","true","1","138.8304","9.8304","5","-1","1","","","","","","","","","","","","",""
"psychophysics","105","289620","0.0-10.0-0.17","5f8586b33e4d65036ae018f9","609006691f6f4e337c17f836","609a6129293af9b0add99bf1","344.5000001229346","","","","37","","","","key","16.66032500000001","768","377","true","-1","138.8304","7.864319999999999","6","-1","-1","","","","","","","","","","","","",""
"psychophysics","106","291114","0.0-10.0-0.18","5f8586b33e4d65036ae018f9","609006691f6f4e337c17f836","609a6129293af9b0add99bf1","490.5149999540299","","","","39","","","","key","16.65735955056185","768","377","true","-1","130.96608","6.291456","7","1","-1","","","","","","","","","","","","",""
"psychophysics","107","292487","0.0-10.0-0.19","5f8586b33e4d65036ae018f9","609006691f6f4e337c17f836","609a6129293af9b0add99bf1","367.6650000270456","","","","39","","","","key","16.659580246913304","768","377","true","1","137.25753600000002","6.291456","7","-1","1","","","","","","","","","","","","",""
"psychophysics","108","293770","0.0-10.0-0.20","5f8586b33e4d65036ae018f9","609006691f6f4e337c17f836","609a6129293af9b0add99bf1","279.5800000894815","","","","39","","","","key","16.660394736842136","768","377","true","1","137.25753600000002","5.033164800000001","8","-1","-1","","","","","","","","","","","","",""
"psychophysics","109","297812","0.0-10.0-0.21","5f8586b33e4d65036ae018f9","609006691f6f4e337c17f836","609a6129293af9b0add99bf1","3038.2550000213087","","","","37","","","","key","16.658115702479442","768","377","true","-1","132.2243712","5.033164800000001","8","-1","-1","","","","","","","","","","","","",""
"psychophysics","110","299927","0.0-10.0-0.22","5f8586b33e4d65036ae018f9","609006691f6f4e337c17f836","609a6129293af9b0add99bf1","1108.714999863878","","","","39","","","","key","16.657658730158655","768","377","true","1","132.2243712","5.033164800000001","8","-1","-1","","","","","","","","","","","","",""
"psychophysics","111","301732","0.0-10.0-0.23","5f8586b33e4d65036ae018f9","609006691f6f4e337c17f836","609a6129293af9b0add99bf1","798.0100000277162","","","","39","","","","key","16.657841121495558","768","377","true","1","129","5.033164800000001","8","-1","-1","","","","","","","","","","","","",""
"psychophysics","112","303293","0.0-10.0-0.24","5f8586b33e4d65036ae018f9","609006691f6f4e337c17f836","609a6129293af9b0add99bf1","557.6049999799579","","","","39","","","","key","16.65994623655914","768","377","true","-1","129","4.0265318400000005","9","1","-1","","","","","","","","","","","","",""
"psychophysics","113","304729","0.0-10.0-0.25","5f8586b33e4d65036ae018f9","609006691f6f4e337c17f836","609a6129293af9b0add99bf1","431.07499997131526","","","","39","","","","key","16.660811764705816","768","377","true","1","133.02653184","4.0265318400000005","9","-1","1","","","","","","","","","","","","",""
"psychophysics","114","306033","0.0-10.0-0.26","5f8586b33e4d65036ae018f9","609006691f6f4e337c17f836","609a6129293af9b0add99bf1","299.6799999382347","","","","37","","","","key","16.65708974358933","768","377","true","-1","133.02653184","3.2212254720000004","10","-1","-1","","","","","","","","","","","","",""
"psychophysics","115","307582","0.0-10.0-0.27","5f8586b33e4d65036ae018f9","609006691f6f4e337c17f836","609a6129293af9b0add99bf1","540.1450002100319","","","","39","","","","key","16.65890217391311","768","377","true","1","129.805306368","3.2212254720000004","10","-1","-1","","","","","","","","","","","","",""
"psychophysics","116","309112","0.0-10.0-0.28","5f8586b33e4d65036ae018f9","609006691f6f4e337c17f836","609a6129293af9b0add99bf1","517.2399999573827","","","","39","","","","key","16.65875555555556","768","377","true","-1","129.805306368","2.5769803776000004","11","1","-1","","","","","","","","","","","","",""
"psychophysics","117","310814","0.0-10.0-0.29","5f8586b33e4d65036ae018f9","609006691f6f4e337c17f836","609a6129293af9b0add99bf1","696.8650000635535","","","","39","","","","key","16.657156862744802","768","377","true","1","132.3822867456","2.5769803776000004","11","-1","1","","","","","","","","","","","","",""
"psychophysics","118","312587","0.0-10.0-0.30","5f8586b33e4d65036ae018f9","609006691f6f4e337c17f836","609a6129293af9b0add99bf1","769.1049999557436","","","","37","","","","key","16.65345714285726","768","377","true","-1","132.3822867456","2.0615843020800004","12","-1","-1","","","","","","","","","","","","",""
"psychophysics","119","313994","0.0-10.0-0.31","5f8586b33e4d65036ae018f9","609006691f6f4e337c17f836","609a6129293af9b0add99bf1","403.4349999856204","","","","39","","","","key","16.65885542168672","768","377","true","-1","130.32070244352","1.6492674416640005","13","1","-1","","","","","","","","","","","","",""
"psychophysics","120","315361","0.0-10.0-0.32","5f8586b33e4d65036ae018f9","609006691f6f4e337c17f836","609a6129293af9b0add99bf1","356.2199999578297","","","","39","","","","key","16.659463414634157","768","377","true","1","131.96996988518399","1.6492674416640005","13","-1","1","","","","","","","","","","","","",""
"psychophysics","121","317099","0.0-10.0-0.33","5f8586b33e4d65036ae018f9","609006691f6f4e337c17f836","609a6129293af9b0add99bf1","727.2650001104921","","","","39","","","","key","16.65309708737836","768","377","true","1","131.96996988518399","1.3194139533312006","14","-1","-1","","","","","","","","","","","","",""
"psychophysics","122","318636","0.0-10.0-0.34","5f8586b33e4d65036ae018f9","609006691f6f4e337c17f836","609a6129293af9b0add99bf1","531.3500000629574","","","","37","","","","key","16.661681318681197","768","377","true","-1","130.65055593185278","1.3194139533312006","14","-1","-1","","","","","","","","","","","","",""
"psychophysics","123","320189","0.0-10.0-0.35","5f8586b33e4d65036ae018f9","609006691f6f4e337c17f836","609a6129293af9b0add99bf1","548.4599999617785","","","","39","","","","key","16.660641304347614","768","377","true","1","130.65055593185278","1.3194139533312006","14","-1","-1","","","","","","","","","","","","",""
"psychophysics","124","322631","0.0-10.0-0.36","5f8586b33e4d65036ae018f9","609006691f6f4e337c17f836","609a6129293af9b0add99bf1","1429.9249998293817","","","","39","","","","key","16.658808219177992","768","377","true","1","129.33114197852157","1.3194139533312006","14","-1","-1","","","","","","","","","","","","",""
"psychophysics","125","325260","0.0-10.0-0.37","5f8586b33e4d65036ae018f9","609006691f6f4e337c17f836","609a6129293af9b0add99bf1","1625.3549999091774","","","","37","","","","key","16.655942675159285","768","377","true","-1","129.33114197852157","1.3194139533312006","14","-1","-1","","","","","","","","","","","","",""
"psychophysics","126","327056","0.0-10.0-0.38","5f8586b33e4d65036ae018f9","609006691f6f4e337c17f836","609a6129293af9b0add99bf1","789.1100000124425","","","","39","","","","key","16.657728971962417","768","377","true","1","129","1.3194139533312006","14","-1","-1","","","","","","","","","","","","",""
"psychophysics","127","329063","0.0-10.0-0.39","5f8586b33e4d65036ae018f9","609006691f6f4e337c17f836","609a6129293af9b0add99bf1","997.270000167191","","","","39","","","","key","16.654857142857264","768","377","true","-1","129","1.0555311626649604","15","1","-1","","","","","","","","","","","","",""
"html-keyboard-response","128","330757","0.0-11.0","5f8586b33e4d65036ae018f9","609006691f6f4e337c17f836","609a6129293af9b0add99bf1","1692.1200000215322","<p>Well Done !</p><p>Prepare for a new block.</p><p>DON'T EXIT THE FULL SCREEN MODE</p><p>Press the Spacebar to start.</p>","","","32","","","","","","","","","","","","","","","true","130.84348586278912","","","","","","","","","","",""
"psychophysics","129","332411","0.0-12.0-0.0","5f8586b33e4d65036ae018f9","609006691f6f4e337c17f836","609a6129293af9b0add99bf1","649.9900000635535","","","","37","","","","key","16.582130000000472","768","377","true","-1","180","30","0","-1","","","","","","","","","","","","","",""
"psychophysics","130","333945","0.0-12.0-0.1","5f8586b33e4d65036ae018f9","609006691f6f4e337c17f836","609a6129293af9b0add99bf1","522.8150000330061","","","","37","","","","key","16.654098901098752","768","377","true","-1","180","30","0","-1","-1","","","","","","","","","","","","",""
"psychophysics","131","335311","0.0-12.0-0.2","5f8586b33e4d65036ae018f9","609006691f6f4e337c17f836","609a6129293af9b0add99bf1","355.16000003553927","","","","39","","","","key","16.655913580247102","768","377","true","1","150","30","0","-1","-1","","","","","","","","","","","","",""
"psychophysics","132","336600","0.0-12.0-0.3","5f8586b33e4d65036ae018f9","609006691f6f4e337c17f836","609a6129293af9b0add99bf1","280.3950000088662","","","","37","","","","key","16.656263157895363","768","377","true","-1","150","30","0","-1","-1","","","","","","","","","","","","",""
"psychophysics","133","338246","0.0-12.0-0.4","5f8586b33e4d65036ae018f9","609006691f6f4e337c17f836","609a6129293af9b0add99bf1","641.7149999178946","","","","39","","","","key","16.658306122449233","768","377","true","-1","129","24","1","1","-1","","","","","","","","","","","","",""
"psychophysics","134","339681","0.0-12.0-0.5","5f8586b33e4d65036ae018f9","609006691f6f4e337c17f836","609a6129293af9b0add99bf1","429.9950001295656","","","","37","","","","key","16.65428235294119","768","377","true","-1","153","24","1","-1","1","","","","","","","","","","","","",""
"psychophysics","135","341044","0.0-12.0-0.6","5f8586b33e4d65036ae018f9","609006691f6f4e337c17f836","609a6129293af9b0add99bf1","358.9350001420826","","","","39","","","","key","16.657382716049646","768","377","true","1","153","19.2","2","-1","-1","","","","","","","","","","","","",""
"psychophysics","136","342459","0.0-12.0-0.7","5f8586b33e4d65036ae018f9","609006691f6f4e337c17f836","609a6129293af9b0add99bf1","410.00499995425344","","","","39","","","","key","16.65667857142883","768","377","true","1","133.8","19.2","2","-1","-1","","","","","","","","","","","","",""
"psychophysics","137","343876","0.0-12.0-0.8","5f8586b33e4d65036ae018f9","609006691f6f4e337c17f836","609a6129293af9b0add99bf1","410.79499991610646","","","","37","","","","key","16.65625","768","377","true","-1","133.8","19.2","2","-1","-1","","","","","","","","","","","","",""
"psychophysics","138","345478","0.0-12.0-0.9","5f8586b33e4d65036ae018f9","609006691f6f4e337c17f836","609a6129293af9b0add99bf1","596.6400001198053","","","","37","","","","key","16.657631578947736","768","377","true","-1","129","19.2","2","-1","-1","","","","","","","","","","","","",""
"psychophysics","139","348218","0.0-12.0-0.10","5f8586b33e4d65036ae018f9","609006691f6f4e337c17f836","609a6129293af9b0add99bf1","1733.7450000923127","","","","39","","","","key","16.655932926829117","768","377","true","-1","129","15.36","3","1","-1","","","","","","","","","","","","",""
"psychophysics","140","349552","0.0-12.0-0.11","5f8586b33e4d65036ae018f9","609006691f6f4e337c17f836","609a6129293af9b0add99bf1","323.33499984815717","","","","37","","","","key","16.656784810126563","768","377","true","-1","144.36","15.36","3","-1","1","","","","","","","","","","","","",""
"psychophysics","141","350998","0.0-12.0-0.12","5f8586b33e4d65036ae018f9","609006691f6f4e337c17f836","609a6129293af9b0add99bf1","436.19000003673136","","","","37","","","","key","16.656399999999934","768","377","true","-1","144.36","12.287999999999998","4","-1","-1","","","","","","","","","","","","",""
"psychophysics","142","352861","0.0-12.0-0.13","5f8586b33e4d65036ae018f9","609006691f6f4e337c17f836","609a6129293af9b0add99bf1","849.9750001356006","","","","39","","","","key","16.65894594594578","768","377","true","1","132.072","12.287999999999998","4","-1","-1","","","","","","","","","","","","",""
"psychophysics","143","354882","0.0-12.0-0.14","5f8586b33e4d65036ae018f9","609006691f6f4e337c17f836","609a6129293af9b0add99bf1","1017.6500000525266","","","","39","","","","key","16.65745454545427","768","377","true","1","132.072","12.287999999999998","4","-1","-1","","","","","","","","","","","","",""
"psychophysics","144","356406","0.0-12.0-0.15","5f8586b33e4d65036ae018f9","609006691f6f4e337c17f836","609a6129293af9b0add99bf1","512.3300000559539","","","","37","","","","key","16.656500000000232","768","377","true","1","129","9.8304","5","1","-1","","","","","","","","","","","","",""
"psychophysics","145","357833","0.0-12.0-0.16","5f8586b33e4d65036ae018f9","609006691f6f4e337c17f836","609a6129293af9b0add99bf1","420.94999994151294","","","","37","","","","key","16.65764705882312","768","377","true","-1","138.8304","9.8304","5","-1","1","","","","","","","","","","","","",""
"psychophysics","146","359179","0.0-12.0-0.17","5f8586b33e4d65036ae018f9","609006691f6f4e337c17f836","609a6129293af9b0add99bf1","337.13999995961785","","","","39","","","","key","16.659150000000228","768","377","true","1","138.8304","7.864319999999999","6","-1","-1","","","","","","","","","","","","",""
"psychophysics","147","361579","0.0-12.0-0.18","5f8586b33e4d65036ae018f9","609006691f6f4e337c17f836","609a6129293af9b0add99bf1","1388.2149998098612","","","","37","","","","key","16.65690209790193","768","377","true","1","130.96608","6.291456","7","1","-1","","","","","","","","","","","","",""
"psychophysics","148","362938","0.0-12.0-0.19","5f8586b33e4d65036ae018f9","609006691f6f4e337c17f836","609a6129293af9b0add99bf1","349.7250000946224","","","","37","","","","key","16.652837499999443","768","377","true","-1","137.25753600000002","6.291456","7","-1","1","","","","","","","","","","","","",""
"psychophysics","149","364340","0.0-12.0-0.20","5f8586b33e4d65036ae018f9","609006691f6f4e337c17f836","609a6129293af9b0add99bf1","398.6400000285357","","","","39","","","","key","16.661253012048434","768","377","true","1","137.25753600000002","5.033164800000001","8","-1","-1","","","","","","","","","","","","",""
"psychophysics","150","365789","0.0-12.0-0.21","5f8586b33e4d65036ae018f9","609006691f6f4e337c17f836","609a6129293af9b0add99bf1","434.93000022135675","","","","37","","","","key","16.660988372093374","768","377","true","-1","132.2243712","5.033164800000001","8","-1","-1","","","","","","","","","","","","",""
"psychophysics","151","367228","0.0-12.0-0.22","5f8586b33e4d65036ae018f9","609006691f6f4e337c17f836","609a6129293af9b0add99bf1","435.9599999152124","","","","39","","","","key","16.660348837209735","768","377","true","-1","132.2243712","4.0265318400000005","9","1","-1","","","","","","","","","","","","",""
"psychophysics","152","368704","0.0-12.0-0.23","5f8586b33e4d65036ae018f9","609006691f6f4e337c17f836","609a6129293af9b0add99bf1","468.3749999385327","","","","39","","","","key","16.653310344827457","768","377","true","1","136.25090304","4.0265318400000005","9","-1","1","","","","","","","","","","","","",""
"psychophysics","153","370156","0.0-12.0-0.24","5f8586b33e4d65036ae018f9","609006691f6f4e337c17f836","609a6129293af9b0add99bf1","449.3299999739975","","","","39","","","","key","16.66029885057467","768","377","true","1","136.25090304","3.2212254720000004","10","-1","-1","","","","","","","","","","","","",""
"psychophysics","154","372441","0.0-12.0-0.25","5f8586b33e4d65036ae018f9","609006691f6f4e337c17f836","609a6129293af9b0add99bf1","1275.249999947846","","","","39","","","","key","16.658404411764742","768","377","true","1","133.029677568","3.2212254720000004","10","-1","-1","","","","","","","","","","","","",""
"psychophysics","155","373934","0.0-12.0-0.26","5f8586b33e4d65036ae018f9","609006691f6f4e337c17f836","609a6129293af9b0add99bf1","481.9399998523295","","","","37","","","","key","16.656125000000017","768","377","true","-1","133.029677568","3.2212254720000004","10","-1","-1","","","","","","","","","","","","",""
"psychophysics","156","375387","0.0-12.0-0.27","5f8586b33e4d65036ae018f9","609006691f6f4e337c17f836","609a6129293af9b0add99bf1","447.1050000283867","","","","39","","","","key","16.657379310345277","768","377","true","1","129.808452096","3.2212254720000004","10","-1","-1","","","","","","","","","","","","",""
"psychophysics","157","377041","0.0-12.0-0.28","5f8586b33e4d65036ae018f9","609006691f6f4e337c17f836","609a6129293af9b0add99bf1","643.4349999763072","","","","39","","","","key","16.65671428571436","768","377","true","1","129.808452096","3.2212254720000004","10","-1","-1","","","","","","","","","","","","",""
"psychophysics","158","379007","0.0-12.0-0.29","5f8586b33e4d65036ae018f9","609006691f6f4e337c17f836","609a6129293af9b0add99bf1","959.7100000828505","","","","39","","","","key","16.656803418803587","768","377","true","-1","129","2.5769803776000004","11","1","-1","","","","","","","","","","","","",""
"psychophysics","159","380374","0.0-12.0-0.30","5f8586b33e4d65036ae018f9","609006691f6f4e337c17f836","609a6129293af9b0add99bf1","362.4450000934303","","","","37","","","","key","16.657037037037412","768","377","true","-1","131.5769803776","2.5769803776000004","11","-1","1","","","","","","","","","","","","",""
"psychophysics","160","381844","0.0-12.0-0.31","5f8586b33e4d65036ae018f9","609006691f6f4e337c17f836","609a6129293af9b0add99bf1","465.6449998728931","","","","39","","","","key","16.657597701149545","768","377","true","1","131.5769803776","2.0615843020800004","12","-1","-1","","","","","","","","","","","","",""
"psychophysics","161","383428","0.0-12.0-0.32","5f8586b33e4d65036ae018f9","609006691f6f4e337c17f836","609a6129293af9b0add99bf1","580.3100001066923","","","","39","","","","key","16.657499999999924","768","377","true","-1","129.51539607552","1.6492674416640005","13","1","-1","","","","","","","","","","","","",""
"psychophysics","162","384994","0.0-12.0-0.33","5f8586b33e4d65036ae018f9","609006691f6f4e337c17f836","609a6129293af9b0add99bf1","561.8350000586361","","","","39","","","","key","16.661096774193744","768","377","true","1","131.16466351718398","1.6492674416640005","13","-1","1","","","","","","","","","","","","",""
"psychophysics","163","386381","0.0-12.0-0.34","5f8586b33e4d65036ae018f9","609006691f6f4e337c17f836","609a6129293af9b0add99bf1","383.23500007390976","","","","37","","","","key","16.65627710843327","768","377","true","-1","131.16466351718398","1.3194139533312006","14","-1","-1","","","","","","","","","","","","",""
"psychophysics","164","388255","0.0-12.0-0.35","5f8586b33e4d65036ae018f9","609006691f6f4e337c17f836","609a6129293af9b0add99bf1","866.6449999436736","","","","39","","","","key","16.658270270270002","768","377","true","1","129.84524956385278","1.3194139533312006","14","-1","-1","","","","","","","","","","","","",""
"psychophysics","165","389808","0.0-12.0-0.36","5f8586b33e4d65036ae018f9","609006691f6f4e337c17f836","609a6129293af9b0add99bf1","547.179999994114","","","","39","","","","key","16.657760869565486","768","377","true","-1","129.84524956385278","1.0555311626649604","15","1","-1","","","","","","","","","","","","",""
"psychophysics","166","391451","0.0-12.0-0.37","5f8586b33e4d65036ae018f9","609006691f6f4e337c17f836","609a6129293af9b0add99bf1","639.0150000806898","","","","39","","","","key","16.657969387755397","768","377","true","1","130.90078072651772","1.0555311626649604","15","-1","1","","","","","","","","","","","","",""
"psychophysics","167","392992","0.0-12.0-0.38","5f8586b33e4d65036ae018f9","609006691f6f4e337c17f836","609a6129293af9b0add99bf1","532.0600001141429","","","","39","","","","key","16.655802197802355","768","377","true","1","130.90078072651772","1","16","-1","-1","","","","","","","","","","","","",""
"psychophysics","168","394718","0.0-12.0-0.39","5f8586b33e4d65036ae018f9","609006691f6f4e337c17f836","609a6129293af9b0add99bf1","714.3250000663102","","","","39","","","","key","16.659980582524298","768","377","true","1","129.90078072651772","1","16","-1","-1","","","","","","","","","","","","",""
"html-keyboard-response","169","397033","0.0-13.0","5f8586b33e4d65036ae018f9","609006691f6f4e337c17f836","609a6129293af9b0add99bf1","2312.8200001083314","<p>Well Done !</p><p>Prepare for a new block.</p><p>DON'T EXIT THE FULL SCREEN MODE</p><p>Press the Spacebar to start.</p>","","","32","","","","","","","","","","","","","","","true","130.7378523000231","","","","","","","","","","",""
"html-keyboard-response","170","397144","0.0-14.0","5f8586b33e4d65036ae018f9","609006691f6f4e337c17f836","609a6129293af9b0add99bf1","null","","","","null","","","","","","","","","","","","","","","","","131.23132196752314","true","134.4626439350463","","","","","","","",""
"instructions","171","423436","0.0-15.0","5f8586b33e4d65036ae018f9","609006691f6f4e337c17f836","609a6129293af9b0add99bf1","26291.064999997616","","","","","","","[{""page_index"":0,""viewing_time"":20615.085000172257},{""page_index"":1,""viewing_time"":3815.4149998445064},{""page_index"":2,""viewing_time"":1860.2299999911338}]","","","","","","","","","","","","","","","","","","","","","","","",""
"psychophysics","172","426445","0.0-16.0-0.0","5f8586b33e4d65036ae018f9","609006691f6f4e337c17f836","609a6129293af9b0add99bf1","null","","","","null","","","","key","16.44145000000038","768","377","","","","","","","","","","","","","","","","","","","",""
"psychophysics","173","426949","0.0-16.0-1.0","5f8586b33e4d65036ae018f9","609006691f6f4e337c17f836","609a6129293af9b0add99bf1","null","","","","null","","","","key","16.650700000000263","768","377","","","","","","","","","","","","","134","-1","6","false","","","",""
"psychophysics","174","430295","0.0-16.0-2.0","5f8586b33e4d65036ae018f9","609006691f6f4e337c17f836","609a6129293af9b0add99bf1","3342.390000121668","","","","77","","","","key","16.658654999999854","768","377","","","","","","","","","","","","","","","","","","","",""
"psychophysics","175","431306","0.0-16.0-0.1","5f8586b33e4d65036ae018f9","609006691f6f4e337c17f836","609a6129293af9b0add99bf1","null","","","","null","","","","key","16.660576271187214","768","377","","","","","","","","","","","","","","","","","","","",""
"psychophysics","176","431811","0.0-16.0-1.1","5f8586b33e4d65036ae018f9","609006691f6f4e337c17f836","609a6129293af9b0add99bf1","null","","","","null","","","","key","16.659500000001085","768","377","","","","","","","","","","","","","134","1","4","false","","","",""
"psychophysics","177","433726","0.0-16.0-2.1","5f8586b33e4d65036ae018f9","609006691f6f4e337c17f836","609a6129293af9b0add99bf1","1911.809999961406","","","","90","","","","key","16.657087719298207","768","377","","","","","","","","","","","","","","","","","","","",""
"psychophysics","178","434736","0.0-16.0-0.2","5f8586b33e4d65036ae018f9","609006691f6f4e337c17f836","609a6129293af9b0add99bf1","null","","","","null","","","","key","16.657932203389326","768","377","","","","","","","","","","","","","","","","","","","",""
"psychophysics","179","435242","0.0-16.0-1.2","5f8586b33e4d65036ae018f9","609006691f6f4e337c17f836","609a6129293af9b0add99bf1","null","","","","null","","","","key","16.665966666666403","768","377","","","","","","","","","","","","","134","1","2","false","","","",""
"psychophysics","180","436395","0.0-16.0-2.2","5f8586b33e4d65036ae018f9","609006691f6f4e337c17f836","609a6129293af9b0add99bf1","1150.205000070855","","","","90","","","","key","16.657264705882614","768","377","","","","","","","","","","","","","","","","","","","",""
"psychophysics","181","437404","0.0-16.0-0.3","5f8586b33e4d65036ae018f9","609006691f6f4e337c17f836","609a6129293af9b0add99bf1","null","","","","null","","","","key","16.656220338983122","768","377","","","","","","","","","","","","","","","","","","","",""
"psychophysics","182","437908","0.0-16.0-1.3","5f8586b33e4d65036ae018f9","609006691f6f4e337c17f836","609a6129293af9b0add99bf1","null","","","","null","","","","key","16.666400000000916","768","377","","","","","","","","","","","","","134","-1","0","false","","","",""
"psychophysics","183","438741","0.0-16.0-2.3","5f8586b33e4d65036ae018f9","609006691f6f4e337c17f836","609a6129293af9b0add99bf1","829.5849999412894","","","","77","","","","key","16.659979591836287","768","377","","","","","","","","","","","","","","","","","","","",""
"psychophysics","184","439750","0.0-16.0-0.4","5f8586b33e4d65036ae018f9","609006691f6f4e337c17f836","609a6129293af9b0add99bf1","null","","","","null","","","","key","16.653932203389743","768","377","","","","","","","","","","","","","","","","","","","",""
"psychophysics","185","440254","0.0-16.0-1.4","5f8586b33e4d65036ae018f9","609006691f6f4e337c17f836","609a6129293af9b0add99bf1","null","","","","null","","","","key","16.664793103449608","768","377","","","","","","","","","","","","","134","-1","4","false","","","",""
"psychophysics","186","442134","0.0-16.0-2.4","5f8586b33e4d65036ae018f9","609006691f6f4e337c17f836","609a6129293af9b0add99bf1","1871.0899997968227","","","","77","","","","key","16.657848214285746","768","377","","","","","","","","","","","","","","","","","","","",""
"psychophysics","187","443137","0.0-16.0-0.5","5f8586b33e4d65036ae018f9","609006691f6f4e337c17f836","609a6129293af9b0add99bf1","null","","","","null","","","","key","16.6587333333339","768","377","","","","","","","","","","","","","","","","","","","",""
"psychophysics","188","443648","0.0-16.0-1.5","5f8586b33e4d65036ae018f9","609006691f6f4e337c17f836","609a6129293af9b0add99bf1","null","","","","null","","","","key","16.662448275862424","768","377","","","","","","","","","","","","","134","1","6","false","","","",""
"psychophysics","189","444715","0.0-16.0-2.5","5f8586b33e4d65036ae018f9","609006691f6f4e337c17f836","609a6129293af9b0add99bf1","1064.039999851957","","","","90","","","","key","16.657904761905286","768","377","","","","","","","","","","","","","","","","","","","",""
"psychophysics","190","445717","0.0-16.0-0.6","5f8586b33e4d65036ae018f9","609006691f6f4e337c17f836","609a6129293af9b0add99bf1","null","","","","null","","","","key","16.6608305084746","768","377","","","","","","","","","","","","","","","","","","","",""
"psychophysics","191","446230","0.0-16.0-1.6","5f8586b33e4d65036ae018f9","609006691f6f4e337c17f836","609a6129293af9b0add99bf1","null","","","","null","","","","key","16.660333333333256","768","377","","","","","","","","","","","","","134","1","3","false","","","",""
"psychophysics","192","447224","0.0-16.0-2.6","5f8586b33e4d65036ae018f9","609006691f6f4e337c17f836","609a6129293af9b0add99bf1","990.8749999012798","","","","90","","","","key","16.659932203390596","768","377","","","","","","","","","","","","","","","","","","","",""
"psychophysics","193","448229","0.0-16.0-0.7","5f8586b33e4d65036ae018f9","609006691f6f4e337c17f836","609a6129293af9b0add99bf1","null","","","","null","","","","key","16.656288135593552","768","377","","","","","","","","","","","","","","","","","","","",""
"psychophysics","194","448733","0.0-16.0-1.7","5f8586b33e4d65036ae018f9","609006691f6f4e337c17f836","609a6129293af9b0add99bf1","null","","","","null","","","","key","16.667275862067793","768","377","","","","","","","","","","","","","134","-1","2","false","","","",""
"psychophysics","195","449817","0.0-16.0-2.7","5f8586b33e4d65036ae018f9","609006691f6f4e337c17f836","609a6129293af9b0add99bf1","1079.3399999383837","","","","90","","","","key","16.658584615384015","768","377","","","","","","","","","","","","","","","","","","","",""
"psychophysics","196","450827","0.0-16.0-0.8","5f8586b33e4d65036ae018f9","609006691f6f4e337c17f836","609a6129293af9b0add99bf1","null","","","","null","","","","key","16.66166101694916","768","377","","","","","","","","","","","","","","","","","","","",""
"psychophysics","197","451331","0.0-16.0-1.8","5f8586b33e4d65036ae018f9","609006691f6f4e337c17f836","609a6129293af9b0add99bf1","null","","","","null","","","","key","16.66520689655264","768","377","","","","","","","","","","","","","134","1","5","false","","","",""
"psychophysics","198","452085","0.0-16.0-2.8","5f8586b33e4d65036ae018f9","609006691f6f4e337c17f836","609a6129293af9b0add99bf1","748.3350001275539","","","","90","","","","key","16.655755555554705","768","377","","","","","","","","","","","","","","","","","","","",""
"psychophysics","199","453093","0.0-16.0-0.9","5f8586b33e4d65036ae018f9","609006691f6f4e337c17f836","609a6129293af9b0add99bf1","null","","","","null","","","","key","16.66016949152562","768","377","","","","","","","","","","","","","","","","","","","",""
"psychophysics","200","453597","0.0-16.0-1.9","5f8586b33e4d65036ae018f9","609006691f6f4e337c17f836","609a6129293af9b0add99bf1","null","","","","null","","","","key","16.664689655172847","768","377","","","","","","","","","","","","","134","-1","3","false","","","",""
"psychophysics","201","454590","0.0-16.0-2.9","5f8586b33e4d65036ae018f9","609006691f6f4e337c17f836","609a6129293af9b0add99bf1","983.805000083521","","","","90","","","","key","16.65762711864387","768","377","","","","","","","","","","","","","","","","","","","",""
"psychophysics","202","455595","0.0-16.0-0.10","5f8586b33e4d65036ae018f9","609006691f6f4e337c17f836","609a6129293af9b0add99bf1","null","","","","null","","","","key","16.658406779661348","768","377","","","","","","","","","","","","","","","","","","","",""
"psychophysics","203","456107","0.0-16.0-1.10","5f8586b33e4d65036ae018f9","609006691f6f4e337c17f836","609a6129293af9b0add99bf1","null","","","","null","","","","key","16.657200000000497","768","377","","","","","","","","","","","","","134","-1","5","false","","","",""
"psychophysics","204","456605","0.0-16.0-2.10","5f8586b33e4d65036ae018f9","609006691f6f4e337c17f836","609a6129293af9b0add99bf1","494.3800000473857","","","","77","","","","key","16.666103448275205","768","377","","","","","","","","","","","","","","","","","","","",""
"psychophysics","205","457609","0.0-16.0-0.11","5f8586b33e4d65036ae018f9","609006691f6f4e337c17f836","609a6129293af9b0add99bf1","null","","","","null","","","","key","16.653084745762822","768","377","","","","","","","","","","","","","","","","","","","",""
"psychophysics","206","458112","0.0-16.0-1.11","5f8586b33e4d65036ae018f9","609006691f6f4e337c17f836","609a6129293af9b0add99bf1","null","","","","null","","","","key","16.664000000001398","768","377","","","","","","","","","","","","","134","1","0","false","","","",""
"psychophysics","207","459309","0.0-16.0-2.11","5f8586b33e4d65036ae018f9","609006691f6f4e337c17f836","609a6129293af9b0add99bf1","1193.5700001195073","","","","90","","","","key","16.660128571429023","768","377","","","","","","","","","","","","","","","","","","","",""
"psychophysics","208","460312","0.0-16.0-0.12","5f8586b33e4d65036ae018f9","609006691f6f4e337c17f836","609a6129293af9b0add99bf1","null","","","","null","","","","key","16.66223333333328","768","377","","","","","","","","","","","","","","","","","","","",""
"psychophysics","209","460821","0.0-16.0-1.12","5f8586b33e4d65036ae018f9","609006691f6f4e337c17f836","609a6129293af9b0add99bf1","null","","","","null","","","","key","16.654827586206576","768","377","","","","","","","","","","","","","134","-1","3","false","","","",""
"psychophysics","210","462842","0.0-16.0-2.12","5f8586b33e4d65036ae018f9","609006691f6f4e337c17f836","609a6129293af9b0add99bf1","2017.310000024736","","","","77","","","","key","16.657341666666618","768","377","","","","","","","","","","","","","","","","","","","",""
"psychophysics","211","463845","0.0-16.0-0.13","5f8586b33e4d65036ae018f9","609006691f6f4e337c17f836","609a6129293af9b0add99bf1","null","","","","null","","","","key","16.661350000000674","768","377","","","","","","","","","","","","","","","","","","","",""
"psychophysics","212","464355","0.0-16.0-1.13","5f8586b33e4d65036ae018f9","609006691f6f4e337c17f836","609a6129293af9b0add99bf1","null","","","","null","","","","key","16.665034482759374","768","377","","","","","","","","","","","","","134","-1","2","false","","","",""
"psychophysics","213","464853","0.0-16.0-2.13","5f8586b33e4d65036ae018f9","609006691f6f4e337c17f836","609a6129293af9b0add99bf1","492.36000003293157","","","","77","","","","key","16.654999999999838","768","377","","","","","","","","","","","","","","","","","","","",""
"psychophysics","214","465867","0.0-16.0-0.14","5f8586b33e4d65036ae018f9","609006691f6f4e337c17f836","609a6129293af9b0add99bf1","null","","","","null","","","","key","16.65816666666748","768","377","","","","","","","","","","","","","","","","","","","",""
"psychophysics","215","466373","0.0-16.0-1.14","5f8586b33e4d65036ae018f9","609006691f6f4e337c17f836","609a6129293af9b0add99bf1","null","","","","null","","","","key","16.66475862068935","768","377","","","","","","","","","","","","","134","1","0","false","","","",""
"psychophysics","216","467312","0.0-16.0-2.14","5f8586b33e4d65036ae018f9","609006691f6f4e337c17f836","609a6129293af9b0add99bf1","927.6799999643117","","","","90","","","","key","16.65760714285716","768","377","","","","","","","","","","","","","","","","","","","",""
"psychophysics","217","468318","0.0-16.0-0.15","5f8586b33e4d65036ae018f9","609006691f6f4e337c17f836","609a6129293af9b0add99bf1","null","","","","null","","","","key","16.6560677966099","768","377","","","","","","","","","","","","","","","","","","","",""
"psychophysics","218","468821","0.0-16.0-1.15","5f8586b33e4d65036ae018f9","609006691f6f4e337c17f836","609a6129293af9b0add99bf1","null","","","","null","","","","key","16.65620689655068","768","377","","","","","","","","","","","","","134","1","4","false","","","",""
"psychophysics","219","469408","0.0-16.0-2.15","5f8586b33e4d65036ae018f9","609006691f6f4e337c17f836","609a6129293af9b0add99bf1","581.3400000333786","","","","90","","","","key","16.659085714286526","768","377","","","","","","","","","","","","","","","","","","","",""
"psychophysics","220","470418","0.0-16.0-0.16","5f8586b33e4d65036ae018f9","609006691f6f4e337c17f836","609a6129293af9b0add99bf1","null","","","","null","","","","key","16.65615254237269","768","377","","","","","","","","","","","","","","","","","","","",""
"psychophysics","221","470921","0.0-16.0-1.16","5f8586b33e4d65036ae018f9","609006691f6f4e337c17f836","609a6129293af9b0add99bf1","null","","","","null","","","","key","16.663933333333503","768","377","","","","","","","","","","","","","134","-1","4","false","","","",""
"psychophysics","222","471489","0.0-16.0-2.16","5f8586b33e4d65036ae018f9","609006691f6f4e337c17f836","609a6129293af9b0add99bf1","565.1549999602139","","","","77","","","","key","16.658848484847553","768","377","","","","","","","","","","","","","","","","","","","",""
"psychophysics","223","472499","0.0-16.0-0.17","5f8586b33e4d65036ae018f9","609006691f6f4e337c17f836","609a6129293af9b0add99bf1","null","","","","null","","","","key","16.657847457626534","768","377","","","","","","","","","","","","","","","","","","","",""
"psychophysics","224","473002","0.0-16.0-1.17","5f8586b33e4d65036ae018f9","609006691f6f4e337c17f836","609a6129293af9b0add99bf1","null","","","","null","","","","key","16.665758620688674","768","377","","","","","","","","","","","","","134","1","3","false","","","",""
"psychophysics","225","473471","0.0-16.0-2.17","5f8586b33e4d65036ae018f9","609006691f6f4e337c17f836","609a6129293af9b0add99bf1","463.8199999462813","","","","90","","","","key","16.66532142857198","768","377","","","","","","","","","","","","","","","","","","","",""
"psychophysics","226","474482","0.0-16.0-0.18","5f8586b33e4d65036ae018f9","609006691f6f4e337c17f836","609a6129293af9b0add99bf1","null","","","","null","","","","key","16.661474576271218","768","377","","","","","","","","","","","","","","","","","","","",""
"psychophysics","227","474986","0.0-16.0-1.18","5f8586b33e4d65036ae018f9","609006691f6f4e337c17f836","609a6129293af9b0add99bf1","null","","","","null","","","","key","16.66489999999952","768","377","","","","","","","","","","","","","134","1","6","false","","","",""
"psychophysics","228","475846","0.0-16.0-2.18","5f8586b33e4d65036ae018f9","609006691f6f4e337c17f836","609a6129293af9b0add99bf1","856.0449997894466","","","","77","","","","key","16.65719999999972","768","377","","","","","","","","","","","","","","","","","","","",""
"psychophysics","229","476850","0.0-16.0-0.19","5f8586b33e4d65036ae018f9","609006691f6f4e337c17f836","609a6129293af9b0add99bf1","null","","","","null","","","","key","16.65776271186473","768","377","","","","","","","","","","","","","","","","","","","",""
"psychophysics","230","477362","0.0-16.0-1.19","5f8586b33e4d65036ae018f9","609006691f6f4e337c17f836","609a6129293af9b0add99bf1","null","","","","null","","","","key","16.656600000001102","768","377","","","","","","","","","","","","","134","-1","0","false","","","",""
"psychophysics","231","477952","0.0-16.0-2.19","5f8586b33e4d65036ae018f9","609006691f6f4e337c17f836","609a6129293af9b0add99bf1","586.9050000328571","","","","90","","","","key","16.65219999999972","768","377","","","","","","","","","","","","","","","","","","","",""
"psychophysics","232","478960","0.0-16.0-0.20","5f8586b33e4d65036ae018f9","609006691f6f4e337c17f836","609a6129293af9b0add99bf1","null","","","","null","","","","key","16.656576271186648","768","377","","","","","","","","","","","","","","","","","","","",""
"psychophysics","233","479465","0.0-16.0-1.20","5f8586b33e4d65036ae018f9","609006691f6f4e337c17f836","609a6129293af9b0add99bf1","null","","","","null","","","","key","16.660896551725052","768","377","","","","","","","","","","","","","134","1","2","false","","","",""
"psychophysics","234","480014","0.0-16.0-2.20","5f8586b33e4d65036ae018f9","609006691f6f4e337c17f836","609a6129293af9b0add99bf1","542.600000044331","","","","90","","","","key","16.657062500000393","768","377","","","","","","","","","","","","","","","","","","","",""
"psychophysics","235","481017","0.0-16.0-0.21","5f8586b33e4d65036ae018f9","609006691f6f4e337c17f836","609a6129293af9b0add99bf1","null","","","","null","","","","key","16.661449999999604","768","377","","","","","","","","","","","","","","","","","","","",""
"psychophysics","236","481527","0.0-16.0-1.21","5f8586b33e4d65036ae018f9","609006691f6f4e337c17f836","609a6129293af9b0add99bf1","null","","","","null","","","","key","16.660068965516984","768","377","","","","","","","","","","","","","134","1","5","false","","","",""
"psychophysics","237","482164","0.0-16.0-2.21","5f8586b33e4d65036ae018f9","609006691f6f4e337c17f836","609a6129293af9b0add99bf1","629.8400000669062","","","","77","","","","key","16.664486486486762","768","377","","","","","","","","","","","","","","","","","","","",""
"psychophysics","238","483175","0.0-16.0-0.22","5f8586b33e4d65036ae018f9","609006691f6f4e337c17f836","609a6129293af9b0add99bf1","null","","","","null","","","","key","16.657600000000095","768","377","","","","","","","","","","","","","","","","","","","",""
"psychophysics","239","483680","0.0-16.0-1.22","5f8586b33e4d65036ae018f9","609006691f6f4e337c17f836","609a6129293af9b0add99bf1","null","","","","null","","","","key","16.658482758621364","768","377","","","","","","","","","","","","","134","-1","5","false","","","",""
"psychophysics","240","484161","0.0-16.0-2.22","5f8586b33e4d65036ae018f9","609006691f6f4e337c17f836","609a6129293af9b0add99bf1","476.00500006228685","","","","77","","","","key","16.65078571428603","768","377","","","","","","","","","","","","","","","","","","","",""
"psychophysics","241","485164","0.0-16.0-0.23","5f8586b33e4d65036ae018f9","609006691f6f4e337c17f836","609a6129293af9b0add99bf1","null","","","","null","","","","key","16.66091666666616","768","377","","","","","","","","","","","","","","","","","","","",""
"psychophysics","242","485675","0.0-16.0-1.23","5f8586b33e4d65036ae018f9","609006691f6f4e337c17f836","609a6129293af9b0add99bf1","null","","","","null","","","","key","16.664551724137834","768","377","","","","","","","","","","","","","134","-1","6","false","","","",""
"psychophysics","243","486048","0.0-16.0-2.23","5f8586b33e4d65036ae018f9","609006691f6f4e337c17f836","609a6129293af9b0add99bf1","370.10499997995794","","","","77","","","","key","16.665727272727633","768","377","","","","","","","","","","","","","","","","","","","",""
"html-keyboard-response","244","493194","0.0-17.0","5f8586b33e4d65036ae018f9","609006691f6f4e337c17f836","609a6129293af9b0add99bf1","7143.214999930933","<p>Well Done !</p><p>Training Complete. Press the spacebar to start.</p><p>DON'T EXIT THE FULL SCREEN MODE</p>","","","32","","","","","","","","","","","","","","","","","","","","","","","","","","",""
"psychophysics","245","496202","0.0-18.0-0.0","5f8586b33e4d65036ae018f9","609006691f6f4e337c17f836","609a6129293af9b0add99bf1","null","","","","null","","","","key","16.689183333333737","768","377","","","","","","","","","","","","","","","","","","","",""
"psychophysics","246","496717","0.0-18.0-1.0","5f8586b33e4d65036ae018f9","609006691f6f4e337c17f836","609a6129293af9b0add99bf1","null","","","","null","","","","key","16.65376666666513","768","377","","","","","","","","","","","","","134","1","0","true","","","",""
"psychophysics","247","497662","0.0-18.0-2.0","5f8586b33e4d65036ae018f9","609006691f6f4e337c17f836","609a6129293af9b0add99bf1","939.5149999763817","","","","90","","","","key","16.65746428571479","768","377","","","","","","","","","","","","","","","","","","","",""
"psychophysics","248","498666","0.0-18.0-0.1","5f8586b33e4d65036ae018f9","609006691f6f4e337c17f836","609a6129293af9b0add99bf1","null","","","","null","","","","key","16.65469491525486","768","377","","","","","","","","","","","","","","","","","","","",""
"psychophysics","249","499169","0.0-18.0-1.1","5f8586b33e4d65036ae018f9","609006691f6f4e337c17f836","609a6129293af9b0add99bf1","null","","","","null","","","","key","16.656400000001305","768","377","","","","","","","","","","","","","134","-1","0","true","","","",""
"psychophysics","250","499794","0.0-18.0-2.1","5f8586b33e4d65036ae018f9","609006691f6f4e337c17f836","609a6129293af9b0add99bf1","623.0049999430776","","","","90","","","","key","16.659777777777183","768","377","","","","","","","","","","","","","","","","","","","",""
"psychophysics","251","500798","0.0-18.0-0.2","5f8586b33e4d65036ae018f9","609006691f6f4e337c17f836","609a6129293af9b0add99bf1","null","","","","null","","","","key","16.656711864407505","768","377","","","","","","","","","","","","","","","","","","","",""
"psychophysics","252","501302","0.0-18.0-1.2","5f8586b33e4d65036ae018f9","609006691f6f4e337c17f836","609a6129293af9b0add99bf1","null","","","","null","","","","key","16.656199999999565","768","377","","","","","","","","","","","","","134","1","5","true","","","",""
"psychophysics","253","501723","0.0-18.0-2.2","5f8586b33e4d65036ae018f9","609006691f6f4e337c17f836","609a6129293af9b0add99bf1","418.43500011600554","","","","77","","","","key","16.669541666667403","768","377","","","","","","","","","","","","","","","","","","","",""
"psychophysics","254","502730","0.0-18.0-0.3","5f8586b33e4d65036ae018f9","609006691f6f4e337c17f836","609a6129293af9b0add99bf1","null","","","","null","","","","key","16.65294915254295","768","377","","","","","","","","","","","","","","","","","","","",""
"psychophysics","255","503234","0.0-18.0-1.3","5f8586b33e4d65036ae018f9","609006691f6f4e337c17f836","609a6129293af9b0add99bf1","null","","","","null","","","","key","16.659799999999812","768","377","","","","","","","","","","","","","134","-1","5","true","","","",""
"psychophysics","256","503743","0.0-18.0-2.3","5f8586b33e4d65036ae018f9","609006691f6f4e337c17f836","609a6129293af9b0add99bf1","506.23499997891486","","","","77","","","","key","16.66234482758566","768","377","","","","","","","","","","","","","","","","","","","",""
"psychophysics","257","504745","0.0-18.0-0.4","5f8586b33e4d65036ae018f9","609006691f6f4e337c17f836","609a6129293af9b0add99bf1","null","","","","null","","","","key","16.657322033898417","768","377","","","","","","","","","","","","","","","","","","","",""
"psychophysics","258","505249","0.0-18.0-1.4","5f8586b33e4d65036ae018f9","609006691f6f4e337c17f836","609a6129293af9b0add99bf1","null","","","","null","","","","key","16.663366666665144","768","377","","","","","","","","","","","","","134","1","2","true","","","",""
"psychophysics","259","505637","0.0-18.0-2.4","5f8586b33e4d65036ae018f9","609006691f6f4e337c17f836","609a6129293af9b0add99bf1","384.75499977357686","","","","90","","","","key","16.660181818183364","768","377","","","","","","","","","","","","","","","","","","","",""
"psychophysics","260","506645","0.0-18.0-0.5","5f8586b33e4d65036ae018f9","609006691f6f4e337c17f836","609a6129293af9b0add99bf1","null","","","","null","","","","key","16.656271186440204","768","377","","","","","","","","","","","","","","","","","","","",""
"psychophysics","261","507149","0.0-18.0-1.5","5f8586b33e4d65036ae018f9","609006691f6f4e337c17f836","609a6129293af9b0add99bf1","null","","","","null","","","","key","16.664300000000125","768","377","","","","","","","","","","","","","134","1","4","true","","","",""
"psychophysics","262","508359","0.0-18.0-2.5","5f8586b33e4d65036ae018f9","609006691f6f4e337c17f836","609a6129293af9b0add99bf1","1205.240000039339","","","","90","","","","key","16.657619718309743","768","377","","","","","","","","","","","","","","","","","","","",""
"psychophysics","263","509362","0.0-18.0-0.6","5f8586b33e4d65036ae018f9","609006691f6f4e337c17f836","609a6129293af9b0add99bf1","null","","","","null","","","","key","16.66081355932224","768","377","","","","","","","","","","","","","","","","","","","",""
"psychophysics","264","509876","0.0-18.0-1.6","5f8586b33e4d65036ae018f9","609006691f6f4e337c17f836","609a6129293af9b0add99bf1","null","","","","null","","","","key","16.6626999999998","768","377","","","","","","","","","","","","","134","-1","4","true","","","",""
"psychophysics","265","510311","0.0-18.0-2.6","5f8586b33e4d65036ae018f9","609006691f6f4e337c17f836","609a6129293af9b0add99bf1","429.9550000578165","","","","77","","","","key","16.669240000001153","768","377","","","","","","","","","","","","","","","","","","","",""
"psychophysics","266","511316","0.0-18.0-0.7","5f8586b33e4d65036ae018f9","609006691f6f4e337c17f836","609a6129293af9b0add99bf1","null","","","","null","","","","key","16.661249999999807","768","377","","","","","","","","","","","","","","","","","","","",""
"psychophysics","267","511826","0.0-18.0-1.7","5f8586b33e4d65036ae018f9","609006691f6f4e337c17f836","609a6129293af9b0add99bf1","null","","","","null","","","","key","16.65503448275809","768","377","","","","","","","","","","","","","134","-1","6","true","","","",""
"psychophysics","268","512220","0.0-18.0-2.7","5f8586b33e4d65036ae018f9","609006691f6f4e337c17f836","609a6129293af9b0add99bf1","388.42999981716275","","","","77","","","","key","16.665826086954556","768","377","","","","","","","","","","","","","","","","","","","",""
"psychophysics","269","513225","0.0-18.0-0.8","5f8586b33e4d65036ae018f9","609006691f6f4e337c17f836","609a6129293af9b0add99bf1","null","","","","null","","","","key","16.654186440678117","768","377","","","","","","","","","","","","","","","","","","","",""
"psychophysics","270","513728","0.0-18.0-1.8","5f8586b33e4d65036ae018f9","609006691f6f4e337c17f836","609a6129293af9b0add99bf1","null","","","","null","","","","key","16.655300000001443","768","377","","","","","","","","","","","","","134","1","3","true","","","",""
"psychophysics","271","514145","0.0-18.0-2.8","5f8586b33e4d65036ae018f9","609006691f6f4e337c17f836","609a6129293af9b0add99bf1","398.0100001208484","","","","90","","","","key","16.661291666666028","768","377","","","","","","","","","","","","","","","","","","","",""
"psychophysics","272","515148","0.0-18.0-0.9","5f8586b33e4d65036ae018f9","609006691f6f4e337c17f836","609a6129293af9b0add99bf1","null","","","","null","","","","key","16.660338983051204","768","377","","","","","","","","","","","","","","","","","","","",""
"psychophysics","273","515656","0.0-18.0-1.9","5f8586b33e4d65036ae018f9","609006691f6f4e337c17f836","609a6129293af9b0add99bf1","null","","","","null","","","","key","16.658068965516325","768","377","","","","","","","","","","","","","134","1","6","true","","","",""
"psychophysics","274","516457","0.0-18.0-2.9","5f8586b33e4d65036ae018f9","609006691f6f4e337c17f836","609a6129293af9b0add99bf1","793.3699998538941","","","","90","","","","key","16.65776595744636","768","377","","","","","","","","","","","","","","","","","","","",""
"psychophysics","275","517460","0.0-18.0-0.10","5f8586b33e4d65036ae018f9","609006691f6f4e337c17f836","609a6129293af9b0add99bf1","null","","","","null","","","","key","16.662633333332874","768","377","","","","","","","","","","","","","","","","","","","",""
"psychophysics","276","517970","0.0-18.0-1.10","5f8586b33e4d65036ae018f9","609006691f6f4e337c17f836","609a6129293af9b0add99bf1","null","","","","null","","","","key","17.241857142857043","768","377","","","","","","","","","","","","","134","-1","2","true","","","",""
"psychophysics","277","518435","0.0-18.0-2.10","5f8586b33e4d65036ae018f9","609006691f6f4e337c17f836","609a6129293af9b0add99bf1","461.9350000284612","","","","90","","","","key","16.665851851851954","768","377","","","","","","","","","","","","","","","","","","","",""
"psychophysics","278","519440","0.0-18.0-0.11","5f8586b33e4d65036ae018f9","609006691f6f4e337c17f836","609a6129293af9b0add99bf1","null","","","","null","","","","key","16.659033898305605","768","377","","","","","","","","","","","","","","","","","","","",""
"psychophysics","279","519944","0.0-18.0-1.11","5f8586b33e4d65036ae018f9","609006691f6f4e337c17f836","609a6129293af9b0add99bf1","null","","","","null","","","","key","16.649099999999937","768","377","","","","","","","","","","","","","134","-1","3","true","","","",""
"psychophysics","280","520392","0.0-18.0-2.11","5f8586b33e4d65036ae018f9","609006691f6f4e337c17f836","609a6129293af9b0add99bf1","445.0000000651926","","","","90","","","","key","16.67126923076844","768","377","","","","","","","","","","","","","","","","","","","",""
"psychophysics","281","521403","0.0-18.0-0.12","5f8586b33e4d65036ae018f9","609006691f6f4e337c17f836","609a6129293af9b0add99bf1","null","","","","null","","","","key","16.6558644067796","768","377","","","","","","","","","","","","","","","","","","","",""
"psychophysics","282","521907","0.0-18.0-1.12","5f8586b33e4d65036ae018f9","609006691f6f4e337c17f836","609a6129293af9b0add99bf1","null","","","","null","","","","key","16.664033333334373","768","377","","","","","","","","","","","","","134","1","4","true","","","",""
"psychophysics","283","522831","0.0-18.0-2.12","5f8586b33e4d65036ae018f9","609006691f6f4e337c17f836","609a6129293af9b0add99bf1","921.2400000542402","","","","77","","","","key","16.66000000000026","768","377","","","","","","","","","","","","","","","","","","","",""
"psychophysics","284","523837","0.0-18.0-0.13","5f8586b33e4d65036ae018f9","609006691f6f4e337c17f836","609a6129293af9b0add99bf1","null","","","","null","","","","key","16.656779661016948","768","377","","","","","","","","","","","","","","","","","","","",""
"psychophysics","285","524348","0.0-18.0-1.13","5f8586b33e4d65036ae018f9","609006691f6f4e337c17f836","609a6129293af9b0add99bf1","null","","","","null","","","","key","16.657033333333676","768","377","","","","","","","","","","","","","134","1","3","true","","","",""
"psychophysics","286","525670","0.0-18.0-2.13","5f8586b33e4d65036ae018f9","609006691f6f4e337c17f836","609a6129293af9b0add99bf1","1317.7300000097603","","","","77","","","","key","16.654948717948848","768","377","","","","","","","","","","","","","","","","","","","",""
"psychophysics","287","526681","0.0-18.0-0.14","5f8586b33e4d65036ae018f9","609006691f6f4e337c17f836","609a6129293af9b0add99bf1","null","","","","null","","","","key","16.658683333334434","768","377","","","","","","","","","","","","","","","","","","","",""
"psychophysics","288","527186","0.0-18.0-1.14","5f8586b33e4d65036ae018f9","609006691f6f4e337c17f836","609a6129293af9b0add99bf1","null","","","","null","","","","key","16.658172413791082","768","377","","","","","","","","","","","","","134","1","6","true","","","",""
"psychophysics","289","527855","0.0-18.0-2.14","5f8586b33e4d65036ae018f9","609006691f6f4e337c17f836","609a6129293af9b0add99bf1","659.7599999513477","","","","90","","","","key","16.65669999999809","768","377","","","","","","","","","","","","","","","","","","","",""
"psychophysics","290","528867","0.0-18.0-0.15","5f8586b33e4d65036ae018f9","609006691f6f4e337c17f836","609a6129293af9b0add99bf1","null","","","","null","","","","key","16.661372881357053","768","377","","","","","","","","","","","","","","","","","","","",""
"psychophysics","291","529380","0.0-18.0-1.15","5f8586b33e4d65036ae018f9","609006691f6f4e337c17f836","609a6129293af9b0add99bf1","null","","","","null","","","","key","16.664466666666947","768","377","","","","","","","","","","","","","134","1","2","true","","","",""
"psychophysics","292","529777","0.0-18.0-2.15","5f8586b33e4d65036ae018f9","609006691f6f4e337c17f836","609a6129293af9b0add99bf1","394.0050001256168","","","","90","","","","key","16.6676521739143","768","377","","","","","","","","","","","","","","","","","","","",""
"psychophysics","293","530783","0.0-18.0-0.16","5f8586b33e4d65036ae018f9","609006691f6f4e337c17f836","609a6129293af9b0add99bf1","null","","","","null","","","","key","16.656779661016948","768","377","","","","","","","","","","","","","","","","","","","",""
"psychophysics","294","531294","0.0-18.0-1.16","5f8586b33e4d65036ae018f9","609006691f6f4e337c17f836","609a6129293af9b0add99bf1","null","","","","null","","","","key","16.650866666669025","768","377","","","","","","","","","","","","","134","-1","0","true","","","",""
"psychophysics","295","531772","0.0-18.0-2.16","5f8586b33e4d65036ae018f9","609006691f6f4e337c17f836","609a6129293af9b0add99bf1","475.06500012241304","","","","90","","","","key","16.64664285713973","768","377","","","","","","","","","","","","","","","","","","","",""
"psychophysics","296","532778","0.0-18.0-0.17","5f8586b33e4d65036ae018f9","609006691f6f4e337c17f836","609a6129293af9b0add99bf1","null","","","","null","","","","key","16.661762711864313","768","377","","","","","","","","","","","","","","","","","","","",""
"psychophysics","297","533282","0.0-18.0-1.17","5f8586b33e4d65036ae018f9","609006691f6f4e337c17f836","609a6129293af9b0add99bf1","null","","","","null","","","","key","16.656758620688723","768","377","","","","","","","","","","","","","134","-1","2","true","","","",""
"psychophysics","298","534053","0.0-18.0-2.17","5f8586b33e4d65036ae018f9","609006691f6f4e337c17f836","609a6129293af9b0add99bf1","765.6699998769909","","","","77","","","","key","16.657826086954195","768","377","","","","","","","","","","","","","","","","","","","",""
"psychophysics","299","535060","0.0-18.0-0.18","5f8586b33e4d65036ae018f9","609006691f6f4e337c17f836","609a6129293af9b0add99bf1","null","","","","null","","","","key","16.65449152542357","768","377","","","","","","","","","","","","","","","","","","","",""
"psychophysics","300","535564","0.0-18.0-1.18","5f8586b33e4d65036ae018f9","609006691f6f4e337c17f836","609a6129293af9b0add99bf1","null","","","","null","","","","key","16.660482758620017","768","377","","","","","","","","","","","","","134","-1","5","true","","","",""
"psychophysics","301","535933","0.0-18.0-2.18","5f8586b33e4d65036ae018f9","609006691f6f4e337c17f836","609a6129293af9b0add99bf1","363.1599999498576","","","","77","","","","key","16.648590909089595","768","377","","","","","","","","","","","","","","","","","","","",""
"psychophysics","302","536942","0.0-18.0-0.19","5f8586b33e4d65036ae018f9","609006691f6f4e337c17f836","609a6129293af9b0add99bf1","null","","","","null","","","","key","16.6616440677968","768","377","","","","","","","","","","","","","","","","","","","",""
"psychophysics","303","537446","0.0-18.0-1.19","5f8586b33e4d65036ae018f9","609006691f6f4e337c17f836","609a6129293af9b0add99bf1","null","","","","null","","","","key","16.66437931034457","768","377","","","","","","","","","","","","","134","1","5","true","","","",""
"psychophysics","304","537758","0.0-18.0-2.19","5f8586b33e4d65036ae018f9","609006691f6f4e337c17f836","609a6129293af9b0add99bf1","304.72999997437","","","","77","","","","key","16.659444444444187","768","377","","","","","","","","","","","","","","","","","","","",""
"psychophysics","305","538762","0.0-18.0-0.20","5f8586b33e4d65036ae018f9","609006691f6f4e337c17f836","609a6129293af9b0add99bf1","null","","","","null","","","","key","16.658152542372974","768","377","","","","","","","","","","","","","","","","","","","",""
"psychophysics","306","539273","0.0-18.0-1.20","5f8586b33e4d65036ae018f9","609006691f6f4e337c17f836","609a6129293af9b0add99bf1","null","","","","null","","","","key","16.648466666663687","768","377","","","","","","","","","","","","","134","-1","6","true","","","",""
"psychophysics","307","539648","0.0-18.0-2.20","5f8586b33e4d65036ae018f9","609006691f6f4e337c17f836","609a6129293af9b0add99bf1","371.26000015996397","","","","77","","","","key","16.64859090909489","768","377","","","","","","","","","","","","","","","","","","","",""
"psychophysics","308","540660","0.0-18.0-0.21","5f8586b33e4d65036ae018f9","609006691f6f4e337c17f836","609a6129293af9b0add99bf1","null","","","","null","","","","key","16.662355932203848","768","377","","","","","","","","","","","","","","","","","","","",""
"psychophysics","309","541163","0.0-18.0-1.21","5f8586b33e4d65036ae018f9","609006691f6f4e337c17f836","609a6129293af9b0add99bf1","null","","","","null","","","","key","16.664300000000125","768","377","","","","","","","","","","","","","134","-1","3","true","","","",""
"psychophysics","310","541513","0.0-18.0-2.21","5f8586b33e4d65036ae018f9","609006691f6f4e337c17f836","609a6129293af9b0add99bf1","346.64499992504716","","","","77","","","","key","16.65064999999595","768","377","","","","","","","","","","","","","","","","","","","",""
"psychophysics","311","542515","0.0-18.0-0.22","5f8586b33e4d65036ae018f9","609006691f6f4e337c17f836","609a6129293af9b0add99bf1","null","","","","null","","","","key","16.65913559321977","768","377","","","","","","","","","","","","","","","","","","","",""
"psychophysics","312","543024","0.0-18.0-1.22","5f8586b33e4d65036ae018f9","609006691f6f4e337c17f836","609a6129293af9b0add99bf1","null","","","","null","","","","key","16.658862068964137","768","377","","","","","","","","","","","","","134","1","0","true","","","",""
"psychophysics","313","543430","0.0-18.0-2.22","5f8586b33e4d65036ae018f9","609006691f6f4e337c17f836","609a6129293af9b0add99bf1","400.8400000166148","","","","90","","","","key","16.656208333331353","768","377","","","","","","","","","","","","","","","","","","","",""
"psychophysics","314","544440","0.0-18.0-0.23","5f8586b33e4d65036ae018f9","609006691f6f4e337c17f836","609a6129293af9b0add99bf1","null","","","","null","","","","key","16.658508474575513","768","377","","","","","","","","","","","","","","","","","","","",""
"psychophysics","315","544944","0.0-18.0-1.23","5f8586b33e4d65036ae018f9","609006691f6f4e337c17f836","609a6129293af9b0add99bf1","null","","","","null","","","","key","16.659699999998946","768","377","","","","","","","","","","","","","134","-1","4","true","","","",""
"psychophysics","316","545336","0.0-18.0-2.23","5f8586b33e4d65036ae018f9","609006691f6f4e337c17f836","609a6129293af9b0add99bf1","387.22000014968216","","","","77","","","","key","16.654772727273997","768","377","","","","","","","","","","","","","","","","","","","",""
"psychophysics","317","546341","0.0-18.0-0.24","5f8586b33e4d65036ae018f9","609006691f6f4e337c17f836","609a6129293af9b0add99bf1","null","","","","null","","","","key","16.657830508473186","768","377","","","","","","","","","","","","","","","","","","","",""
"psychophysics","318","546852","0.0-18.0-1.24","5f8586b33e4d65036ae018f9","609006691f6f4e337c17f836","609a6129293af9b0add99bf1","null","","","","null","","","","key","16.647500000001553","768","377","","","","","","","","","","","","","134","-1","3","true","","","",""
"psychophysics","319","547339","0.0-18.0-2.24","5f8586b33e4d65036ae018f9","609006691f6f4e337c17f836","609a6129293af9b0add99bf1","483.8499999605119","","","","90","","","","key","16.652500000000664","768","377","","","","","","","","","","","","","","","","","","","",""
"psychophysics","320","548342","0.0-18.0-0.25","5f8586b33e4d65036ae018f9","609006691f6f4e337c17f836","609a6129293af9b0add99bf1","null","","","","null","","","","key","16.6614166666676","768","377","","","","","","","","","","","","","","","","","","","",""
"psychophysics","321","548853","0.0-18.0-1.25","5f8586b33e4d65036ae018f9","609006691f6f4e337c17f836","609a6129293af9b0add99bf1","null","","","","null","","","","key","16.654689655169555","768","377","","","","","","","","","","","","","134","-1","4","true","","","",""
"psychophysics","322","550573","0.0-18.0-2.25","5f8586b33e4d65036ae018f9","609006691f6f4e337c17f836","609a6129293af9b0add99bf1","1716.939999954775","","","","77","","","","key","16.659882352940794","768","377","","","","","","","","","","","","","","","","","","","",""
"psychophysics","323","551584","0.0-18.0-0.26","5f8586b33e4d65036ae018f9","609006691f6f4e337c17f836","609a6129293af9b0add99bf1","null","","","","null","","","","key","16.6570000000007","768","377","","","","","","","","","","","","","","","","","","","",""
"psychophysics","324","552088","0.0-18.0-1.26","5f8586b33e4d65036ae018f9","609006691f6f4e337c17f836","609a6129293af9b0add99bf1","null","","","","null","","","","key","16.6655172413769","768","377","","","","","","","","","","","","","134","-1","0","true","","","",""
"psychophysics","325","552508","0.0-18.0-2.26","5f8586b33e4d65036ae018f9","609006691f6f4e337c17f836","609a6129293af9b0add99bf1","410.8899999409914","","","","90","","","","key","16.65692000000272","768","377","","","","","","","","","","","","","","","","","","","",""
"psychophysics","326","553516","0.0-18.0-0.27","5f8586b33e4d65036ae018f9","609006691f6f4e337c17f836","609a6129293af9b0add99bf1","null","","","","null","","","","key","16.656135593219343","768","377","","","","","","","","","","","","","","","","","","","",""
"psychophysics","327","554020","0.0-18.0-1.27","5f8586b33e4d65036ae018f9","609006691f6f4e337c17f836","609a6129293af9b0add99bf1","null","","","","null","","","","key","16.664413793100813","768","377","","","","","","","","","","","","","134","1","6","true","","","",""
"psychophysics","328","554428","0.0-18.0-2.27","5f8586b33e4d65036ae018f9","609006691f6f4e337c17f836","609a6129293af9b0add99bf1","401.62499994039536","","","","77","","","","key","16.65608333333512","768","377","","","","","","","","","","","","","","","","","","","",""
"psychophysics","329","555435","0.0-18.0-0.28","5f8586b33e4d65036ae018f9","609006691f6f4e337c17f836","609a6129293af9b0add99bf1","null","","","","null","","","","key","16.65691525423781","768","377","","","","","","","","","","","","","","","","","","","",""
"psychophysics","330","555938","0.0-18.0-1.28","5f8586b33e4d65036ae018f9","609006691f6f4e337c17f836","609a6129293af9b0add99bf1","null","","","","null","","","","key","16.662566666665953","768","377","","","","","","","","","","","","","134","1","3","true","","","",""
