"trial_type","trial_index","time_elapsed","internal_node_id","PROLIFIC_PID","STUDY_ID","SESSION_ID","rt","stimulus","button_pressed","success","key_press","responses","isData","view_history","response_type","avg_frame_time","center_x","center_y","isSC","stim_side","trial_luminance","step_size","nReversal","correct","prev_ans","isThreshold","SC_threshold","final_threshold","isLuminance","FF_luminance","luminance","stimSide","ISInt","isFF","question_order","isSPQ","isCAPS","isAQ"
"pavlovia","0","10","0.0-0.0","5918a03738cc6d0001a4bde7","609006691f6f4e337c17f836","609a6125f4f14bd81a5d1690","","","","","","","","","","","","","","","","","","","","","","","","","","","","","","","",""
"html-button-response","1","13222","0.0-1.0","5918a03738cc6d0001a4bde7","609006691f6f4e337c17f836","609a6125f4f14bd81a5d1690","13212","<div style='background-color: white; width:60%; margin: auto; padding: 50px; text-align: justify; text-justify: inter-word; margin-bottom: 20px;'><h1 style='text-align: center;'>Consent Form</h1><p>Please read this consent form carefully before deciding whether you would like to participate in this study. You have to be 18 years old or older to participate to this study.</p><p style='text-decoration: underline;'>Participation is voluntary:</p><p>It is your choice whether or not to participate in this research. If you choose to participate, you may change your mind and leave the study at any time. Refusal to participate or stopping your participation will involve no penalty or loss of benefits to which you are otherwise entitled.</p><p style='text-decoration: underline;'>Purpose of the Study:</p><p>To understand the mechanisms underlying human perception.</p><p style='text-decoration: underline;'>What you will do in this study:</p><p>You will be presented with a series of visual images and then you will press buttons on the keyboard of your computer to respond to simple questions about the images (e.g. Were one or two images presented?). In addition, you will be asked to complete a questionnaire concerning your beliefs and everyday mental and perceptual experiences.'</p><p style='text-decoration: underline;'> Time Required:</p><p>The study will take 40 minutes to complete. </p><p style='text-decoration: underline;'>Risks:</p><p>There are no anticipated risks associated with participating in this study that are beyond those experienced in everyday life. </p><p style='text-decoration: underline;'>Benefits:</p><p>There are no benefits to you in participating in the study. However, this study may lead to a better understanding of how different kinds of visual information are used.</p><p style='text-decoration: underline;'>Compensation:</p><p>You will be paid US$6.6/hour. </p><p style='text-decoration: underline;'>Privacy and Confidentiality:</p><p>Your participation in this study will be anonymous. No personal information about your name or identity will be asked or recorded. This anonymous data will be stored for several years and may be used for a variety of research purposes. The overall results of the study may be published, or the data files may be shared with other researchers, but your identity will not be revealed in any way. The online services we are using for this study may temporarily store your data, but this data will be downloaded and then promptly deleted from those services.Your data will not be permanently associated with your name, IP address, or any other identifiable information (e.g., your information will only be connected to your payment, not to any of your responses), though they may be temporarily stored together before we download and separate them. Even so, no guarantee of internet survey security can be given because, although unlikely, transmissions can be intercepted and IP addresses can be identified. The anonymous data may be shared publicly (for example, in conjunction with a resulting academic publication).</p><p style='text-decoration: underline;'>Participation and Withdrawal:</p><p>Your participation in this study is completely voluntary. You may stop responding to the stimuli or stop answering questions if you so choose and without penalty by exiting the full screen mode, closing this tab of your browser or redirecting it to a different website.</p><p style='text-decoration: underline;'>Contact Info of the Researcher: </p><p>If you have questions about this study, or if you would like to talk to the research team, please contact David Melcher (david.melcher@nyu.edu, md5050@nyu.edu) at the Perception and Active Cognition Laboratory, New York University Abu Dhabi, Computational Research Building, Saadiyat Island, Abu Dhabi, UAE.This research has been reviewed by the New York University Abu Dhabi Institutional Review Board (NYUAD IRB). To contact about your rights in this research, for questions, suggestions, or complaints that are not addressed by the researchers, please email IRBnyuad@nyu.edu, or call the NYUAD IRB at +971 2 628 4313. </p></div>","0","","","","","","","","","","","","","","","","","","","","","","","","","","","","",""
"fullscreen","2","23375","0.0-2.0","5918a03738cc6d0001a4bde7","609006691f6f4e337c17f836","609a6125f4f14bd81a5d1690","","","","true","","","","","","","","","","","","","","","","","","","","","","","","","","","",""
"html-keyboard-response","3","35478","0.0-3.0","5918a03738cc6d0001a4bde7","609006691f6f4e337c17f836","609a6125f4f14bd81a5d1690","12102","<p>Welcome !</p><p>READ CAREFULLY THE FOLLOWING INDICATIONS:</p><p>From this moment you have ~40 minutes to complete the experiment.</p><p>During the experiment you will be prompted to take several breaks. Each break should not last longer than 2-3 minutes.</p><p>Make sure that your computer is plugged in and it's not running on battery power, even if the battery is already fully charged.</p><p>Turn off your phone and music, make sure that you are in a quiet room and that you will not be distracted for the next hour.</p><p>Failure to comply with the instructions and indications provided during the experiment will most likely result in the rejection of your data.<p>Press the spacebar to start.</p>","","","32","","","","","","","","","","","","","","","","","","","","","","","","","","",""
"survey-html-form","4","40101","0.0-4.0","5918a03738cc6d0001a4bde7","609006691f6f4e337c17f836","609a6125f4f14bd81a5d1690","4621","","","","","{""age"":""34"",""sex"":""M""}","true","","","","","","","","","","","","","","","","","","","","","","","","",""
"instructions","5","69597","0.0-5.0","5918a03738cc6d0001a4bde7","609006691f6f4e337c17f836","609a6125f4f14bd81a5d1690","29494","","","","","","","[{""page_index"":0,""viewing_time"":18927},{""page_index"":1,""viewing_time"":8865},{""page_index"":2,""viewing_time"":1702}]","","","","","","","","","","","","","","","","","","","","","","","",""
"psychophysics","6","71824","0.0-6.0-0.0","5918a03738cc6d0001a4bde7","609006691f6f4e337c17f836","609a6125f4f14bd81a5d1690","1221","","","","39","","","","key","16.766515151515097","588","312","true","1","180","30","0","-1","","","","","","","","","","","","","",""
"psychophysics","7","72983","0.0-6.0-0.1","5918a03738cc6d0001a4bde7","609006691f6f4e337c17f836","609a6125f4f14bd81a5d1690","152","","","","39","","","","key","16.65681159420279","588","312","true","1","180","30","0","-1","-1","","","","","","","","","","","","",""
"psychophysics","8","74269","0.0-6.0-0.2","5918a03738cc6d0001a4bde7","609006691f6f4e337c17f836","609a6125f4f14bd81a5d1690","281","","","","39","","","","key","16.671315789473546","588","312","true","1","150","30","0","-1","-1","","","","","","","","","","","","",""
"psychophysics","9","76307","0.0-6.0-0.3","5918a03738cc6d0001a4bde7","609006691f6f4e337c17f836","609a6125f4f14bd81a5d1690","1036","","","","37","","","","key","16.666611570247962","588","312","true","-1","150","30","0","-1","-1","","","","","","","","","","","","",""
"psychophysics","10","78838","0.0-6.0-0.4","5918a03738cc6d0001a4bde7","609006691f6f4e337c17f836","609a6125f4f14bd81a5d1690","1528","","","","37","","","","key","16.670860927152336","588","312","true","-1","129","30","0","-1","-1","","","","","","","","","","","","",""
"psychophysics","11","80348","0.0-6.0-0.5","5918a03738cc6d0001a4bde7","609006691f6f4e337c17f836","609a6125f4f14bd81a5d1690","504","","","","37","","","","key","16.66422222222221","588","312","true","1","129","24","1","1","-1","","","","","","","","","","","","",""
"psychophysics","12","81699","0.0-6.0-0.6","5918a03738cc6d0001a4bde7","609006691f6f4e337c17f836","609a6125f4f14bd81a5d1690","346","","","","37","","","","key","16.67674999999999","588","312","true","-1","153","24","1","-1","1","","","","","","","","","","","","",""
"psychophysics","13","82951","0.0-6.0-0.7","5918a03738cc6d0001a4bde7","609006691f6f4e337c17f836","609a6125f4f14bd81a5d1690","250","","","","39","","","","key","16.676486486486453","588","312","true","1","153","19.2","2","-1","-1","","","","","","","","","","","","",""
"psychophysics","14","84289","0.0-6.0-0.8","5918a03738cc6d0001a4bde7","609006691f6f4e337c17f836","609a6125f4f14bd81a5d1690","336","","","","37","","","","key","16.661265822784692","588","312","true","-1","133.8","19.2","2","-1","-1","","","","","","","","","","","","",""
"psychophysics","15","85696","0.0-6.0-0.9","5918a03738cc6d0001a4bde7","609006691f6f4e337c17f836","609a6125f4f14bd81a5d1690","403","","","","39","","","","key","16.666666666666668","588","312","true","1","133.8","19.2","2","-1","-1","","","","","","","","","","","","",""
"psychophysics","16","87558","0.0-6.0-0.10","5918a03738cc6d0001a4bde7","609006691f6f4e337c17f836","609a6125f4f14bd81a5d1690","859","","","","37","","","","key","16.667636363636383","588","312","true","-1","129","19.2","2","-1","-1","","","","","","","","","","","","",""
"psychophysics","17","88911","0.0-6.0-0.11","5918a03738cc6d0001a4bde7","609006691f6f4e337c17f836","609a6125f4f14bd81a5d1690","349","","","","37","","","","key","16.659259259259187","588","312","true","-1","129","19.2","2","-1","-1","","","","","","","","","","","","",""
"psychophysics","18","90328","0.0-6.0-0.12","5918a03738cc6d0001a4bde7","609006691f6f4e337c17f836","609a6125f4f14bd81a5d1690","413","","","","37","","","","key","16.663809523809462","588","312","true","1","129","15.36","3","1","-1","","","","","","","","","","","","",""
"psychophysics","19","91594","0.0-6.0-0.13","5918a03738cc6d0001a4bde7","609006691f6f4e337c17f836","609a6125f4f14bd81a5d1690","262","","","","37","","","","key","16.653333333333332","588","312","true","-1","144.36","15.36","3","-1","1","","","","","","","","","","","","",""
"psychophysics","20","92927","0.0-6.0-0.14","5918a03738cc6d0001a4bde7","609006691f6f4e337c17f836","609a6125f4f14bd81a5d1690","327","","","","37","","","","key","16.661282051282075","588","312","true","-1","144.36","12.287999999999998","4","-1","-1","","","","","","","","","","","","",""
"psychophysics","21","95058","0.0-6.0-0.15","5918a03738cc6d0001a4bde7","609006691f6f4e337c17f836","609a6125f4f14bd81a5d1690","1131","","","","37","","","","key","16.671338582677123","588","312","true","-1","132.072","12.287999999999998","4","-1","-1","","","","","","","","","","","","",""
"psychophysics","22","96516","0.0-6.0-0.16","5918a03738cc6d0001a4bde7","609006691f6f4e337c17f836","609a6125f4f14bd81a5d1690","453","","","","37","","","","key","16.673793103448222","588","312","true","-1","132.072","12.287999999999998","4","-1","-1","","","","","","","","","","","","",""
"psychophysics","23","97857","0.0-6.0-0.17","5918a03738cc6d0001a4bde7","609006691f6f4e337c17f836","609a6125f4f14bd81a5d1690","337","","","","37","","","","key","16.67797468354446","588","312","true","1","129","9.8304","5","1","-1","","","","","","","","","","","","",""
"psychophysics","24","98883","0.0-6.0-0.18","5918a03738cc6d0001a4bde7","609006691f6f4e337c17f836","609a6125f4f14bd81a5d1690","22","","","","39","","","","key","16.67836065573778","588","312","true","1","138.8304","9.8304","5","-1","1","","","","","","","","","","","","",""
"psychophysics","25","100188","0.0-6.0-0.19","5918a03738cc6d0001a4bde7","609006691f6f4e337c17f836","609a6125f4f14bd81a5d1690","303","","","","39","","","","key","16.670909090909138","588","312","true","1","138.8304","7.864319999999999","6","-1","-1","","","","","","","","","","","","",""
"psychophysics","26","102080","0.0-6.0-0.20","5918a03738cc6d0001a4bde7","609006691f6f4e337c17f836","609a6125f4f14bd81a5d1690","888","","","","39","","","","key","16.661769911504415","588","312","true","1","130.96608","7.864319999999999","6","-1","-1","","","","","","","","","","","","",""
"psychophysics","27","103580","0.0-6.0-0.21","5918a03738cc6d0001a4bde7","609006691f6f4e337c17f836","609a6125f4f14bd81a5d1690","496","","","","39","","","","key","16.675730337078644","588","312","true","1","130.96608","7.864319999999999","6","-1","-1","","","","","","","","","","","","",""
"psychophysics","28","104980","0.0-6.0-0.22","5918a03738cc6d0001a4bde7","609006691f6f4e337c17f836","609a6125f4f14bd81a5d1690","394","","","","39","","","","key","16.674698795180724","588","312","true","-1","129","6.291456","7","1","-1","","","","","","","","","","","","",""
"psychophysics","29","106490","0.0-6.0-0.23","5918a03738cc6d0001a4bde7","609006691f6f4e337c17f836","609a6125f4f14bd81a5d1690","508","","","","39","","","","key","16.659999999999897","588","312","true","-1","135.291456","6.291456","7","1","1","","","","","","","","","","","","",""
"psychophysics","30","107981","0.0-6.0-0.24","5918a03738cc6d0001a4bde7","609006691f6f4e337c17f836","609a6125f4f14bd81a5d1690","489","","","","37","","","","key","16.675505617977638","588","312","true","-1","141.58291200000002","6.291456","7","-1","1","","","","","","","","","","","","",""
"psychophysics","31","109336","0.0-6.0-0.25","5918a03738cc6d0001a4bde7","609006691f6f4e337c17f836","609a6125f4f14bd81a5d1690","349","","","","39","","","","key","16.66750000000011","588","312","true","1","141.58291200000002","5.033164800000001","8","-1","-1","","","","","","","","","","","","",""
"psychophysics","32","110711","0.0-6.0-0.26","5918a03738cc6d0001a4bde7","609006691f6f4e337c17f836","609a6125f4f14bd81a5d1690","370","","","","39","","","","key","16.66048780487809","588","312","true","1","136.5497472","5.033164800000001","8","-1","-1","","","","","","","","","","","","",""
"psychophysics","33","112063","0.0-6.0-0.27","5918a03738cc6d0001a4bde7","609006691f6f4e337c17f836","609a6125f4f14bd81a5d1690","349","","","","37","","","","key","16.66875","588","312","true","-1","136.5497472","5.033164800000001","8","-1","-1","","","","","","","","","","","","",""
"psychophysics","34","113438","0.0-6.0-0.28","5918a03738cc6d0001a4bde7","609006691f6f4e337c17f836","609a6125f4f14bd81a5d1690","372","","","","39","","","","key","16.677777777777706","588","312","true","1","131.5165824","5.033164800000001","8","-1","-1","","","","","","","","","","","","",""
"psychophysics","35","114802","0.0-6.0-0.29","5918a03738cc6d0001a4bde7","609006691f6f4e337c17f836","609a6125f4f14bd81a5d1690","358","","","","39","","","","key","16.667654320987676","588","312","true","1","131.5165824","5.033164800000001","8","-1","-1","","","","","","","","","","","","",""
"psychophysics","36","116129","0.0-6.0-0.30","5918a03738cc6d0001a4bde7","609006691f6f4e337c17f836","609a6125f4f14bd81a5d1690","323","","","","37","","","","key","16.66481012658233","588","312","true","1","129","4.0265318400000005","9","1","-1","","","","","","","","","","","","",""
"psychophysics","37","117548","0.0-6.0-0.31","5918a03738cc6d0001a4bde7","609006691f6f4e337c17f836","609a6125f4f14bd81a5d1690","416","","","","37","","","","key","16.66690476190481","588","312","true","-1","133.02653184","4.0265318400000005","9","-1","1","","","","","","","","","","","","",""
"psychophysics","38","118962","0.0-6.0-0.32","5918a03738cc6d0001a4bde7","609006691f6f4e337c17f836","609a6125f4f14bd81a5d1690","410","","","","39","","","","key","16.665000000000006","588","312","true","1","133.02653184","3.2212254720000004","10","-1","-1","","","","","","","","","","","","",""
"psychophysics","39","120532","0.0-6.0-0.33","5918a03738cc6d0001a4bde7","609006691f6f4e337c17f836","609a6125f4f14bd81a5d1690","565","","","","37","","","","key","16.673333333333282","588","312","true","1","129.805306368","2.5769803776000004","11","1","-1","","","","","","","","","","","","",""
"psychophysics","40","121849","0.0-6.0-0.34","5918a03738cc6d0001a4bde7","609006691f6f4e337c17f836","609a6125f4f14bd81a5d1690","313","","","","37","","","","key","16.668461538461532","588","312","true","-1","132.3822867456","2.5769803776000004","11","-1","1","","","","","","","","","","","","",""
"psychophysics","41","123410","0.0-6.0-0.35","5918a03738cc6d0001a4bde7","609006691f6f4e337c17f836","609a6125f4f14bd81a5d1690","559","","","","37","","","","key","16.66752688172045","588","312","true","-1","132.3822867456","2.0615843020800004","12","-1","-1","","","","","","","","","","","","",""
"psychophysics","42","124872","0.0-6.0-0.36","5918a03738cc6d0001a4bde7","609006691f6f4e337c17f836","609a6125f4f14bd81a5d1690","462","","","","37","","","","key","16.673488372093004","588","312","true","-1","130.32070244352","2.0615843020800004","12","-1","-1","","","","","","","","","","","","",""
"psychophysics","43","126825","0.0-6.0-0.37","5918a03738cc6d0001a4bde7","609006691f6f4e337c17f836","609a6125f4f14bd81a5d1690","950","","","","37","","","","key","16.66948275862072","588","312","true","-1","130.32070244352","2.0615843020800004","12","-1","-1","","","","","","","","","","","","",""
"psychophysics","44","128161","0.0-6.0-0.38","5918a03738cc6d0001a4bde7","609006691f6f4e337c17f836","609a6125f4f14bd81a5d1690","334","","","","37","","","","key","16.66675000000014","588","312","true","1","129","1.6492674416640005","13","1","-1","","","","","","","","","","","","",""
"psychophysics","45","129552","0.0-6.0-0.39","5918a03738cc6d0001a4bde7","609006691f6f4e337c17f836","609a6125f4f14bd81a5d1690","387","","","","37","","","","key","16.656097560975645","588","312","true","-1","130.649267441664","1.6492674416640005","13","-1","1","","","","","","","","","","","","",""
"html-keyboard-response","46","179310","0.0-7.0","5918a03738cc6d0001a4bde7","609006691f6f4e337c17f836","609a6125f4f14bd81a5d1690","49756","<p>Well Done !</p><p>Prepare for a new block.</p><p>DON'T EXIT THE FULL SCREEN MODE</p><p>Press the Spacebar to start.</p>","","","32","","","","","","","","","","","","","","","true","132.5086124711936","","","","","","","","","","",""
"psychophysics","47","180996","0.0-8.0-0.0","5918a03738cc6d0001a4bde7","609006691f6f4e337c17f836","609a6125f4f14bd81a5d1690","682","","","","39","","","","key","16.83540000000008","588","312","true","1","180","30","0","-1","","","","","","","","","","","","","",""
"psychophysics","48","182282","0.0-8.0-0.1","5918a03738cc6d0001a4bde7","609006691f6f4e337c17f836","609a6125f4f14bd81a5d1690","280","","","","37","","","","key","16.66710526315805","588","312","true","-1","180","30","0","-1","-1","","","","","","","","","","","","",""
"psychophysics","49","183496","0.0-8.0-0.2","5918a03738cc6d0001a4bde7","609006691f6f4e337c17f836","609a6125f4f14bd81a5d1690","211","","","","39","","","","key","16.666944444444297","588","312","true","1","150","30","0","-1","-1","","","","","","","","","","","","",""
"psychophysics","50","184710","0.0-8.0-0.3","5918a03738cc6d0001a4bde7","609006691f6f4e337c17f836","609a6125f4f14bd81a5d1690","210","","","","39","","","","key","16.665833333333367","588","312","true","1","150","30","0","-1","-1","","","","","","","","","","","","",""
"psychophysics","51","186332","0.0-8.0-0.4","5918a03738cc6d0001a4bde7","609006691f6f4e337c17f836","609a6125f4f14bd81a5d1690","617","","","","39","","","","key","16.665416666666715","588","312","true","1","129","30","0","-1","-1","","","","","","","","","","","","",""
"psychophysics","52","187662","0.0-8.0-0.5","5918a03738cc6d0001a4bde7","609006691f6f4e337c17f836","609a6125f4f14bd81a5d1690","324","","","","37","","","","key","16.669367088607284","588","312","true","1","129","24","1","1","-1","","","","","","","","","","","","",""
"psychophysics","53","188822","0.0-8.0-0.6","5918a03738cc6d0001a4bde7","609006691f6f4e337c17f836","609a6125f4f14bd81a5d1690","159","","","","39","","","","key","16.66794117647035","588","312","true","1","153","24","1","-1","1","","","","","","","","","","","","",""
"psychophysics","54","190123","0.0-8.0-0.7","5918a03738cc6d0001a4bde7","609006691f6f4e337c17f836","609a6125f4f14bd81a5d1690","295","","","","39","","","","key","16.67480519480509","588","312","true","1","153","19.2","2","-1","-1","","","","","","","","","","","","",""
"psychophysics","55","191394","0.0-8.0-0.8","5918a03738cc6d0001a4bde7","609006691f6f4e337c17f836","609a6125f4f14bd81a5d1690","270","","","","39","","","","key","16.666842105263065","588","312","true","1","133.8","19.2","2","-1","-1","","","","","","","","","","","","",""
"psychophysics","56","192737","0.0-8.0-0.9","5918a03738cc6d0001a4bde7","609006691f6f4e337c17f836","609a6125f4f14bd81a5d1690","340","","","","37","","","","key","16.675949367088535","588","312","true","-1","133.8","19.2","2","-1","-1","","","","","","","","","","","","",""
"psychophysics","57","194088","0.0-8.0-0.10","5918a03738cc6d0001a4bde7","609006691f6f4e337c17f836","609a6125f4f14bd81a5d1690","345","","","","39","","","","key","16.66775000000016","588","312","true","1","129","19.2","2","-1","-1","","","","","","","","","","","","",""
"psychophysics","58","195499","0.0-8.0-0.11","5918a03738cc6d0001a4bde7","609006691f6f4e337c17f836","609a6125f4f14bd81a5d1690","406","","","","39","","","","key","16.66904761904741","588","312","true","-1","129","15.36","3","1","-1","","","","","","","","","","","","",""
"psychophysics","59","196626","0.0-8.0-0.12","5918a03738cc6d0001a4bde7","609006691f6f4e337c17f836","609a6125f4f14bd81a5d1690","126","","","","39","","","","key","16.665970149253663","588","312","true","1","144.36","15.36","3","-1","1","","","","","","","","","","","","",""
"psychophysics","60","197922","0.0-8.0-0.13","5918a03738cc6d0001a4bde7","609006691f6f4e337c17f836","609a6125f4f14bd81a5d1690","292","","","","39","","","","key","16.666315789473867","588","312","true","1","144.36","12.287999999999998","4","-1","-1","","","","","","","","","","","","",""
"psychophysics","61","199406","0.0-8.0-0.14","5918a03738cc6d0001a4bde7","609006691f6f4e337c17f836","609a6125f4f14bd81a5d1690","481","","","","39","","","","key","16.663636363636297","588","312","true","1","132.072","12.287999999999998","4","-1","-1","","","","","","","","","","","","",""
"psychophysics","62","200771","0.0-8.0-0.15","5918a03738cc6d0001a4bde7","609006691f6f4e337c17f836","609a6125f4f14bd81a5d1690","359","","","","39","","","","key","16.667407407407378","588","312","true","-1","132.072","9.8304","5","1","-1","","","","","","","","","","","","",""
"psychophysics","63","202023","0.0-8.0-0.16","5918a03738cc6d0001a4bde7","609006691f6f4e337c17f836","609a6125f4f14bd81a5d1690","247","","","","37","","","","key","16.66486486486463","588","312","true","-1","141.9024","9.8304","5","-1","1","","","","","","","","","","","","",""
"psychophysics","64","203287","0.0-8.0-0.17","5918a03738cc6d0001a4bde7","609006691f6f4e337c17f836","609a6125f4f14bd81a5d1690","262","","","","37","","","","key","16.661066666666496","588","312","true","-1","141.9024","7.864319999999999","6","-1","-1","","","","","","","","","","","","",""
"psychophysics","65","204601","0.0-8.0-0.18","5918a03738cc6d0001a4bde7","609006691f6f4e337c17f836","609a6125f4f14bd81a5d1690","310","","","","37","","","","key","16.666666666666668","588","312","true","-1","134.03808","7.864319999999999","6","-1","-1","","","","","","","","","","","","",""
"psychophysics","66","205862","0.0-8.0-0.19","5918a03738cc6d0001a4bde7","609006691f6f4e337c17f836","609a6125f4f14bd81a5d1690","260","","","","37","","","","key","16.666933333333194","588","312","true","-1","134.03808","7.864319999999999","6","-1","-1","","","","","","","","","","","","",""
"psychophysics","67","207255","0.0-8.0-0.20","5918a03738cc6d0001a4bde7","609006691f6f4e337c17f836","609a6125f4f14bd81a5d1690","390","","","","37","","","","key","16.667073170731495","588","312","true","-1","129","7.864319999999999","6","-1","-1","","","","","","","","","","","","",""
"psychophysics","68","208579","0.0-8.0-0.21","5918a03738cc6d0001a4bde7","609006691f6f4e337c17f836","609a6125f4f14bd81a5d1690","320","","","","37","","","","key","16.664810126582513","588","312","true","1","129","6.291456","7","1","-1","","","","","","","","","","","","",""
"psychophysics","69","209895","0.0-8.0-0.22","5918a03738cc6d0001a4bde7","609006691f6f4e337c17f836","609a6125f4f14bd81a5d1690","315","","","","39","","","","key","16.661538461538537","588","312","true","1","135.291456","6.291456","7","-1","1","","","","","","","","","","","","",""
"psychophysics","70","211121","0.0-8.0-0.23","5918a03738cc6d0001a4bde7","609006691f6f4e337c17f836","609a6125f4f14bd81a5d1690","221","","","","37","","","","key","16.666388888889035","588","312","true","-1","135.291456","5.033164800000001","8","-1","-1","","","","","","","","","","","","",""
"psychophysics","71","212648","0.0-8.0-0.24","5918a03738cc6d0001a4bde7","609006691f6f4e337c17f836","609a6125f4f14bd81a5d1690","522","","","","37","","","","key","16.66857142857139","588","312","true","1","130.2582912","4.0265318400000005","9","1","-1","","","","","","","","","","","","",""
"psychophysics","72","213706","0.0-8.0-0.25","5918a03738cc6d0001a4bde7","609006691f6f4e337c17f836","609a6125f4f14bd81a5d1690","54","","","","39","","","","key","16.669354838709676","588","312","true","1","134.28482304","4.0265318400000005","9","-1","1","","","","","","","","","","","","",""
"psychophysics","73","215004","0.0-8.0-0.26","5918a03738cc6d0001a4bde7","609006691f6f4e337c17f836","609a6125f4f14bd81a5d1690","295","","","","37","","","","key","16.66441558441563","588","312","true","-1","134.28482304","3.2212254720000004","10","-1","-1","","","","","","","","","","","","",""
"psychophysics","74","216381","0.0-8.0-0.27","5918a03738cc6d0001a4bde7","609006691f6f4e337c17f836","609a6125f4f14bd81a5d1690","372","","","","37","","","","key","16.667317073170747","588","312","true","-1","131.06359756799998","3.2212254720000004","10","-1","-1","","","","","","","","","","","","",""
"psychophysics","75","217810","0.0-8.0-0.28","5918a03738cc6d0001a4bde7","609006691f6f4e337c17f836","609a6125f4f14bd81a5d1690","425","","","","37","","","","key","16.67317647058825","588","312","true","1","131.06359756799998","2.5769803776000004","11","1","-1","","","","","","","","","","","","",""
"psychophysics","76","219055","0.0-8.0-0.29","5918a03738cc6d0001a4bde7","609006691f6f4e337c17f836","609a6125f4f14bd81a5d1690","240","","","","37","","","","key","16.66602739726061","588","312","true","-1","133.64057794559997","2.5769803776000004","11","-1","1","","","","","","","","","","","","",""
"psychophysics","77","220371","0.0-8.0-0.30","5918a03738cc6d0001a4bde7","609006691f6f4e337c17f836","609a6125f4f14bd81a5d1690","311","","","","37","","","","key","16.668717948717994","588","312","true","-1","133.64057794559997","2.0615843020800004","12","-1","-1","","","","","","","","","","","","",""
"psychophysics","78","221838","0.0-8.0-0.31","5918a03738cc6d0001a4bde7","609006691f6f4e337c17f836","609a6125f4f14bd81a5d1690","463","","","","37","","","","key","16.666666666666668","588","312","true","-1","131.57899364351996","2.0615843020800004","12","-1","-1","","","","","","","","","","","","",""
"psychophysics","79","223111","0.0-8.0-0.32","5918a03738cc6d0001a4bde7","609006691f6f4e337c17f836","609a6125f4f14bd81a5d1690","270","","","","37","","","","key","16.664210526315927","588","312","true","1","131.57899364351996","1.6492674416640005","13","1","-1","","","","","","","","","","","","",""
"psychophysics","80","224454","0.0-8.0-0.33","5918a03738cc6d0001a4bde7","609006691f6f4e337c17f836","609a6125f4f14bd81a5d1690","338","","","","37","","","","key","16.672658227848277","588","312","true","-1","133.22826108518396","1.6492674416640005","13","-1","1","","","","","","","","","","","","",""
"psychophysics","81","225771","0.0-8.0-0.34","5918a03738cc6d0001a4bde7","609006691f6f4e337c17f836","609a6125f4f14bd81a5d1690","313","","","","37","","","","key","16.672307692307722","588","312","true","-1","133.22826108518396","1.3194139533312006","14","-1","-1","","","","","","","","","","","","",""
"psychophysics","82","227297","0.0-8.0-0.35","5918a03738cc6d0001a4bde7","609006691f6f4e337c17f836","609a6125f4f14bd81a5d1690","522","","","","37","","","","key","16.670989010988986","588","312","true","-1","131.90884713185275","1.3194139533312006","14","-1","-1","","","","","","","","","","","","",""
"psychophysics","83","228675","0.0-8.0-0.36","5918a03738cc6d0001a4bde7","609006691f6f4e337c17f836","609a6125f4f14bd81a5d1690","374","","","","37","","","","key","16.660731707317343","588","312","true","-1","131.90884713185275","1.3194139533312006","14","-1","-1","","","","","","","","","","","","",""
"psychophysics","84","230130","0.0-8.0-0.37","5918a03738cc6d0001a4bde7","609006691f6f4e337c17f836","609a6125f4f14bd81a5d1690","450","","","","37","","","","key","16.658372093023203","588","312","true","1","130.58943317852155","1.0555311626649604","15","1","-1","","","","","","","","","","","","",""
"psychophysics","85","231473","0.0-8.0-0.38","5918a03738cc6d0001a4bde7","609006691f6f4e337c17f836","609a6125f4f14bd81a5d1690","339","","","","37","","","","key","16.660506329113836","588","312","true","-1","131.6449643411865","1.0555311626649604","15","-1","1","","","","","","","","","","","","",""
"psychophysics","86","232939","0.0-8.0-0.39","5918a03738cc6d0001a4bde7","609006691f6f4e337c17f836","609a6125f4f14bd81a5d1690","461","","","","37","","","","key","16.662068965517307","588","312","true","1","131.6449643411865","1","16","1","-1","","","","","","","","","","","","",""
"html-keyboard-response","87","250586","0.0-9.0","5918a03738cc6d0001a4bde7","609006691f6f4e337c17f836","609a6125f4f14bd81a5d1690","17648","<p>Well Done !</p><p>Prepare for a new block.</p><p>DON'T EXIT THE FULL SCREEN MODE</p><p>Press the Spacebar to start.</p>","","","32","","","","","","","","","","","","","","","true","132.35263751261385","","","","","","","","","","",""
"psychophysics","88","251655","0.0-10.0-0.0","5918a03738cc6d0001a4bde7","609006691f6f4e337c17f836","609a6125f4f14bd81a5d1690","63","","","","37","","","","key","16.994838709677307","588","312","true","-1","180","30","0","-1","","","","","","","","","","","","","",""
"psychophysics","89","252755","0.0-10.0-0.1","5918a03738cc6d0001a4bde7","609006691f6f4e337c17f836","609a6125f4f14bd81a5d1690","95","","","","39","","","","key","16.662461538461503","588","312","true","1","180","30","0","-1","-1","","","","","","","","","","","","",""
"psychophysics","90","253820","0.0-10.0-0.2","5918a03738cc6d0001a4bde7","609006691f6f4e337c17f836","609a6125f4f14bd81a5d1690","60","","","","37","","","","key","16.67174603174568","588","312","true","-1","150","30","0","-1","-1","","","","","","","","","","","","",""
"psychophysics","91","254863","0.0-10.0-0.3","5918a03738cc6d0001a4bde7","609006691f6f4e337c17f836","609a6125f4f14bd81a5d1690","37","","","","37","","","","key","16.667419354838785","588","312","true","-1","150","30","0","-1","-1","","","","","","","","","","","","",""
"psychophysics","92","256740","0.0-10.0-0.4","5918a03738cc6d0001a4bde7","609006691f6f4e337c17f836","609a6125f4f14bd81a5d1690","872","","","","37","","","","key","16.666666666666668","588","312","true","-1","129","30","0","-1","-1","","","","","","","","","","","","",""
"psychophysics","93","258055","0.0-10.0-0.5","5918a03738cc6d0001a4bde7","609006691f6f4e337c17f836","609a6125f4f14bd81a5d1690","313","","","","37","","","","key","16.678205128205427","588","312","true","1","129","24","1","1","-1","","","","","","","","","","","","",""
"psychophysics","94","259140","0.0-10.0-0.6","5918a03738cc6d0001a4bde7","609006691f6f4e337c17f836","609a6125f4f14bd81a5d1690","85","","","","39","","","","key","16.678437499999745","588","312","true","1","153","24","1","-1","1","","","","","","","","","","","","",""
"psychophysics","95","260339","0.0-10.0-0.7","5918a03738cc6d0001a4bde7","609006691f6f4e337c17f836","609a6125f4f14bd81a5d1690","196","","","","39","","","","key","16.668732394366344","588","312","true","1","153","19.2","2","-1","-1","","","","","","","","","","","","",""
"psychophysics","96","261661","0.0-10.0-0.8","5918a03738cc6d0001a4bde7","609006691f6f4e337c17f836","609a6125f4f14bd81a5d1690","318","","","","37","","","","key","16.666329113924228","588","312","true","-1","133.8","19.2","2","-1","-1","","","","","","","","","","","","",""
"psychophysics","97","262882","0.0-10.0-0.9","5918a03738cc6d0001a4bde7","609006691f6f4e337c17f836","609a6125f4f14bd81a5d1690","220","","","","37","","","","key","16.6627777777782","588","312","true","-1","133.8","19.2","2","-1","-1","","","","","","","","","","","","",""
"psychophysics","98","264332","0.0-10.0-0.10","5918a03738cc6d0001a4bde7","609006691f6f4e337c17f836","609a6125f4f14bd81a5d1690","446","","","","37","","","","key","16.667209302325634","588","312","true","1","129","15.36","3","1","-1","","","","","","","","","","","","",""
"psychophysics","99","265391","0.0-10.0-0.11","5918a03738cc6d0001a4bde7","609006691f6f4e337c17f836","609a6125f4f14bd81a5d1690","54","","","","37","","","","key","16.658064516128846","588","312","true","-1","144.36","15.36","3","-1","1","","","","","","","","","","","","",""
"psychophysics","100","266666","0.0-10.0-0.12","5918a03738cc6d0001a4bde7","609006691f6f4e337c17f836","609a6125f4f14bd81a5d1690","275","","","","37","","","","key","16.669473684210587","588","312","true","-1","144.36","12.287999999999998","4","-1","-1","","","","","","","","","","","","",""
"psychophysics","101","268130","0.0-10.0-0.13","5918a03738cc6d0001a4bde7","609006691f6f4e337c17f836","609a6125f4f14bd81a5d1690","462","","","","37","","","","key","16.660229885057497","588","312","true","1","132.072","9.8304","5","1","-1","","","","","","","","","","","","",""
"psychophysics","102","269237","0.0-10.0-0.14","5918a03738cc6d0001a4bde7","609006691f6f4e337c17f836","609a6125f4f14bd81a5d1690","103","","","","39","","","","key","16.653846153846153","588","312","true","1","141.9024","9.8304","5","-1","1","","","","","","","","","","","","",""
"psychophysics","103","270487","0.0-10.0-0.15","5918a03738cc6d0001a4bde7","609006691f6f4e337c17f836","609a6125f4f14bd81a5d1690","248","","","","37","","","","key","16.665945945946323","588","312","true","-1","141.9024","7.864319999999999","6","-1","-1","","","","","","","","","","","","",""
"psychophysics","104","271711","0.0-10.0-0.16","5918a03738cc6d0001a4bde7","609006691f6f4e337c17f836","609a6125f4f14bd81a5d1690","220","","","","37","","","","key","16.67452054794508","588","312","true","-1","134.03808","7.864319999999999","6","-1","-1","","","","","","","","","","","","",""
"psychophysics","105","272991","0.0-10.0-0.17","5918a03738cc6d0001a4bde7","609006691f6f4e337c17f836","609a6125f4f14bd81a5d1690","276","","","","37","","","","key","16.669333333333487","588","312","true","-1","134.03808","7.864319999999999","6","-1","-1","","","","","","","","","","","","",""
"psychophysics","106","274959","0.0-10.0-0.18","5918a03738cc6d0001a4bde7","609006691f6f4e337c17f836","609a6125f4f14bd81a5d1690","962","","","","37","","","","key","16.666610169491307","588","312","true","-1","129","7.864319999999999","6","-1","-1","","","","","","","","","","","","",""
"psychophysics","107","276224","0.0-10.0-0.19","5918a03738cc6d0001a4bde7","609006691f6f4e337c17f836","609a6125f4f14bd81a5d1690","261","","","","37","","","","key","16.673243243243338","588","312","true","-1","129","7.864319999999999","6","-1","-1","","","","","","","","","","","","",""
"psychophysics","108","277584","0.0-10.0-0.20","5918a03738cc6d0001a4bde7","609006691f6f4e337c17f836","609a6125f4f14bd81a5d1690","358","","","","37","","","","key","16.670617283950705","588","312","true","1","129","6.291456","7","1","-1","","","","","","","","","","","","",""
"psychophysics","109","278626","0.0-10.0-0.21","5918a03738cc6d0001a4bde7","609006691f6f4e337c17f836","609a6125f4f14bd81a5d1690","39","","","","39","","","","key","16.663548387097","588","312","true","1","135.291456","6.291456","7","-1","1","","","","","","","","","","","","",""
"psychophysics","110","279807","0.0-10.0-0.22","5918a03738cc6d0001a4bde7","609006691f6f4e337c17f836","609a6125f4f14bd81a5d1690","181","","","","37","","","","key","16.653623188406304","588","312","true","-1","135.291456","5.033164800000001","8","-1","-1","","","","","","","","","","","","",""
"psychophysics","111","281214","0.0-10.0-0.23","5918a03738cc6d0001a4bde7","609006691f6f4e337c17f836","609a6125f4f14bd81a5d1690","401","","","","37","","","","key","16.6671428571433","588","312","true","-1","130.2582912","5.033164800000001","8","-1","-1","","","","","","","","","","","","",""
"psychophysics","112","282557","0.0-10.0-0.24","5918a03738cc6d0001a4bde7","609006691f6f4e337c17f836","609a6125f4f14bd81a5d1690","337","","","","37","","","","key","16.667594936708742","588","312","true","1","130.2582912","4.0265318400000005","9","1","-1","","","","","","","","","","","","",""
"psychophysics","113","283900","0.0-10.0-0.25","5918a03738cc6d0001a4bde7","609006691f6f4e337c17f836","609a6125f4f14bd81a5d1690","340","","","","39","","","","key","16.670500000000175","588","312","true","1","134.28482304","4.0265318400000005","9","-1","1","","","","","","","","","","","","",""
"psychophysics","114","285253","0.0-10.0-0.26","5918a03738cc6d0001a4bde7","609006691f6f4e337c17f836","609a6125f4f14bd81a5d1690","350","","","","39","","","","key","16.673749999999565","588","312","true","1","134.28482304","3.2212254720000004","10","-1","-1","","","","","","","","","","","","",""
"psychophysics","115","286616","0.0-10.0-0.27","5918a03738cc6d0001a4bde7","609006691f6f4e337c17f836","609a6125f4f14bd81a5d1690","360","","","","39","","","","key","16.668641975308326","588","312","true","-1","131.06359756799998","2.5769803776000004","11","1","-1","","","","","","","","","","","","",""
"psychophysics","116","287823","0.0-10.0-0.28","5918a03738cc6d0001a4bde7","609006691f6f4e337c17f836","609a6125f4f14bd81a5d1690","202","","","","39","","","","key","16.66704225352175","588","312","true","1","133.64057794559997","2.5769803776000004","11","-1","1","","","","","","","","","","","","",""
"psychophysics","117","289080","0.0-10.0-0.29","5918a03738cc6d0001a4bde7","609006691f6f4e337c17f836","609a6125f4f14bd81a5d1690","251","","","","37","","","","key","16.664533333333676","588","312","true","-1","133.64057794559997","2.0615843020800004","12","-1","-1","","","","","","","","","","","","",""
"psychophysics","118","290335","0.0-10.0-0.30","5918a03738cc6d0001a4bde7","609006691f6f4e337c17f836","609a6125f4f14bd81a5d1690","251","","","","39","","","","key","16.6645945945945","588","312","true","1","131.57899364351996","2.0615843020800004","12","-1","-1","","","","","","","","","","","","",""
"psychophysics","119","292034","0.0-10.0-0.31","5918a03738cc6d0001a4bde7","609006691f6f4e337c17f836","609a6125f4f14bd81a5d1690","695","","","","39","","","","key","16.666336633663253","588","312","true","1","131.57899364351996","2.0615843020800004","12","-1","-1","","","","","","","","","","","","",""
"psychophysics","120","293760","0.0-10.0-0.32","5918a03738cc6d0001a4bde7","609006691f6f4e337c17f836","609a6125f4f14bd81a5d1690","719","","","","39","","","","key","16.668155339805892","588","312","true","1","129.51740934143996","2.0615843020800004","12","-1","-1","","","","","","","","","","","","",""
"psychophysics","121","295126","0.0-10.0-0.33","5918a03738cc6d0001a4bde7","609006691f6f4e337c17f836","609a6125f4f14bd81a5d1690","361","","","","39","","","","key","16.66814814814809","588","312","true","-1","129.51740934143996","1.6492674416640005","13","1","-1","","","","","","","","","","","","",""
"psychophysics","122","296494","0.0-10.0-0.34","5918a03738cc6d0001a4bde7","609006691f6f4e337c17f836","609a6125f4f14bd81a5d1690","364","","","","39","","","","key","16.662469135802873","588","312","true","-1","131.16667678310395","1.6492674416640005","13","1","1","","","","","","","","","","","","",""
"psychophysics","123","297797","0.0-10.0-0.35","5918a03738cc6d0001a4bde7","609006691f6f4e337c17f836","609a6125f4f14bd81a5d1690","301","","","","39","","","","key","16.66000000000009","588","312","true","1","132.81594422476795","1.6492674416640005","13","-1","1","","","","","","","","","","","","",""
"psychophysics","124","299334","0.0-10.0-0.36","5918a03738cc6d0001a4bde7","609006691f6f4e337c17f836","609a6125f4f14bd81a5d1690","534","","","","39","","","","key","16.66681318681311","588","312","true","1","132.81594422476795","1.3194139533312006","14","-1","-1","","","","","","","","","","","","",""
"psychophysics","125","300876","0.0-10.0-0.37","5918a03738cc6d0001a4bde7","609006691f6f4e337c17f836","609a6125f4f14bd81a5d1690","537","","","","39","","","","key","16.66586956521749","588","312","true","1","131.49653027143674","1.3194139533312006","14","-1","-1","","","","","","","","","","","","",""
"psychophysics","126","302301","0.0-10.0-0.38","5918a03738cc6d0001a4bde7","609006691f6f4e337c17f836","609a6125f4f14bd81a5d1690","421","","","","39","","","","key","16.665952380952408","588","312","true","-1","131.49653027143674","1.0555311626649604","15","1","-1","","","","","","","","","","","","",""
"psychophysics","127","303485","0.0-10.0-0.39","5918a03738cc6d0001a4bde7","609006691f6f4e337c17f836","609a6125f4f14bd81a5d1690","180","","","","39","","","","key","16.668571428571262","588","312","true","1","132.5520614341017","1.0555311626649604","15","-1","1","","","","","","","","","","","","",""
"html-keyboard-response","128","308997","0.0-11.0","5918a03738cc6d0001a4bde7","609006691f6f4e337c17f836","609a6125f4f14bd81a5d1690","5511","<p>Well Done !</p><p>Prepare for a new block.</p><p>DON'T EXIT THE FULL SCREEN MODE</p><p>Press the Spacebar to start.</p>","","","32","","","","","","","","","","","","","","","true","132.09672618124898","","","","","","","","","","",""
"psychophysics","129","310363","0.0-12.0-0.0","5918a03738cc6d0001a4bde7","609006691f6f4e337c17f836","609a6125f4f14bd81a5d1690","362","","","","39","","","","key","16.988500000000204","588","312","true","1","180","30","0","-1","","","","","","","","","","","","","",""
"psychophysics","130","311565","0.0-12.0-0.1","5918a03738cc6d0001a4bde7","609006691f6f4e337c17f836","609a6125f4f14bd81a5d1690","197","","","","37","","","","key","16.657746478873403","588","312","true","-1","180","30","0","-1","-1","","","","","","","","","","","","",""
"psychophysics","131","312711","0.0-12.0-0.2","5918a03738cc6d0001a4bde7","609006691f6f4e337c17f836","609a6125f4f14bd81a5d1690","143","","","","39","","","","key","16.665588235294255","588","312","true","1","150","30","0","-1","-1","","","","","","","","","","","","",""
"psychophysics","132","313824","0.0-12.0-0.3","5918a03738cc6d0001a4bde7","609006691f6f4e337c17f836","609a6125f4f14bd81a5d1690","108","","","","39","","","","key","16.664848484848555","588","312","true","1","150","30","0","-1","-1","","","","","","","","","","","","",""
"psychophysics","133","315620","0.0-12.0-0.4","5918a03738cc6d0001a4bde7","609006691f6f4e337c17f836","609a6125f4f14bd81a5d1690","790","","","","39","","","","key","16.662264150943507","588","312","true","-1","129","24","1","1","-1","","","","","","","","","","","","",""
"psychophysics","134","316681","0.0-12.0-0.5","5918a03738cc6d0001a4bde7","609006691f6f4e337c17f836","609a6125f4f14bd81a5d1690","59","","","","37","","","","key","16.67714285714245","588","312","true","-1","153","24","1","-1","1","","","","","","","","","","","","",""
"psychophysics","135","318301","0.0-12.0-0.6","5918a03738cc6d0001a4bde7","609006691f6f4e337c17f836","609a6125f4f14bd81a5d1690","619","","","","39","","","","key","16.67229166666645","588","312","true","1","153","19.2","2","-1","-1","","","","","","","","","","","","",""
"psychophysics","136","319542","0.0-12.0-0.7","5918a03738cc6d0001a4bde7","609006691f6f4e337c17f836","609a6125f4f14bd81a5d1690","237","","","","39","","","","key","16.66729729729736","588","312","true","1","133.8","19.2","2","-1","-1","","","","","","","","","","","","",""
"psychophysics","137","320745","0.0-12.0-0.8","5918a03738cc6d0001a4bde7","609006691f6f4e337c17f836","609a6125f4f14bd81a5d1690","199","","","","37","","","","key","16.680281690141502","588","312","true","-1","133.8","19.2","2","-1","-1","","","","","","","","","","","","",""
"psychophysics","138","322054","0.0-12.0-0.9","5918a03738cc6d0001a4bde7","609006691f6f4e337c17f836","609a6125f4f14bd81a5d1690","304","","","","37","","","","key","16.672987012987104","588","312","true","-1","129","19.2","2","-1","-1","","","","","","","","","","","","",""
"psychophysics","139","323761","0.0-12.0-0.10","5918a03738cc6d0001a4bde7","609006691f6f4e337c17f836","609a6125f4f14bd81a5d1690","703","","","","37","","","","key","16.666666666666668","588","312","true","-1","129","19.2","2","-1","-1","","","","","","","","","","","","",""
"psychophysics","140","325161","0.0-12.0-0.11","5918a03738cc6d0001a4bde7","609006691f6f4e337c17f836","609a6125f4f14bd81a5d1690","398","","","","37","","","","key","16.667951807228945","588","312","true","1","129","15.36","3","1","-1","","","","","","","","","","","","",""
"psychophysics","141","326311","0.0-12.0-0.12","5918a03738cc6d0001a4bde7","609006691f6f4e337c17f836","609a6125f4f14bd81a5d1690","144","","","","37","","","","key","16.66382352941197","588","312","true","-1","144.36","15.36","3","-1","1","","","","","","","","","","","","",""
"psychophysics","142","327543","0.0-12.0-0.13","5918a03738cc6d0001a4bde7","609006691f6f4e337c17f836","609a6125f4f14bd81a5d1690","227","","","","39","","","","key","16.67424657534208","588","312","true","1","144.36","12.287999999999998","4","-1","-1","","","","","","","","","","","","",""
"psychophysics","143","328951","0.0-12.0-0.14","5918a03738cc6d0001a4bde7","609006691f6f4e337c17f836","609a6125f4f14bd81a5d1690","403","","","","37","","","","key","16.66361445783082","588","312","true","-1","132.072","12.287999999999998","4","-1","-1","","","","","","","","","","","","",""
"psychophysics","144","330527","0.0-12.0-0.15","5918a03738cc6d0001a4bde7","609006691f6f4e337c17f836","609a6125f4f14bd81a5d1690","572","","","","37","","","","key","16.667021276595868","588","312","true","1","132.072","9.8304","5","1","-1","","","","","","","","","","","","",""
"psychophysics","145","331800","0.0-12.0-0.16","5918a03738cc6d0001a4bde7","609006691f6f4e337c17f836","609a6125f4f14bd81a5d1690","267","","","","37","","","","key","16.669066666666573","588","312","true","-1","141.9024","9.8304","5","-1","1","","","","","","","","","","","","",""
"psychophysics","146","332974","0.0-12.0-0.17","5918a03738cc6d0001a4bde7","609006691f6f4e337c17f836","609a6125f4f14bd81a5d1690","171","","","","39","","","","key","16.67188405797081","588","312","true","1","141.9024","7.864319999999999","6","-1","-1","","","","","","","","","","","","",""
"psychophysics","147","334108","0.0-12.0-0.18","5918a03738cc6d0001a4bde7","609006691f6f4e337c17f836","609a6125f4f14bd81a5d1690","133","","","","37","","","","key","16.674626865671815","588","312","true","-1","134.03808","7.864319999999999","6","-1","-1","","","","","","","","","","","","",""
"psychophysics","148","335291","0.0-12.0-0.19","5918a03738cc6d0001a4bde7","609006691f6f4e337c17f836","609a6125f4f14bd81a5d1690","181","","","","39","","","","key","16.668571428571262","588","312","true","1","134.03808","7.864319999999999","6","-1","-1","","","","","","","","","","","","",""
"psychophysics","149","337040","0.0-12.0-0.20","5918a03738cc6d0001a4bde7","609006691f6f4e337c17f836","609a6125f4f14bd81a5d1690","747","","","","39","","","","key","16.67192307692312","588","312","true","-1","129","6.291456","7","1","-1","","","","","","","","","","","","",""
"psychophysics","150","338218","0.0-12.0-0.21","5918a03738cc6d0001a4bde7","609006691f6f4e337c17f836","609a6125f4f14bd81a5d1690","173","","","","39","","","","key","16.67228571428568","588","312","true","1","135.291456","6.291456","7","-1","1","","","","","","","","","","","","",""
"psychophysics","151","339491","0.0-12.0-0.22","5918a03738cc6d0001a4bde7","609006691f6f4e337c17f836","609a6125f4f14bd81a5d1690","268","","","","39","","","","key","16.661066666666883","588","312","true","1","135.291456","5.033164800000001","8","-1","-1","","","","","","","","","","","","",""
"psychophysics","152","340926","0.0-12.0-0.23","5918a03738cc6d0001a4bde7","609006691f6f4e337c17f836","609a6125f4f14bd81a5d1690","432","","","","39","","","","key","16.663488372092996","588","312","true","-1","130.2582912","4.0265318400000005","9","1","-1","","","","","","","","","","","","",""
"psychophysics","153","342208","0.0-12.0-0.24","5918a03738cc6d0001a4bde7","609006691f6f4e337c17f836","609a6125f4f14bd81a5d1690","278","","","","37","","","","key","16.663684210526345","588","312","true","-1","134.28482304","4.0265318400000005","9","-1","1","","","","","","","","","","","","",""
"psychophysics","154","343492","0.0-12.0-0.25","5918a03738cc6d0001a4bde7","609006691f6f4e337c17f836","609a6125f4f14bd81a5d1690","279","","","","39","","","","key","16.664999999999726","588","312","true","1","134.28482304","3.2212254720000004","10","-1","-1","","","","","","","","","","","","",""
"psychophysics","155","345158","0.0-12.0-0.26","5918a03738cc6d0001a4bde7","609006691f6f4e337c17f836","609a6125f4f14bd81a5d1690","665","","","","39","","","","key","16.6656565656568","588","312","true","1","131.06359756799998","3.2212254720000004","10","-1","-1","","","","","","","","","","","","",""
"psychophysics","156","346425","0.0-12.0-0.27","5918a03738cc6d0001a4bde7","609006691f6f4e337c17f836","609a6125f4f14bd81a5d1690","263","","","","39","","","","key","16.66559999999978","588","312","true","-1","131.06359756799998","2.5769803776000004","11","1","-1","","","","","","","","","","","","",""
"psychophysics","157","347590","0.0-12.0-0.28","5918a03738cc6d0001a4bde7","609006691f6f4e337c17f836","609a6125f4f14bd81a5d1690","161","","","","37","","","","key","16.66382352941197","588","312","true","-1","133.64057794559997","2.5769803776000004","11","-1","1","","","","","","","","","","","","",""
"psychophysics","158","348927","0.0-12.0-0.29","5918a03738cc6d0001a4bde7","609006691f6f4e337c17f836","609a6125f4f14bd81a5d1690","336","","","","37","","","","key","16.66449999999968","588","312","true","-1","133.64057794559997","2.0615843020800004","12","-1","-1","","","","","","","","","","","","",""
"psychophysics","159","350328","0.0-12.0-0.30","5918a03738cc6d0001a4bde7","609006691f6f4e337c17f836","609a6125f4f14bd81a5d1690","400","","","","37","","","","key","16.656144578312805","588","312","true","1","131.57899364351996","1.6492674416640005","13","1","-1","","","","","","","","","","","","",""
"psychophysics","160","351669","0.0-12.0-0.31","5918a03738cc6d0001a4bde7","609006691f6f4e337c17f836","609a6125f4f14bd81a5d1690","341","","","","37","","","","key","16.662278481012745","588","312","true","-1","133.22826108518396","1.6492674416640005","13","-1","1","","","","","","","","","","","","",""
"psychophysics","161","353032","0.0-12.0-0.32","5918a03738cc6d0001a4bde7","609006691f6f4e337c17f836","609a6125f4f14bd81a5d1690","363","","","","37","","","","key","16.659259259259546","588","312","true","1","133.22826108518396","1.3194139533312006","14","1","-1","","","","","","","","","","","","",""
"psychophysics","162","354278","0.0-12.0-0.33","5918a03738cc6d0001a4bde7","609006691f6f4e337c17f836","609a6125f4f14bd81a5d1690","242","","","","39","","","","key","16.667027027026837","588","312","true","1","134.54767503851517","1.3194139533312006","14","-1","1","","","","","","","","","","","","",""
"psychophysics","163","355534","0.0-12.0-0.34","5918a03738cc6d0001a4bde7","609006691f6f4e337c17f836","609a6125f4f14bd81a5d1690","253","","","","37","","","","key","16.666756756756318","588","312","true","-1","134.54767503851517","1.0555311626649604","15","-1","-1","","","","","","","","","","","","",""
"psychophysics","164","356758","0.0-12.0-0.35","5918a03738cc6d0001a4bde7","609006691f6f4e337c17f836","609a6125f4f14bd81a5d1690","220","","","","37","","","","key","16.65780821917754","588","312","true","-1","133.49214387585022","1.0555311626649604","15","-1","-1","","","","","","","","","","","","",""
"psychophysics","165","358639","0.0-12.0-0.36","5918a03738cc6d0001a4bde7","609006691f6f4e337c17f836","609a6125f4f14bd81a5d1690","879","","","","37","","","","key","16.67459459459411","588","312","true","1","133.49214387585022","1","16","1","-1","","","","","","","","","","","","",""
"psychophysics","166","359779","0.0-12.0-0.37","5918a03738cc6d0001a4bde7","609006691f6f4e337c17f836","609a6125f4f14bd81a5d1690","138","","","","39","","","","key","16.66676470588273","588","312","true","1","134.49214387585022","1","16","-1","1","","","","","","","","","","","","",""
"psychophysics","167","361290","0.0-12.0-0.38","5918a03738cc6d0001a4bde7","609006691f6f4e337c17f836","609a6125f4f14bd81a5d1690","509","","","","39","","","","key","16.664719101123307","588","312","true","1","134.49214387585022","1","17","-1","-1","","","","","","","","","","","","",""
"psychophysics","168","362712","0.0-12.0-0.39","5918a03738cc6d0001a4bde7","609006691f6f4e337c17f836","609a6125f4f14bd81a5d1690","420","","","","39","","","","key","16.675294117647333","588","312","true","-1","133.49214387585022","1","18","1","-1","","","","","","","","","","","","",""
"html-keyboard-response","169","369239","0.0-13.0","5918a03738cc6d0001a4bde7","609006691f6f4e337c17f836","609a6125f4f14bd81a5d1690","6527","<p>Well Done !</p><p>Prepare for a new block.</p><p>DON'T EXIT THE FULL SCREEN MODE</p><p>Press the Spacebar to start.</p>","","","32","","","","","","","","","","","","","","","true","133.35231728915792","","","","","","","","","","",""
"html-keyboard-response","170","369341","0.0-14.0","5918a03738cc6d0001a4bde7","609006691f6f4e337c17f836","609a6125f4f14bd81a5d1690","null","","","","null","","","","","","","","","","","","","","","","","132.5775733635536","true","137.1551467271072","","","","","","","",""
"instructions","171","520177","0.0-15.0","5918a03738cc6d0001a4bde7","609006691f6f4e337c17f836","609a6125f4f14bd81a5d1690","150836","","","","","","","[{""page_index"":0,""viewing_time"":145780},{""page_index"":1,""viewing_time"":1720},{""page_index"":2,""viewing_time"":3336}]","","","","","","","","","","","","","","","","","","","","","","","",""
"psychophysics","172","523188","0.0-16.0-0.0","5918a03738cc6d0001a4bde7","609006691f6f4e337c17f836","609a6125f4f14bd81a5d1690","null","","","","null","","","","key","17.348421052632354","588","312","","","","","","","","","","","","","","","","","","","",""
"psychophysics","173","523696","0.0-16.0-1.0","5918a03738cc6d0001a4bde7","609006691f6f4e337c17f836","609a6125f4f14bd81a5d1690","null","","","","null","","","","key","16.677333333333568","588","312","","","","","","","","","","","","","137","-1","3","false","","","",""
"psychophysics","174","524920","0.0-16.0-2.0","5918a03738cc6d0001a4bde7","609006691f6f4e337c17f836","609a6125f4f14bd81a5d1690","1222","","","","77","","","","key","16.670555555555943","588","312","","","","","","","","","","","","","","","","","","","",""
"psychophysics","175","525925","0.0-16.0-0.1","5918a03738cc6d0001a4bde7","609006691f6f4e337c17f836","609a6125f4f14bd81a5d1690","null","","","","null","","","","key","16.679999999998834","588","312","","","","","","","","","","","","","","","","","","","",""
"psychophysics","176","526432","0.0-16.0-1.1","5918a03738cc6d0001a4bde7","609006691f6f4e337c17f836","609a6125f4f14bd81a5d1690","null","","","","null","","","","key","17.2435714285696","588","312","","","","","","","","","","","","","137","1","5","false","","","",""
"psychophysics","177","526873","0.0-16.0-2.1","5918a03738cc6d0001a4bde7","609006691f6f4e337c17f836","609a6125f4f14bd81a5d1690","442","","","","77","","","","key","16.660000000001254","588","312","","","","","","","","","","","","","","","","","","","",""
"psychophysics","178","527877","0.0-16.0-0.2","5918a03738cc6d0001a4bde7","609006691f6f4e337c17f836","609a6125f4f14bd81a5d1690","null","","","","null","","","","key","16.661016949152543","588","312","","","","","","","","","","","","","","","","","","","",""
"psychophysics","179","528379","0.0-16.0-1.2","5918a03738cc6d0001a4bde7","609006691f6f4e337c17f836","609a6125f4f14bd81a5d1690","null","","","","null","","","","key","16.65448275862005","588","312","","","","","","","","","","","","","137","1","6","false","","","",""
"psychophysics","180","528585","0.0-16.0-2.2","5918a03738cc6d0001a4bde7","609006691f6f4e337c17f836","609a6125f4f14bd81a5d1690","205","","","","77","","","","key","16.73636363636152","588","312","","","","","","","","","","","","","","","","","","","",""
"psychophysics","181","529590","0.0-16.0-0.3","5918a03738cc6d0001a4bde7","609006691f6f4e337c17f836","609a6125f4f14bd81a5d1690","null","","","","null","","","","key","16.677627118643752","588","312","","","","","","","","","","","","","","","","","","","",""
"psychophysics","182","530096","0.0-16.0-1.3","5918a03738cc6d0001a4bde7","609006691f6f4e337c17f836","609a6125f4f14bd81a5d1690","null","","","","null","","","","key","16.661999999999534","588","312","","","","","","","","","","","","","137","-1","2","false","","","",""
"psychophysics","183","530472","0.0-16.0-2.3","5918a03738cc6d0001a4bde7","609006691f6f4e337c17f836","609a6125f4f14bd81a5d1690","376","","","","90","","","","key","16.684761904762127","588","312","","","","","","","","","","","","","","","","","","","",""
"psychophysics","184","531475","0.0-16.0-0.4","5918a03738cc6d0001a4bde7","609006691f6f4e337c17f836","609a6125f4f14bd81a5d1690","null","","","","null","","","","key","16.665333333332093","588","312","","","","","","","","","","","","","","","","","","","",""
"psychophysics","185","531977","0.0-16.0-1.4","5918a03738cc6d0001a4bde7","609006691f6f4e337c17f836","609a6125f4f14bd81a5d1690","null","","","","null","","","","key","16.66482758620786","588","312","","","","","","","","","","","","","137","1","2","false","","","",""
"psychophysics","186","532440","0.0-16.0-2.4","5918a03738cc6d0001a4bde7","609006691f6f4e337c17f836","609a6125f4f14bd81a5d1690","462","","","","90","","","","key","16.668888888886645","588","312","","","","","","","","","","","","","","","","","","","",""
"psychophysics","187","533443","0.0-16.0-0.5","5918a03738cc6d0001a4bde7","609006691f6f4e337c17f836","609a6125f4f14bd81a5d1690","null","","","","null","","","","key","16.662711864406386","588","312","","","","","","","","","","","","","","","","","","","",""
"psychophysics","188","533944","0.0-16.0-1.5","5918a03738cc6d0001a4bde7","609006691f6f4e337c17f836","609a6125f4f14bd81a5d1690","null","","","","null","","","","key","16.64344827585918","588","312","","","","","","","","","","","","","137","1","0","false","","","",""
"psychophysics","189","534493","0.0-16.0-2.5","5918a03738cc6d0001a4bde7","609006691f6f4e337c17f836","609a6125f4f14bd81a5d1690","548","","","","90","","","","key","16.64812499999971","588","312","","","","","","","","","","","","","","","","","","","",""
"psychophysics","190","535494","0.0-16.0-0.6","5918a03738cc6d0001a4bde7","609006691f6f4e337c17f836","609a6125f4f14bd81a5d1690","null","","","","null","","","","key","16.667457627118722","588","312","","","","","","","","","","","","","","","","","","","",""
"psychophysics","191","536000","0.0-16.0-1.6","5918a03738cc6d0001a4bde7","609006691f6f4e337c17f836","609a6125f4f14bd81a5d1690","null","","","","null","","","","key","16.65862068965437","588","312","","","","","","","","","","","","","137","-1","6","false","","","",""
"psychophysics","192","536492","0.0-16.0-2.6","5918a03738cc6d0001a4bde7","609006691f6f4e337c17f836","609a6125f4f14bd81a5d1690","493","","","","77","","","","key","16.693793103448115","588","312","","","","","","","","","","","","","","","","","","","",""
"psychophysics","193","537498","0.0-16.0-0.7","5918a03738cc6d0001a4bde7","609006691f6f4e337c17f836","609a6125f4f14bd81a5d1690","null","","","","null","","","","key","16.658644067796374","588","312","","","","","","","","","","","","","","","","","","","",""
"psychophysics","194","538004","0.0-16.0-1.7","5918a03738cc6d0001a4bde7","609006691f6f4e337c17f836","609a6125f4f14bd81a5d1690","null","","","","null","","","","key","16.68827586206768","588","312","","","","","","","","","","","","","137","-1","4","false","","","",""
"psychophysics","195","538180","0.0-16.0-2.7","5918a03738cc6d0001a4bde7","609006691f6f4e337c17f836","609a6125f4f14bd81a5d1690","175","","","","77","","","","key","16.645999999996274","588","312","","","","","","","","","","","","","","","","","","","",""
"psychophysics","196","539182","0.0-16.0-0.8","5918a03738cc6d0001a4bde7","609006691f6f4e337c17f836","609a6125f4f14bd81a5d1690","null","","","","null","","","","key","16.66474576271139","588","312","","","","","","","","","","","","","","","","","","","",""
"psychophysics","197","539686","0.0-16.0-1.8","5918a03738cc6d0001a4bde7","609006691f6f4e337c17f836","609a6125f4f14bd81a5d1690","null","","","","null","","","","key","16.660689655169524","588","312","","","","","","","","","","","","","137","1","4","false","","","",""
"psychophysics","198","539849","0.0-16.0-2.8","5918a03738cc6d0001a4bde7","609006691f6f4e337c17f836","609a6125f4f14bd81a5d1690","162","","","","77","","","","key","16.773333333329195","588","312","","","","","","","","","","","","","","","","","","","",""
"psychophysics","199","540854","0.0-16.0-0.9","5918a03738cc6d0001a4bde7","609006691f6f4e337c17f836","609a6125f4f14bd81a5d1690","null","","","","null","","","","key","16.671186440677573","588","312","","","","","","","","","","","","","","","","","","","",""
"psychophysics","200","541355","0.0-16.0-1.9","5918a03738cc6d0001a4bde7","609006691f6f4e337c17f836","609a6125f4f14bd81a5d1690","null","","","","null","","","","key","16.63999999999791","588","312","","","","","","","","","","","","","137","1","3","false","","","",""
"psychophysics","201","541473","0.0-16.0-2.9","5918a03738cc6d0001a4bde7","609006691f6f4e337c17f836","609a6125f4f14bd81a5d1690","116","","","","77","","","","key","16.63999999999734","588","312","","","","","","","","","","","","","","","","","","","",""
"psychophysics","202","542479","0.0-16.0-0.10","5918a03738cc6d0001a4bde7","609006691f6f4e337c17f836","609a6125f4f14bd81a5d1690","null","","","","null","","","","key","16.649830508474025","588","312","","","","","","","","","","","","","","","","","","","",""
"psychophysics","203","542982","0.0-16.0-1.10","5918a03738cc6d0001a4bde7","609006691f6f4e337c17f836","609a6125f4f14bd81a5d1690","null","","","","null","","","","key","16.67034482758428","588","312","","","","","","","","","","","","","137","-1","5","false","","","",""
"psychophysics","204","543180","0.0-16.0-2.10","5918a03738cc6d0001a4bde7","609006691f6f4e337c17f836","609a6125f4f14bd81a5d1690","198","","","","90","","","","key","16.689090909097683","588","312","","","","","","","","","","","","","","","","","","","",""
"psychophysics","205","544186","0.0-16.0-0.11","5918a03738cc6d0001a4bde7","609006691f6f4e337c17f836","609a6125f4f14bd81a5d1690","null","","","","null","","","","key","16.67050847457722","588","312","","","","","","","","","","","","","","","","","","","",""
"psychophysics","206","544689","0.0-16.0-1.11","5918a03738cc6d0001a4bde7","609006691f6f4e337c17f836","609a6125f4f14bd81a5d1690","null","","","","null","","","","key","16.677241379310825","588","312","","","","","","","","","","","","","137","-1","0","false","","","",""
"psychophysics","207","544871","0.0-16.0-2.11","5918a03738cc6d0001a4bde7","609006691f6f4e337c17f836","609a6125f4f14bd81a5d1690","179","","","","90","","","","key","16.680000000004657","588","312","","","","","","","","","","","","","","","","","","","",""
"psychophysics","208","545876","0.0-16.0-0.12","5918a03738cc6d0001a4bde7","609006691f6f4e337c17f836","609a6125f4f14bd81a5d1690","null","","","","null","","","","key","16.681666666667056","588","312","","","","","","","","","","","","","","","","","","","",""
"psychophysics","209","546382","0.0-16.0-1.12","5918a03738cc6d0001a4bde7","609006691f6f4e337c17f836","609a6125f4f14bd81a5d1690","null","","","","null","","","","key","16.68896551724475","588","312","","","","","","","","","","","","","137","1","3","false","","","",""
"psychophysics","210","546563","0.0-16.0-2.12","5918a03738cc6d0001a4bde7","609006691f6f4e337c17f836","609a6125f4f14bd81a5d1690","180","","","","77","","","","key","16.7140000000014","588","312","","","","","","","","","","","","","","","","","","","",""
"psychophysics","211","547567","0.0-16.0-0.13","5918a03738cc6d0001a4bde7","609006691f6f4e337c17f836","609a6125f4f14bd81a5d1690","null","","","","null","","","","key","16.65457627118636","588","312","","","","","","","","","","","","","","","","","","","",""
"psychophysics","212","548069","0.0-16.0-1.13","5918a03738cc6d0001a4bde7","609006691f6f4e337c17f836","609a6125f4f14bd81a5d1690","null","","","","null","","","","key","16.675862068964715","588","312","","","","","","","","","","","","","137","1","4","false","","","",""
"psychophysics","213","548154","0.0-16.0-2.13","5918a03738cc6d0001a4bde7","609006691f6f4e337c17f836","609a6125f4f14bd81a5d1690","85","","","","77","","","","key","16.675000000017462","588","312","","","","","","","","","","","","","","","","","","","",""
"psychophysics","214","549156","0.0-16.0-0.14","5918a03738cc6d0001a4bde7","609006691f6f4e337c17f836","609a6125f4f14bd81a5d1690","null","","","","null","","","","key","16.671864406779896","588","312","","","","","","","","","","","","","","","","","","","",""
"psychophysics","215","549658","0.0-16.0-1.14","5918a03738cc6d0001a4bde7","609006691f6f4e337c17f836","609a6125f4f14bd81a5d1690","null","","","","null","","","","key","16.649333333332713","588","312","","","","","","","","","","","","","137","1","0","false","","","",""
"psychophysics","216","549796","0.0-16.0-2.14","5918a03738cc6d0001a4bde7","609006691f6f4e337c17f836","609a6125f4f14bd81a5d1690","137","","","","77","","","","key","16.588571428570763","588","312","","","","","","","","","","","","","","","","","","","",""
"psychophysics","217","550797","0.0-16.0-0.15","5918a03738cc6d0001a4bde7","609006691f6f4e337c17f836","609a6125f4f14bd81a5d1690","null","","","","null","","","","key","16.6644067796622","588","312","","","","","","","","","","","","","","","","","","","",""
"psychophysics","218","551301","0.0-16.0-1.15","5918a03738cc6d0001a4bde7","609006691f6f4e337c17f836","609a6125f4f14bd81a5d1690","null","","","","null","","","","key","16.684827586206413","588","312","","","","","","","","","","","","","137","-1","2","false","","","",""
"psychophysics","219","551803","0.0-16.0-2.15","5918a03738cc6d0001a4bde7","609006691f6f4e337c17f836","609a6125f4f14bd81a5d1690","502","","","","90","","","","key","16.652413793104895","588","312","","","","","","","","","","","","","","","","","","","",""
"psychophysics","220","552806","0.0-16.0-0.16","5918a03738cc6d0001a4bde7","609006691f6f4e337c17f836","609a6125f4f14bd81a5d1690","null","","","","null","","","","key","16.666779661016395","588","312","","","","","","","","","","","","","","","","","","","",""
"psychophysics","221","553307","0.0-16.0-1.16","5918a03738cc6d0001a4bde7","609006691f6f4e337c17f836","609a6125f4f14bd81a5d1690","null","","","","null","","","","key","16.663999999997518","588","312","","","","","","","","","","","","","137","-1","5","false","","","",""
"psychophysics","222","553496","0.0-16.0-2.16","5918a03738cc6d0001a4bde7","609006691f6f4e337c17f836","609a6125f4f14bd81a5d1690","189","","","","77","","","","key","16.735999999998604","588","312","","","","","","","","","","","","","","","","","","","",""
"psychophysics","223","554499","0.0-16.0-0.17","5918a03738cc6d0001a4bde7","609006691f6f4e337c17f836","609a6125f4f14bd81a5d1690","null","","","","null","","","","key","16.650508474576352","588","312","","","","","","","","","","","","","","","","","","","",""
"psychophysics","224","555005","0.0-16.0-1.17","5918a03738cc6d0001a4bde7","609006691f6f4e337c17f836","609a6125f4f14bd81a5d1690","null","","","","null","","","","key","16.648965517239613","588","312","","","","","","","","","","","","","137","1","2","false","","","",""
"psychophysics","225","555418","0.0-16.0-2.17","5918a03738cc6d0001a4bde7","609006691f6f4e337c17f836","609a6125f4f14bd81a5d1690","412","","","","77","","","","key","16.693333333333914","588","312","","","","","","","","","","","","","","","","","","","",""
"psychophysics","226","556423","0.0-16.0-0.18","5918a03738cc6d0001a4bde7","609006691f6f4e337c17f836","609a6125f4f14bd81a5d1690","null","","","","null","","","","key","16.667666666665657","588","312","","","","","","","","","","","","","","","","","","","",""
"psychophysics","227","556928","0.0-16.0-1.18","5918a03738cc6d0001a4bde7","609006691f6f4e337c17f836","609a6125f4f14bd81a5d1690","null","","","","null","","","","key","16.64827586207057","588","312","","","","","","","","","","","","","137","-1","6","false","","","",""
"psychophysics","228","557363","0.0-16.0-2.18","5918a03738cc6d0001a4bde7","609006691f6f4e337c17f836","609a6125f4f14bd81a5d1690","436","","","","77","","","","key","16.68880000000354","588","312","","","","","","","","","","","","","","","","","","","",""
"psychophysics","229","558367","0.0-16.0-0.19","5918a03738cc6d0001a4bde7","609006691f6f4e337c17f836","609a6125f4f14bd81a5d1690","null","","","","null","","","","key","16.666779661016395","588","312","","","","","","","","","","","","","","","","","","","",""
"psychophysics","230","558868","0.0-16.0-1.19","5918a03738cc6d0001a4bde7","609006691f6f4e337c17f836","609a6125f4f14bd81a5d1690","null","","","","null","","","","key","16.6462068965514","588","312","","","","","","","","","","","","","137","-1","3","false","","","",""
"psychophysics","231","559154","0.0-16.0-2.19","5918a03738cc6d0001a4bde7","609006691f6f4e337c17f836","609a6125f4f14bd81a5d1690","285","","","","90","","","","key","16.669999999998254","588","312","","","","","","","","","","","","","","","","","","","",""
"psychophysics","232","560159","0.0-16.0-0.20","5918a03738cc6d0001a4bde7","609006691f6f4e337c17f836","609a6125f4f14bd81a5d1690","null","","","","null","","","","key","16.675666666667286","588","312","","","","","","","","","","","","","","","","","","","",""
"psychophysics","233","560661","0.0-16.0-1.20","5918a03738cc6d0001a4bde7","609006691f6f4e337c17f836","609a6125f4f14bd81a5d1690","null","","","","null","","","","key","16.68275862069126","588","312","","","","","","","","","","","","","137","-1","4","false","","","",""
"psychophysics","234","560901","0.0-16.0-2.20","5918a03738cc6d0001a4bde7","609006691f6f4e337c17f836","609a6125f4f14bd81a5d1690","239","","","","77","","","","key","16.606153846154204","588","312","","","","","","","","","","","","","","","","","","","",""
"psychophysics","235","561903","0.0-16.0-0.21","5918a03738cc6d0001a4bde7","609006691f6f4e337c17f836","609a6125f4f14bd81a5d1690","null","","","","null","","","","key","16.655932203389042","588","312","","","","","","","","","","","","","","","","","","","",""
"psychophysics","236","562408","0.0-16.0-1.21","5918a03738cc6d0001a4bde7","609006691f6f4e337c17f836","609a6125f4f14bd81a5d1690","null","","","","null","","","","key","16.694000000002173","588","312","","","","","","","","","","","","","137","1","5","false","","","",""
"psychophysics","237","562679","0.0-16.0-2.21","5918a03738cc6d0001a4bde7","609006691f6f4e337c17f836","609a6125f4f14bd81a5d1690","270","","","","77","","","","key","16.62933333332961","588","312","","","","","","","","","","","","","","","","","","","",""
"psychophysics","238","563680","0.0-16.0-0.22","5918a03738cc6d0001a4bde7","609006691f6f4e337c17f836","609a6125f4f14bd81a5d1690","null","","","","null","","","","key","16.65661016949137","588","312","","","","","","","","","","","","","","","","","","","",""
"psychophysics","239","564181","0.0-16.0-1.22","5918a03738cc6d0001a4bde7","609006691f6f4e337c17f836","609a6125f4f14bd81a5d1690","null","","","","null","","","","key","16.67517241379567","588","312","","","","","","","","","","","","","137","1","6","false","","","",""
"psychophysics","240","564275","0.0-16.0-2.22","5918a03738cc6d0001a4bde7","609006691f6f4e337c17f836","609a6125f4f14bd81a5d1690","92","","","","77","","","","key","16.69200000001583","588","312","","","","","","","","","","","","","","","","","","","",""
"psychophysics","241","565277","0.0-16.0-0.23","5918a03738cc6d0001a4bde7","609006691f6f4e337c17f836","609a6125f4f14bd81a5d1690","null","","","","null","","","","key","16.6491525423717","588","312","","","","","","","","","","","","","","","","","","","",""
"psychophysics","242","565781","0.0-16.0-1.23","5918a03738cc6d0001a4bde7","609006691f6f4e337c17f836","609a6125f4f14bd81a5d1690","null","","","","null","","","","key","16.689655172413794","588","312","","","","","","","","","","","","","137","-1","0","false","","","",""
"psychophysics","243","566043","0.0-16.0-2.23","5918a03738cc6d0001a4bde7","609006691f6f4e337c17f836","609a6125f4f14bd81a5d1690","259","","","","90","","","","key","16.663999999997518","588","312","","","","","","","","","","","","","","","","","","","",""
"html-keyboard-response","244","574590","0.0-17.0","5918a03738cc6d0001a4bde7","609006691f6f4e337c17f836","609a6125f4f14bd81a5d1690","8546","<p>Well Done !</p><p>Training Complete. Press the spacebar to start.</p><p>DON'T EXIT THE FULL SCREEN MODE</p>","","","32","","","","","","","","","","","","","","","","","","","","","","","","","","",""
"psychophysics","245","577595","0.0-18.0-0.0","5918a03738cc6d0001a4bde7","609006691f6f4e337c17f836","609a6125f4f14bd81a5d1690","null","","","","null","","","","key","16.8406779661013","588","312","","","","","","","","","","","","","","","","","","","",""
"psychophysics","246","578102","0.0-18.0-1.0","5918a03738cc6d0001a4bde7","609006691f6f4e337c17f836","609a6125f4f14bd81a5d1690","null","","","","null","","","","key","16.68896551724475","588","312","","","","","","","","","","","","","137","1","4","true","","","",""
"psychophysics","247","578318","0.0-18.0-2.0","5918a03738cc6d0001a4bde7","609006691f6f4e337c17f836","609a6125f4f14bd81a5d1690","216","","","","77","","","","key","16.651666666662397","588","312","","","","","","","","","","","","","","","","","","","",""
"psychophysics","248","579324","0.0-18.0-0.1","5918a03738cc6d0001a4bde7","609006691f6f4e337c17f836","609a6125f4f14bd81a5d1690","null","","","","null","","","","key","16.65899999999868","588","312","","","","","","","","","","","","","","","","","","","",""
"psychophysics","249","579829","0.0-18.0-1.1","5918a03738cc6d0001a4bde7","609006691f6f4e337c17f836","609a6125f4f14bd81a5d1690","null","","","","null","","","","key","16.647586206897515","588","312","","","","","","","","","","","","","137","-1","6","true","","","",""
"psychophysics","250","580204","0.0-18.0-2.1","5918a03738cc6d0001a4bde7","609006691f6f4e337c17f836","609a6125f4f14bd81a5d1690","374","","","","77","","","","key","16.681904761907866","588","312","","","","","","","","","","","","","","","","","","","",""
"psychophysics","251","581209","0.0-18.0-0.2","5918a03738cc6d0001a4bde7","609006691f6f4e337c17f836","609a6125f4f14bd81a5d1690","null","","","","null","","","","key","16.66966666666558","588","312","","","","","","","","","","","","","","","","","","","",""
"psychophysics","252","581710","0.0-18.0-1.2","5918a03738cc6d0001a4bde7","609006691f6f4e337c17f836","609a6125f4f14bd81a5d1690","null","","","","null","","","","key","16.644137931036248","588","312","","","","","","","","","","","","","137","1","0","true","","","",""
"psychophysics","253","581818","0.0-18.0-2.2","5918a03738cc6d0001a4bde7","609006691f6f4e337c17f836","609a6125f4f14bd81a5d1690","107","","","","77","","","","key","16.795999999996276","588","312","","","","","","","","","","","","","","","","","","","",""
"psychophysics","254","582823","0.0-18.0-0.3","5918a03738cc6d0001a4bde7","609006691f6f4e337c17f836","609a6125f4f14bd81a5d1690","null","","","","null","","","","key","16.675666666667286","588","312","","","","","","","","","","","","","","","","","","","",""
"psychophysics","255","583329","0.0-18.0-1.3","5918a03738cc6d0001a4bde7","609006691f6f4e337c17f836","609a6125f4f14bd81a5d1690","null","","","","null","","","","key","16.67241379310345","588","312","","","","","","","","","","","","","137","1","5","true","","","",""
"psychophysics","256","583401","0.0-18.0-2.3","5918a03738cc6d0001a4bde7","609006691f6f4e337c17f836","609a6125f4f14bd81a5d1690","73","","","","77","","","","key","16.5","588","312","","","","","","","","","","","","","","","","","","","",""
"psychophysics","257","584406","0.0-18.0-0.4","5918a03738cc6d0001a4bde7","609006691f6f4e337c17f836","609a6125f4f14bd81a5d1690","null","","","","null","","","","key","16.67166666666744","588","312","","","","","","","","","","","","","","","","","","","",""
"psychophysics","258","584911","0.0-18.0-1.4","5918a03738cc6d0001a4bde7","609006691f6f4e337c17f836","609a6125f4f14bd81a5d1690","null","","","","null","","","","key","16.64689655172446","588","312","","","","","","","","","","","","","137","-1","0","true","","","",""
"psychophysics","259","585256","0.0-18.0-2.4","5918a03738cc6d0001a4bde7","609006691f6f4e337c17f836","609a6125f4f14bd81a5d1690","345","","","","90","","","","key","16.69000000000233","588","312","","","","","","","","","","","","","","","","","","","",""
"psychophysics","260","586262","0.0-18.0-0.5","5918a03738cc6d0001a4bde7","609006691f6f4e337c17f836","609a6125f4f14bd81a5d1690","null","","","","null","","","","key","16.66711864406756","588","312","","","","","","","","","","","","","","","","","","","",""
"psychophysics","261","586766","0.0-18.0-1.5","5918a03738cc6d0001a4bde7","609006691f6f4e337c17f836","609a6125f4f14bd81a5d1690","null","","","","null","","","","key","16.66206896551965","588","312","","","","","","","","","","","","","137","-1","5","true","","","",""
"psychophysics","262","586919","0.0-18.0-2.5","5918a03738cc6d0001a4bde7","609006691f6f4e337c17f836","609a6125f4f14bd81a5d1690","152","","","","77","","","","key","16.744999999995343","588","312","","","","","","","","","","","","","","","","","","","",""
"psychophysics","263","587924","0.0-18.0-0.6","5918a03738cc6d0001a4bde7","609006691f6f4e337c17f836","609a6125f4f14bd81a5d1690","null","","","","null","","","","key","16.657666666666046","588","312","","","","","","","","","","","","","","","","","","","",""
"psychophysics","264","588428","0.0-18.0-1.6","5918a03738cc6d0001a4bde7","609006691f6f4e337c17f836","609a6125f4f14bd81a5d1690","null","","","","null","","","","key","16.695862068967283","588","312","","","","","","","","","","","","","137","1","6","true","","","",""
"psychophysics","265","588545","0.0-18.0-2.6","5918a03738cc6d0001a4bde7","609006691f6f4e337c17f836","609a6125f4f14bd81a5d1690","116","","","","77","","","","key","16.706666666665114","588","312","","","","","","","","","","","","","","","","","","","",""
"psychophysics","266","589548","0.0-18.0-0.7","5918a03738cc6d0001a4bde7","609006691f6f4e337c17f836","609a6125f4f14bd81a5d1690","null","","","","null","","","","key","16.676271186441074","588","312","","","","","","","","","","","","","","","","","","","",""
"psychophysics","267","590049","0.0-18.0-1.7","5918a03738cc6d0001a4bde7","609006691f6f4e337c17f836","609a6125f4f14bd81a5d1690","null","","","","null","","","","key","16.68896551724074","588","312","","","","","","","","","","","","","137","1","3","true","","","",""
"psychophysics","268","590724","0.0-18.0-2.7","5918a03738cc6d0001a4bde7","609006691f6f4e337c17f836","609a6125f4f14bd81a5d1690","673","","","","77","","","","key","16.66600000000035","588","312","","","","","","","","","","","","","","","","","","","",""
"psychophysics","269","591729","0.0-18.0-0.8","5918a03738cc6d0001a4bde7","609006691f6f4e337c17f836","609a6125f4f14bd81a5d1690","null","","","","null","","","","key","16.650508474576352","588","312","","","","","","","","","","","","","","","","","","","",""
"psychophysics","270","592229","0.0-18.0-1.8","5918a03738cc6d0001a4bde7","609006691f6f4e337c17f836","609a6125f4f14bd81a5d1690","null","","","","null","","","","key","16.657241379308257","588","312","","","","","","","","","","","","","137","-1","3","true","","","",""
"psychophysics","271","593296","0.0-18.0-2.8","5918a03738cc6d0001a4bde7","609006691f6f4e337c17f836","609a6125f4f14bd81a5d1690","1066","","","","90","","","","key","16.65111111111141","588","312","","","","","","","","","","","","","","","","","","","",""
"psychophysics","272","594299","0.0-18.0-0.9","5918a03738cc6d0001a4bde7","609006691f6f4e337c17f836","609a6125f4f14bd81a5d1690","null","","","","null","","","","key","16.67220338983106","588","312","","","","","","","","","","","","","","","","","","","",""
"psychophysics","273","594804","0.0-18.0-1.9","5918a03738cc6d0001a4bde7","609006691f6f4e337c17f836","609a6125f4f14bd81a5d1690","null","","","","null","","","","key","16.637931034482758","588","312","","","","","","","","","","","","","137","-1","2","true","","","",""
"psychophysics","274","595158","0.0-18.0-2.9","5918a03738cc6d0001a4bde7","609006691f6f4e337c17f836","609a6125f4f14bd81a5d1690","354","","","","90","","","","key","16.638095238096348","588","312","","","","","","","","","","","","","","","","","","","",""
"psychophysics","275","596164","0.0-18.0-0.10","5918a03738cc6d0001a4bde7","609006691f6f4e337c17f836","609a6125f4f14bd81a5d1690","null","","","","null","","","","key","16.661016949152543","588","312","","","","","","","","","","","","","","","","","","","",""
"psychophysics","276","596666","0.0-18.0-1.10","5918a03738cc6d0001a4bde7","609006691f6f4e337c17f836","609a6125f4f14bd81a5d1690","null","","","","null","","","","key","16.656551724139216","588","312","","","","","","","","","","","","","137","1","2","true","","","",""
"psychophysics","277","596906","0.0-18.0-2.10","5918a03738cc6d0001a4bde7","609006691f6f4e337c17f836","609a6125f4f14bd81a5d1690","240","","","","90","","","","key","16.705714285714617","588","312","","","","","","","","","","","","","","","","","","","",""
"psychophysics","278","597912","0.0-18.0-0.11","5918a03738cc6d0001a4bde7","609006691f6f4e337c17f836","609a6125f4f14bd81a5d1690","null","","","","null","","","","key","16.671186440679545","588","312","","","","","","","","","","","","","","","","","","","",""
"psychophysics","279","598416","0.0-18.0-1.11","5918a03738cc6d0001a4bde7","609006691f6f4e337c17f836","609a6125f4f14bd81a5d1690","null","","","","null","","","","key","16.663448275861747","588","312","","","","","","","","","","","","","137","-1","4","true","","","",""
"psychophysics","280","598562","0.0-18.0-2.11","5918a03738cc6d0001a4bde7","609006691f6f4e337c17f836","609a6125f4f14bd81a5d1690","146","","","","77","","","","key","16.620000000009895","588","312","","","","","","","","","","","","","","","","","","","",""
"psychophysics","281","599567","0.0-18.0-0.12","5918a03738cc6d0001a4bde7","609006691f6f4e337c17f836","609a6125f4f14bd81a5d1690","null","","","","null","","","","key","16.652881355930546","588","312","","","","","","","","","","","","","","","","","","","",""
"psychophysics","282","600072","0.0-18.0-1.12","5918a03738cc6d0001a4bde7","609006691f6f4e337c17f836","609a6125f4f14bd81a5d1690","null","","","","null","","","","key","16.664827586203845","588","312","","","","","","","","","","","","","137","-1","4","true","","","",""
"psychophysics","283","600151","0.0-18.0-2.12","5918a03738cc6d0001a4bde7","609006691f6f4e337c17f836","609a6125f4f14bd81a5d1690","77","","","","77","","","","key","16.68499999999767","588","312","","","","","","","","","","","","","","","","","","","",""
"psychophysics","284","601154","0.0-18.0-0.13","5918a03738cc6d0001a4bde7","609006691f6f4e337c17f836","609a6125f4f14bd81a5d1690","null","","","","null","","","","key","16.669152542372565","588","312","","","","","","","","","","","","","","","","","","","",""
"psychophysics","285","601655","0.0-18.0-1.13","5918a03738cc6d0001a4bde7","609006691f6f4e337c17f836","609a6125f4f14bd81a5d1690","null","","","","null","","","","key","17.283571428569434","588","312","","","","","","","","","","","","","137","1","2","true","","","",""
"psychophysics","286","601869","0.0-18.0-2.13","5918a03738cc6d0001a4bde7","609006691f6f4e337c17f836","609a6125f4f14bd81a5d1690","210","","","","90","","","","key","16.609999999995733","588","312","","","","","","","","","","","","","","","","","","","",""
"psychophysics","287","602874","0.0-18.0-0.14","5918a03738cc6d0001a4bde7","609006691f6f4e337c17f836","609a6125f4f14bd81a5d1690","null","","","","null","","","","key","16.66633333333302","588","312","","","","","","","","","","","","","","","","","","","",""
"psychophysics","288","603375","0.0-18.0-1.14","5918a03738cc6d0001a4bde7","609006691f6f4e337c17f836","609a6125f4f14bd81a5d1690","null","","","","null","","","","key","16.666896551723013","588","312","","","","","","","","","","","","","137","1","6","true","","","",""
"psychophysics","289","603555","0.0-18.0-2.14","5918a03738cc6d0001a4bde7","609006691f6f4e337c17f836","609a6125f4f14bd81a5d1690","179","","","","77","","","","key","16.57600000000093","588","312","","","","","","","","","","","","","","","","","","","",""
"psychophysics","290","604560","0.0-18.0-0.15","5918a03738cc6d0001a4bde7","609006691f6f4e337c17f836","609a6125f4f14bd81a5d1690","null","","","","null","","","","key","16.676949152541425","588","312","","","","","","","","","","","","","","","","","","","",""
"psychophysics","291","605064","0.0-18.0-1.15","5918a03738cc6d0001a4bde7","609006691f6f4e337c17f836","609a6125f4f14bd81a5d1690","null","","","","null","","","","key","16.63586206896359","588","312","","","","","","","","","","","","","137","1","3","true","","","",""
"psychophysics","292","605279","0.0-18.0-2.15","5918a03738cc6d0001a4bde7","609006691f6f4e337c17f836","609a6125f4f14bd81a5d1690","215","","","","77","","","","key","16.633333333331393","588","312","","","","","","","","","","","","","","","","","","","",""
"psychophysics","293","606285","0.0-18.0-0.16","5918a03738cc6d0001a4bde7","609006691f6f4e337c17f836","609a6125f4f14bd81a5d1690","null","","","","null","","","","key","16.677288135594562","588","312","","","","","","","","","","","","","","","","","","","",""
"psychophysics","294","606791","0.0-18.0-1.16","5918a03738cc6d0001a4bde7","609006691f6f4e337c17f836","609a6125f4f14bd81a5d1690","null","","","","null","","","","key","16.67933333333349","588","312","","","","","","","","","","","","","137","-1","6","true","","","",""
"psychophysics","295","606973","0.0-18.0-2.16","5918a03738cc6d0001a4bde7","609006691f6f4e337c17f836","609a6125f4f14bd81a5d1690","183","","","","77","","","","key","16.702000000001863","588","312","","","","","","","","","","","","","","","","","","","",""
"psychophysics","296","607975","0.0-18.0-0.17","5918a03738cc6d0001a4bde7","609006691f6f4e337c17f836","609a6125f4f14bd81a5d1690","null","","","","null","","","","key","16.658305084747184","588","312","","","","","","","","","","","","","","","","","","","",""
"psychophysics","297","608478","0.0-18.0-1.17","5918a03738cc6d0001a4bde7","609006691f6f4e337c17f836","609a6125f4f14bd81a5d1690","null","","","","null","","","","key","16.648965517239613","588","312","","","","","","","","","","","","","137","-1","3","true","","","",""
"psychophysics","298","608703","0.0-18.0-2.17","5918a03738cc6d0001a4bde7","609006691f6f4e337c17f836","609a6125f4f14bd81a5d1690","224","","","","90","","","","key","16.616666666668607","588","312","","","","","","","","","","","","","","","","","","","",""
"psychophysics","299","609707","0.0-18.0-0.18","5918a03738cc6d0001a4bde7","609006691f6f4e337c17f836","609a6125f4f14bd81a5d1690","null","","","","null","","","","key","16.674666666666358","588","312","","","","","","","","","","","","","","","","","","","",""
"psychophysics","300","610213","0.0-18.0-1.18","5918a03738cc6d0001a4bde7","609006691f6f4e337c17f836","609a6125f4f14bd81a5d1690","null","","","","null","","","","key","16.65448275862005","588","312","","","","","","","","","","","","","137","1","0","true","","","",""
"psychophysics","301","610620","0.0-18.0-2.18","5918a03738cc6d0001a4bde7","609006691f6f4e337c17f836","609a6125f4f14bd81a5d1690","406","","","","90","","","","key","16.67304347826006","588","312","","","","","","","","","","","","","","","","","","","",""
"psychophysics","302","611625","0.0-18.0-0.19","5918a03738cc6d0001a4bde7","609006691f6f4e337c17f836","609a6125f4f14bd81a5d1690","null","","","","null","","","","key","17.235172413793343","588","312","","","","","","","","","","","","","","","","","","","",""
"psychophysics","303","612131","0.0-18.0-1.19","5918a03738cc6d0001a4bde7","609006691f6f4e337c17f836","609a6125f4f14bd81a5d1690","null","","","","null","","","","key","16.65103448275878","588","312","","","","","","","","","","","","","137","1","4","true","","","",""
"psychophysics","304","612249","0.0-18.0-2.19","5918a03738cc6d0001a4bde7","609006691f6f4e337c17f836","609a6125f4f14bd81a5d1690","118","","","","77","","","","key","16.740000000010088","588","312","","","","","","","","","","","","","","","","","","","",""
"psychophysics","305","613250","0.0-18.0-0.20","5918a03738cc6d0001a4bde7","609006691f6f4e337c17f836","609a6125f4f14bd81a5d1690","null","","","","null","","","","key","16.678983050848405","588","312","","","","","","","","","","","","","","","","","","","",""
"psychophysics","306","613751","0.0-18.0-1.20","5918a03738cc6d0001a4bde7","609006691f6f4e337c17f836","609a6125f4f14bd81a5d1690","null","","","","null","","","","key","16.643448275863193","588","312","","","","","","","","","","","","","137","-1","2","true","","","",""
"psychophysics","307","614047","0.0-18.0-2.20","5918a03738cc6d0001a4bde7","609006691f6f4e337c17f836","609a6125f4f14bd81a5d1690","294","","","","90","","","","key","16.665882352938162","588","312","","","","","","","","","","","","","","","","","","","",""
"psychophysics","308","615052","0.0-18.0-0.21","5918a03738cc6d0001a4bde7","609006691f6f4e337c17f836","609a6125f4f14bd81a5d1690","null","","","","null","","","","key","16.66576271186488","588","312","","","","","","","","","","","","","","","","","","","",""
"psychophysics","309","615557","0.0-18.0-1.21","5918a03738cc6d0001a4bde7","609006691f6f4e337c17f836","609a6125f4f14bd81a5d1690","null","","","","null","","","","key","16.696666666667443","588","312","","","","","","","","","","","","","137","-1","0","true","","","",""
"psychophysics","310","615878","0.0-18.0-2.21","5918a03738cc6d0001a4bde7","609006691f6f4e337c17f836","609a6125f4f14bd81a5d1690","320","","","","90","","","","key","16.664444444448844","588","312","","","","","","","","","","","","","","","","","","","",""
"psychophysics","311","616879","0.0-18.0-0.22","5918a03738cc6d0001a4bde7","609006691f6f4e337c17f836","609a6125f4f14bd81a5d1690","null","","","","null","","","","key","16.66677966101837","588","312","","","","","","","","","","","","","","","","","","","",""
"psychophysics","312","617381","0.0-18.0-1.22","5918a03738cc6d0001a4bde7","609006691f6f4e337c17f836","609a6125f4f14bd81a5d1690","null","","","","null","","","","key","16.679310344825982","588","312","","","","","","","","","","","","","137","-1","5","true","","","",""
"psychophysics","313","618441","0.0-18.0-2.22","5918a03738cc6d0001a4bde7","609006691f6f4e337c17f836","609a6125f4f14bd81a5d1690","1059","","","","90","","","","key","16.66285714285729","588","312","","","","","","","","","","","","","","","","","","","",""
"psychophysics","314","619445","0.0-18.0-0.23","5918a03738cc6d0001a4bde7","609006691f6f4e337c17f836","609a6125f4f14bd81a5d1690","null","","","","null","","","","key","16.667796610169887","588","312","","","","","","","","","","","","","","","","","","","",""
"psychophysics","315","619951","0.0-18.0-1.23","5918a03738cc6d0001a4bde7","609006691f6f4e337c17f836","609a6125f4f14bd81a5d1690","null","","","","null","","","","key","16.674482758622617","588","312","","","","","","","","","","","","","137","1","5","true","","","",""
"psychophysics","316","620438","0.0-18.0-2.23","5918a03738cc6d0001a4bde7","609006691f6f4e337c17f836","609a6125f4f14bd81a5d1690","487","","","","90","","","","key","16.699999999999168","588","312","","","","","","","","","","","","","","","","","","","",""
"psychophysics","317","621439","0.0-18.0-0.24","5918a03738cc6d0001a4bde7","609006691f6f4e337c17f836","609a6125f4f14bd81a5d1690","null","","","","null","","","","key","16.672000000001088","588","312","","","","","","","","","","","","","","","","","","","",""
"psychophysics","318","621941","0.0-18.0-1.24","5918a03738cc6d0001a4bde7","609006691f6f4e337c17f836","609a6125f4f14bd81a5d1690","null","","","","null","","","","key","16.662068965515637","588","312","","","","","","","","","","","","","137","1","3","true","","","",""
"psychophysics","319","622259","0.0-18.0-2.24","5918a03738cc6d0001a4bde7","609006691f6f4e337c17f836","609a6125f4f14bd81a5d1690","317","","","","90","","","","key","16.632222222216015","588","312","","","","","","","","","","","","","","","","","","","",""
"psychophysics","320","623264","0.0-18.0-0.25","5918a03738cc6d0001a4bde7","609006691f6f4e337c17f836","609a6125f4f14bd81a5d1690","null","","","","null","","","","key","16.680338983051083","588","312","","","","","","","","","","","","","","","","","","","",""
"psychophysics","321","623768","0.0-18.0-1.25","5918a03738cc6d0001a4bde7","609006691f6f4e337c17f836","609a6125f4f14bd81a5d1690","null","","","","null","","","","key","16.670344827588295","588","312","","","","","","","","","","","","","137","-1","5","true","","","",""
"psychophysics","322","623992","0.0-18.0-2.25","5918a03738cc6d0001a4bde7","609006691f6f4e337c17f836","609a6125f4f14bd81a5d1690","223","","","","77","","","","key","16.69692307691842","588","312","","","","","","","","","","","","","","","","","","","",""
"psychophysics","323","624994","0.0-18.0-0.26","5918a03738cc6d0001a4bde7","609006691f6f4e337c17f836","609a6125f4f14bd81a5d1690","null","","","","null","","","","key","16.67355932203374","588","312","","","","","","","","","","","","","","","","","","","",""
"psychophysics","324","625498","0.0-18.0-1.26","5918a03738cc6d0001a4bde7","609006691f6f4e337c17f836","609a6125f4f14bd81a5d1690","null","","","","null","","","","key","16.64206896551708","588","312","","","","","","","","","","","","","137","-1","2","true","","","",""
"psychophysics","325","625894","0.0-18.0-2.26","5918a03738cc6d0001a4bde7","609006691f6f4e337c17f836","609a6125f4f14bd81a5d1690","395","","","","90","","","","key","16.692173913045302","588","312","","","","","","","","","","","","","","","","","","","",""
"psychophysics","326","626896","0.0-18.0-0.27","5918a03738cc6d0001a4bde7","609006691f6f4e337c17f836","609a6125f4f14bd81a5d1690","null","","","","null","","","","key","16.66474576271139","588","312","","","","","","","","","","","","","","","","","","","",""
"psychophysics","327","627399","0.0-18.0-1.27","5918a03738cc6d0001a4bde7","609006691f6f4e337c17f836","609a6125f4f14bd81a5d1690","null","","","","null","","","","key","16.66965517241524","588","312","","","","","","","","","","","","","137","-1","0","true","","","",""
"psychophysics","328","627745","0.0-18.0-2.27","5918a03738cc6d0001a4bde7","609006691f6f4e337c17f836","609a6125f4f14bd81a5d1690","346","","","","90","","","","key","16.648000000003957","588","312","","","","","","","","","","","","","","","","","","","",""
"psychophysics","329","628751","0.0-18.0-0.28","5918a03738cc6d0001a4bde7","609006691f6f4e337c17f836","609a6125f4f14bd81a5d1690","null","","","","null","","","","key","16.668813559321404","588","312","","","","","","","","","","","","","","","","","","","",""
"psychophysics","330","629254","0.0-18.0-1.28","5918a03738cc6d0001a4bde7","609006691f6f4e337c17f836","609a6125f4f14bd81a5d1690","null","","","","null","","","","key","16.66620689654996","588","312","","","","","","","","","","","","","137","1","6","true","","","",""
"psychophysics","331","629603","0.0-18.0-2.28","5918a03738cc6d0001a4bde7","609006691f6f4e337c17f836","609a6125f4f14bd81a5d1690","345","","","","77","","","","key","16.64199999999837","588","312","","","","","","","","","","","","","","","","","","","",""
"psychophysics","332","630604","0.0-18.0-0.29","5918a03738cc6d0001a4bde7","609006691f6f4e337c17f836","609a6125f4f14bd81a5d1690","null","","","","null","","","","key","16.66949152542373","588","312","","","","","","","","","","","","","","","","","","","",""
"psychophysics","333","631110","0.0-18.0-1.29","5918a03738cc6d0001a4bde7","609006691f6f4e337c17f836","609a6125f4f14bd81a5d1690","null","","","","null","","","","key","16.677333333331624","588","312","","","","","","","","","","","","","137","-1","4","true","","","",""
"psychophysics","334","631324","0.0-18.0-2.29","5918a03738cc6d0001a4bde7","609006691f6f4e337c17f836","609a6125f4f14bd81a5d1690","214","","","","77","","","","key","16.70166666667016","588","312","","","","","","","","","","","","","","","","","","","",""
"psychophysics","335","632330","0.0-18.0-0.30","5918a03738cc6d0001a4bde7","609006691f6f4e337c17f836","609a6125f4f14bd81a5d1690","null","","","","null","","","","key","16.66169491525487","588","312","","","","","","","","","","","","","","","","","","","",""
"psychophysics","336","632832","0.0-18.0-1.30","5918a03738cc6d0001a4bde7","609006691f6f4e337c17f836","609a6125f4f14bd81a5d1690","null","","","","null","","","","key","16.656551724139216","588","312","","","","","","","","","","","","","137","1","4","true","","","",""
"psychophysics","337","632967","0.0-18.0-2.30","5918a03738cc6d0001a4bde7","609006691f6f4e337c17f836","609a6125f4f14bd81a5d1690","134","","","","77","","","","key","16.700000000003325","588","312","","","","","","","","","","","","","","","","","","","",""
"psychophysics","338","633971","0.0-18.0-0.31","5918a03738cc6d0001a4bde7","609006691f6f4e337c17f836","609a6125f4f14bd81a5d1690","null","","","","null","","","","key","16.67254237288025","588","312","","","","","","","","","","","","","","","","","","","",""
"psychophysics","339","634477","0.0-18.0-1.31","5918a03738cc6d0001a4bde7","609006691f6f4e337c17f836","609a6125f4f14bd81a5d1690","null","","","","null","","","","key","16.639999999998448","588","312","","","","","","","","","","","","","137","1","5","true","","","",""
"psychophysics","340","634531","0.0-18.0-2.31","5918a03738cc6d0001a4bde7","609006691f6f4e337c17f836","609a6125f4f14bd81a5d1690","54","","","","77","","","","key","16.89000000001397","588","312","","","","","","","","","","","","","","","","","","","",""
"psychophysics","341","635534","0.0-18.0-0.32","5918a03738cc6d0001a4bde7","609006691f6f4e337c17f836","609a6125f4f14bd81a5d1690","null","","","","null","","","","key","16.665423728813717","588","312","","","","","","","","","","","","","","","","","","","",""
"psychophysics","342","636038","0.0-18.0-1.32","5918a03738cc6d0001a4bde7","609006691f6f4e337c17f836","609a6125f4f14bd81a5d1690","null","","","","null","","","","key","16.672666666668373","588","312","","","","","","","","","","","","","137","-1","6","true","","","",""
"psychophysics","343","636170","0.0-18.0-2.32","5918a03738cc6d0001a4bde7","609006691f6f4e337c17f836","609a6125f4f14bd81a5d1690","131","","","","77","","","","key","16.783333333325572","588","312","","","","","","","","","","","","","","","","","","","",""
