"trial_type","trial_index","time_elapsed","internal_node_id","PROLIFIC_PID","STUDY_ID","SESSION_ID","rt","stimulus","button_pressed","success","key_press","responses","isData","view_history","response_type","avg_frame_time","center_x","center_y","isSC","stim_side","trial_luminance","step_size","nReversal","correct","prev_ans","isThreshold","SC_threshold","final_threshold","isLuminance","FF_luminance","luminance","stimSide","ISInt","isFF","question_order","isSPQ","isCAPS","isAQ"
"pavlovia","0","9","0.0-0.0","5d5f1c161d7a3e0001d6a151","609006691f6f4e337c17f836","609a611e29f23b9ecf7f6608","","","","","","","","","","","","","","","","","","","","","","","","","","","","","","","",""
"html-button-response","1","11537","0.0-1.0","5d5f1c161d7a3e0001d6a151","609006691f6f4e337c17f836","609a611e29f23b9ecf7f6608","11524.564999999711","<div style='background-color: white; width:60%; margin: auto; padding: 50px; text-align: justify; text-justify: inter-word; margin-bottom: 20px;'><h1 style='text-align: center;'>Consent Form</h1><p>Please read this consent form carefully before deciding whether you would like to participate in this study. You have to be 18 years old or older to participate to this study.</p><p style='text-decoration: underline;'>Participation is voluntary:</p><p>It is your choice whether or not to participate in this research. If you choose to participate, you may change your mind and leave the study at any time. Refusal to participate or stopping your participation will involve no penalty or loss of benefits to which you are otherwise entitled.</p><p style='text-decoration: underline;'>Purpose of the Study:</p><p>To understand the mechanisms underlying human perception.</p><p style='text-decoration: underline;'>What you will do in this study:</p><p>You will be presented with a series of visual images and then you will press buttons on the keyboard of your computer to respond to simple questions about the images (e.g. Were one or two images presented?). In addition, you will be asked to complete a questionnaire concerning your beliefs and everyday mental and perceptual experiences.'</p><p style='text-decoration: underline;'> Time Required:</p><p>The study will take 40 minutes to complete. </p><p style='text-decoration: underline;'>Risks:</p><p>There are no anticipated risks associated with participating in this study that are beyond those experienced in everyday life. </p><p style='text-decoration: underline;'>Benefits:</p><p>There are no benefits to you in participating in the study. However, this study may lead to a better understanding of how different kinds of visual information are used.</p><p style='text-decoration: underline;'>Compensation:</p><p>You will be paid US$6.6/hour. </p><p style='text-decoration: underline;'>Privacy and Confidentiality:</p><p>Your participation in this study will be anonymous. No personal information about your name or identity will be asked or recorded. This anonymous data will be stored for several years and may be used for a variety of research purposes. The overall results of the study may be published, or the data files may be shared with other researchers, but your identity will not be revealed in any way. The online services we are using for this study may temporarily store your data, but this data will be downloaded and then promptly deleted from those services.Your data will not be permanently associated with your name, IP address, or any other identifiable information (e.g., your information will only be connected to your payment, not to any of your responses), though they may be temporarily stored together before we download and separate them. Even so, no guarantee of internet survey security can be given because, although unlikely, transmissions can be intercepted and IP addresses can be identified. The anonymous data may be shared publicly (for example, in conjunction with a resulting academic publication).</p><p style='text-decoration: underline;'>Participation and Withdrawal:</p><p>Your participation in this study is completely voluntary. You may stop responding to the stimuli or stop answering questions if you so choose and without penalty by exiting the full screen mode, closing this tab of your browser or redirecting it to a different website.</p><p style='text-decoration: underline;'>Contact Info of the Researcher: </p><p>If you have questions about this study, or if you would like to talk to the research team, please contact David Melcher (david.melcher@nyu.edu, md5050@nyu.edu) at the Perception and Active Cognition Laboratory, New York University Abu Dhabi, Computational Research Building, Saadiyat Island, Abu Dhabi, UAE.This research has been reviewed by the New York University Abu Dhabi Institutional Review Board (NYUAD IRB). To contact about your rights in this research, for questions, suggestions, or complaints that are not addressed by the researchers, please email IRBnyuad@nyu.edu, or call the NYUAD IRB at +971 2 628 4313. </p></div>","0","","","","","","","","","","","","","","","","","","","","","","","","","","","","",""
"fullscreen","2","14136","0.0-2.0","5d5f1c161d7a3e0001d6a151","609006691f6f4e337c17f836","609a611e29f23b9ecf7f6608","","","","true","","","","","","","","","","","","","","","","","","","","","","","","","","","",""
"html-keyboard-response","3","55041","0.0-3.0","5d5f1c161d7a3e0001d6a151","609006691f6f4e337c17f836","609a611e29f23b9ecf7f6608","40901.18499999517","<p>Welcome !</p><p>READ CAREFULLY THE FOLLOWING INDICATIONS:</p><p>From this moment you have ~40 minutes to complete the experiment.</p><p>During the experiment you will be prompted to take several breaks. Each break should not last longer than 2-3 minutes.</p><p>Make sure that your computer is plugged in and it's not running on battery power, even if the battery is already fully charged.</p><p>Turn off your phone and music, make sure that you are in a quiet room and that you will not be distracted for the next hour.</p><p>Failure to comply with the instructions and indications provided during the experiment will most likely result in the rejection of your data.<p>Press the spacebar to start.</p>","","","32","","","","","","","","","","","","","","","","","","","","","","","","","","",""
"survey-html-form","4","64782","0.0-4.0","5d5f1c161d7a3e0001d6a151","609006691f6f4e337c17f836","609a611e29f23b9ecf7f6608","9738.030000000435","","","","","{""age"":""50"",""sex"":""f""}","true","","","","","","","","","","","","","","","","","","","","","","","","",""
"instructions","5","161507","0.0-5.0","5d5f1c161d7a3e0001d6a151","609006691f6f4e337c17f836","609a611e29f23b9ecf7f6608","96719.94000000268","","","","","","","[{""page_index"":0,""viewing_time"":25157.079999997222},{""page_index"":1,""viewing_time"":60901.57000000181},{""page_index"":2,""viewing_time"":10660.755000004428}]","","","","","","","","","","","","","","","","","","","","","","","",""
"psychophysics","6","165997","0.0-6.0-0.0","5d5f1c161d7a3e0001d6a151","609006691f6f4e337c17f836","609a611e29f23b9ecf7f6608","3481.4449999976205","","","","37","","","","key","16.686208178438648","720","332","true","1","180","30","0","1","","","","","","","","","","","","","",""
"psychophysics","7","167057","0.0-6.0-0.1","5d5f1c161d7a3e0001d6a151","609006691f6f4e337c17f836","609a611e29f23b9ecf7f6608","54.6600000016042","","","","39","","","","key","16.665999999999748","720","332","true","1","210","30","0","-1","1","","","","","","","","","","","","",""
"psychophysics","8","171200","0.0-6.0-0.2","5d5f1c161d7a3e0001d6a151","609006691f6f4e337c17f836","609a611e29f23b9ecf7f6608","3139.3299999981537","","","","37","","","","key","16.666000000000032","720","332","true","-1","210","24","1","-1","-1","","","","","","","","","","","","",""
"psychophysics","9","172925","0.0-6.0-0.3","5d5f1c161d7a3e0001d6a151","609006691f6f4e337c17f836","609a611e29f23b9ecf7f6608","720.0450000018463","","","","37","","","","key","16.70165686274527","720","332","true","-1","186","24","1","-1","-1","","","","","","","","","","","","",""
"psychophysics","10","174414","0.0-6.0-0.4","5d5f1c161d7a3e0001d6a151","609006691f6f4e337c17f836","609a611e29f23b9ecf7f6608","486.9150000013178","","","","37","","","","key","16.666000000000054","720","332","true","-1","186","24","1","-1","-1","","","","","","","","","","","","",""
"psychophysics","11","175929","0.0-6.0-0.5","5d5f1c161d7a3e0001d6a151","609006691f6f4e337c17f836","609a611e29f23b9ecf7f6608","511.68999999936204","","","","37","","","","key","16.666000000000025","720","332","true","-1","162","24","1","-1","-1","","","","","","","","","","","","",""
"psychophysics","12","177703","0.0-6.0-0.6","5d5f1c161d7a3e0001d6a151","609006691f6f4e337c17f836","609a611e29f23b9ecf7f6608","770.3249999976833","","","","37","","","","key","16.665999999999933","720","332","true","-1","162","24","1","-1","-1","","","","","","","","","","","","",""
"psychophysics","13","178849","0.0-6.0-0.7","5d5f1c161d7a3e0001d6a151","609006691f6f4e337c17f836","609a611e29f23b9ecf7f6608","140.16999999876134","","","","39","","","","key","16.666000000000007","720","332","true","1","138","24","1","-1","-1","","","","","","","","","","","","",""
"psychophysics","14","180380","0.0-6.0-0.8","5d5f1c161d7a3e0001d6a151","609006691f6f4e337c17f836","609a611e29f23b9ecf7f6608","528.2649999935529","","","","39","","","","key","16.665999999999997","720","332","true","1","138","24","1","-1","-1","","","","","","","","","","","","",""
"psychophysics","15","182628","0.0-6.0-0.9","5d5f1c161d7a3e0001d6a151","609006691f6f4e337c17f836","609a611e29f23b9ecf7f6608","1245.6200000015087","","","","37","","","","key","16.668507462686687","720","332","true","-1","129","24","1","-1","-1","","","","","","","","","","","","",""
"psychophysics","16","184996","0.0-6.0-0.10","5d5f1c161d7a3e0001d6a151","609006691f6f4e337c17f836","609a611e29f23b9ecf7f6608","1349.9900000024354","","","","37","","","","key","16.665999999999933","720","332","true","1","129","19.2","2","1","-1","","","","","","","","","","","","",""
"psychophysics","17","186059","0.0-6.0-0.11","5d5f1c161d7a3e0001d6a151","609006691f6f4e337c17f836","609a611e29f23b9ecf7f6608","60.149999997520354","","","","39","","","","key","16.666000000000167","720","332","true","1","148.2","19.2","2","-1","1","","","","","","","","","","","","",""
"psychophysics","18","187148","0.0-6.0-0.12","5d5f1c161d7a3e0001d6a151","609006691f6f4e337c17f836","609a611e29f23b9ecf7f6608","85.21000000473578","","","","39","","","","key","16.665999999999713","720","332","true","1","148.2","15.36","3","-1","-1","","","","","","","","","","","","",""
"psychophysics","19","190538","0.0-6.0-0.13","5d5f1c161d7a3e0001d6a151","609006691f6f4e337c17f836","609a611e29f23b9ecf7f6608","2387.159999998403","","","","39","","","","key","16.665999999999887","720","332","true","-1","132.83999999999997","12.287999999999998","4","1","-1","","","","","","","","","","","","",""
"psychophysics","20","193178","0.0-6.0-0.14","5d5f1c161d7a3e0001d6a151","609006691f6f4e337c17f836","609a611e29f23b9ecf7f6608","1635.840000002645","","","","39","","","","key","16.667721518987342","720","332","true","1","145.128","12.287999999999998","4","-1","1","","","","","","","","","","","","",""
"psychophysics","21","194946","0.0-6.0-0.15","5d5f1c161d7a3e0001d6a151","609006691f6f4e337c17f836","609a611e29f23b9ecf7f6608","764.8950000002515","","","","37","","","","key","16.66600000000021","720","332","true","-1","145.128","9.8304","5","-1","-1","","","","","","","","","","","","",""
"psychophysics","22","196877","0.0-6.0-0.16","5d5f1c161d7a3e0001d6a151","609006691f6f4e337c17f836","609a611e29f23b9ecf7f6608","927.270000000135","","","","37","","","","key","16.665999999999993","720","332","true","-1","135.2976","9.8304","5","-1","-1","","","","","","","","","","","","",""
"psychophysics","23","199932","0.0-6.0-0.17","5d5f1c161d7a3e0001d6a151","609006691f6f4e337c17f836","609a611e29f23b9ecf7f6608","2050.999999999476","","","","37","","","","key","16.665999999999983","720","332","true","1","135.2976","7.864319999999999","6","1","-1","","","","","","","","","","","","",""
"psychophysics","24","201587","0.0-6.0-0.18","5d5f1c161d7a3e0001d6a151","609006691f6f4e337c17f836","609a611e29f23b9ecf7f6608","651.9800000023679","","","","39","","","","key","16.66600000000011","720","332","true","1","143.16191999999998","7.864319999999999","6","-1","1","","","","","","","","","","","","",""
"psychophysics","25","203165","0.0-6.0-0.19","5d5f1c161d7a3e0001d6a151","609006691f6f4e337c17f836","609a611e29f23b9ecf7f6608","575.0449999977718","","","","37","","","","key","16.668872340425334","720","332","true","-1","143.16191999999998","6.291456","7","-1","-1","","","","","","","","","","","","",""
"psychophysics","26","205085","0.0-6.0-0.20","5d5f1c161d7a3e0001d6a151","609006691f6f4e337c17f836","609a611e29f23b9ecf7f6608","916.5950000024168","","","","37","","","","key","16.665999999999993","720","332","true","-1","136.87046399999997","6.291456","7","-1","-1","","","","","","","","","","","","",""
"psychophysics","27","206795","0.0-6.0-0.21","5d5f1c161d7a3e0001d6a151","609006691f6f4e337c17f836","609a611e29f23b9ecf7f6608","706.8450000006123","","","","39","","","","key","16.666000000000007","720","332","true","1","136.87046399999997","6.291456","7","-1","-1","","","","","","","","","","","","",""
"psychophysics","28","208696","0.0-6.0-0.22","5d5f1c161d7a3e0001d6a151","609006691f6f4e337c17f836","609a611e29f23b9ecf7f6608","897.9550000003655","","","","39","","","","key","16.666000000000015","720","332","true","1","130.57900799999996","6.291456","7","-1","-1","","","","","","","","","","","","",""
"psychophysics","29","211540","0.0-6.0-0.23","5d5f1c161d7a3e0001d6a151","609006691f6f4e337c17f836","609a611e29f23b9ecf7f6608","1840.585000005376","","","","39","","","","key","16.66600000000002","720","332","true","-1","130.57900799999996","5.033164800000001","8","1","-1","","","","","","","","","","","","",""
"psychophysics","30","213323","0.0-6.0-0.24","5d5f1c161d7a3e0001d6a151","609006691f6f4e337c17f836","609a611e29f23b9ecf7f6608","779.5100000003004","","","","37","","","","key","16.82667619047598","720","332","true","-1","135.61217279999997","5.033164800000001","8","-1","1","","","","","","","","","","","","",""
"psychophysics","31","215432","0.0-6.0-0.25","5d5f1c161d7a3e0001d6a151","609006691f6f4e337c17f836","609a611e29f23b9ecf7f6608","1105.4000000003725","","","","39","","","","key","16.66599999999998","720","332","true","1","135.61217279999997","4.0265318400000005","9","-1","-1","","","","","","","","","","","","",""
"psychophysics","32","218148","0.0-6.0-0.26","5d5f1c161d7a3e0001d6a151","609006691f6f4e337c17f836","609a611e29f23b9ecf7f6608","1712.82500000234","","","","39","","","","key","16.665999999999954","720","332","true","1","131.58564095999998","4.0265318400000005","9","-1","-1","","","","","","","","","","","","",""
"psychophysics","33","222665","0.0-6.0-0.27","5d5f1c161d7a3e0001d6a151","609006691f6f4e337c17f836","609a611e29f23b9ecf7f6608","3512.284999997064","","","","37","","","","key","16.667125925925966","720","332","true","-1","131.58564095999998","4.0265318400000005","9","-1","-1","","","","","","","","","","","","",""
"psychophysics","34","224696","0.0-6.0-0.28","5d5f1c161d7a3e0001d6a151","609006691f6f4e337c17f836","609a611e29f23b9ecf7f6608","1027.0000000018626","","","","37","","","","key","16.665999999999844","720","332","true","1","129","3.2212254720000004","10","1","-1","","","","","","","","","","","","",""
"psychophysics","35","227282","0.0-6.0-0.29","5d5f1c161d7a3e0001d6a151","609006691f6f4e337c17f836","609a611e29f23b9ecf7f6608","1583.2399999999325","","","","37","","","","key","16.665999999999897","720","332","true","1","132.22122547200001","3.2212254720000004","10","1","1","","","","","","","","","","","","",""
"psychophysics","36","229525","0.0-6.0-0.30","5d5f1c161d7a3e0001d6a151","609006691f6f4e337c17f836","609a611e29f23b9ecf7f6608","1239.625000001979","","","","37","","","","key","16.666000000000064","720","332","true","-1","135.44245094400003","3.2212254720000004","10","-1","1","","","","","","","","","","","","",""
"psychophysics","37","231510","0.0-6.0-0.31","5d5f1c161d7a3e0001d6a151","609006691f6f4e337c17f836","609a611e29f23b9ecf7f6608","981.355000003532","","","","37","","","","key","16.665999999999883","720","332","true","-1","135.44245094400003","2.5769803776000004","11","-1","-1","","","","","","","","","","","","",""
"psychophysics","38","237584","0.0-6.0-0.32","5d5f1c161d7a3e0001d6a151","609006691f6f4e337c17f836","609a611e29f23b9ecf7f6608","5070.589999995718","","","","39","","","","key","16.666834710743764","720","332","true","-1","132.86547056640003","2.0615843020800004","12","1","-1","","","","","","","","","","","","",""
"psychophysics","39","239195","0.0-6.0-0.33","5d5f1c161d7a3e0001d6a151","609006691f6f4e337c17f836","609a611e29f23b9ecf7f6608","605.9900000036578","","","","37","","","","key","16.666000000000167","720","332","true","-1","134.92705486848004","2.0615843020800004","12","-1","1","","","","","","","","","","","","",""
"psychophysics","40","240754","0.0-6.0-0.34","5d5f1c161d7a3e0001d6a151","609006691f6f4e337c17f836","609a611e29f23b9ecf7f6608","555.7149999949615","","","","37","","","","key","16.66599999999997","720","332","true","-1","134.92705486848004","1.6492674416640005","13","-1","-1","","","","","","","","","","","","",""
"psychophysics","41","242338","0.0-6.0-0.35","5d5f1c161d7a3e0001d6a151","609006691f6f4e337c17f836","609a611e29f23b9ecf7f6608","581.3000000052853","","","","39","","","","key","16.668489361702008","720","332","true","1","133.27778742681605","1.6492674416640005","13","-1","-1","","","","","","","","","","","","",""
"psychophysics","42","243950","0.0-6.0-0.36","5d5f1c161d7a3e0001d6a151","609006691f6f4e337c17f836","609a611e29f23b9ecf7f6608","609.0899999981048","","","","37","","","","key","16.666000000000167","720","332","true","-1","133.27778742681605","1.6492674416640005","13","-1","-1","","","","","","","","","","","","",""
"psychophysics","43","246101","0.0-6.0-0.37","5d5f1c161d7a3e0001d6a151","609006691f6f4e337c17f836","609a611e29f23b9ecf7f6608","1147.994999999355","","","","39","","","","key","16.66599999999994","720","332","true","1","131.62851998515205","1.6492674416640005","13","-1","-1","","","","","","","","","","","","",""
"psychophysics","44","248539","0.0-6.0-0.38","5d5f1c161d7a3e0001d6a151","609006691f6f4e337c17f836","609a611e29f23b9ecf7f6608","1435.2949999956763","","","","37","","","","key","16.666000000000047","720","332","true","1","131.62851998515205","1.3194139533312006","14","1","-1","","","","","","","","","","","","",""
"psychophysics","45","250192","0.0-6.0-0.39","5d5f1c161d7a3e0001d6a151","609006691f6f4e337c17f836","609a611e29f23b9ecf7f6608","649.5000000068103","","","","39","","","","key","16.66600000000011","720","332","true","1","132.94793393848326","1.3194139533312006","14","-1","1","","","","","","","","","","","","",""
"html-keyboard-response","46","270276","0.0-7.0","5d5f1c161d7a3e0001d6a151","609006691f6f4e337c17f836","609a611e29f23b9ecf7f6608","20081.115000000864","<p>Well Done !</p><p>Prepare for a new block.</p><p>DON'T EXIT THE FULL SCREEN MODE</p><p>Press the Spacebar to start.</p>","","","32","","","","","","","","","","","","","","","true","133.09131407638532","","","","","","","","","","",""
"psychophysics","47","273224","0.0-8.0-0.0","5d5f1c161d7a3e0001d6a151","609006691f6f4e337c17f836","609a611e29f23b9ecf7f6608","1943.5599999997066","","","","39","","","","key","17.02612138728307","720","332","true","-1","180","30","0","1","","","","","","","","","","","","","",""
"psychophysics","48","274545","0.0-8.0-0.1","5d5f1c161d7a3e0001d6a151","609006691f6f4e337c17f836","609a611e29f23b9ecf7f6608","317.71499999740627","","","","39","","","","key","16.665999999999677","720","332","true","1","210","30","0","-1","1","","","","","","","","","","","","",""
"psychophysics","49","276119","0.0-8.0-0.2","5d5f1c161d7a3e0001d6a151","609006691f6f4e337c17f836","609a611e29f23b9ecf7f6608","571.604999997362","","","","39","","","","key","16.66599999999963","720","332","true","1","210","24","1","-1","-1","","","","","","","","","","","","",""
"psychophysics","50","277714","0.0-8.0-0.3","5d5f1c161d7a3e0001d6a151","609006691f6f4e337c17f836","609a611e29f23b9ecf7f6608","590.6650000033551","","","","37","","","","key","16.666000000000196","720","332","true","-1","186","24","1","-1","-1","","","","","","","","","","","","",""
"psychophysics","51","279250","0.0-8.0-0.4","5d5f1c161d7a3e0001d6a151","609006691f6f4e337c17f836","609a611e29f23b9ecf7f6608","532.3049999933573","","","","37","","","","key","16.666000000000317","720","332","true","-1","186","24","1","-1","-1","","","","","","","","","","","","",""
"psychophysics","52","280817","0.0-8.0-0.5","5d5f1c161d7a3e0001d6a151","609006691f6f4e337c17f836","609a611e29f23b9ecf7f6608","563.8949999993201","","","","37","","","","key","16.745795698924695","720","332","true","-1","162","24","1","-1","-1","","","","","","","","","","","","",""
"psychophysics","53","282380","0.0-8.0-0.6","5d5f1c161d7a3e0001d6a151","609006691f6f4e337c17f836","609a611e29f23b9ecf7f6608","560.5950000026496","","","","37","","","","key","16.66599999999963","720","332","true","-1","162","24","1","-1","-1","","","","","","","","","","","","",""
"psychophysics","54","284018","0.0-8.0-0.7","5d5f1c161d7a3e0001d6a151","609006691f6f4e337c17f836","609a611e29f23b9ecf7f6608","634.169999997539","","","","37","","","","key","16.66600000000014","720","332","true","-1","138","24","1","-1","-1","","","","","","","","","","","","",""
"psychophysics","55","285539","0.0-8.0-0.8","5d5f1c161d7a3e0001d6a151","609006691f6f4e337c17f836","609a611e29f23b9ecf7f6608","517.520000001241","","","","37","","","","key","16.666000000000025","720","332","true","-1","138","24","1","-1","-1","","","","","","","","","","","","",""
"psychophysics","56","289061","0.0-8.0-0.9","5d5f1c161d7a3e0001d6a151","609006691f6f4e337c17f836","609a611e29f23b9ecf7f6608","2519.09500000329","","","","37","","","","key","16.745741626794192","720","332","true","1","129","19.2","2","1","-1","","","","","","","","","","","","",""
"psychophysics","57","290615","0.0-8.0-0.10","5d5f1c161d7a3e0001d6a151","609006691f6f4e337c17f836","609a611e29f23b9ecf7f6608","550.3450000032899","","","","39","","","","key","16.668333333333006","720","332","true","1","148.2","19.2","2","-1","1","","","","","","","","","","","","",""
"psychophysics","58","292070","0.0-8.0-0.11","5d5f1c161d7a3e0001d6a151","609006691f6f4e337c17f836","609a611e29f23b9ecf7f6608","451.9450000007055","","","","39","","","","key","16.66599999999947","720","332","true","1","148.2","15.36","3","-1","-1","","","","","","","","","","","","",""
"psychophysics","59","293615","0.0-8.0-0.12","5d5f1c161d7a3e0001d6a151","609006691f6f4e337c17f836","609a611e29f23b9ecf7f6608","542.3999999984517","","","","39","","","","key","16.66599999999997","720","332","true","1","132.83999999999997","15.36","3","-1","-1","","","","","","","","","","","","",""
"psychophysics","60","294916","0.0-8.0-0.13","5d5f1c161d7a3e0001d6a151","609006691f6f4e337c17f836","609a611e29f23b9ecf7f6608","298.00999999861233","","","","37","","","","key","16.666000000000086","720","332","true","-1","132.83999999999997","15.36","3","-1","-1","","","","","","","","","","","","",""
"psychophysics","61","297383","0.0-8.0-0.14","5d5f1c161d7a3e0001d6a151","609006691f6f4e337c17f836","609a611e29f23b9ecf7f6608","1463.8899999990826","","","","37","","","","key","16.66600000000001","720","332","true","1","129","12.287999999999998","4","1","-1","","","","","","","","","","","","",""
"psychophysics","62","299102","0.0-8.0-0.15","5d5f1c161d7a3e0001d6a151","609006691f6f4e337c17f836","609a611e29f23b9ecf7f6608","716.1100000012084","","","","37","","","","key","16.665999999999723","720","332","true","-1","141.288","12.287999999999998","4","-1","1","","","","","","","","","","","","",""
"psychophysics","63","300775","0.0-8.0-0.16","5d5f1c161d7a3e0001d6a151","609006691f6f4e337c17f836","609a611e29f23b9ecf7f6608","669.529999999213","","","","37","","","","key","16.66927272727245","720","332","true","-1","141.288","9.8304","5","-1","-1","","","","","","","","","","","","",""
"psychophysics","64","303408","0.0-8.0-0.17","5d5f1c161d7a3e0001d6a151","609006691f6f4e337c17f836","609a611e29f23b9ecf7f6608","1629.7750000012456","","","","37","","","","key","16.665999999999848","720","332","true","-1","131.4576","9.8304","5","-1","-1","","","","","","","","","","","","",""
"psychophysics","65","305981","0.0-8.0-0.18","5d5f1c161d7a3e0001d6a151","609006691f6f4e337c17f836","609a611e29f23b9ecf7f6608","1569.9099999983446","","","","37","","","","key","16.665999999999705","720","332","true","1","131.4576","7.864319999999999","6","1","-1","","","","","","","","","","","","",""
"psychophysics","66","307473","0.0-8.0-0.19","5d5f1c161d7a3e0001d6a151","609006691f6f4e337c17f836","609a611e29f23b9ecf7f6608","487.96500000025844","","","","39","","","","key","16.666000000000086","720","332","true","1","139.32192","7.864319999999999","6","-1","1","","","","","","","","","","","","",""
"psychophysics","67","308956","0.0-8.0-0.20","5d5f1c161d7a3e0001d6a151","609006691f6f4e337c17f836","609a611e29f23b9ecf7f6608","479.3149999968591","","","","39","","","","key","16.666000000000086","720","332","true","1","139.32192","6.291456","7","-1","-1","","","","","","","","","","","","",""
"psychophysics","68","311207","0.0-8.0-0.21","5d5f1c161d7a3e0001d6a151","609006691f6f4e337c17f836","609a611e29f23b9ecf7f6608","1248.5599999999977","","","","37","","","","key","16.668044776119267","720","332","true","-1","133.030464","6.291456","7","-1","-1","","","","","","","","","","","","",""
"psychophysics","69","312768","0.0-8.0-0.22","5d5f1c161d7a3e0001d6a151","609006691f6f4e337c17f836","609a611e29f23b9ecf7f6608","558.1850000016857","","","","37","","","","key","16.66599999999963","720","332","true","-1","133.030464","6.291456","7","-1","-1","","","","","","","","","","","","",""
"psychophysics","70","315762","0.0-8.0-0.23","5d5f1c161d7a3e0001d6a151","609006691f6f4e337c17f836","609a611e29f23b9ecf7f6608","1990.6599999958416","","","","37","","","","key","16.666000000000054","720","332","true","1","129","5.033164800000001","8","1","-1","","","","","","","","","","","","",""
"psychophysics","71","317349","0.0-8.0-0.24","5d5f1c161d7a3e0001d6a151","609006691f6f4e337c17f836","609a611e29f23b9ecf7f6608","582.4999999967986","","","","39","","","","key","16.666000000000196","720","332","true","1","134.0331648","5.033164800000001","8","-1","1","","","","","","","","","","","","",""
"psychophysics","72","318886","0.0-8.0-0.25","5d5f1c161d7a3e0001d6a151","609006691f6f4e337c17f836","609a611e29f23b9ecf7f6608","534.1599999956088","","","","37","","","","key","16.666000000000317","720","332","true","-1","134.0331648","4.0265318400000005","9","-1","-1","","","","","","","","","","","","",""
"psychophysics","73","321939","0.0-8.0-0.26","5d5f1c161d7a3e0001d6a151","609006691f6f4e337c17f836","609a611e29f23b9ecf7f6608","2048.23999999644","","","","39","","","","key","16.667510989011113","720","332","true","1","130.00663296000002","4.0265318400000005","9","-1","-1","","","","","","","","","","","","",""
"psychophysics","74","323546","0.0-8.0-0.27","5d5f1c161d7a3e0001d6a151","609006691f6f4e337c17f836","609a611e29f23b9ecf7f6608","604.9350000030245","","","","39","","","","key","16.665999999999585","720","332","true","1","130.00663296000002","4.0265318400000005","9","-1","-1","","","","","","","","","","","","",""
"psychophysics","75","325152","0.0-8.0-0.28","5d5f1c161d7a3e0001d6a151","609006691f6f4e337c17f836","609a611e29f23b9ecf7f6608","602.8999999980442","","","","39","","","","key","16.665999999999865","720","332","true","1","129","4.0265318400000005","9","-1","-1","","","","","","","","","","","","",""
"psychophysics","76","326888","0.0-8.0-0.29","5d5f1c161d7a3e0001d6a151","609006691f6f4e337c17f836","609a611e29f23b9ecf7f6608","732.9049999971176","","","","39","","","","key","16.666000000000547","720","332","true","1","129","4.0265318400000005","9","-1","-1","","","","","","","","","","","","",""
"psychophysics","77","328501","0.0-8.0-0.30","5d5f1c161d7a3e0001d6a151","609006691f6f4e337c17f836","609a611e29f23b9ecf7f6608","609.9649999960093","","","","39","","","","key","16.665999999999865","720","332","true","1","129","4.0265318400000005","9","-1","-1","","","","","","","","","","","","",""
"psychophysics","78","330118","0.0-8.0-0.31","5d5f1c161d7a3e0001d6a151","609006691f6f4e337c17f836","609a611e29f23b9ecf7f6608","614.1149999966729","","","","39","","","","key","16.665999999999865","720","332","true","-1","129","3.2212254720000004","10","1","-1","","","","","","","","","","","","",""
"psychophysics","79","331746","0.0-8.0-0.32","5d5f1c161d7a3e0001d6a151","609006691f6f4e337c17f836","609a611e29f23b9ecf7f6608","624.775000003865","","","","39","","","","key","16.668812500000058","720","332","true","1","132.22122547200001","3.2212254720000004","10","-1","1","","","","","","","","","","","","",""
"psychophysics","80","333393","0.0-8.0-0.33","5d5f1c161d7a3e0001d6a151","609006691f6f4e337c17f836","609a611e29f23b9ecf7f6608","642.3199999990175","","","","39","","","","key","17.37519148936151","720","332","true","1","132.22122547200001","2.5769803776000004","11","-1","-1","","","","","","","","","","","","",""
"psychophysics","81","336309","0.0-8.0-0.34","5d5f1c161d7a3e0001d6a151","609006691f6f4e337c17f836","609a611e29f23b9ecf7f6608","1913.3249999940745","","","","39","","","","key","16.666000000000114","720","332","true","-1","129.64424509440002","2.0615843020800004","12","1","-1","","","","","","","","","","","","",""
"psychophysics","82","337953","0.0-8.0-0.35","5d5f1c161d7a3e0001d6a151","609006691f6f4e337c17f836","609a611e29f23b9ecf7f6608","639.7699999943143","","","","39","","","","key","16.665999999999816","720","332","true","1","131.70582939648003","2.0615843020800004","12","-1","1","","","","","","","","","","","","",""
"psychophysics","83","340086","0.0-8.0-0.36","5d5f1c161d7a3e0001d6a151","609006691f6f4e337c17f836","609a611e29f23b9ecf7f6608","1130.3049999987707","","","","39","","","","key","16.66599999999996","720","332","true","-1","131.70582939648003","1.6492674416640005","13","1","-1","","","","","","","","","","","","",""
"psychophysics","84","342001","0.0-8.0-0.37","5d5f1c161d7a3e0001d6a151","609006691f6f4e337c17f836","609a611e29f23b9ecf7f6608","911.4650000046822","","","","39","","","","key","16.66830701754365","720","332","true","-1","133.35509683814402","1.6492674416640005","13","1","1","","","","","","","","","","","","",""
"psychophysics","85","343534","0.0-8.0-0.38","5d5f1c161d7a3e0001d6a151","609006691f6f4e337c17f836","609a611e29f23b9ecf7f6608","531.1300000030315","","","","37","","","","key","16.665999999999677","720","332","true","-1","135.00436427980802","1.6492674416640005","13","-1","1","","","","","","","","","","","","",""
"psychophysics","86","345028","0.0-8.0-0.39","5d5f1c161d7a3e0001d6a151","609006691f6f4e337c17f836","609a611e29f23b9ecf7f6608","491.21500000183005","","","","37","","","","key","16.665999999999425","720","332","true","-1","135.00436427980802","1.3194139533312006","14","-1","-1","","","","","","","","","","","","",""
"html-keyboard-response","87","347297","0.0-9.0","5d5f1c161d7a3e0001d6a151","609006691f6f4e337c17f836","609a611e29f23b9ecf7f6608","2267.339999998512","<p>Well Done !</p><p>Prepare for a new block.</p><p>DON'T EXIT THE FULL SCREEN MODE</p><p>Press the Spacebar to start.</p>","","","32","","","","","","","","","","","","","","","true","131.39390739660803","","","","","","","","","","",""
"psychophysics","88","348436","0.0-10.0-0.0","5d5f1c161d7a3e0001d6a151","609006691f6f4e337c17f836","609a611e29f23b9ecf7f6608","135.58999999804655","","","","39","","","","key","16.666000000000007","720","332","true","1","180","30","0","-1","","","","","","","","","","","","","",""
"psychophysics","89","349582","0.0-10.0-0.1","5d5f1c161d7a3e0001d6a151","609006691f6f4e337c17f836","609a611e29f23b9ecf7f6608","143.02999999927124","","","","37","","","","key","16.666000000000007","720","332","true","-1","180","30","0","-1","-1","","","","","","","","","","","","",""
"psychophysics","90","352009","0.0-10.0-0.2","5d5f1c161d7a3e0001d6a151","609006691f6f4e337c17f836","609a611e29f23b9ecf7f6608","1423.9399999933084","","","","37","","","","key","16.66801388888901","720","332","true","-1","150","30","0","-1","-1","","","","","","","","","","","","",""
"psychophysics","91","353710","0.0-10.0-0.3","5d5f1c161d7a3e0001d6a151","609006691f6f4e337c17f836","609a611e29f23b9ecf7f6608","696.990000004007","","","","39","","","","key","16.666000000000032","720","332","true","1","150","30","0","-1","-1","","","","","","","","","","","","",""
"psychophysics","92","355896","0.0-10.0-0.4","5d5f1c161d7a3e0001d6a151","609006691f6f4e337c17f836","609a611e29f23b9ecf7f6608","1181.9400000022142","","","","39","","","","key","16.666000000000125","720","332","true","-1","129","24","1","1","-1","","","","","","","","","","","","",""
"psychophysics","93","357660","0.0-10.0-0.5","5d5f1c161d7a3e0001d6a151","609006691f6f4e337c17f836","609a611e29f23b9ecf7f6608","760.2200000037556","","","","39","","","","key","16.665999999999933","720","332","true","1","153","24","1","-1","1","","","","","","","","","","","","",""
"psychophysics","94","359507","0.0-10.0-0.6","5d5f1c161d7a3e0001d6a151","609006691f6f4e337c17f836","609a611e29f23b9ecf7f6608","843.1100000016158","","","","39","","","","key","16.666000000000086","720","332","true","1","153","19.2","2","-1","-1","","","","","","","","","","","","",""
"psychophysics","95","361085","0.0-10.0-0.7","5d5f1c161d7a3e0001d6a151","609006691f6f4e337c17f836","609a611e29f23b9ecf7f6608","575.7400000002235","","","","39","","","","key","16.668765957446823","720","332","true","1","133.8","19.2","2","-1","-1","","","","","","","","","","","","",""
"psychophysics","96","362764","0.0-10.0-0.8","5d5f1c161d7a3e0001d6a151","609006691f6f4e337c17f836","609a611e29f23b9ecf7f6608","675.9799999999814","","","","39","","","","key","16.665999999999766","720","332","true","1","133.8","19.2","2","-1","-1","","","","","","","","","","","","",""
"psychophysics","97","365724","0.0-10.0-0.9","5d5f1c161d7a3e0001d6a151","609006691f6f4e337c17f836","609a611e29f23b9ecf7f6608","1956.9049999990966","","","","39","","","","key","16.665999999999755","720","332","true","1","129","19.2","2","-1","-1","","","","","","","","","","","","",""
"psychophysics","98","367781","0.0-10.0-0.10","5d5f1c161d7a3e0001d6a151","609006691f6f4e337c17f836","609a611e29f23b9ecf7f6608","1052.864999997837","","","","39","","","","key","16.666000000000043","720","332","true","1","129","19.2","2","-1","-1","","","","","","","","","","","","",""
"psychophysics","99","370272","0.0-10.0-0.11","5d5f1c161d7a3e0001d6a151","609006691f6f4e337c17f836","609a611e29f23b9ecf7f6608","1487.9000000000815","","","","39","","","","key","16.666000000000192","720","332","true","1","129","19.2","2","-1","-1","","","","","","","","","","","","",""
"psychophysics","100","371830","0.0-10.0-0.12","5d5f1c161d7a3e0001d6a151","609006691f6f4e337c17f836","609a611e29f23b9ecf7f6608","555.7800000024145","","","","39","","","","key","16.66814130434827","720","332","true","1","129","19.2","2","-1","-1","","","","","","","","","","","","",""
"psychophysics","101","373918","0.0-10.0-0.13","5d5f1c161d7a3e0001d6a151","609006691f6f4e337c17f836","609a611e29f23b9ecf7f6608","1084.6900000033202","","","","39","","","","key","16.666","720","332","true","1","129","19.2","2","-1","-1","","","","","","","","","","","","",""
"psychophysics","102","375493","0.0-10.0-0.14","5d5f1c161d7a3e0001d6a151","609006691f6f4e337c17f836","609a611e29f23b9ecf7f6608","572.5500000044121","","","","39","","","","key","16.66599999999963","720","332","true","-1","129","15.36","3","1","-1","","","","","","","","","","","","",""
"psychophysics","103","377010","0.0-10.0-0.15","5d5f1c161d7a3e0001d6a151","609006691f6f4e337c17f836","609a611e29f23b9ecf7f6608","513.1299999993644","","","","37","","","","key","16.666000000000025","720","332","true","-1","144.36","15.36","3","-1","1","","","","","","","","","","","","",""
"psychophysics","104","379373","0.0-10.0-0.16","5d5f1c161d7a3e0001d6a151","609006691f6f4e337c17f836","609a611e29f23b9ecf7f6608","1358.2850000020699","","","","37","","","","key","16.66600000000012","720","332","true","-1","144.36","12.287999999999998","4","-1","-1","","","","","","","","","","","","",""
"psychophysics","105","381754","0.0-10.0-0.17","5d5f1c161d7a3e0001d6a151","609006691f6f4e337c17f836","609a611e29f23b9ecf7f6608","1378.6150000014459","","","","37","","","","key","16.668394366196853","720","332","true","1","132.072","9.8304","5","1","-1","","","","","","","","","","","","",""
"psychophysics","106","383403","0.0-10.0-0.18","5d5f1c161d7a3e0001d6a151","609006691f6f4e337c17f836","609a611e29f23b9ecf7f6608","645.6450000041514","","","","39","","","","key","16.665999999999816","720","332","true","1","141.9024","9.8304","5","-1","1","","","","","","","","","","","","",""
"psychophysics","107","385069","0.0-10.0-0.19","5d5f1c161d7a3e0001d6a151","609006691f6f4e337c17f836","609a611e29f23b9ecf7f6608","663.2450000033714","","","","37","","","","key","16.666000000000086","720","332","true","-1","141.9024","7.864319999999999","6","-1","-1","","","","","","","","","","","","",""
"psychophysics","108","386723","0.0-10.0-0.20","5d5f1c161d7a3e0001d6a151","609006691f6f4e337c17f836","609a611e29f23b9ecf7f6608","650.3650000013295","","","","37","","","","key","16.66600000000041","720","332","true","-1","134.03808","7.864319999999999","6","-1","-1","","","","","","","","","","","","",""
"psychophysics","109","388401","0.0-10.0-0.21","5d5f1c161d7a3e0001d6a151","609006691f6f4e337c17f836","609a611e29f23b9ecf7f6608","675.9749999982887","","","","37","","","","key","16.66600000000035","720","332","true","-1","134.03808","7.864319999999999","6","-1","-1","","","","","","","","","","","","",""
"psychophysics","110","391367","0.0-10.0-0.22","5d5f1c161d7a3e0001d6a151","609006691f6f4e337c17f836","609a611e29f23b9ecf7f6608","1962.840000000142","","","","39","","","","key","16.667491525423774","720","332","true","-1","129","6.291456","7","1","-1","","","","","","","","","","","","",""
"psychophysics","111","393127","0.0-10.0-0.23","5d5f1c161d7a3e0001d6a151","609006691f6f4e337c17f836","609a611e29f23b9ecf7f6608","757.2449999934179","","","","39","","","","key","17.16102970297054","720","332","true","-1","135.291456","6.291456","7","1","1","","","","","","","","","","","","",""
"psychophysics","112","394938","0.0-10.0-0.24","5d5f1c161d7a3e0001d6a151","609006691f6f4e337c17f836","609a611e29f23b9ecf7f6608","807.4449999985518","","","","37","","","","key","16.665999999999595","720","332","true","-1","141.58291200000002","6.291456","7","-1","1","","","","","","","","","","","","",""
"psychophysics","113","396552","0.0-10.0-0.25","5d5f1c161d7a3e0001d6a151","609006691f6f4e337c17f836","609a611e29f23b9ecf7f6608","611.34999999922","","","","39","","","","key","16.665999999999865","720","332","true","1","141.58291200000002","5.033164800000001","8","-1","-1","","","","","","","","","","","","",""
"psychophysics","114","398065","0.0-10.0-0.26","5d5f1c161d7a3e0001d6a151","609006691f6f4e337c17f836","609a611e29f23b9ecf7f6608","509.13500000024214","","","","37","","","","key","16.665999999999727","720","332","true","-1","136.5497472","5.033164800000001","8","-1","-1","","","","","","","","","","","","",""
"psychophysics","115","399593","0.0-10.0-0.27","5d5f1c161d7a3e0001d6a151","609006691f6f4e337c17f836","609a611e29f23b9ecf7f6608","524.3899999986752","","","","37","","","","key","16.665999999999677","720","332","true","-1","136.5497472","5.033164800000001","8","-1","-1","","","","","","","","","","","","",""
"psychophysics","116","401219","0.0-10.0-0.28","5d5f1c161d7a3e0001d6a151","609006691f6f4e337c17f836","609a611e29f23b9ecf7f6608","621.2450000020908","","","","39","","","","key","16.66883505154617","720","332","true","1","131.5165824","5.033164800000001","8","-1","-1","","","","","","","","","","","","",""
"psychophysics","117","403352","0.0-10.0-0.29","5d5f1c161d7a3e0001d6a151","609006691f6f4e337c17f836","609a611e29f23b9ecf7f6608","1129.4999999954598","","","","39","","","","key","16.66599999999996","720","332","true","1","131.5165824","5.033164800000001","8","-1","-1","","","","","","","","","","","","",""
"psychophysics","118","405958","0.0-10.0-0.30","5d5f1c161d7a3e0001d6a151","609006691f6f4e337c17f836","609a611e29f23b9ecf7f6608","1603.6200000016834","","","","39","","","","key","16.666000000000256","720","332","true","1","129","5.033164800000001","8","-1","-1","","","","","","","","","","","","",""
"psychophysics","119","407906","0.0-10.0-0.31","5d5f1c161d7a3e0001d6a151","609006691f6f4e337c17f836","609a611e29f23b9ecf7f6608","944.469999994908","","","","39","","","","key","16.665999999999947","720","332","true","-1","129","4.0265318400000005","9","1","-1","","","","","","","","","","","","",""
"psychophysics","120","409683","0.0-10.0-0.32","5d5f1c161d7a3e0001d6a151","609006691f6f4e337c17f836","609a611e29f23b9ecf7f6608","773.8249999965774","","","","39","","","","key","16.665999999999634","720","332","true","1","133.02653184","4.0265318400000005","9","-1","1","","","","","","","","","","","","",""
"psychophysics","121","411241","0.0-10.0-0.33","5d5f1c161d7a3e0001d6a151","609006691f6f4e337c17f836","609a611e29f23b9ecf7f6608","556.1799999995856","","","","39","","","","key","16.668630434782244","720","332","true","1","133.02653184","3.2212254720000004","10","-1","-1","","","","","","","","","","","","",""
"psychophysics","122","412862","0.0-10.0-0.34","5d5f1c161d7a3e0001d6a151","609006691f6f4e337c17f836","609a611e29f23b9ecf7f6608","617.1200000026147","","","","39","","","","key","16.665999999999865","720","332","true","-1","129.805306368","2.5769803776000004","11","1","-1","","","","","","","","","","","","",""
"psychophysics","123","414370","0.0-10.0-0.35","5d5f1c161d7a3e0001d6a151","609006691f6f4e337c17f836","609a611e29f23b9ecf7f6608","505.379999995057","","","","37","","","","key","16.666000000000025","720","332","true","-1","132.3822867456","2.5769803776000004","11","-1","1","","","","","","","","","","","","",""
"psychophysics","124","416178","0.0-10.0-0.36","5d5f1c161d7a3e0001d6a151","609006691f6f4e337c17f836","609a611e29f23b9ecf7f6608","804.6350000004168","","","","37","","","","key","16.66600000000043","720","332","true","-1","132.3822867456","2.0615843020800004","12","-1","-1","","","","","","","","","","","","",""
"psychophysics","125","417703","0.0-10.0-0.37","5d5f1c161d7a3e0001d6a151","609006691f6f4e337c17f836","609a611e29f23b9ecf7f6608","520.5500000010943","","","","37","","","","key","16.666000000000317","720","332","true","-1","130.32070244352","2.0615843020800004","12","-1","-1","","","","","","","","","","","","",""
"psychophysics","126","420014","0.0-10.0-0.38","5d5f1c161d7a3e0001d6a151","609006691f6f4e337c17f836","609a611e29f23b9ecf7f6608","1308.9699999982258","","","","37","","","","key","16.6660000000002","720","332","true","-1","130.32070244352","2.0615843020800004","12","-1","-1","","","","","","","","","","","","",""
"psychophysics","127","421751","0.0-10.0-0.39","5d5f1c161d7a3e0001d6a151","609006691f6f4e337c17f836","609a611e29f23b9ecf7f6608","733.1100000010338","","","","37","","","","key","16.66888461538474","720","332","true","1","129","1.6492674416640005","13","1","-1","","","","","","","","","","","","",""
"html-keyboard-response","128","423468","0.0-11.0","5d5f1c161d7a3e0001d6a151","609006691f6f4e337c17f836","609a611e29f23b9ecf7f6608","1715.5349999957252","<p>Well Done !</p><p>Prepare for a new block.</p><p>DON'T EXIT THE FULL SCREEN MODE</p><p>Press the Spacebar to start.</p>","","","32","","","","","","","","","","","","","","","true","132.398661308416","","","","","","","","","","",""
"psychophysics","129","425585","0.0-12.0-0.0","5d5f1c161d7a3e0001d6a151","609006691f6f4e337c17f836","609a611e29f23b9ecf7f6608","1112.5099999990198","","","","39","","","","key","16.66599999999996","720","332","true","1","180","30","0","-1","","","","","","","","","","","","","",""
"psychophysics","130","427020","0.0-12.0-0.1","5d5f1c161d7a3e0001d6a151","609006691f6f4e337c17f836","609a611e29f23b9ecf7f6608","432.49500000092667","","","","37","","","","key","16.665999999999837","720","332","true","-1","180","30","0","-1","-1","","","","","","","","","","","","",""
"psychophysics","131","428532","0.0-12.0-0.2","5d5f1c161d7a3e0001d6a151","609006691f6f4e337c17f836","609a611e29f23b9ecf7f6608","508.99500000377884","","","","39","","","","key","16.666000000000025","720","332","true","1","150","30","0","-1","-1","","","","","","","","","","","","",""
"psychophysics","132","430007","0.0-12.0-0.3","5d5f1c161d7a3e0001d6a151","609006691f6f4e337c17f836","609a611e29f23b9ecf7f6608","472.29999999399297","","","","37","","","","key","16.66599999999978","720","332","true","-1","150","30","0","-1","-1","","","","","","","","","","","","",""
"psychophysics","133","432419","0.0-12.0-0.4","5d5f1c161d7a3e0001d6a151","609006691f6f4e337c17f836","609a611e29f23b9ecf7f6608","1409.0149999974528","","","","39","","","","key","16.667888888888733","720","332","true","1","129","30","0","-1","-1","","","","","","","","","","","","",""
"psychophysics","134","434803","0.0-12.0-0.5","5d5f1c161d7a3e0001d6a151","609006691f6f4e337c17f836","609a611e29f23b9ecf7f6608","1378.9399999950547","","","","37","","","","key","16.665999999999897","720","332","true","-1","129","30","0","-1","-1","","","","","","","","","","","","",""
"psychophysics","135","437779","0.0-12.0-0.6","5d5f1c161d7a3e0001d6a151","609006691f6f4e337c17f836","609a611e29f23b9ecf7f6608","1972.524999997404","","","","39","","","","key","16.665999999999904","720","332","true","1","129","30","0","-1","-1","","","","","","","","","","","","",""
"psychophysics","136","439595","0.0-12.0-0.7","5d5f1c161d7a3e0001d6a151","609006691f6f4e337c17f836","609a611e29f23b9ecf7f6608","813.0999999993946","","","","37","","","","key","16.666000000000135","720","332","true","-1","129","30","0","-1","-1","","","","","","","","","","","","",""
"psychophysics","137","441520","0.0-12.0-0.8","5d5f1c161d7a3e0001d6a151","609006691f6f4e337c17f836","609a611e29f23b9ecf7f6608","921.8199999959324","","","","39","","","","key","16.668313043478005","720","332","true","1","129","30","0","-1","-1","","","","","","","","","","","","",""
"psychophysics","138","443638","0.0-12.0-0.9","5d5f1c161d7a3e0001d6a151","609006691f6f4e337c17f836","609a611e29f23b9ecf7f6608","1114.9749999967753","","","","37","","","","key","16.665999999999748","720","332","true","-1","129","30","0","-1","-1","","","","","","","","","","","","",""
"psychophysics","139","446136","0.0-12.0-0.10","5d5f1c161d7a3e0001d6a151","609006691f6f4e337c17f836","609a611e29f23b9ecf7f6608","1494.7699999975157","","","","39","","","","key","16.66599999999998","720","332","true","1","129","30","0","-1","-1","","","","","","","","","","","","",""
"psychophysics","140","448482","0.0-12.0-0.11","5d5f1c161d7a3e0001d6a151","609006691f6f4e337c17f836","609a611e29f23b9ecf7f6608","1343.300000000454","","","","37","","","","key","16.66600000000035","720","332","true","1","129","24","1","1","-1","","","","","","","","","","","","",""
"psychophysics","141","449970","0.0-12.0-0.12","5d5f1c161d7a3e0001d6a151","609006691f6f4e337c17f836","609a611e29f23b9ecf7f6608","484.17999999946915","","","","39","","","","key","16.666000000000086","720","332","true","1","153","24","1","-1","1","","","","","","","","","","","","",""
"psychophysics","142","451611","0.0-12.0-0.13","5d5f1c161d7a3e0001d6a151","609006691f6f4e337c17f836","609a611e29f23b9ecf7f6608","637.6200000013341","","","","39","","","","key","16.66876288659849","720","332","true","1","153","19.2","2","-1","-1","","","","","","","","","","","","",""
"psychophysics","143","453236","0.0-12.0-0.14","5d5f1c161d7a3e0001d6a151","609006691f6f4e337c17f836","609a611e29f23b9ecf7f6608","620.4999999972642","","","","39","","","","key","17.19789361702142","720","332","true","1","133.8","19.2","2","-1","-1","","","","","","","","","","","","",""
"psychophysics","144","454989","0.0-12.0-0.15","5d5f1c161d7a3e0001d6a151","609006691f6f4e337c17f836","609a611e29f23b9ecf7f6608","749.3850000028033","","","","39","","","","key","16.66600000000024","720","332","true","1","133.8","19.2","2","-1","-1","","","","","","","","","","","","",""
"psychophysics","145","458154","0.0-12.0-0.16","5d5f1c161d7a3e0001d6a151","609006691f6f4e337c17f836","609a611e29f23b9ecf7f6608","2162.1650000015507","","","","37","","","","key","16.665999999999748","720","332","true","-1","129","19.2","2","-1","-1","","","","","","","","","","","","",""
"psychophysics","146","460453","0.0-12.0-0.17","5d5f1c161d7a3e0001d6a151","609006691f6f4e337c17f836","609a611e29f23b9ecf7f6608","1296.4050000009593","","","","37","","","","key","16.665999999999777","720","332","true","-1","129","19.2","2","-1","-1","","","","","","","","","","","","",""
"psychophysics","147","462289","0.0-12.0-0.18","5d5f1c161d7a3e0001d6a151","609006691f6f4e337c17f836","609a611e29f23b9ecf7f6608","832.1300000025076","","","","37","","","","key","16.668486238532026","720","332","true","-1","129","19.2","2","-1","-1","","","","","","","","","","","","",""
"psychophysics","148","464769","0.0-12.0-0.19","5d5f1c161d7a3e0001d6a151","609006691f6f4e337c17f836","609a611e29f23b9ecf7f6608","1477.2700000030454","","","","37","","","","key","16.665999999999798","720","332","true","-1","129","19.2","2","-1","-1","","","","","","","","","","","","",""
"psychophysics","149","466404","0.0-12.0-0.20","5d5f1c161d7a3e0001d6a151","609006691f6f4e337c17f836","609a611e29f23b9ecf7f6608","629.9499999950058","","","","37","","","","key","16.66600000000014","720","332","true","-1","129","19.2","2","-1","-1","","","","","","","","","","","","",""
"psychophysics","150","468392","0.0-12.0-0.21","5d5f1c161d7a3e0001d6a151","609006691f6f4e337c17f836","609a611e29f23b9ecf7f6608","984.9299999987124","","","","37","","","","key","16.665999999999904","720","332","true","1","129","15.36","3","1","-1","","","","","","","","","","","","",""
"psychophysics","151","469937","0.0-12.0-0.22","5d5f1c161d7a3e0001d6a151","609006691f6f4e337c17f836","609a611e29f23b9ecf7f6608","541.8900000004214","","","","39","","","","key","16.66599999999997","720","332","true","1","144.36","15.36","3","-1","1","","","","","","","","","","","","",""
"psychophysics","152","471282","0.0-12.0-0.23","5d5f1c161d7a3e0001d6a151","609006691f6f4e337c17f836","609a611e29f23b9ecf7f6608","342.4400000003516","","","","37","","","","key","16.669405063291528","720","332","true","-1","144.36","12.287999999999998","4","-1","-1","","","","","","","","","","","","",""
"psychophysics","153","474060","0.0-12.0-0.24","5d5f1c161d7a3e0001d6a151","609006691f6f4e337c17f836","609a611e29f23b9ecf7f6608","1775.3150000062305","","","","39","","","","key","16.666000000000246","720","332","true","1","132.072","12.287999999999998","4","-1","-1","","","","","","","","","","","","",""
"psychophysics","154","476671","0.0-12.0-0.25","5d5f1c161d7a3e0001d6a151","609006691f6f4e337c17f836","609a611e29f23b9ecf7f6608","1607.8749999942374","","","","37","","","","key","16.66600000000005","720","332","true","-1","132.072","12.287999999999998","4","-1","-1","","","","","","","","","","","","",""
"psychophysics","155","478651","0.0-12.0-0.26","5d5f1c161d7a3e0001d6a151","609006691f6f4e337c17f836","609a611e29f23b9ecf7f6608","975.5950000035227","","","","39","","","","key","16.665999999999904","720","332","true","1","129","12.287999999999998","4","-1","-1","","","","","","","","","","","","",""
"psychophysics","156","481503","0.0-12.0-0.27","5d5f1c161d7a3e0001d6a151","609006691f6f4e337c17f836","609a611e29f23b9ecf7f6608","1849.4449999998324","","","","37","","","","key","16.66760588235304","720","332","true","-1","129","12.287999999999998","4","-1","-1","","","","","","","","","","","","",""
"psychophysics","157","483165","0.0-12.0-0.28","5d5f1c161d7a3e0001d6a151","609006691f6f4e337c17f836","609a611e29f23b9ecf7f6608","659.5850000012433","","","","39","","","","key","16.665999999999816","720","332","true","-1","129","9.8304","5","1","-1","","","","","","","","","","","","",""
"psychophysics","158","484838","0.0-12.0-0.29","5d5f1c161d7a3e0001d6a151","609006691f6f4e337c17f836","609a611e29f23b9ecf7f6608","669.8400000022957","","","","39","","","","key","16.66600000000035","720","332","true","1","138.8304","9.8304","5","-1","1","","","","","","","","","","","","",""
"psychophysics","159","486413","0.0-12.0-0.30","5d5f1c161d7a3e0001d6a151","609006691f6f4e337c17f836","609a611e29f23b9ecf7f6608","570.2100000053179","","","","39","","","","key","16.666000000000256","720","332","true","1","138.8304","7.864319999999999","6","-1","-1","","","","","","","","","","","","",""
"psychophysics","160","487994","0.0-12.0-0.31","5d5f1c161d7a3e0001d6a151","609006691f6f4e337c17f836","609a611e29f23b9ecf7f6608","577.3750000007567","","","","39","","","","key","16.665999999999915","720","332","true","1","130.96608","7.864319999999999","6","-1","-1","","","","","","","","","","","","",""
"psychophysics","161","490385","0.0-12.0-0.32","5d5f1c161d7a3e0001d6a151","609006691f6f4e337c17f836","609a611e29f23b9ecf7f6608","1387.460000005376","","","","37","","","","key","16.666000000000086","720","332","true","-1","130.96608","7.864319999999999","6","-1","-1","","","","","","","","","","","","",""
"psychophysics","162","493210","0.0-12.0-0.33","5d5f1c161d7a3e0001d6a151","609006691f6f4e337c17f836","609a611e29f23b9ecf7f6608","1821.7700000022887","","","","37","","","","key","16.667589285714104","720","332","true","1","129","6.291456","7","1","-1","","","","","","","","","","","","",""
"psychophysics","163","495055","0.0-12.0-0.34","5d5f1c161d7a3e0001d6a151","609006691f6f4e337c17f836","609a611e29f23b9ecf7f6608","843.0000000007567","","","","37","","","","key","16.665999999999556","720","332","true","-1","135.291456","6.291456","7","-1","1","","","","","","","","","","","","",""
"psychophysics","164","496761","0.0-12.0-0.35","5d5f1c161d7a3e0001d6a151","609006691f6f4e337c17f836","609a611e29f23b9ecf7f6608","702.7749999979278","","","","37","","","","key","16.666000000000032","720","332","true","-1","135.291456","5.033164800000001","8","-1","-1","","","","","","","","","","","","",""
"psychophysics","165","499464","0.0-12.0-0.36","5d5f1c161d7a3e0001d6a151","609006691f6f4e337c17f836","609a611e29f23b9ecf7f6608","1699.5649999953457","","","","39","","","","key","16.665999999999787","720","332","true","1","130.2582912","5.033164800000001","8","-1","-1","","","","","","","","","","","","",""
"psychophysics","166","501672","0.0-12.0-0.37","5d5f1c161d7a3e0001d6a151","609006691f6f4e337c17f836","609a611e29f23b9ecf7f6608","1204.3900000062422","","","","39","","","","key","16.66804545454524","720","332","true","-1","130.2582912","4.0265318400000005","9","1","-1","","","","","","","","","","","","",""
"psychophysics","167","503473","0.0-12.0-0.38","5d5f1c161d7a3e0001d6a151","609006691f6f4e337c17f836","609a611e29f23b9ecf7f6608","797.6150000031339","","","","39","","","","key","16.665999999999887","720","332","true","-1","134.28482304","4.0265318400000005","9","1","1","","","","","","","","","","","","",""
"psychophysics","168","505085","0.0-12.0-0.39","5d5f1c161d7a3e0001d6a151","609006691f6f4e337c17f836","609a611e29f23b9ecf7f6608","609.8449999990407","","","","37","","","","key","16.66600000000047","720","332","true","-1","138.31135487999998","4.0265318400000005","9","-1","1","","","","","","","","","","","","",""
"html-keyboard-response","169","510523","0.0-13.0","5d5f1c161d7a3e0001d6a151","609006691f6f4e337c17f836","609a611e29f23b9ecf7f6608","5436.114999996789","<p>Well Done !</p><p>Prepare for a new block.</p><p>DON'T EXIT THE FULL SCREEN MODE</p><p>Press the Spacebar to start.</p>","","","32","","","","","","","","","","","","","","","true","132.757375488","","","","","","","","","","",""
"html-keyboard-response","170","510629","0.0-14.0","5d5f1c161d7a3e0001d6a151","609006691f6f4e337c17f836","609a611e29f23b9ecf7f6608","null","","","","null","","","","","","","","","","","","","","","","","132.41031456735232","true","136.82062913470463","","","","","","","",""
"instructions","171","556041","0.0-15.0","5d5f1c161d7a3e0001d6a151","609006691f6f4e337c17f836","609a611e29f23b9ecf7f6608","45409.31000000279","","","","","","","[{""page_index"":0,""viewing_time"":40753.730000004},{""page_index"":1,""viewing_time"":2124.2349999956787},{""page_index"":2,""viewing_time"":2530.7900000043446}]","","","","","","","","","","","","","","","","","","","","","","","",""
"psychophysics","172","559047","0.0-16.0-0.0","5d5f1c161d7a3e0001d6a151","609006691f6f4e337c17f836","609a611e29f23b9ecf7f6608","null","","","","null","","","","key","16.66600000000132","720","332","","","","","","","","","","","","","","","","","","","",""
"psychophysics","173","559551","0.0-16.0-1.0","5d5f1c161d7a3e0001d6a151","609006691f6f4e337c17f836","609a611e29f23b9ecf7f6608","null","","","","null","","","","key","16.66599999999938","720","332","","","","","","","","","","","","","137","-1","5","false","","","",""
"psychophysics","174","560804","0.0-16.0-2.0","5d5f1c161d7a3e0001d6a151","609006691f6f4e337c17f836","609a611e29f23b9ecf7f6608","1250.1750000010943","","","","77","","","","key","16.665999999999798","720","332","","","","","","","","","","","","","","","","","","","",""
"psychophysics","175","561805","0.0-16.0-0.1","5d5f1c161d7a3e0001d6a151","609006691f6f4e337c17f836","609a611e29f23b9ecf7f6608","null","","","","null","","","","key","16.592525423727377","720","332","","","","","","","","","","","","","","","","","","","",""
"psychophysics","176","562309","0.0-16.0-1.1","5d5f1c161d7a3e0001d6a151","609006691f6f4e337c17f836","609a611e29f23b9ecf7f6608","null","","","","null","","","","key","16.666000000000448","720","332","","","","","","","","","","","","","137","1","6","false","","","",""
"psychophysics","177","562835","0.0-16.0-2.1","5d5f1c161d7a3e0001d6a151","609006691f6f4e337c17f836","609a611e29f23b9ecf7f6608","522.575000002631","","","","77","","","","key","16.665999999998377","720","332","","","","","","","","","","","","","","","","","","","",""
"psychophysics","178","563836","0.0-16.0-0.2","5d5f1c161d7a3e0001d6a151","609006691f6f4e337c17f836","609a611e29f23b9ecf7f6608","null","","","","null","","","","key","16.665999999999904","720","332","","","","","","","","","","","","","","","","","","","",""
"psychophysics","179","564340","0.0-16.0-1.2","5d5f1c161d7a3e0001d6a151","609006691f6f4e337c17f836","609a611e29f23b9ecf7f6608","null","","","","null","","","","key","16.666000000000448","720","332","","","","","","","","","","","","","137","1","5","false","","","",""
"psychophysics","180","564567","0.0-16.0-2.2","5d5f1c161d7a3e0001d6a151","609006691f6f4e337c17f836","609a611e29f23b9ecf7f6608","223.7699999968754","","","","77","","","","key","16.666000000004153","720","332","","","","","","","","","","","","","","","","","","","",""
"psychophysics","181","565569","0.0-16.0-0.3","5d5f1c161d7a3e0001d6a151","609006691f6f4e337c17f836","609a611e29f23b9ecf7f6608","null","","","","null","","","","key","16.665999999999904","720","332","","","","","","","","","","","","","","","","","","","",""
"psychophysics","182","566073","0.0-16.0-1.3","5d5f1c161d7a3e0001d6a151","609006691f6f4e337c17f836","609a611e29f23b9ecf7f6608","null","","","","null","","","","key","16.666000000000448","720","332","","","","","","","","","","","","","137","1","3","false","","","",""
"psychophysics","183","566964","0.0-16.0-2.3","5d5f1c161d7a3e0001d6a151","609006691f6f4e337c17f836","609a611e29f23b9ecf7f6608","888.5549999978393","","","","77","","","","key","16.666000000001283","720","332","","","","","","","","","","","","","","","","","","","",""
"psychophysics","184","567965","0.0-16.0-0.4","5d5f1c161d7a3e0001d6a151","609006691f6f4e337c17f836","609a611e29f23b9ecf7f6608","null","","","","null","","","","key","16.665999999999904","720","332","","","","","","","","","","","","","","","","","","","",""
"psychophysics","185","568468","0.0-16.0-1.4","5d5f1c161d7a3e0001d6a151","609006691f6f4e337c17f836","609a611e29f23b9ecf7f6608","null","","","","null","","","","key","16.666000000000448","720","332","","","","","","","","","","","","","137","-1","0","false","","","",""
"psychophysics","186","569009","0.0-16.0-2.4","5d5f1c161d7a3e0001d6a151","609006691f6f4e337c17f836","609a611e29f23b9ecf7f6608","538.6399999988498","","","","90","","","","key","16.666000000002132","720","332","","","","","","","","","","","","","","","","","","","",""
"psychophysics","187","570012","0.0-16.0-0.5","5d5f1c161d7a3e0001d6a151","609006691f6f4e337c17f836","609a611e29f23b9ecf7f6608","null","","","","null","","","","key","16.66599999999938","720","332","","","","","","","","","","","","","","","","","","","",""
"psychophysics","188","570515","0.0-16.0-1.5","5d5f1c161d7a3e0001d6a151","609006691f6f4e337c17f836","609a611e29f23b9ecf7f6608","null","","","","null","","","","key","16.666000000000448","720","332","","","","","","","","","","","","","137","-1","6","false","","","",""
"psychophysics","189","570986","0.0-16.0-2.5","5d5f1c161d7a3e0001d6a151","609006691f6f4e337c17f836","609a611e29f23b9ecf7f6608","468.77999999560416","","","","77","","","","key","16.665999999998515","720","332","","","","","","","","","","","","","","","","","","","",""
"psychophysics","190","571987","0.0-16.0-0.6","5d5f1c161d7a3e0001d6a151","609006691f6f4e337c17f836","609a611e29f23b9ecf7f6608","null","","","","null","","","","key","17.25571929824563","720","332","","","","","","","","","","","","","","","","","","","",""
"psychophysics","191","572490","0.0-16.0-1.6","5d5f1c161d7a3e0001d6a151","609006691f6f4e337c17f836","609a611e29f23b9ecf7f6608","null","","","","null","","","","key","16.666000000000448","720","332","","","","","","","","","","","","","137","1","2","false","","","",""
"psychophysics","192","572945","0.0-16.0-2.6","5d5f1c161d7a3e0001d6a151","609006691f6f4e337c17f836","609a611e29f23b9ecf7f6608","452.9899999978952","","","","90","","","","key","16.665999999999677","720","332","","","","","","","","","","","","","","","","","","","",""
"psychophysics","193","573946","0.0-16.0-0.7","5d5f1c161d7a3e0001d6a151","609006691f6f4e337c17f836","609a611e29f23b9ecf7f6608","null","","","","null","","","","key","16.66600000000132","720","332","","","","","","","","","","","","","","","","","","","",""
"psychophysics","194","574449","0.0-16.0-1.7","5d5f1c161d7a3e0001d6a151","609006691f6f4e337c17f836","609a611e29f23b9ecf7f6608","null","","","","null","","","","key","16.666000000000448","720","332","","","","","","","","","","","","","137","-1","4","false","","","",""
"psychophysics","195","575336","0.0-16.0-2.7","5d5f1c161d7a3e0001d6a151","609006691f6f4e337c17f836","609a611e29f23b9ecf7f6608","884.565000000177","","","","77","","","","key","16.665999999999677","720","332","","","","","","","","","","","","","","","","","","","",""
"psychophysics","196","576338","0.0-16.0-0.8","5d5f1c161d7a3e0001d6a151","609006691f6f4e337c17f836","609a611e29f23b9ecf7f6608","null","","","","null","","","","key","16.66600000000188","720","332","","","","","","","","","","","","","","","","","","","",""
"psychophysics","197","576842","0.0-16.0-1.8","5d5f1c161d7a3e0001d6a151","609006691f6f4e337c17f836","609a611e29f23b9ecf7f6608","null","","","","null","","","","key","16.666000000000448","720","332","","","","","","","","","","","","","137","-1","3","false","","","",""
"psychophysics","198","577335","0.0-16.0-2.8","5d5f1c161d7a3e0001d6a151","609006691f6f4e337c17f836","609a611e29f23b9ecf7f6608","487.3200000001816","","","","77","","","","key","16.666000000000448","720","332","","","","","","","","","","","","","","","","","","","",""
"psychophysics","199","578337","0.0-16.0-0.9","5d5f1c161d7a3e0001d6a151","609006691f6f4e337c17f836","609a611e29f23b9ecf7f6608","null","","","","null","","","","key","16.665999999999904","720","332","","","","","","","","","","","","","","","","","","","",""
"psychophysics","200","578840","0.0-16.0-1.9","5d5f1c161d7a3e0001d6a151","609006691f6f4e337c17f836","609a611e29f23b9ecf7f6608","null","","","","null","","","","key","16.666000000000448","720","332","","","","","","","","","","","","","137","-1","2","false","","","",""
"psychophysics","201","579494","0.0-16.0-2.9","5d5f1c161d7a3e0001d6a151","609006691f6f4e337c17f836","609a611e29f23b9ecf7f6608","652.5700000056531","","","","90","","","","key","16.66599999999897","720","332","","","","","","","","","","","","","","","","","","","",""
"psychophysics","202","580497","0.0-16.0-0.10","5d5f1c161d7a3e0001d6a151","609006691f6f4e337c17f836","609a611e29f23b9ecf7f6608","null","","","","null","","","","key","16.66600000000132","720","332","","","","","","","","","","","","","","","","","","","",""
"psychophysics","203","580999","0.0-16.0-1.10","5d5f1c161d7a3e0001d6a151","609006691f6f4e337c17f836","609a611e29f23b9ecf7f6608","null","","","","null","","","","key","16.666000000000448","720","332","","","","","","","","","","","","","137","1","0","false","","","",""
"psychophysics","204","581543","0.0-16.0-2.10","5d5f1c161d7a3e0001d6a151","609006691f6f4e337c17f836","609a611e29f23b9ecf7f6608","542.3400000000838","","","","90","","","","key","16.665999999998377","720","332","","","","","","","","","","","","","","","","","","","",""
"psychophysics","205","582547","0.0-16.0-0.11","5d5f1c161d7a3e0001d6a151","609006691f6f4e337c17f836","609a611e29f23b9ecf7f6608","null","","","","null","","","","key","16.670550000000123","720","332","","","","","","","","","","","","","","","","","","","",""
"psychophysics","206","583050","0.0-16.0-1.11","5d5f1c161d7a3e0001d6a151","609006691f6f4e337c17f836","609a611e29f23b9ecf7f6608","null","","","","null","","","","key","16.666000000000448","720","332","","","","","","","","","","","","","137","1","4","false","","","",""
"psychophysics","207","583384","0.0-16.0-2.11","5d5f1c161d7a3e0001d6a151","609006691f6f4e337c17f836","609a611e29f23b9ecf7f6608","331.5199999997858","","","","77","","","","key","16.66599999999897","720","332","","","","","","","","","","","","","","","","","","","",""
"psychophysics","208","584385","0.0-16.0-0.12","5d5f1c161d7a3e0001d6a151","609006691f6f4e337c17f836","609a611e29f23b9ecf7f6608","null","","","","null","","","","key","16.95334482758812","720","332","","","","","","","","","","","","","","","","","","","",""
"psychophysics","209","584888","0.0-16.0-1.12","5d5f1c161d7a3e0001d6a151","609006691f6f4e337c17f836","609a611e29f23b9ecf7f6608","null","","","","null","","","","key","16.666000000000448","720","332","","","","","","","","","","","","","137","-1","3","false","","","",""
"psychophysics","210","585591","0.0-16.0-2.12","5d5f1c161d7a3e0001d6a151","609006691f6f4e337c17f836","609a611e29f23b9ecf7f6608","701.1500000007218","","","","90","","","","key","16.665999999999567","720","332","","","","","","","","","","","","","","","","","","","",""
"psychophysics","211","586593","0.0-16.0-0.13","5d5f1c161d7a3e0001d6a151","609006691f6f4e337c17f836","609a611e29f23b9ecf7f6608","null","","","","null","","","","key","16.665999999999904","720","332","","","","","","","","","","","","","","","","","","","",""
"psychophysics","212","587097","0.0-16.0-1.13","5d5f1c161d7a3e0001d6a151","609006691f6f4e337c17f836","609a611e29f23b9ecf7f6608","null","","","","null","","","","key","16.66599999999938","720","332","","","","","","","","","","","","","137","1","5","false","","","",""
"psychophysics","213","587501","0.0-16.0-2.13","5d5f1c161d7a3e0001d6a151","609006691f6f4e337c17f836","609a611e29f23b9ecf7f6608","401.53499999735504","","","","77","","","","key","16.665999999998704","720","332","","","","","","","","","","","","","","","","","","","",""
"psychophysics","214","588504","0.0-16.0-0.14","5d5f1c161d7a3e0001d6a151","609006691f6f4e337c17f836","609a611e29f23b9ecf7f6608","null","","","","null","","","","key","16.665999999999904","720","332","","","","","","","","","","","","","","","","","","","",""
"psychophysics","215","589009","0.0-16.0-1.14","5d5f1c161d7a3e0001d6a151","609006691f6f4e337c17f836","609a611e29f23b9ecf7f6608","null","","","","null","","","","key","16.666000000001596","720","332","","","","","","","","","","","","","137","1","2","false","","","",""
"psychophysics","216","589601","0.0-16.0-2.14","5d5f1c161d7a3e0001d6a151","609006691f6f4e337c17f836","609a611e29f23b9ecf7f6608","587.1399999960558","","","","90","","","","key","16.666000000001596","720","332","","","","","","","","","","","","","","","","","","","",""
"psychophysics","217","590602","0.0-16.0-0.15","5d5f1c161d7a3e0001d6a151","609006691f6f4e337c17f836","609a611e29f23b9ecf7f6608","null","","","","null","","","","key","16.665999999999904","720","332","","","","","","","","","","","","","","","","","","","",""
"psychophysics","218","591106","0.0-16.0-1.15","5d5f1c161d7a3e0001d6a151","609006691f6f4e337c17f836","609a611e29f23b9ecf7f6608","null","","","","null","","","","key","16.666000000000448","720","332","","","","","","","","","","","","","137","-1","0","false","","","",""
"psychophysics","219","591704","0.0-16.0-2.15","5d5f1c161d7a3e0001d6a151","609006691f6f4e337c17f836","609a611e29f23b9ecf7f6608","595.2049999978626","","","","90","","","","key","16.673657142859884","720","332","","","","","","","","","","","","","","","","","","","",""
"psychophysics","220","592705","0.0-16.0-0.16","5d5f1c161d7a3e0001d6a151","609006691f6f4e337c17f836","609a611e29f23b9ecf7f6608","null","","","","null","","","","key","16.665999999999904","720","332","","","","","","","","","","","","","","","","","","","",""
"psychophysics","221","593208","0.0-16.0-1.16","5d5f1c161d7a3e0001d6a151","609006691f6f4e337c17f836","609a611e29f23b9ecf7f6608","null","","","","null","","","","key","16.666000000000448","720","332","","","","","","","","","","","","","137","-1","4","false","","","",""
"psychophysics","222","593640","0.0-16.0-2.16","5d5f1c161d7a3e0001d6a151","609006691f6f4e337c17f836","609a611e29f23b9ecf7f6608","430.0050000019837","","","","77","","","","key","16.66600000000093","720","332","","","","","","","","","","","","","","","","","","","",""
"psychophysics","223","594643","0.0-16.0-0.17","5d5f1c161d7a3e0001d6a151","609006691f6f4e337c17f836","609a611e29f23b9ecf7f6608","null","","","","null","","","","key","16.665999999999904","720","332","","","","","","","","","","","","","","","","","","","",""
"psychophysics","224","595146","0.0-16.0-1.17","5d5f1c161d7a3e0001d6a151","609006691f6f4e337c17f836","609a611e29f23b9ecf7f6608","null","","","","null","","","","key","16.66599999999938","720","332","","","","","","","","","","","","","137","-1","6","false","","","",""
"psychophysics","225","595684","0.0-16.0-2.17","5d5f1c161d7a3e0001d6a151","609006691f6f4e337c17f836","609a611e29f23b9ecf7f6608","536.0849999997299","","","","77","","","","key","16.666000000002132","720","332","","","","","","","","","","","","","","","","","","","",""
"psychophysics","226","596686","0.0-16.0-0.18","5d5f1c161d7a3e0001d6a151","609006691f6f4e337c17f836","609a611e29f23b9ecf7f6608","null","","","","null","","","","key","16.665999999999904","720","332","","","","","","","","","","","","","","","","","","","",""
"psychophysics","227","597188","0.0-16.0-1.18","5d5f1c161d7a3e0001d6a151","609006691f6f4e337c17f836","609a611e29f23b9ecf7f6608","null","","","","null","","","","key","16.666000000000448","720","332","","","","","","","","","","","","","137","1","3","false","","","",""
"psychophysics","228","597701","0.0-16.0-2.18","5d5f1c161d7a3e0001d6a151","609006691f6f4e337c17f836","609a611e29f23b9ecf7f6608","510.36000000021886","","","","90","","","","key","16.66599999999938","720","332","","","","","","","","","","","","","","","","","","","",""
"psychophysics","229","598702","0.0-16.0-0.19","5d5f1c161d7a3e0001d6a151","609006691f6f4e337c17f836","609a611e29f23b9ecf7f6608","null","","","","null","","","","key","16.665999999999904","720","332","","","","","","","","","","","","","","","","","","","",""
"psychophysics","230","599205","0.0-16.0-1.19","5d5f1c161d7a3e0001d6a151","609006691f6f4e337c17f836","609a611e29f23b9ecf7f6608","null","","","","null","","","","key","16.666000000000448","720","332","","","","","","","","","","","","","137","1","0","false","","","",""
"psychophysics","231","599859","0.0-16.0-2.19","5d5f1c161d7a3e0001d6a151","609006691f6f4e337c17f836","609a611e29f23b9ecf7f6608","651.9399999961024","","","","90","","","","key","16.666000000002033","720","332","","","","","","","","","","","","","","","","","","","",""
"psychophysics","232","600865","0.0-16.0-0.20","5d5f1c161d7a3e0001d6a151","609006691f6f4e337c17f836","609a611e29f23b9ecf7f6608","null","","","","null","","","","key","16.66599999999938","720","332","","","","","","","","","","","","","","","","","","","",""
"psychophysics","233","601366","0.0-16.0-1.20","5d5f1c161d7a3e0001d6a151","609006691f6f4e337c17f836","609a611e29f23b9ecf7f6608","null","","","","null","","","","key","16.666000000000448","720","332","","","","","","","","","","","","","137","1","6","false","","","",""
"psychophysics","234","602187","0.0-16.0-2.20","5d5f1c161d7a3e0001d6a151","609006691f6f4e337c17f836","609a611e29f23b9ecf7f6608","818.630000001518","","","","77","","","","key","16.670791666666144","720","332","","","","","","","","","","","","","","","","","","","",""
"psychophysics","235","603189","0.0-16.0-0.21","5d5f1c161d7a3e0001d6a151","609006691f6f4e337c17f836","609a611e29f23b9ecf7f6608","null","","","","null","","","","key","16.665999999999904","720","332","","","","","","","","","","","","","","","","","","","",""
"psychophysics","236","603694","0.0-16.0-1.21","5d5f1c161d7a3e0001d6a151","609006691f6f4e337c17f836","609a611e29f23b9ecf7f6608","null","","","","null","","","","key","16.666000000000448","720","332","","","","","","","","","","","","","137","-1","2","false","","","",""
"psychophysics","237","604702","0.0-16.0-2.21","5d5f1c161d7a3e0001d6a151","609006691f6f4e337c17f836","609a611e29f23b9ecf7f6608","1004.3499999956694","","","","90","","","","key","16.66599999999938","720","332","","","","","","","","","","","","","","","","","","","",""
"psychophysics","238","605703","0.0-16.0-0.22","5d5f1c161d7a3e0001d6a151","609006691f6f4e337c17f836","609a611e29f23b9ecf7f6608","null","","","","null","","","","key","16.665999999999904","720","332","","","","","","","","","","","","","","","","","","","",""
"psychophysics","239","606206","0.0-16.0-1.22","5d5f1c161d7a3e0001d6a151","609006691f6f4e337c17f836","609a611e29f23b9ecf7f6608","null","","","","null","","","","key","16.666000000000448","720","332","","","","","","","","","","","","","137","1","4","false","","","",""
"psychophysics","240","606887","0.0-16.0-2.22","5d5f1c161d7a3e0001d6a151","609006691f6f4e337c17f836","609a611e29f23b9ecf7f6608","678.8700000033714","","","","77","","","","key","16.66600000000035","720","332","","","","","","","","","","","","","","","","","","","",""
"psychophysics","241","607889","0.0-16.0-0.23","5d5f1c161d7a3e0001d6a151","609006691f6f4e337c17f836","609a611e29f23b9ecf7f6608","null","","","","null","","","","key","16.665999999999904","720","332","","","","","","","","","","","","","","","","","","","",""
"psychophysics","242","608392","0.0-16.0-1.23","5d5f1c161d7a3e0001d6a151","609006691f6f4e337c17f836","609a611e29f23b9ecf7f6608","null","","","","null","","","","key","16.666000000000448","720","332","","","","","","","","","","","","","137","-1","5","false","","","",""
"psychophysics","243","608898","0.0-16.0-2.23","5d5f1c161d7a3e0001d6a151","609006691f6f4e337c17f836","609a611e29f23b9ecf7f6608","503.4300000043586","","","","77","","","","key","16.66599999999938","720","332","","","","","","","","","","","","","","","","","","","",""
"html-keyboard-response","244","615062","0.0-17.0","5d5f1c161d7a3e0001d6a151","609006691f6f4e337c17f836","609a611e29f23b9ecf7f6608","6162.165000001551","<p>Well Done !</p><p>Training Complete. Press the spacebar to start.</p><p>DON'T EXIT THE FULL SCREEN MODE</p>","","","32","","","","","","","","","","","","","","","","","","","","","","","","","","",""
"psychophysics","245","618066","0.0-18.0-0.0","5d5f1c161d7a3e0001d6a151","609006691f6f4e337c17f836","609a611e29f23b9ecf7f6608","null","","","","null","","","","key","16.671533333333596","720","332","","","","","","","","","","","","","","","","","","","",""
"psychophysics","246","618571","0.0-18.0-1.0","5d5f1c161d7a3e0001d6a151","609006691f6f4e337c17f836","609a611e29f23b9ecf7f6608","null","","","","null","","","","key","16.666000000000448","720","332","","","","","","","","","","","","","137","-1","5","true","","","",""
"psychophysics","247","619595","0.0-18.0-2.0","5d5f1c161d7a3e0001d6a151","609006691f6f4e337c17f836","609a611e29f23b9ecf7f6608","1021.3349999976344","","","","90","","","","key","16.66599999999938","720","332","","","","","","","","","","","","","","","","","","","",""
"psychophysics","248","620596","0.0-18.0-0.1","5d5f1c161d7a3e0001d6a151","609006691f6f4e337c17f836","609a611e29f23b9ecf7f6608","null","","","","null","","","","key","16.66599999999938","720","332","","","","","","","","","","","","","","","","","","","",""
"psychophysics","249","621099","0.0-18.0-1.1","5d5f1c161d7a3e0001d6a151","609006691f6f4e337c17f836","609a611e29f23b9ecf7f6608","null","","","","null","","","","key","16.666000000000448","720","332","","","","","","","","","","","","","137","-1","6","true","","","",""
"psychophysics","250","621543","0.0-18.0-2.1","5d5f1c161d7a3e0001d6a151","609006691f6f4e337c17f836","609a611e29f23b9ecf7f6608","441.7900000043446","","","","77","","","","key","16.66600000000093","720","332","","","","","","","","","","","","","","","","","","","",""
"psychophysics","251","622545","0.0-18.0-0.2","5d5f1c161d7a3e0001d6a151","609006691f6f4e337c17f836","609a611e29f23b9ecf7f6608","null","","","","null","","","","key","16.665999999999904","720","332","","","","","","","","","","","","","","","","","","","",""
"psychophysics","252","623047","0.0-18.0-1.2","5d5f1c161d7a3e0001d6a151","609006691f6f4e337c17f836","609a611e29f23b9ecf7f6608","null","","","","null","","","","key","16.66599999999938","720","332","","","","","","","","","","","","","137","1","3","true","","","",""
"psychophysics","253","623518","0.0-18.0-2.2","5d5f1c161d7a3e0001d6a151","609006691f6f4e337c17f836","609a611e29f23b9ecf7f6608","468.7350000021979","","","","90","","","","key","16.66600000000283","720","332","","","","","","","","","","","","","","","","","","","",""
"psychophysics","254","624521","0.0-18.0-0.3","5d5f1c161d7a3e0001d6a151","609006691f6f4e337c17f836","609a611e29f23b9ecf7f6608","null","","","","null","","","","key","16.665999999999904","720","332","","","","","","","","","","","","","","","","","","","",""
"psychophysics","255","625024","0.0-18.0-1.3","5d5f1c161d7a3e0001d6a151","609006691f6f4e337c17f836","609a611e29f23b9ecf7f6608","null","","","","null","","","","key","16.666000000000448","720","332","","","","","","","","","","","","","137","-1","2","true","","","",""
"psychophysics","256","625629","0.0-18.0-2.3","5d5f1c161d7a3e0001d6a151","609006691f6f4e337c17f836","609a611e29f23b9ecf7f6608","602.0900000003166","","","","90","","","","key","16.44363888888943","720","332","","","","","","","","","","","","","","","","","","","",""
"psychophysics","257","626630","0.0-18.0-0.4","5d5f1c161d7a3e0001d6a151","609006691f6f4e337c17f836","609a611e29f23b9ecf7f6608","null","","","","null","","","","key","16.665999999999904","720","332","","","","","","","","","","","","","","","","","","","",""
"psychophysics","258","627132","0.0-18.0-1.4","5d5f1c161d7a3e0001d6a151","609006691f6f4e337c17f836","609a611e29f23b9ecf7f6608","null","","","","null","","","","key","16.666000000000448","720","332","","","","","","","","","","","","","137","1","0","true","","","",""
"psychophysics","259","627397","0.0-18.0-2.4","5d5f1c161d7a3e0001d6a151","609006691f6f4e337c17f836","609a611e29f23b9ecf7f6608","262.22499999869615","","","","90","","","","key","16.66599999999938","720","332","","","","","","","","","","","","","","","","","","","",""
"psychophysics","260","628398","0.0-18.0-0.5","5d5f1c161d7a3e0001d6a151","609006691f6f4e337c17f836","609a611e29f23b9ecf7f6608","null","","","","null","","","","key","16.665999999999904","720","332","","","","","","","","","","","","","","","","","","","",""
"psychophysics","261","628900","0.0-18.0-1.5","5d5f1c161d7a3e0001d6a151","609006691f6f4e337c17f836","609a611e29f23b9ecf7f6608","null","","","","null","","","","key","16.665999999996437","720","332","","","","","","","","","","","","","137","-1","0","true","","","",""
"psychophysics","262","629089","0.0-18.0-2.5","5d5f1c161d7a3e0001d6a151","609006691f6f4e337c17f836","609a611e29f23b9ecf7f6608","186.72500000684522","","","","77","","","","key","16.666000000000086","720","332","","","","","","","","","","","","","","","","","","","",""
"psychophysics","263","630090","0.0-18.0-0.6","5d5f1c161d7a3e0001d6a151","609006691f6f4e337c17f836","609a611e29f23b9ecf7f6608","null","","","","null","","","","key","16.665999999999904","720","332","","","","","","","","","","","","","","","","","","","",""
"psychophysics","264","630593","0.0-18.0-1.6","5d5f1c161d7a3e0001d6a151","609006691f6f4e337c17f836","609a611e29f23b9ecf7f6608","null","","","","null","","","","key","16.666000000000448","720","332","","","","","","","","","","","","","137","-1","4","true","","","",""
"psychophysics","265","630794","0.0-18.0-2.6","5d5f1c161d7a3e0001d6a151","609006691f6f4e337c17f836","609a611e29f23b9ecf7f6608","199.05999999900814","","","","77","","","","key","16.666000000000086","720","332","","","","","","","","","","","","","","","","","","","",""
"psychophysics","266","631795","0.0-18.0-0.7","5d5f1c161d7a3e0001d6a151","609006691f6f4e337c17f836","609a611e29f23b9ecf7f6608","null","","","","null","","","","key","16.665999999999904","720","332","","","","","","","","","","","","","","","","","","","",""
"psychophysics","267","632298","0.0-18.0-1.7","5d5f1c161d7a3e0001d6a151","609006691f6f4e337c17f836","609a611e29f23b9ecf7f6608","null","","","","null","","","","key","16.666000000000448","720","332","","","","","","","","","","","","","137","-1","3","true","","","",""
"psychophysics","268","632806","0.0-18.0-2.7","5d5f1c161d7a3e0001d6a151","609006691f6f4e337c17f836","609a611e29f23b9ecf7f6608","506.1050000003306","","","","90","","","","key","17.24068965517177","720","332","","","","","","","","","","","","","","","","","","","",""
"psychophysics","269","633807","0.0-18.0-0.8","5d5f1c161d7a3e0001d6a151","609006691f6f4e337c17f836","609a611e29f23b9ecf7f6608","null","","","","null","","","","key","16.665999999999904","720","332","","","","","","","","","","","","","","","","","","","",""
"psychophysics","270","634309","0.0-18.0-1.8","5d5f1c161d7a3e0001d6a151","609006691f6f4e337c17f836","609a611e29f23b9ecf7f6608","null","","","","null","","","","key","16.666000000000448","720","332","","","","","","","","","","","","","137","1","4","true","","","",""
"psychophysics","271","634586","0.0-18.0-2.8","5d5f1c161d7a3e0001d6a151","609006691f6f4e337c17f836","609a611e29f23b9ecf7f6608","273.9999999976717","","","","77","","","","key","16.66599999999938","720","332","","","","","","","","","","","","","","","","","","","",""
"psychophysics","272","635589","0.0-18.0-0.9","5d5f1c161d7a3e0001d6a151","609006691f6f4e337c17f836","609a611e29f23b9ecf7f6608","null","","","","null","","","","key","16.671133333334","720","332","","","","","","","","","","","","","","","","","","","",""
"psychophysics","273","636091","0.0-18.0-1.9","5d5f1c161d7a3e0001d6a151","609006691f6f4e337c17f836","609a611e29f23b9ecf7f6608","null","","","","null","","","","key","17.26121428571475","720","332","","","","","","","","","","","","","137","1","5","true","","","",""
"psychophysics","274","636212","0.0-18.0-2.9","5d5f1c161d7a3e0001d6a151","609006691f6f4e337c17f836","609a611e29f23b9ecf7f6608","118.17000000155531","","","","77","","","","key","16.665999999987736","720","332","","","","","","","","","","","","","","","","","","","",""
"psychophysics","275","637214","0.0-18.0-0.10","5d5f1c161d7a3e0001d6a151","609006691f6f4e337c17f836","609a611e29f23b9ecf7f6608","null","","","","null","","","","key","16.665999999999904","720","332","","","","","","","","","","","","","","","","","","","",""
"psychophysics","276","637717","0.0-18.0-1.10","5d5f1c161d7a3e0001d6a151","609006691f6f4e337c17f836","609a611e29f23b9ecf7f6608","null","","","","null","","","","key","16.666000000000448","720","332","","","","","","","","","","","","","137","1","6","true","","","",""
"psychophysics","277","637840","0.0-18.0-2.10","5d5f1c161d7a3e0001d6a151","609006691f6f4e337c17f836","609a611e29f23b9ecf7f6608","120.2049999992596","","","","77","","","","key","16.666000000001596","720","332","","","","","","","","","","","","","","","","","","","",""
"psychophysics","278","638841","0.0-18.0-0.11","5d5f1c161d7a3e0001d6a151","609006691f6f4e337c17f836","609a611e29f23b9ecf7f6608","null","","","","null","","","","key","16.665999999999904","720","332","","","","","","","","","","","","","","","","","","","",""
"psychophysics","279","639344","0.0-18.0-1.11","5d5f1c161d7a3e0001d6a151","609006691f6f4e337c17f836","609a611e29f23b9ecf7f6608","null","","","","null","","","","key","16.666000000000448","720","332","","","","","","","","","","","","","137","1","2","true","","","",""
"psychophysics","280","639591","0.0-18.0-2.11","5d5f1c161d7a3e0001d6a151","609006691f6f4e337c17f836","609a611e29f23b9ecf7f6608","244.47499999962747","","","","90","","","","key","16.665999999993282","720","332","","","","","","","","","","","","","","","","","","","",""
"psychophysics","281","640593","0.0-18.0-0.12","5d5f1c161d7a3e0001d6a151","609006691f6f4e337c17f836","609a611e29f23b9ecf7f6608","null","","","","null","","","","key","16.665999999999904","720","332","","","","","","","","","","","","","","","","","","","",""
"psychophysics","282","641096","0.0-18.0-1.12","5d5f1c161d7a3e0001d6a151","609006691f6f4e337c17f836","609a611e29f23b9ecf7f6608","null","","","","null","","","","key","16.666000000000448","720","332","","","","","","","","","","","","","137","-1","5","true","","","",""
"psychophysics","283","641322","0.0-18.0-2.12","5d5f1c161d7a3e0001d6a151","609006691f6f4e337c17f836","609a611e29f23b9ecf7f6608","223.92000000411645","","","","77","","","","key","16.666000000004153","720","332","","","","","","","","","","","","","","","","","","","",""
"psychophysics","284","642324","0.0-18.0-0.13","5d5f1c161d7a3e0001d6a151","609006691f6f4e337c17f836","609a611e29f23b9ecf7f6608","null","","","","null","","","","key","16.665999999999904","720","332","","","","","","","","","","","","","","","","","","","",""
"psychophysics","285","642826","0.0-18.0-1.13","5d5f1c161d7a3e0001d6a151","609006691f6f4e337c17f836","609a611e29f23b9ecf7f6608","null","","","","null","","","","key","16.666000000000448","720","332","","","","","","","","","","","","","137","-1","6","true","","","",""
"psychophysics","286","642989","0.0-18.0-2.13","5d5f1c161d7a3e0001d6a151","609006691f6f4e337c17f836","609a611e29f23b9ecf7f6608","160.40500000235625","","","","77","","","","key","16.66600000001199","720","332","","","","","","","","","","","","","","","","","","","",""
"psychophysics","287","643990","0.0-18.0-0.14","5d5f1c161d7a3e0001d6a151","609006691f6f4e337c17f836","609a611e29f23b9ecf7f6608","null","","","","null","","","","key","16.66599999999938","720","332","","","","","","","","","","","","","","","","","","","",""
"psychophysics","288","644492","0.0-18.0-1.14","5d5f1c161d7a3e0001d6a151","609006691f6f4e337c17f836","609a611e29f23b9ecf7f6608","null","","","","null","","","","key","16.666000000000448","720","332","","","","","","","","","","","","","137","1","0","true","","","",""
"psychophysics","289","644778","0.0-18.0-2.14","5d5f1c161d7a3e0001d6a151","609006691f6f4e337c17f836","609a611e29f23b9ecf7f6608","281.45000000228174","","","","90","","","","key","16.66599999999744","720","332","","","","","","","","","","","","","","","","","","","",""
"psychophysics","290","645780","0.0-18.0-0.15","5d5f1c161d7a3e0001d6a151","609006691f6f4e337c17f836","609a611e29f23b9ecf7f6608","null","","","","null","","","","key","16.671101694914782","720","332","","","","","","","","","","","","","","","","","","","",""
"psychophysics","291","646283","0.0-18.0-1.15","5d5f1c161d7a3e0001d6a151","609006691f6f4e337c17f836","609a611e29f23b9ecf7f6608","null","","","","null","","","","key","16.666000000000448","720","332","","","","","","","","","","","","","137","-1","0","true","","","",""
"psychophysics","292","646873","0.0-18.0-2.15","5d5f1c161d7a3e0001d6a151","609006691f6f4e337c17f836","609a611e29f23b9ecf7f6608","588.0150000011781","","","","90","","","","key","16.66599999999827","720","332","","","","","","","","","","","","","","","","","","","",""
"psychophysics","293","647874","0.0-18.0-0.16","5d5f1c161d7a3e0001d6a151","609006691f6f4e337c17f836","609a611e29f23b9ecf7f6608","null","","","","null","","","","key","16.665999999999904","720","332","","","","","","","","","","","","","","","","","","","",""
"psychophysics","294","648377","0.0-18.0-1.16","5d5f1c161d7a3e0001d6a151","609006691f6f4e337c17f836","609a611e29f23b9ecf7f6608","null","","","","null","","","","key","16.666000000000448","720","332","","","","","","","","","","","","","137","1","6","true","","","",""
"psychophysics","295","648635","0.0-18.0-2.16","5d5f1c161d7a3e0001d6a151","609006691f6f4e337c17f836","609a611e29f23b9ecf7f6608","255.29500000271946","","","","77","","","","key","16.666000000001596","720","332","","","","","","","","","","","","","","","","","","","",""
"psychophysics","296","649637","0.0-18.0-0.17","5d5f1c161d7a3e0001d6a151","609006691f6f4e337c17f836","609a611e29f23b9ecf7f6608","null","","","","null","","","","key","16.665999999999904","720","332","","","","","","","","","","","","","","","","","","","",""
"psychophysics","297","650140","0.0-18.0-1.17","5d5f1c161d7a3e0001d6a151","609006691f6f4e337c17f836","609a611e29f23b9ecf7f6608","null","","","","null","","","","key","16.66599999999938","720","332","","","","","","","","","","","","","137","1","2","true","","","",""
"psychophysics","298","650437","0.0-18.0-2.17","5d5f1c161d7a3e0001d6a151","609006691f6f4e337c17f836","609a611e29f23b9ecf7f6608","295.5699999947101","","","","90","","","","key","16.66599999999744","720","332","","","","","","","","","","","","","","","","","","","",""
"psychophysics","299","651439","0.0-18.0-0.18","5d5f1c161d7a3e0001d6a151","609006691f6f4e337c17f836","609a611e29f23b9ecf7f6608","null","","","","null","","","","key","16.66599999999938","720","332","","","","","","","","","","","","","","","","","","","",""
"psychophysics","300","651942","0.0-18.0-1.18","5d5f1c161d7a3e0001d6a151","609006691f6f4e337c17f836","609a611e29f23b9ecf7f6608","null","","","","null","","","","key","16.666000000000448","720","332","","","","","","","","","","","","","137","1","4","true","","","",""
"psychophysics","301","652180","0.0-18.0-2.18","5d5f1c161d7a3e0001d6a151","609006691f6f4e337c17f836","609a611e29f23b9ecf7f6608","235.09999999811407","","","","77","","","","key","16.666000000004153","720","332","","","","","","","","","","","","","","","","","","","",""
"psychophysics","302","653182","0.0-18.0-0.19","5d5f1c161d7a3e0001d6a151","609006691f6f4e337c17f836","609a611e29f23b9ecf7f6608","null","","","","null","","","","key","16.665999999999904","720","332","","","","","","","","","","","","","","","","","","","",""
"psychophysics","303","653684","0.0-18.0-1.19","5d5f1c161d7a3e0001d6a151","609006691f6f4e337c17f836","609a611e29f23b9ecf7f6608","null","","","","null","","","","key","16.665999999996437","720","332","","","","","","","","","","","","","137","-1","3","true","","","",""
"psychophysics","304","653960","0.0-18.0-2.19","5d5f1c161d7a3e0001d6a151","609006691f6f4e337c17f836","609a611e29f23b9ecf7f6608","274.02500000596046","","","","77","","","","key","16.66599999999744","720","332","","","","","","","","","","","","","","","","","","","",""
"psychophysics","305","654962","0.0-18.0-0.20","5d5f1c161d7a3e0001d6a151","609006691f6f4e337c17f836","609a611e29f23b9ecf7f6608","null","","","","null","","","","key","16.665999999999904","720","332","","","","","","","","","","","","","","","","","","","",""
"psychophysics","306","655466","0.0-18.0-1.20","5d5f1c161d7a3e0001d6a151","609006691f6f4e337c17f836","609a611e29f23b9ecf7f6608","null","","","","null","","","","key","16.675068965514896","720","332","","","","","","","","","","","","","137","1","5","true","","","",""
"psychophysics","307","656001","0.0-18.0-2.20","5d5f1c161d7a3e0001d6a151","609006691f6f4e337c17f836","609a611e29f23b9ecf7f6608","532.8650000011548","","","","77","","","","key","16.666000000002132","720","332","","","","","","","","","","","","","","","","","","","",""
"psychophysics","308","657004","0.0-18.0-0.21","5d5f1c161d7a3e0001d6a151","609006691f6f4e337c17f836","609a611e29f23b9ecf7f6608","null","","","","null","","","","key","16.665999999999904","720","332","","","","","","","","","","","","","","","","","","","",""
"psychophysics","309","657507","0.0-18.0-1.21","5d5f1c161d7a3e0001d6a151","609006691f6f4e337c17f836","609a611e29f23b9ecf7f6608","null","","","","null","","","","key","16.66599999999938","720","332","","","","","","","","","","","","","137","1","3","true","","","",""
"psychophysics","310","657913","0.0-18.0-2.21","5d5f1c161d7a3e0001d6a151","609006691f6f4e337c17f836","609a611e29f23b9ecf7f6608","404.51000000035856","","","","90","","","","key","16.665999999998704","720","332","","","","","","","","","","","","","","","","","","","",""
"psychophysics","311","658916","0.0-18.0-0.22","5d5f1c161d7a3e0001d6a151","609006691f6f4e337c17f836","609a611e29f23b9ecf7f6608","null","","","","null","","","","key","16.66600000000188","720","332","","","","","","","","","","","","","","","","","","","",""
"psychophysics","312","659420","0.0-18.0-1.22","5d5f1c161d7a3e0001d6a151","609006691f6f4e337c17f836","609a611e29f23b9ecf7f6608","null","","","","null","","","","key","16.666000000000448","720","332","","","","","","","","","","","","","137","-1","2","true","","","",""
"psychophysics","313","659831","0.0-18.0-2.22","5d5f1c161d7a3e0001d6a151","609006691f6f4e337c17f836","609a611e29f23b9ecf7f6608","405.8050000022631","","","","90","","","","key","16.66599999999744","720","332","","","","","","","","","","","","","","","","","","","",""
"psychophysics","314","660832","0.0-18.0-0.23","5d5f1c161d7a3e0001d6a151","609006691f6f4e337c17f836","609a611e29f23b9ecf7f6608","null","","","","null","","","","key","16.665999999999904","720","332","","","","","","","","","","","","","","","","","","","",""
"psychophysics","315","661334","0.0-18.0-1.23","5d5f1c161d7a3e0001d6a151","609006691f6f4e337c17f836","609a611e29f23b9ecf7f6608","null","","","","null","","","","key","16.666000000000448","720","332","","","","","","","","","","","","","137","-1","4","true","","","",""
"psychophysics","316","661569","0.0-18.0-2.23","5d5f1c161d7a3e0001d6a151","609006691f6f4e337c17f836","609a611e29f23b9ecf7f6608","232.049999998766","","","","77","","","","key","16.666000000004153","720","332","","","","","","","","","","","","","","","","","","","",""
"psychophysics","317","662572","0.0-18.0-0.24","5d5f1c161d7a3e0001d6a151","609006691f6f4e337c17f836","609a611e29f23b9ecf7f6608","null","","","","null","","","","key","16.66599999999938","720","332","","","","","","","","","","","","","","","","","","","",""
"psychophysics","318","663075","0.0-18.0-1.24","5d5f1c161d7a3e0001d6a151","609006691f6f4e337c17f836","609a611e29f23b9ecf7f6608","null","","","","null","","","","key","16.666000000000448","720","332","","","","","","","","","","","","","137","1","2","true","","","",""
"psychophysics","319","663583","0.0-18.0-2.24","5d5f1c161d7a3e0001d6a151","609006691f6f4e337c17f836","609a611e29f23b9ecf7f6608","506.35999999940395","","","","90","","","","key","16.666000000000448","720","332","","","","","","","","","","","","","","","","","","","",""
"psychophysics","320","664585","0.0-18.0-0.25","5d5f1c161d7a3e0001d6a151","609006691f6f4e337c17f836","609a611e29f23b9ecf7f6608","null","","","","null","","","","key","16.665999999999904","720","332","","","","","","","","","","","","","","","","","","","",""
"psychophysics","321","665088","0.0-18.0-1.25","5d5f1c161d7a3e0001d6a151","609006691f6f4e337c17f836","609a611e29f23b9ecf7f6608","null","","","","null","","","","key","16.666000000000448","720","332","","","","","","","","","","","","","137","-1","3","true","","","",""
"psychophysics","322","665377","0.0-18.0-2.25","5d5f1c161d7a3e0001d6a151","609006691f6f4e337c17f836","609a611e29f23b9ecf7f6608","285.0049999980256","","","","90","","","","key","16.68011764706085","720","332","","","","","","","","","","","","","","","","","","","",""
"psychophysics","323","666379","0.0-18.0-0.26","5d5f1c161d7a3e0001d6a151","609006691f6f4e337c17f836","609a611e29f23b9ecf7f6608","null","","","","null","","","","key","16.665999999999904","720","332","","","","","","","","","","","","","","","","","","","",""
"psychophysics","324","666882","0.0-18.0-1.26","5d5f1c161d7a3e0001d6a151","609006691f6f4e337c17f836","609a611e29f23b9ecf7f6608","null","","","","null","","","","key","16.666000000000448","720","332","","","","","","","","","","","","","137","1","0","true","","","",""
"psychophysics","325","667389","0.0-18.0-2.26","5d5f1c161d7a3e0001d6a151","609006691f6f4e337c17f836","609a611e29f23b9ecf7f6608","505.00499999907333","","","","90","","","","key","16.66599999999938","720","332","","","","","","","","","","","","","","","","","","","",""
"psychophysics","326","668391","0.0-18.0-0.27","5d5f1c161d7a3e0001d6a151","609006691f6f4e337c17f836","609a611e29f23b9ecf7f6608","null","","","","null","","","","key","16.665999999999904","720","332","","","","","","","","","","","","","","","","","","","",""
"psychophysics","327","668894","0.0-18.0-1.27","5d5f1c161d7a3e0001d6a151","609006691f6f4e337c17f836","609a611e29f23b9ecf7f6608","null","","","","null","","","","key","16.666000000000448","720","332","","","","","","","","","","","","","137","1","5","true","","","",""
"psychophysics","328","669344","0.0-18.0-2.27","5d5f1c161d7a3e0001d6a151","609006691f6f4e337c17f836","609a611e29f23b9ecf7f6608","448.1199999937089","","","","77","","","","key","16.665999999999677","720","332","","","","","","","","","","","","","","","","","","","",""
"psychophysics","329","670346","0.0-18.0-0.28","5d5f1c161d7a3e0001d6a151","609006691f6f4e337c17f836","609a611e29f23b9ecf7f6608","null","","","","null","","","","key","16.665999999999904","720","332","","","","","","","","","","","","","","","","","","","",""
"psychophysics","330","670848","0.0-18.0-1.28","5d5f1c161d7a3e0001d6a151","609006691f6f4e337c17f836","609a611e29f23b9ecf7f6608","null","","","","null","","","","key","16.666000000000448","720","332","","","","","","","","","","","","","137","1","4","true","","","",""
"psychophysics","331","671188","0.0-18.0-2.28","5d5f1c161d7a3e0001d6a151","609006691f6f4e337c17f836","609a611e29f23b9ecf7f6608","338.2899999998044","","","","90","","","","key","16.66599999999897","720","332","","","","","","","","","","","","","","","","","","","",""
"psychophysics","332","672190","0.0-18.0-0.29","5d5f1c161d7a3e0001d6a151","609006691f6f4e337c17f836","609a611e29f23b9ecf7f6608","null","","","","null","","","","key","16.66599999999938","720","332","","","","","","","","","","","","","","","","","","","",""
