"trial_type","trial_index","time_elapsed","internal_node_id","PROLIFIC_PID","STUDY_ID","SESSION_ID","rt","stimulus","button_pressed","success","key_press","responses","isData","view_history","response_type","avg_frame_time","center_x","center_y","isSC","stim_side","trial_luminance","step_size","nReversal","correct","prev_ans","isThreshold","SC_threshold","final_threshold","isLuminance","FF_luminance","luminance","stimSide","ISInt","isFF","question_order","isSPQ","isCAPS","isAQ"
"pavlovia","0","16","0.0-0.0","6071c813aa80712d47f34f03","609006691f6f4e337c17f836","609a612458189a03b2e8fc56","","","","","","","","","","","","","","","","","","","","","","","","","","","","","","","",""
"html-button-response","1","24785","0.0-1.0","6071c813aa80712d47f34f03","609006691f6f4e337c17f836","609a612458189a03b2e8fc56","24762.545000063255","<div style='background-color: white; width:60%; margin: auto; padding: 50px; text-align: justify; text-justify: inter-word; margin-bottom: 20px;'><h1 style='text-align: center;'>Consent Form</h1><p>Please read this consent form carefully before deciding whether you would like to participate in this study. You have to be 18 years old or older to participate to this study.</p><p style='text-decoration: underline;'>Participation is voluntary:</p><p>It is your choice whether or not to participate in this research. If you choose to participate, you may change your mind and leave the study at any time. Refusal to participate or stopping your participation will involve no penalty or loss of benefits to which you are otherwise entitled.</p><p style='text-decoration: underline;'>Purpose of the Study:</p><p>To understand the mechanisms underlying human perception.</p><p style='text-decoration: underline;'>What you will do in this study:</p><p>You will be presented with a series of visual images and then you will press buttons on the keyboard of your computer to respond to simple questions about the images (e.g. Were one or two images presented?). In addition, you will be asked to complete a questionnaire concerning your beliefs and everyday mental and perceptual experiences.'</p><p style='text-decoration: underline;'> Time Required:</p><p>The study will take 40 minutes to complete. </p><p style='text-decoration: underline;'>Risks:</p><p>There are no anticipated risks associated with participating in this study that are beyond those experienced in everyday life. </p><p style='text-decoration: underline;'>Benefits:</p><p>There are no benefits to you in participating in the study. However, this study may lead to a better understanding of how different kinds of visual information are used.</p><p style='text-decoration: underline;'>Compensation:</p><p>You will be paid US$6.6/hour. </p><p style='text-decoration: underline;'>Privacy and Confidentiality:</p><p>Your participation in this study will be anonymous. No personal information about your name or identity will be asked or recorded. This anonymous data will be stored for several years and may be used for a variety of research purposes. The overall results of the study may be published, or the data files may be shared with other researchers, but your identity will not be revealed in any way. The online services we are using for this study may temporarily store your data, but this data will be downloaded and then promptly deleted from those services.Your data will not be permanently associated with your name, IP address, or any other identifiable information (e.g., your information will only be connected to your payment, not to any of your responses), though they may be temporarily stored together before we download and separate them. Even so, no guarantee of internet survey security can be given because, although unlikely, transmissions can be intercepted and IP addresses can be identified. The anonymous data may be shared publicly (for example, in conjunction with a resulting academic publication).</p><p style='text-decoration: underline;'>Participation and Withdrawal:</p><p>Your participation in this study is completely voluntary. You may stop responding to the stimuli or stop answering questions if you so choose and without penalty by exiting the full screen mode, closing this tab of your browser or redirecting it to a different website.</p><p style='text-decoration: underline;'>Contact Info of the Researcher: </p><p>If you have questions about this study, or if you would like to talk to the research team, please contact David Melcher (david.melcher@nyu.edu, md5050@nyu.edu) at the Perception and Active Cognition Laboratory, New York University Abu Dhabi, Computational Research Building, Saadiyat Island, Abu Dhabi, UAE.This research has been reviewed by the New York University Abu Dhabi Institutional Review Board (NYUAD IRB). To contact about your rights in this research, for questions, suggestions, or complaints that are not addressed by the researchers, please email IRBnyuad@nyu.edu, or call the NYUAD IRB at +971 2 628 4313. </p></div>","0","","","","","","","","","","","","","","","","","","","","","","","","","","","","",""
"fullscreen","2","26632","0.0-2.0","6071c813aa80712d47f34f03","609006691f6f4e337c17f836","609a612458189a03b2e8fc56","","","","true","","","","","","","","","","","","","","","","","","","","","","","","","","","",""
"html-keyboard-response","3","40305","0.0-3.0","6071c813aa80712d47f34f03","609006691f6f4e337c17f836","609a612458189a03b2e8fc56","13654.594999970868","<p>Welcome !</p><p>READ CAREFULLY THE FOLLOWING INDICATIONS:</p><p>From this moment you have ~40 minutes to complete the experiment.</p><p>During the experiment you will be prompted to take several breaks. Each break should not last longer than 2-3 minutes.</p><p>Make sure that your computer is plugged in and it's not running on battery power, even if the battery is already fully charged.</p><p>Turn off your phone and music, make sure that you are in a quiet room and that you will not be distracted for the next hour.</p><p>Failure to comply with the instructions and indications provided during the experiment will most likely result in the rejection of your data.<p>Press the spacebar to start.</p>","","","32","","","","","","","","","","","","","","","","","","","","","","","","","","",""
"survey-html-form","4","46420","0.0-4.0","6071c813aa80712d47f34f03","609006691f6f4e337c17f836","609a612458189a03b2e8fc56","6112.789999926463","","","","","{""age"":""24"",""sex"":""f""}","true","","","","","","","","","","","","","","","","","","","","","","","","",""
"instructions","5","110987","0.0-5.0","6071c813aa80712d47f34f03","609006691f6f4e337c17f836","609a612458189a03b2e8fc56","64566.08500005677","","","","","","","[{""page_index"":0,""viewing_time"":23582.63500011526},{""page_index"":1,""viewing_time"":25005.339999916032},{""page_index"":2,""viewing_time"":15977.309999987483}]","","","","","","","","","","","","","","","","","","","","","","","",""
"psychophysics","6","114824","0.0-6.0-0.0","6071c813aa80712d47f34f03","609006691f6f4e337c17f836","609a612458189a03b2e8fc56","2813.279999885708","","","","39","","","","key","18.311301435406655","764","353","true","1","180","30","0","-1","","","","","","","","","","","","","",""
"psychophysics","7","115882","0.0-6.0-0.1","6071c813aa80712d47f34f03","609006691f6f4e337c17f836","609a612458189a03b2e8fc56","54.33499999344349","","","","39","","","","key","16.635873015872978","764","353","true","1","180","30","0","-1","-1","","","","","","","","","","","","",""
"psychophysics","8","117313","0.0-6.0-0.2","6071c813aa80712d47f34f03","609006691f6f4e337c17f836","609a612458189a03b2e8fc56","423.22500003501773","","","","37","","","","key","16.641635294117698","764","353","true","-1","150","30","0","-1","-1","","","","","","","","","","","","",""
"psychophysics","9","118758","0.0-6.0-0.3","6071c813aa80712d47f34f03","609006691f6f4e337c17f836","609a612458189a03b2e8fc56","438.74000012874603","","","","39","","","","key","16.637837209302404","764","353","true","1","150","30","0","-1","-1","","","","","","","","","","","","",""
"psychophysics","10","121549","0.0-6.0-0.4","6071c813aa80712d47f34f03","609006691f6f4e337c17f836","609a612458189a03b2e8fc56","1782.5700000394136","","","","39","","","","key","16.639658682634668","764","353","true","1","129","30","0","-1","-1","","","","","","","","","","","","",""
"psychophysics","11","123419","0.0-6.0-0.5","6071c813aa80712d47f34f03","609006691f6f4e337c17f836","609a612458189a03b2e8fc56","866.5100000798702","","","","37","","","","key","16.63712612612604","764","353","true","-1","129","30","0","-1","-1","","","","","","","","","","","","",""
"psychophysics","12","133217","0.0-6.0-0.6","6071c813aa80712d47f34f03","609006691f6f4e337c17f836","609a612458189a03b2e8fc56","8790.654999902472","","","","37","","","","key","16.63919047619047","764","353","true","-1","129","30","0","-1","-1","","","","","","","","","","","","",""
"psychophysics","13","135142","0.0-6.0-0.7","6071c813aa80712d47f34f03","609006691f6f4e337c17f836","609a612458189a03b2e8fc56","922.2349999472499","","","","39","","","","key","16.635017391304363","764","353","true","-1","129","24","1","1","-1","","","","","","","","","","","","",""
"psychophysics","14","136223","0.0-6.0-0.8","6071c813aa80712d47f34f03","609006691f6f4e337c17f836","609a612458189a03b2e8fc56","78.45499995164573","","","","39","","","","key","16.636380952381018","764","353","true","1","153","24","1","-1","1","","","","","","","","","","","","",""
"psychophysics","15","139949","0.0-6.0-0.9","6071c813aa80712d47f34f03","609006691f6f4e337c17f836","609a612458189a03b2e8fc56","2720.6699999514967","","","","39","","","","key","16.638044843049393","764","353","true","1","153","19.2","2","-1","-1","","","","","","","","","","","","",""
"psychophysics","16","145741","0.0-6.0-0.10","6071c813aa80712d47f34f03","609006691f6f4e337c17f836","609a612458189a03b2e8fc56","4775.450000073761","","","","37","","","","key","16.639265129683032","764","353","true","-1","133.8","19.2","2","-1","-1","","","","","","","","","","","","",""
"psychophysics","17","146939","0.0-6.0-0.11","6071c813aa80712d47f34f03","609006691f6f4e337c17f836","609a612458189a03b2e8fc56","195.1200000476092","","","","37","","","","key","16.639901408450562","764","353","true","-1","133.8","19.2","2","-1","-1","","","","","","","","","","","","",""
"psychophysics","18","152562","0.0-6.0-0.12","6071c813aa80712d47f34f03","609006691f6f4e337c17f836","609a612458189a03b2e8fc56","4617.5900001544505","","","","37","","","","key","16.6376350148368","764","353","true","1","129","15.36","3","1","-1","","","","","","","","","","","","",""
"psychophysics","19","153597","0.0-6.0-0.13","6071c813aa80712d47f34f03","609006691f6f4e337c17f836","609a612458189a03b2e8fc56","30.570000177249312","","","","39","","","","key","16.640032258064526","764","353","true","1","144.36","15.36","3","-1","1","","","","","","","","","","","","",""
"psychophysics","20","154730","0.0-6.0-0.14","6071c813aa80712d47f34f03","609006691f6f4e337c17f836","609a612458189a03b2e8fc56","131.39500003308058","","","","37","","","","key","16.63819402985061","764","353","true","-1","144.36","12.287999999999998","4","-1","-1","","","","","","","","","","","","",""
"psychophysics","21","155795","0.0-6.0-0.15","6071c813aa80712d47f34f03","609006691f6f4e337c17f836","609a612458189a03b2e8fc56","62.8500001039356","","","","39","","","","key","16.63842857142842","764","353","true","1","132.072","12.287999999999998","4","-1","-1","","","","","","","","","","","","",""
"psychophysics","22","157543","0.0-6.0-0.16","6071c813aa80712d47f34f03","609006691f6f4e337c17f836","609a612458189a03b2e8fc56","744.8399998247623","","","","37","","","","key","16.637980769230825","764","353","true","-1","132.072","12.287999999999998","4","-1","-1","","","","","","","","","","","","",""
"psychophysics","23","160068","0.0-6.0-0.17","6071c813aa80712d47f34f03","609006691f6f4e337c17f836","609a612458189a03b2e8fc56","1522.995000006631","","","","37","","","","key","16.63870666666655","764","353","true","-1","129","12.287999999999998","4","-1","-1","","","","","","","","","","","","",""
"psychophysics","24","161487","0.0-6.0-0.18","6071c813aa80712d47f34f03","609006691f6f4e337c17f836","609a612458189a03b2e8fc56","416.6050001513213","","","","37","","","","key","16.639799999999678","764","353","true","-1","129","12.287999999999998","4","-1","-1","","","","","","","","","","","","",""
"psychophysics","25","164118","0.0-6.0-0.19","6071c813aa80712d47f34f03","609006691f6f4e337c17f836","609a612458189a03b2e8fc56","1629.1750001255423","","","","39","","","","key","16.638738853503227","764","353","true","1","129","12.287999999999998","4","-1","-1","","","","","","","","","","","","",""
"psychophysics","26","166068","0.0-6.0-0.20","6071c813aa80712d47f34f03","609006691f6f4e337c17f836","609a612458189a03b2e8fc56","941.4600001182407","","","","37","","","","key","16.639491379310194","764","353","true","1","129","9.8304","5","1","-1","","","","","","","","","","","","",""
"psychophysics","27","167128","0.0-6.0-0.21","6071c813aa80712d47f34f03","609006691f6f4e337c17f836","609a612458189a03b2e8fc56","49.000000115484","","","","37","","","","key","16.635396825396807","764","353","true","-1","138.8304","9.8304","5","-1","1","","","","","","","","","","","","",""
"psychophysics","28","168190","0.0-6.0-0.22","6071c813aa80712d47f34f03","609006691f6f4e337c17f836","609a612458189a03b2e8fc56","59.2849999666214","","","","37","","","","key","16.63898412698403","764","353","true","-1","138.8304","7.864319999999999","6","-1","-1","","","","","","","","","","","","",""
"psychophysics","29","170618","0.0-6.0-0.23","6071c813aa80712d47f34f03","609006691f6f4e337c17f836","609a612458189a03b2e8fc56","1425.4149999469519","","","","39","","","","key","16.639402777777732","764","353","true","-1","130.96608","6.291456","7","1","-1","","","","","","","","","","","","",""
"psychophysics","30","173249","0.0-6.0-0.24","6071c813aa80712d47f34f03","609006691f6f4e337c17f836","609a612458189a03b2e8fc56","1628.8600000552833","","","","37","","","","key","16.637765822784765","764","353","true","-1","137.25753600000002","6.291456","7","-1","1","","","","","","","","","","","","",""
"psychophysics","31","176228","0.0-6.0-0.25","6071c813aa80712d47f34f03","609006691f6f4e337c17f836","609a612458189a03b2e8fc56","1975.6599999964237","","","","39","","","","key","16.639477528089834","764","353","true","1","137.25753600000002","5.033164800000001","8","-1","-1","","","","","","","","","","","","",""
"psychophysics","32","177699","0.0-6.0-0.26","6071c813aa80712d47f34f03","609006691f6f4e337c17f836","609a612458189a03b2e8fc56","468.02500006742775","","","","39","","","","key","16.63875862068949","764","353","true","-1","132.2243712","4.0265318400000005","9","1","-1","","","","","","","","","","","","",""
"psychophysics","33","178955","0.0-6.0-0.27","6071c813aa80712d47f34f03","609006691f6f4e337c17f836","609a612458189a03b2e8fc56","249.69500000588596","","","","37","","","","key","16.639405405405686","764","353","true","-1","136.25090304","4.0265318400000005","9","-1","1","","","","","","","","","","","","",""
"psychophysics","34","180121","0.0-6.0-0.28","6071c813aa80712d47f34f03","609006691f6f4e337c17f836","609a612458189a03b2e8fc56","163.084999890998","","","","37","","","","key","16.626800000000262","764","353","true","-1","136.25090304","3.2212254720000004","10","-1","-1","","","","","","","","","","","","",""
"psychophysics","35","181270","0.0-6.0-0.29","6071c813aa80712d47f34f03","609006691f6f4e337c17f836","609a612458189a03b2e8fc56","144.3849999923259","","","","39","","","","key","16.636617647058944","764","353","true","1","133.029677568","3.2212254720000004","10","-1","-1","","","","","","","","","","","","",""
"psychophysics","36","183180","0.0-6.0-0.30","6071c813aa80712d47f34f03","609006691f6f4e337c17f836","609a612458189a03b2e8fc56","907.2050000540912","","","","37","","","","key","16.638123893805375","764","353","true","-1","133.029677568","3.2212254720000004","10","-1","-1","","","","","","","","","","","","",""
"psychophysics","37","185792","0.0-6.0-0.31","6071c813aa80712d47f34f03","609006691f6f4e337c17f836","609a612458189a03b2e8fc56","1608.8349998462945","","","","39","","","","key","16.639955128205212","764","353","true","1","129.808452096","3.2212254720000004","10","-1","-1","","","","","","","","","","","","",""
"psychophysics","38","188257","0.0-6.0-0.32","6071c813aa80712d47f34f03","609006691f6f4e337c17f836","609a612458189a03b2e8fc56","1457.4250001460314","","","","39","","","","key","16.752513698630125","764","353","true","-1","129.808452096","2.5769803776000004","11","1","-1","","","","","","","","","","","","",""
"psychophysics","39","189939","0.0-6.0-0.33","6071c813aa80712d47f34f03","609006691f6f4e337c17f836","609a612458189a03b2e8fc56","669.7849999181926","","","","39","","","","key","16.63464356435631","764","353","true","1","132.3854324736","2.5769803776000004","11","-1","1","","","","","","","","","","","","",""
"psychophysics","40","193765","0.0-6.0-0.34","6071c813aa80712d47f34f03","609006691f6f4e337c17f836","609a612458189a03b2e8fc56","2822.1050000283867","","","","39","","","","key","16.639114035087818","764","353","true","1","132.3854324736","2.0615843020800004","12","-1","-1","","","","","","","","","","","","",""
"psychophysics","41","195675","0.0-6.0-0.35","6071c813aa80712d47f34f03","609006691f6f4e337c17f836","609a612458189a03b2e8fc56","904.3300000485033","","","","39","","","","key","16.639780701754365","764","353","true","1","130.32384817151998","2.0615843020800004","12","-1","-1","","","","","","","","","","","","",""
"psychophysics","42","197101","0.0-6.0-0.36","6071c813aa80712d47f34f03","609006691f6f4e337c17f836","609a612458189a03b2e8fc56","407.59499999694526","","","","37","","","","key","16.835214285714237","764","353","true","1","130.32384817151998","1.6492674416640005","13","1","-1","","","","","","","","","","","","",""
"psychophysics","43","198176","0.0-6.0-0.37","6071c813aa80712d47f34f03","609006691f6f4e337c17f836","609a612458189a03b2e8fc56","73.37499991990626","","","","39","","","","key","16.641281249999793","764","353","true","1","131.97311561318398","1.6492674416640005","13","-1","1","","","","","","","","","","","","",""
"psychophysics","44","200887","0.0-6.0-0.38","6071c813aa80712d47f34f03","609006691f6f4e337c17f836","609a612458189a03b2e8fc56","1703.5700001288205","","","","39","","","","key","16.639333333333425","764","353","true","-1","131.97311561318398","1.3194139533312006","14","1","-1","","","","","","","","","","","","",""
"psychophysics","45","202268","0.0-6.0-0.39","6071c813aa80712d47f34f03","609006691f6f4e337c17f836","609a612458189a03b2e8fc56","371.6799998655915","","","","39","","","","key","16.63846341463405","764","353","true","1","133.29252956651519","1.3194139533312006","14","-1","1","","","","","","","","","","","","",""
"html-keyboard-response","46","306250","0.0-7.0","6071c813aa80712d47f34f03","609006691f6f4e337c17f836","609a612458189a03b2e8fc56","103978.86999999173","<p>Well Done !</p><p>Prepare for a new block.</p><p>DON'T EXIT THE FULL SCREEN MODE</p><p>Press the Spacebar to start.</p>","","","32","","","","","","","","","","","","","","","true","132.6878196460749","","","","","","","","","","",""
"psychophysics","47","308473","0.0-8.0-0.0","6071c813aa80712d47f34f03","609006691f6f4e337c17f836","609a612458189a03b2e8fc56","1212.80000009574","","","","39","","","","key","16.698578947368148","764","353","true","1","180","30","0","-1","","","","","","","","","","","","","",""
"psychophysics","48","312714","0.0-8.0-0.1","6071c813aa80712d47f34f03","609006691f6f4e337c17f836","609a612458189a03b2e8fc56","3232.670000055805","","","","39","","","","key","17.111388663967517","764","353","true","-1","180","30","0","1","-1","","","","","","","","","","","","",""
"psychophysics","49","314689","0.0-8.0-0.2","6071c813aa80712d47f34f03","609006691f6f4e337c17f836","609a612458189a03b2e8fc56","958.9249999262393","","","","37","","","","key","16.778726495726286","764","353","true","-1","210","30","0","-1","1","","","","","","","","","","","","",""
"psychophysics","50","316123","0.0-8.0-0.3","6071c813aa80712d47f34f03","609006691f6f4e337c17f836","609a612458189a03b2e8fc56","428.63500001840293","","","","37","","","","key","16.638470588235514","764","353","true","-1","210","24","1","-1","-1","","","","","","","","","","","","",""
"psychophysics","51","317209","0.0-8.0-0.4","6071c813aa80712d47f34f03","609006691f6f4e337c17f836","609a612458189a03b2e8fc56","81.58500003628433","","","","39","","","","key","17.457655737705178","764","353","true","1","186","24","1","-1","-1","","","","","","","","","","","","",""
"psychophysics","52","318453","0.0-8.0-0.5","6071c813aa80712d47f34f03","609006691f6f4e337c17f836","609a612458189a03b2e8fc56","185.2499998640269","","","","39","","","","key","16.866863013698865","764","353","true","1","186","24","1","-1","-1","","","","","","","","","","","","",""
"psychophysics","53","319646","0.0-8.0-0.6","6071c813aa80712d47f34f03","609006691f6f4e337c17f836","609a612458189a03b2e8fc56","182.26000014692545","","","","39","","","","key","16.638929577464808","764","353","true","1","162","24","1","-1","-1","","","","","","","","","","","","",""
"psychophysics","54","320831","0.0-8.0-0.7","6071c813aa80712d47f34f03","609006691f6f4e337c17f836","609a612458189a03b2e8fc56","169.9650001246482","","","","37","","","","key","16.63940000000044","764","353","true","-1","162","24","1","-1","-1","","","","","","","","","","","","",""
"psychophysics","55","321959","0.0-8.0-0.8","6071c813aa80712d47f34f03","609006691f6f4e337c17f836","609a612458189a03b2e8fc56","116.18999997153878","","","","39","","","","key","16.63106060606096","764","353","true","1","138","24","1","-1","-1","","","","","","","","","","","","",""
"psychophysics","56","324515","0.0-8.0-0.9","6071c813aa80712d47f34f03","609006691f6f4e337c17f836","609a612458189a03b2e8fc56","1524.8700000811368","","","","39","","","","key","16.64003921568613","764","353","true","1","138","24","1","-1","-1","","","","","","","","","","","","",""
"psychophysics","57","326851","0.0-8.0-0.10","6071c813aa80712d47f34f03","609006691f6f4e337c17f836","609a612458189a03b2e8fc56","1329.365000128746","","","","39","","","","key","16.759231884058217","764","353","true","-1","129","19.2","2","1","-1","","","","","","","","","","","","",""
"psychophysics","58","328002","0.0-8.0-0.11","6071c813aa80712d47f34f03","609006691f6f4e337c17f836","609a612458189a03b2e8fc56","147.79000007547438","","","","39","","","","key","16.64020289855071","764","353","true","1","148.2","19.2","2","-1","1","","","","","","","","","","","","",""
"psychophysics","59","329017","0.0-8.0-0.12","6071c813aa80712d47f34f03","609006691f6f4e337c17f836","609a612458189a03b2e8fc56","2.360000042244792","","","","39","","","","key","17.510929824561778","764","353","true","1","148.2","15.36","3","-1","-1","","","","","","","","","","","","",""
"psychophysics","60","330412","0.0-8.0-0.13","6071c813aa80712d47f34f03","609006691f6f4e337c17f836","609a612458189a03b2e8fc56","380.2900000009686","","","","39","","","","key","16.638951219512553","764","353","true","-1","132.83999999999997","12.287999999999998","4","1","-1","","","","","","","","","","","","",""
"psychophysics","61","334076","0.0-8.0-0.14","6071c813aa80712d47f34f03","609006691f6f4e337c17f836","609a612458189a03b2e8fc56","2652.9599998611957","","","","39","","","","key","16.63975909090897","764","353","true","1","145.128","12.287999999999998","4","-1","1","","","","","","","","","","","","",""
"psychophysics","62","335523","0.0-8.0-0.15","6071c813aa80712d47f34f03","609006691f6f4e337c17f836","609a612458189a03b2e8fc56","443.8799999188632","","","","37","","","","key","19.33455405405383","764","353","true","-1","145.128","9.8304","5","-1","-1","","","","","","","","","","","","",""
"psychophysics","63","336954","0.0-8.0-0.16","6071c813aa80712d47f34f03","609006691f6f4e337c17f836","609a612458189a03b2e8fc56","395.06500004790723","","","","37","","","","key","16.63757647058776","764","353","true","-1","135.2976","9.8304","5","-1","-1","","","","","","","","","","","","",""
"psychophysics","64","338355","0.0-8.0-0.17","6071c813aa80712d47f34f03","609006691f6f4e337c17f836","609a612458189a03b2e8fc56","397.740000160411","","","","37","","","","key","16.637626506023512","764","353","true","-1","135.2976","9.8304","5","-1","-1","","","","","","","","","","","","",""
"psychophysics","65","340312","0.0-8.0-0.18","6071c813aa80712d47f34f03","609006691f6f4e337c17f836","609a612458189a03b2e8fc56","954.4800000730902","","","","37","","","","key","16.63842241379286","764","353","true","1","129","7.864319999999999","6","1","-1","","","","","","","","","","","","",""
"psychophysics","66","341414","0.0-8.0-0.19","6071c813aa80712d47f34f03","609006691f6f4e337c17f836","609a612458189a03b2e8fc56","85.71000001393259","","","","39","","","","key","16.6396212121216","764","353","true","1","136.86432","7.864319999999999","6","-1","1","","","","","","","","","","","","",""
"psychophysics","67","342770","0.0-8.0-0.20","6071c813aa80712d47f34f03","609006691f6f4e337c17f836","609a612458189a03b2e8fc56","353.194999974221","","","","37","","","","key","16.849329113924163","764","353","true","-1","136.86432","6.291456","7","-1","-1","","","","","","","","","","","","",""
"psychophysics","68","345362","0.0-8.0-0.21","6071c813aa80712d47f34f03","609006691f6f4e337c17f836","609a612458189a03b2e8fc56","1588.4400000795722","","","","39","","","","key","16.63867741935481","764","353","true","-1","130.57286399999998","5.033164800000001","8","1","-1","","","","","","","","","","","","",""
"psychophysics","69","346541","0.0-8.0-0.22","6071c813aa80712d47f34f03","609006691f6f4e337c17f836","609a612458189a03b2e8fc56","175.53999996744096","","","","37","","","","key","16.635085714285793","764","353","true","-1","135.6060288","5.033164800000001","8","-1","1","","","","","","","","","","","","",""
"psychophysics","70","347806","0.0-8.0-0.23","6071c813aa80712d47f34f03","609006691f6f4e337c17f836","609a612458189a03b2e8fc56","254.67499997466803","","","","39","","","","key","16.637693333333203","764","353","true","1","135.6060288","4.0265318400000005","9","-1","-1","","","","","","","","","","","","",""
"psychophysics","71","350946","0.0-8.0-0.24","6071c813aa80712d47f34f03","609006691f6f4e337c17f836","609a612458189a03b2e8fc56","2132.350000087172","","","","37","","","","key","16.642781914893582","764","353","true","-1","131.57949696","4.0265318400000005","9","-1","-1","","","","","","","","","","","","",""
"psychophysics","72","353003","0.0-8.0-0.25","6071c813aa80712d47f34f03","609006691f6f4e337c17f836","609a612458189a03b2e8fc56","1046.220000134781","","","","37","","","","key","16.640098360655774","764","353","true","-1","131.57949696","4.0265318400000005","9","-1","-1","","","","","","","","","","","","",""
"psychophysics","73","354587","0.0-8.0-0.26","6071c813aa80712d47f34f03","609006691f6f4e337c17f836","609a612458189a03b2e8fc56","568.8099998515099","","","","39","","","","key","16.639882978723765","764","353","true","1","129","4.0265318400000005","9","-1","-1","","","","","","","","","","","","",""
"psychophysics","74","355941","0.0-8.0-0.27","6071c813aa80712d47f34f03","609006691f6f4e337c17f836","609a612458189a03b2e8fc56","336.90500003285706","","","","37","","","","key","16.637271604938345","764","353","true","1","129","3.2212254720000004","10","1","-1","","","","","","","","","","","","",""
"psychophysics","75","358044","0.0-8.0-0.28","6071c813aa80712d47f34f03","609006691f6f4e337c17f836","609a612458189a03b2e8fc56","1090.6499999109656","","","","37","","","","key","16.637351999999954","764","353","true","-1","132.22122547200001","3.2212254720000004","10","-1","1","","","","","","","","","","","","",""
"psychophysics","76","359816","0.0-8.0-0.29","6071c813aa80712d47f34f03","609006691f6f4e337c17f836","609a612458189a03b2e8fc56","767.6800000481308","","","","37","","","","key","16.634254716980855","764","353","true","-1","132.22122547200001","2.5769803776000004","11","-1","-1","","","","","","","","","","","","",""
"psychophysics","77","363126","0.0-8.0-0.30","6071c813aa80712d47f34f03","609006691f6f4e337c17f836","609a612458189a03b2e8fc56","2306.7850000225008","","","","37","","","","key","16.638588832487436","764","353","true","1","129.64424509440002","2.0615843020800004","12","1","-1","","","","","","","","","","","","",""
"psychophysics","78","364615","0.0-8.0-0.31","6071c813aa80712d47f34f03","609006691f6f4e337c17f836","609a612458189a03b2e8fc56","478.48499985411763","","","","37","","","","key","16.63975280898903","764","353","true","1","131.70582939648003","2.0615843020800004","12","1","1","","","","","","","","","","","","",""
"psychophysics","79","365876","0.0-8.0-0.32","6071c813aa80712d47f34f03","609006691f6f4e337c17f836","609a612458189a03b2e8fc56","235.62499997206032","","","","37","","","","key","16.636720000000206","764","353","true","-1","133.76741369856003","2.0615843020800004","12","-1","1","","","","","","","","","","","","",""
"psychophysics","80","367321","0.0-8.0-0.33","6071c813aa80712d47f34f03","609006691f6f4e337c17f836","609a612458189a03b2e8fc56","440.0800000876188","","","","37","","","","key","16.636930232558285","764","353","true","-1","133.76741369856003","1.6492674416640005","13","-1","-1","","","","","","","","","","","","",""
"psychophysics","81","372084","0.0-8.0-0.34","6071c813aa80712d47f34f03","609006691f6f4e337c17f836","609a612458189a03b2e8fc56","3753.275000024587","","","","37","","","","key","16.638912280701845","764","353","true","1","132.11814625689604","1.3194139533312006","14","1","-1","","","","","","","","","","","","",""
"psychophysics","82","373501","0.0-8.0-0.35","6071c813aa80712d47f34f03","609006691f6f4e337c17f836","609a612458189a03b2e8fc56","410.8700000215322","","","","39","","","","key","16.630107142857188","764","353","true","1","133.43756021022725","1.3194139533312006","14","-1","1","","","","","","","","","","","","",""
"psychophysics","83","375983","0.0-8.0-0.36","6071c813aa80712d47f34f03","609006691f6f4e337c17f836","609a612458189a03b2e8fc56","1478.9650000166148","","","","37","","","","key","16.639648648648684","764","353","true","-1","133.43756021022725","1.0555311626649604","15","-1","-1","","","","","","","","","","","","",""
"psychophysics","84","377421","0.0-8.0-0.37","6071c813aa80712d47f34f03","609006691f6f4e337c17f836","609a612458189a03b2e8fc56","432.4299998115748","","","","39","","","","key","16.63680232558156","764","353","true","1","132.3820290475623","1.0555311626649604","15","-1","-1","","","","","","","","","","","","",""
"psychophysics","85","379385","0.0-8.0-0.38","6071c813aa80712d47f34f03","609006691f6f4e337c17f836","609a612458189a03b2e8fc56","960.844999877736","","","","39","","","","key","16.639333333333052","764","353","true","-1","132.3820290475623","1","16","1","-1","","","","","","","","","","","","",""
"psychophysics","86","380933","0.0-8.0-0.39","6071c813aa80712d47f34f03","609006691f6f4e337c17f836","609a612458189a03b2e8fc56","545.4499998595566","","","","39","","","","key","16.63660869565185","764","353","true","1","133.3820290475623","1","16","-1","1","","","","","","","","","","","","",""
"html-keyboard-response","87","382897","0.0-9.0","6071c813aa80712d47f34f03","609006691f6f4e337c17f836","609a612458189a03b2e8fc56","1962.2349999845028","<p>Well Done !</p><p>Prepare for a new block.</p><p>DON'T EXIT THE FULL SCREEN MODE</p><p>Press the Spacebar to start.</p>","","","32","","","","","","","","","","","","","","","true","132.00308024080252","","","","","","","","","","",""
"psychophysics","88","384477","0.0-10.0-0.0","6071c813aa80712d47f34f03","609006691f6f4e337c17f836","609a612458189a03b2e8fc56","575.9749999269843","","","","39","","","","key","16.612210526316133","764","353","true","1","180","30","0","-1","","","","","","","","","","","","","",""
"psychophysics","89","385905","0.0-10.0-0.1","6071c813aa80712d47f34f03","609006691f6f4e337c17f836","609a612458189a03b2e8fc56","425.07999995723367","","","","39","","","","key","16.641423529411856","764","353","true","1","180","30","0","-1","-1","","","","","","","","","","","","",""
"psychophysics","90","387272","0.0-10.0-0.2","6071c813aa80712d47f34f03","609006691f6f4e337c17f836","609a612458189a03b2e8fc56","363.12999995425344","","","","37","","","","key","16.637518518518103","764","353","true","-1","150","30","0","-1","-1","","","","","","","","","","","","",""
"psychophysics","91","388652","0.0-10.0-0.3","6071c813aa80712d47f34f03","609006691f6f4e337c17f836","609a612458189a03b2e8fc56","375.7350000087172","","","","39","","","","key","16.637585365853738","764","353","true","1","150","30","0","-1","-1","","","","","","","","","","","","",""
"psychophysics","92","390150","0.0-10.0-0.4","6071c813aa80712d47f34f03","609006691f6f4e337c17f836","609a612458189a03b2e8fc56","494.79499994777143","","","","39","","","","key","16.637123595505923","764","353","true","-1","129","24","1","1","-1","","","","","","","","","","","","",""
"psychophysics","93","391660","0.0-10.0-0.5","6071c813aa80712d47f34f03","609006691f6f4e337c17f836","609a612458189a03b2e8fc56","507.4100000783801","","","","39","","","","key","16.637842696629008","764","353","true","1","153","24","1","-1","1","","","","","","","","","","","","",""
"psychophysics","94","392998","0.0-10.0-0.6","6071c813aa80712d47f34f03","609006691f6f4e337c17f836","609a612458189a03b2e8fc56","335.92000021599233","","","","37","","","","key","16.637024999999994","764","353","true","-1","153","19.2","2","-1","-1","","","","","","","","","","","","",""
"psychophysics","95","394231","0.0-10.0-0.7","6071c813aa80712d47f34f03","609006691f6f4e337c17f836","609a612458189a03b2e8fc56","231.82499990798533","","","","39","","","","key","16.637410958904347","764","353","true","1","133.8","19.2","2","-1","-1","","","","","","","","","","","","",""
"psychophysics","96","395430","0.0-10.0-0.8","6071c813aa80712d47f34f03","609006691f6f4e337c17f836","609a612458189a03b2e8fc56","195.7149999216199","","","","39","","","","key","16.875314285714246","764","353","true","1","133.8","19.2","2","-1","-1","","","","","","","","","","","","",""
"psychophysics","97","397237","0.0-10.0-0.9","6071c813aa80712d47f34f03","609006691f6f4e337c17f836","609a612458189a03b2e8fc56","805.0999999977648","","","","39","","","","key","16.638990654205365","764","353","true","-1","129","15.36","3","1","-1","","","","","","","","","","","","",""
"psychophysics","98","398590","0.0-10.0-0.10","6071c813aa80712d47f34f03","609006691f6f4e337c17f836","609a612458189a03b2e8fc56","350.1399999950081","","","","39","","","","key","16.632938271605433","764","353","true","1","144.36","15.36","3","-1","1","","","","","","","","","","","","",""
"psychophysics","99","399889","0.0-10.0-0.11","6071c813aa80712d47f34f03","609006691f6f4e337c17f836","609a612458189a03b2e8fc56","295.7200000528246","","","","37","","","","key","16.64044155844173","764","353","true","-1","144.36","12.287999999999998","4","-1","-1","","","","","","","","","","","","",""
"psychophysics","100","401267","0.0-10.0-0.12","6071c813aa80712d47f34f03","609006691f6f4e337c17f836","609a612458189a03b2e8fc56","375.55500003509223","","","","39","","","","key","16.63739024390248","764","353","true","1","132.072","12.287999999999998","4","-1","-1","","","","","","","","","","","","",""
"psychophysics","101","403510","0.0-10.0-0.13","6071c813aa80712d47f34f03","609006691f6f4e337c17f836","609a612458189a03b2e8fc56","1240.4499999247491","","","","39","","","","key","16.63859398496255","764","353","true","-1","132.072","9.8304","5","1","-1","","","","","","","","","","","","",""
"psychophysics","102","405108","0.0-10.0-0.14","6071c813aa80712d47f34f03","609006691f6f4e337c17f836","609a612458189a03b2e8fc56","594.9349999427795","","","","37","","","","key","16.632999999999484","764","353","true","-1","141.9024","9.8304","5","-1","1","","","","","","","","","","","","",""
"psychophysics","103","406678","0.0-10.0-0.15","6071c813aa80712d47f34f03","609006691f6f4e337c17f836","609a612458189a03b2e8fc56","567.3900002148002","","","","39","","","","key","16.642829787233804","764","353","true","1","141.9024","7.864319999999999","6","-1","-1","","","","","","","","","","","","",""
"psychophysics","104","408028","0.0-10.0-0.16","6071c813aa80712d47f34f03","609006691f6f4e337c17f836","609a612458189a03b2e8fc56","346.78500005975366","","","","37","","","","key","16.636650000000373","764","353","true","-1","134.03808","7.864319999999999","6","-1","-1","","","","","","","","","","","","",""
"psychophysics","105","409384","0.0-10.0-0.17","6071c813aa80712d47f34f03","609006691f6f4e337c17f836","609a612458189a03b2e8fc56","348.9849998150021","","","","39","","","","key","16.637349999999422","764","353","true","1","134.03808","7.864319999999999","6","-1","-1","","","","","","","","","","","","",""
"psychophysics","106","410799","0.0-10.0-0.18","6071c813aa80712d47f34f03","609006691f6f4e337c17f836","609a612458189a03b2e8fc56","412.4799999408424","","","","39","","","","key","16.64026190476198","764","353","true","1","129","7.864319999999999","6","-1","-1","","","","","","","","","","","","",""
"psychophysics","107","413002","0.0-10.0-0.19","6071c813aa80712d47f34f03","609006691f6f4e337c17f836","609a612458189a03b2e8fc56","1201.1700000148267","","","","37","","","","key","16.63984090909115","764","353","true","1","129","6.291456","7","1","-1","","","","","","","","","","","","",""
"psychophysics","108","414364","0.0-10.0-0.20","6071c813aa80712d47f34f03","609006691f6f4e337c17f836","609a612458189a03b2e8fc56","353.91000006347895","","","","37","","","","key","16.638197530864417","764","353","true","-1","135.291456","6.291456","7","-1","1","","","","","","","","","","","","",""
"psychophysics","109","415743","0.0-10.0-0.21","6071c813aa80712d47f34f03","609006691f6f4e337c17f836","609a612458189a03b2e8fc56","376.39499991200864","","","","37","","","","key","16.64125609756149","764","353","true","-1","135.291456","5.033164800000001","8","-1","-1","","","","","","","","","","","","",""
"psychophysics","110","418444","0.0-10.0-0.22","6071c813aa80712d47f34f03","609006691f6f4e337c17f836","609a612458189a03b2e8fc56","1698.7349998671561","","","","39","","","","key","16.636900621117817","764","353","true","-1","130.2582912","4.0265318400000005","9","1","-1","","","","","","","","","","","","",""
"psychophysics","111","419852","0.0-10.0-0.23","6071c813aa80712d47f34f03","609006691f6f4e337c17f836","609a612458189a03b2e8fc56","399.6099999640137","","","","39","","","","key","16.639409638554174","764","353","true","1","134.28482304","4.0265318400000005","9","-1","1","","","","","","","","","","","","",""
"psychophysics","112","421226","0.0-10.0-0.24","6071c813aa80712d47f34f03","609006691f6f4e337c17f836","609a612458189a03b2e8fc56","371.62000010721385","","","","37","","","","key","16.639926829268138","764","353","true","-1","134.28482304","3.2212254720000004","10","-1","-1","","","","","","","","","","","","",""
"psychophysics","113","423605","0.0-10.0-0.25","6071c813aa80712d47f34f03","609006691f6f4e337c17f836","609a612458189a03b2e8fc56","1374.925000127405","","","","37","","","","key","16.639147887323674","764","353","true","-1","131.06359756799998","3.2212254720000004","10","-1","-1","","","","","","","","","","","","",""
"psychophysics","114","424976","0.0-10.0-0.26","6071c813aa80712d47f34f03","609006691f6f4e337c17f836","609a612458189a03b2e8fc56","364.58000005222857","","","","39","","","","key","16.639814814814958","764","353","true","1","131.06359756799998","3.2212254720000004","10","-1","-1","","","","","","","","","","","","",""
"psychophysics","115","426701","0.0-10.0-0.27","6071c813aa80712d47f34f03","609006691f6f4e337c17f836","609a612458189a03b2e8fc56","723.5550000332296","","","","37","","","","key","16.63801941747531","764","353","true","-1","129","3.2212254720000004","10","-1","-1","","","","","","","","","","","","",""
"psychophysics","116","428971","0.0-10.0-0.28","6071c813aa80712d47f34f03","609006691f6f4e337c17f836","609a612458189a03b2e8fc56","1262.7399999182671","","","","37","","","","key","16.637617647058505","764","353","true","-1","129","3.2212254720000004","10","-1","-1","","","","","","","","","","","","",""
"psychophysics","117","430427","0.0-10.0-0.29","6071c813aa80712d47f34f03","609006691f6f4e337c17f836","609a612458189a03b2e8fc56","454.76999995298684","","","","37","","","","key","16.637767441860444","764","353","true","1","129","2.5769803776000004","11","1","-1","","","","","","","","","","","","",""
"psychophysics","118","431938","0.0-10.0-0.30","6071c813aa80712d47f34f03","609006691f6f4e337c17f836","609a612458189a03b2e8fc56","506.31999992765486","","","","39","","","","key","16.63700000000018","764","353","true","1","131.5769803776","2.5769803776000004","11","-1","1","","","","","","","","","","","","",""
"psychophysics","119","433246","0.0-10.0-0.31","6071c813aa80712d47f34f03","609006691f6f4e337c17f836","609a612458189a03b2e8fc56","299.570000031963","","","","37","","","","key","16.636415584415783","764","353","true","-1","131.5769803776","2.0615843020800004","12","-1","-1","","","","","","","","","","","","",""
"psychophysics","120","434662","0.0-10.0-0.32","6071c813aa80712d47f34f03","609006691f6f4e337c17f836","609a612458189a03b2e8fc56","413.5799999348819","","","","39","","","","key","17.461999999999534","764","353","true","-1","129.51539607552","1.6492674416640005","13","1","-1","","","","","","","","","","","","",""
"psychophysics","121","436857","0.0-10.0-0.33","6071c813aa80712d47f34f03","609006691f6f4e337c17f836","609a612458189a03b2e8fc56","1192.4800002016127","","","","37","","","","key","16.63983846153804","764","353","true","1","131.16466351718398","1.6492674416640005","13","1","1","","","","","","","","","","","","",""
"psychophysics","122","438505","0.0-10.0-0.34","6071c813aa80712d47f34f03","609006691f6f4e337c17f836","609a612458189a03b2e8fc56","646.0800000932068","","","","37","","","","key","16.637397959183343","764","353","true","1","132.81393095884798","1.6492674416640005","13","1","1","","","","","","","","","","","","",""
"psychophysics","123","440518","0.0-10.0-0.35","6071c813aa80712d47f34f03","609006691f6f4e337c17f836","609a612458189a03b2e8fc56","1006.0199999716133","","","","37","","","","key","16.639941666666708","764","353","true","-1","134.46319840051197","1.6492674416640005","13","-1","1","","","","","","","","","","","","",""
"psychophysics","124","442014","0.0-10.0-0.36","6071c813aa80712d47f34f03","609006691f6f4e337c17f836","609a612458189a03b2e8fc56","491.0599999129772","","","","39","","","","key","16.636247191011115","764","353","true","1","134.46319840051197","1.3194139533312006","14","-1","-1","","","","","","","","","","","","",""
"psychophysics","125","443406","0.0-10.0-0.37","6071c813aa80712d47f34f03","609006691f6f4e337c17f836","609a612458189a03b2e8fc56","389.9300000630319","","","","37","","","","key","16.635963855421377","764","353","true","-1","133.14378444718076","1.3194139533312006","14","-1","-1","","","","","","","","","","","","",""
"psychophysics","126","444794","0.0-10.0-0.38","6071c813aa80712d47f34f03","609006691f6f4e337c17f836","609a612458189a03b2e8fc56","382.370000006631","","","","39","","","","key","16.63215853658536","764","353","true","1","133.14378444718076","1.3194139533312006","14","-1","-1","","","","","","","","","","","","",""
"psychophysics","127","446161","0.0-10.0-0.39","6071c813aa80712d47f34f03","609006691f6f4e337c17f836","609a612458189a03b2e8fc56","365.94499996863306","","","","39","","","","key","16.632073170731907","764","353","true","-1","131.82437049384956","1.0555311626649604","15","1","-1","","","","","","","","","","","","",""
"html-keyboard-response","128","447560","0.0-11.0","6071c813aa80712d47f34f03","609006691f6f4e337c17f836","609a612458189a03b2e8fc56","1396.7850001063198","<p>Well Done !</p><p>Prepare for a new block.</p><p>DON'T EXIT THE FULL SCREEN MODE</p><p>Press the Spacebar to start.</p>","","","32","","","","","","","","","","","","","","","true","131.52089884213245","","","","","","","","","","",""
"psychophysics","129","450823","0.0-12.0-0.0","6071c813aa80712d47f34f03","609006691f6f4e337c17f836","609a612458189a03b2e8fc56","2260.3050000034273","","","","39","","","","key","16.629959183673513","764","353","true","1","180","30","0","-1","","","","","","","","","","","","","",""
"psychophysics","130","451977","0.0-12.0-0.1","6071c813aa80712d47f34f03","609006691f6f4e337c17f836","609a612458189a03b2e8fc56","150.7149999961257","","","","37","","","","key","16.637485294118317","764","353","true","-1","180","30","0","-1","-1","","","","","","","","","","","","",""
"psychophysics","131","453367","0.0-12.0-0.2","6071c813aa80712d47f34f03","609006691f6f4e337c17f836","609a612458189a03b2e8fc56","384.2350000049919","","","","37","","","","key","16.635903614457465","764","353","true","-1","150","30","0","-1","-1","","","","","","","","","","","","",""
"psychophysics","132","454783","0.0-12.0-0.3","6071c813aa80712d47f34f03","609006691f6f4e337c17f836","609a612458189a03b2e8fc56","414.2799999099225","","","","39","","","","key","16.63874999999964","764","353","true","1","150","30","0","-1","-1","","","","","","","","","","","","",""
"psychophysics","133","456294","0.0-12.0-0.4","6071c813aa80712d47f34f03","609006691f6f4e337c17f836","609a612458189a03b2e8fc56","508.0800000578165","","","","37","","","","key","16.637988888888827","764","353","true","-1","129","30","0","-1","-1","","","","","","","","","","","","",""
"psychophysics","134","458384","0.0-12.0-0.5","6071c813aa80712d47f34f03","609006691f6f4e337c17f836","609a612458189a03b2e8fc56","1087.2599999420345","","","","39","","","","key","16.637814516128856","764","353","true","-1","129","24","1","1","-1","","","","","","","","","","","","",""
"psychophysics","135","459750","0.0-12.0-0.6","6071c813aa80712d47f34f03","609006691f6f4e337c17f836","609a612458189a03b2e8fc56","361.2150000408292","","","","37","","","","key","16.637567901235062","764","353","true","-1","153","24","1","-1","1","","","","","","","","","","","","",""
"psychophysics","136","461134","0.0-12.0-0.7","6071c813aa80712d47f34f03","609006691f6f4e337c17f836","609a612458189a03b2e8fc56","380.20500005222857","","","","39","","","","key","16.630397590361845","764","353","true","1","153","19.2","2","-1","-1","","","","","","","","","","","","",""
"psychophysics","137","462531","0.0-12.0-0.8","6071c813aa80712d47f34f03","609006691f6f4e337c17f836","609a612458189a03b2e8fc56","394.33999988250434","","","","37","","","","key","16.64503614457832","764","353","true","-1","133.8","19.2","2","-1","-1","","","","","","","","","","","","",""
"psychophysics","138","463894","0.0-12.0-0.9","6071c813aa80712d47f34f03","609006691f6f4e337c17f836","609a612458189a03b2e8fc56","358.80000004544854","","","","39","","","","key","16.64282499999972","764","353","true","1","133.8","19.2","2","-1","-1","","","","","","","","","","","","",""
"psychophysics","139","465638","0.0-12.0-0.10","6071c813aa80712d47f34f03","609006691f6f4e337c17f836","609a612458189a03b2e8fc56","741.7499998118728","","","","37","","","","key","16.63583653846189","764","353","true","1","129","15.36","3","1","-1","","","","","","","","","","","","",""
"psychophysics","140","467085","0.0-12.0-0.11","6071c813aa80712d47f34f03","609006691f6f4e337c17f836","609a612458189a03b2e8fc56","444.2099998705089","","","","39","","","","key","16.638988372092786","764","353","true","1","144.36","15.36","3","-1","1","","","","","","","","","","","","",""
"psychophysics","141","468671","0.0-12.0-0.12","6071c813aa80712d47f34f03","609006691f6f4e337c17f836","609a612458189a03b2e8fc56","582.8599999658763","","","","39","","","","key","16.6367157894732","764","353","true","1","144.36","12.287999999999998","4","-1","-1","","","","","","","","","","","","",""
"psychophysics","142","470063","0.0-12.0-0.13","6071c813aa80712d47f34f03","609006691f6f4e337c17f836","609a612458189a03b2e8fc56","386.66999991983175","","","","39","","","","key","16.63698780487814","764","353","true","1","132.072","12.287999999999998","4","-1","-1","","","","","","","","","","","","",""
"psychophysics","143","472383","0.0-12.0-0.14","6071c813aa80712d47f34f03","609006691f6f4e337c17f836","609a612458189a03b2e8fc56","1317.879999987781","","","","39","","","","key","16.644597122302066","764","353","true","1","132.072","12.287999999999998","4","-1","-1","","","","","","","","","","","","",""
"psychophysics","144","474130","0.0-12.0-0.15","6071c813aa80712d47f34f03","609006691f6f4e337c17f836","609a612458189a03b2e8fc56","742.7050000987947","","","","37","","","","key","16.637874999999788","764","353","true","1","129","9.8304","5","1","-1","","","","","","","","","","","","",""
"psychophysics","145","475433","0.0-12.0-0.16","6071c813aa80712d47f34f03","609006691f6f4e337c17f836","609a612458189a03b2e8fc56","300.32999999821186","","","","37","","","","key","16.63846753246768","764","353","true","-1","138.8304","9.8304","5","-1","1","","","","","","","","","","","","",""
"psychophysics","146","476796","0.0-12.0-0.17","6071c813aa80712d47f34f03","609006691f6f4e337c17f836","609a612458189a03b2e8fc56","360.1799998432398","","","","37","","","","key","16.63686419753099","764","353","true","-1","138.8304","7.864319999999999","6","-1","-1","","","","","","","","","","","","",""
"psychophysics","147","478274","0.0-12.0-0.18","6071c813aa80712d47f34f03","609006691f6f4e337c17f836","609a612458189a03b2e8fc56","475.63000000081956","","","","37","","","","key","16.639295454545802","764","353","true","1","130.96608","6.291456","7","1","-1","","","","","","","","","","","","",""
"psychophysics","148","479596","0.0-12.0-0.19","6071c813aa80712d47f34f03","609006691f6f4e337c17f836","609a612458189a03b2e8fc56","318.35999991744757","","","","39","","","","key","16.640743589743625","764","353","true","1","137.25753600000002","6.291456","7","-1","1","","","","","","","","","","","","",""
"psychophysics","149","480987","0.0-12.0-0.20","6071c813aa80712d47f34f03","609006691f6f4e337c17f836","609a612458189a03b2e8fc56","388.02499999292195","","","","37","","","","key","16.633204819277598","764","353","true","-1","137.25753600000002","5.033164800000001","8","-1","-1","","","","","","","","","","","","",""
"psychophysics","150","482755","0.0-12.0-0.21","6071c813aa80712d47f34f03","609006691f6f4e337c17f836","609a612458189a03b2e8fc56","765.1100000366569","","","","37","","","","key","16.635133333333457","764","353","true","1","132.2243712","4.0265318400000005","9","1","-1","","","","","","","","","","","","",""
"psychophysics","151","484099","0.0-12.0-0.22","6071c813aa80712d47f34f03","609006691f6f4e337c17f836","609a612458189a03b2e8fc56","340.79000004567206","","","","37","","","","key","16.636650000000373","764","353","true","-1","136.25090304","4.0265318400000005","9","-1","1","","","","","","","","","","","","",""
"psychophysics","152","485580","0.0-12.0-0.23","6071c813aa80712d47f34f03","609006691f6f4e337c17f836","609a612458189a03b2e8fc56","477.6850000489503","","","","39","","","","key","16.638579545454625","764","353","true","1","136.25090304","3.2212254720000004","10","-1","-1","","","","","","","","","","","","",""
"psychophysics","153","487811","0.0-12.0-0.24","6071c813aa80712d47f34f03","609006691f6f4e337c17f836","609a612458189a03b2e8fc56","1227.7150000445545","","","","39","","","","key","16.639333333333276","764","353","true","-1","133.029677568","2.5769803776000004","11","1","-1","","","","","","","","","","","","",""
"psychophysics","154","489126","0.0-12.0-0.25","6071c813aa80712d47f34f03","609006691f6f4e337c17f836","609a612458189a03b2e8fc56","312.9799999296665","","","","39","","","","key","16.636797468354807","764","353","true","1","135.6066579456","2.5769803776000004","11","-1","1","","","","","","","","","","","","",""
"psychophysics","155","490456","0.0-12.0-0.26","6071c813aa80712d47f34f03","609006691f6f4e337c17f836","609a612458189a03b2e8fc56","326.04499999433756","","","","39","","","","key","16.637126582279016","764","353","true","1","135.6066579456","2.0615843020800004","12","-1","-1","","","","","","","","","","","","",""
"psychophysics","156","492324","0.0-12.0-0.27","6071c813aa80712d47f34f03","609006691f6f4e337c17f836","609a612458189a03b2e8fc56","853.6900000181049","","","","39","","","","key","17.259616822430267","764","353","true","1","133.54507364352","2.0615843020800004","12","-1","-1","","","","","","","","","","","","",""
"psychophysics","157","494254","0.0-12.0-0.28","6071c813aa80712d47f34f03","609006691f6f4e337c17f836","609a612458189a03b2e8fc56","920.769999967888","","","","37","","","","key","16.639608695652115","764","353","true","-1","133.54507364352","2.0615843020800004","12","-1","-1","","","","","","","","","","","","",""
"psychophysics","158","497481","0.0-12.0-0.29","6071c813aa80712d47f34f03","609006691f6f4e337c17f836","609a612458189a03b2e8fc56","2199.8850000090897","","","","37","","","","key","16.90185263157902","764","353","true","1","131.48348934144","1.6492674416640005","13","1","-1","","","","","","","","","","","","",""
"psychophysics","159","498672","0.0-12.0-0.30","6071c813aa80712d47f34f03","609006691f6f4e337c17f836","609a612458189a03b2e8fc56","186.0500001348555","","","","37","","","","key","16.63825714285735","764","353","true","-1","133.13275678310399","1.6492674416640005","13","-1","1","","","","","","","","","","","","",""
"psychophysics","160","500410","0.0-12.0-0.31","6071c813aa80712d47f34f03","609006691f6f4e337c17f836","609a612458189a03b2e8fc56","734.1799999121577","","","","39","","","","key","16.640932692307754","764","353","true","-1","133.13275678310399","1.3194139533312006","14","1","-1","","","","","","","","","","","","",""
"psychophysics","161","501726","0.0-12.0-0.32","6071c813aa80712d47f34f03","609006691f6f4e337c17f836","609a612458189a03b2e8fc56","309.29000000469387","","","","37","","","","key","16.639307692308183","764","353","true","-1","134.4521707364352","1.3194139533312006","14","-1","1","","","","","","","","","","","","",""
"psychophysics","162","503177","0.0-12.0-0.33","6071c813aa80712d47f34f03","609006691f6f4e337c17f836","609a612458189a03b2e8fc56","445.6149998586625","","","","37","","","","key","16.631593023255594","764","353","true","-1","134.4521707364352","1.0555311626649604","15","-1","-1","","","","","","","","","","","","",""
"psychophysics","163","504600","0.0-12.0-0.34","6071c813aa80712d47f34f03","609006691f6f4e337c17f836","609a612458189a03b2e8fc56","419.0549999475479","","","","37","","","","key","16.639635294117717","764","353","true","-1","133.39663957377024","1.0555311626649604","15","-1","-1","","","","","","","","","","","","",""
"psychophysics","164","506280","0.0-12.0-0.35","6071c813aa80712d47f34f03","609006691f6f4e337c17f836","609a612458189a03b2e8fc56","676.8750001210719","","","","37","","","","key","16.640149999999558","764","353","true","1","133.39663957377024","1","16","1","-1","","","","","","","","","","","","",""
"psychophysics","165","507578","0.0-12.0-0.36","6071c813aa80712d47f34f03","609006691f6f4e337c17f836","609a612458189a03b2e8fc56","286.8699999526143","","","","37","","","","key","16.638532467531917","764","353","true","-1","134.39663957377024","1","16","-1","1","","","","","","","","","","","","",""
"psychophysics","166","508978","0.0-12.0-0.37","6071c813aa80712d47f34f03","609006691f6f4e337c17f836","609a612458189a03b2e8fc56","389.035000000149","","","","37","","","","key","16.638783132530474","764","353","true","-1","134.39663957377024","1","17","-1","-1","","","","","","","","","","","","",""
"psychophysics","167","510712","0.0-12.0-0.38","6071c813aa80712d47f34f03","609006691f6f4e337c17f836","609a612458189a03b2e8fc56","726.035000057891","","","","37","","","","key","16.63857281553385","764","353","true","1","133.39663957377024","1","18","1","-1","","","","","","","","","","","","",""
"psychophysics","168","512089","0.0-12.0-0.39","6071c813aa80712d47f34f03","609006691f6f4e337c17f836","609a612458189a03b2e8fc56","372.0149998553097","","","","37","","","","key","16.63782926829299","764","353","true","-1","134.39663957377024","1","18","-1","1","","","","","","","","","","","","",""
"html-keyboard-response","169","562150","0.0-13.0","6071c813aa80712d47f34f03","609006691f6f4e337c17f836","609a612458189a03b2e8fc56","50058.00499999896","<p>Well Done !</p><p>Prepare for a new block.</p><p>DON'T EXIT THE FULL SCREEN MODE</p><p>Press the Spacebar to start.</p>","","","32","","","","","","","","","","","","","","","true","133.88910966675866","","","","","","","","","","",""
"html-keyboard-response","170","562257","0.0-14.0","6071c813aa80712d47f34f03","609006691f6f4e337c17f836","609a612458189a03b2e8fc56","null","","","","null","","","","","","","","","","","","","","","","","132.52522709894214","true","137.05045419788428","","","","","","","",""
"instructions","171","590544","0.0-15.0","6071c813aa80712d47f34f03","609006691f6f4e337c17f836","609a612458189a03b2e8fc56","28286.445000208914","","","","","","","[{""page_index"":0,""viewing_time"":4433.640000177547},{""page_index"":1,""viewing_time"":2793.9849998801947},{""page_index"":0,""viewing_time"":16241.970000090078},{""page_index"":1,""viewing_time"":1086.3250000402331},{""page_index"":2,""viewing_time"":3729.2400000151247}]","","","","","","","","","","","","","","","","","","","","","","","",""
"psychophysics","172","593564","0.0-16.0-0.0","6071c813aa80712d47f34f03","609006691f6f4e337c17f836","609a612458189a03b2e8fc56","null","","","","null","","","","key","16.590399999999985","764","353","","","","","","","","","","","","","","","","","","","",""
"psychophysics","173","594071","0.0-16.0-1.0","6071c813aa80712d47f34f03","609006691f6f4e337c17f836","609a612458189a03b2e8fc56","null","","","","null","","","","key","16.6463333333338","764","353","","","","","","","","","","","","","137","-1","3","false","","","",""
"psychophysics","174","597085","0.0-16.0-2.0","6071c813aa80712d47f34f03","609006691f6f4e337c17f836","609a612458189a03b2e8fc56","3011.89999980852","","","","90","","","","key","16.63955555555553","764","353","","","","","","","","","","","","","","","","","","","",""
"psychophysics","175","598087","0.0-16.0-0.1","6071c813aa80712d47f34f03","609006691f6f4e337c17f836","609a612458189a03b2e8fc56","null","","","","null","","","","key","16.640661016949135","764","353","","","","","","","","","","","","","","","","","","","",""
"psychophysics","176","598591","0.0-16.0-1.1","6071c813aa80712d47f34f03","609006691f6f4e337c17f836","609a612458189a03b2e8fc56","null","","","","null","","","","key","16.638999999998585","764","353","","","","","","","","","","","","","137","1","3","false","","","",""
"psychophysics","177","599089","0.0-16.0-2.1","6071c813aa80712d47f34f03","609006691f6f4e337c17f836","609a612458189a03b2e8fc56","491.6500002145767","","","","90","","","","key","16.64762068965376","764","353","","","","","","","","","","","","","","","","","","","",""
"psychophysics","178","600095","0.0-16.0-0.2","6071c813aa80712d47f34f03","609006691f6f4e337c17f836","609a612458189a03b2e8fc56","null","","","","null","","","","key","16.643616666668095","764","353","","","","","","","","","","","","","","","","","","","",""
"psychophysics","179","600597","0.0-16.0-1.2","6071c813aa80712d47f34f03","609006691f6f4e337c17f836","609a612458189a03b2e8fc56","null","","","","null","","","","key","16.64079310344773","764","353","","","","","","","","","","","","","137","1","2","false","","","",""
"psychophysics","180","601285","0.0-16.0-2.2","6071c813aa80712d47f34f03","609006691f6f4e337c17f836","609a612458189a03b2e8fc56","684.8600001540035","","","","90","","","","key","16.636075000002165","764","353","","","","","","","","","","","","","","","","","","","",""
"psychophysics","181","602291","0.0-16.0-0.3","6071c813aa80712d47f34f03","609006691f6f4e337c17f836","609a612458189a03b2e8fc56","null","","","","null","","","","key","16.637183333333816","764","353","","","","","","","","","","","","","","","","","","","",""
"psychophysics","182","602793","0.0-16.0-1.3","6071c813aa80712d47f34f03","609006691f6f4e337c17f836","609a612458189a03b2e8fc56","null","","","","null","","","","key","16.6443103448255","764","353","","","","","","","","","","","","","137","-1","4","false","","","",""
"psychophysics","183","603324","0.0-16.0-2.3","6071c813aa80712d47f34f03","609006691f6f4e337c17f836","609a612458189a03b2e8fc56","528.0899999197572","","","","90","","","","key","16.639903225808315","764","353","","","","","","","","","","","","","","","","","","","",""
"psychophysics","184","604327","0.0-16.0-0.4","6071c813aa80712d47f34f03","609006691f6f4e337c17f836","609a612458189a03b2e8fc56","null","","","","null","","","","key","16.642830508475","764","353","","","","","","","","","","","","","","","","","","","",""
"psychophysics","185","604829","0.0-16.0-1.4","6071c813aa80712d47f34f03","609006691f6f4e337c17f836","609a612458189a03b2e8fc56","null","","","","null","","","","key","16.638862068965583","764","353","","","","","","","","","","","","","137","-1","0","false","","","",""
"psychophysics","186","605419","0.0-16.0-2.4","6071c813aa80712d47f34f03","609006691f6f4e337c17f836","609a612458189a03b2e8fc56","587.1099999640137","","","","90","","","","key","16.639235294119263","764","353","","","","","","","","","","","","","","","","","","","",""
"psychophysics","187","606421","0.0-16.0-0.5","6071c813aa80712d47f34f03","609006691f6f4e337c17f836","609a612458189a03b2e8fc56","null","","","","null","","","","key","16.640399999999985","764","353","","","","","","","","","","","","","","","","","","","",""
"psychophysics","188","606923","0.0-16.0-1.5","6071c813aa80712d47f34f03","609006691f6f4e337c17f836","609a612458189a03b2e8fc56","null","","","","null","","","","key","16.639068965519105","764","353","","","","","","","","","","","","","137","1","0","false","","","",""
"psychophysics","189","607468","0.0-16.0-2.5","6071c813aa80712d47f34f03","609006691f6f4e337c17f836","609a612458189a03b2e8fc56","541.3450000341982","","","","90","","","","key","16.645156250000582","764","353","","","","","","","","","","","","","","","","","","","",""
"psychophysics","190","608470","0.0-16.0-0.6","6071c813aa80712d47f34f03","609006691f6f4e337c17f836","609a612458189a03b2e8fc56","null","","","","null","","","","key","16.63906779661143","764","353","","","","","","","","","","","","","","","","","","","",""
"psychophysics","191","608972","0.0-16.0-1.6","6071c813aa80712d47f34f03","609006691f6f4e337c17f836","609a612458189a03b2e8fc56","null","","","","null","","","","key","16.638965517242344","764","353","","","","","","","","","","","","","137","1","4","false","","","",""
"psychophysics","192","609381","0.0-16.0-2.6","6071c813aa80712d47f34f03","609006691f6f4e337c17f836","609a612458189a03b2e8fc56","406.99000004678965","","","","77","","","","key","16.6493750000033","764","353","","","","","","","","","","","","","","","","","","","",""
"psychophysics","193","610383","0.0-16.0-0.7","6071c813aa80712d47f34f03","609006691f6f4e337c17f836","609a612458189a03b2e8fc56","null","","","","null","","","","key","16.63898305084864","764","353","","","","","","","","","","","","","","","","","","","",""
"psychophysics","194","610885","0.0-16.0-1.7","6071c813aa80712d47f34f03","609006691f6f4e337c17f836","609a612458189a03b2e8fc56","null","","","","null","","","","key","16.63265517241209","764","353","","","","","","","","","","","","","137","-1","6","false","","","",""
"psychophysics","195","611300","0.0-16.0-2.7","6071c813aa80712d47f34f03","609006691f6f4e337c17f836","609a612458189a03b2e8fc56","411.7099998984486","","","","77","","","","key","16.65054166666717","764","353","","","","","","","","","","","","","","","","","","","",""
"psychophysics","196","612302","0.0-16.0-0.8","6071c813aa80712d47f34f03","609006691f6f4e337c17f836","609a612458189a03b2e8fc56","null","","","","null","","","","key","16.638610169492758","764","353","","","","","","","","","","","","","","","","","","","",""
"psychophysics","197","612808","0.0-16.0-1.8","6071c813aa80712d47f34f03","609006691f6f4e337c17f836","609a612458189a03b2e8fc56","null","","","","null","","","","key","16.643400000000838","764","353","","","","","","","","","","","","","137","1","6","false","","","",""
"psychophysics","198","613310","0.0-16.0-2.8","6071c813aa80712d47f34f03","609006691f6f4e337c17f836","609a612458189a03b2e8fc56","499.49499987997115","","","","77","","","","key","16.621965517241765","764","353","","","","","","","","","","","","","","","","","","","",""
"psychophysics","199","614311","0.0-16.0-0.9","6071c813aa80712d47f34f03","609006691f6f4e337c17f836","609a612458189a03b2e8fc56","null","","","","null","","","","key","16.635881355932078","764","353","","","","","","","","","","","","","","","","","","","",""
"psychophysics","200","614814","0.0-16.0-1.9","6071c813aa80712d47f34f03","609006691f6f4e337c17f836","609a612458189a03b2e8fc56","null","","","","null","","","","key","16.63896551723833","764","353","","","","","","","","","","","","","137","-1","2","false","","","",""
"psychophysics","201","615238","0.0-16.0-2.9","6071c813aa80712d47f34f03","609006691f6f4e337c17f836","609a612458189a03b2e8fc56","416.72999993897974","","","","90","","","","key","16.639920000000856","764","353","","","","","","","","","","","","","","","","","","","",""
"psychophysics","202","616240","0.0-16.0-0.10","6071c813aa80712d47f34f03","609006691f6f4e337c17f836","609a612458189a03b2e8fc56","null","","","","null","","","","key","16.931999999999697","764","353","","","","","","","","","","","","","","","","","","","",""
"psychophysics","203","616744","0.0-16.0-1.10","6071c813aa80712d47f34f03","609006691f6f4e337c17f836","609a612458189a03b2e8fc56","null","","","","null","","","","key","16.647344827587748","764","353","","","","","","","","","","","","","137","-1","5","false","","","",""
"psychophysics","204","617069","0.0-16.0-2.10","6071c813aa80712d47f34f03","609006691f6f4e337c17f836","609a612458189a03b2e8fc56","316.0149999894202","","","","90","","","","key","16.6369473684187","764","353","","","","","","","","","","","","","","","","","","","",""
"psychophysics","205","618070","0.0-16.0-0.11","6071c813aa80712d47f34f03","609006691f6f4e337c17f836","609a612458189a03b2e8fc56","null","","","","null","","","","key","16.643118644068096","764","353","","","","","","","","","","","","","","","","","","","",""
"psychophysics","206","618573","0.0-16.0-1.11","6071c813aa80712d47f34f03","609006691f6f4e337c17f836","609a612458189a03b2e8fc56","null","","","","null","","","","key","16.639344827585116","764","353","","","","","","","","","","","","","137","1","5","false","","","",""
"psychophysics","207","618897","0.0-16.0-2.11","6071c813aa80712d47f34f03","609006691f6f4e337c17f836","609a612458189a03b2e8fc56","320.7799999509007","","","","77","","","","key","16.638944444447084","764","353","","","","","","","","","","","","","","","","","","","",""
"psychophysics","208","619899","0.0-16.0-0.12","6071c813aa80712d47f34f03","609006691f6f4e337c17f836","609a612458189a03b2e8fc56","null","","","","null","","","","key","16.64181666666603","764","353","","","","","","","","","","","","","","","","","","","",""
"psychophysics","209","620403","0.0-16.0-1.12","6071c813aa80712d47f34f03","609006691f6f4e337c17f836","609a612458189a03b2e8fc56","null","","","","null","","","","key","16.634344827584474","764","353","","","","","","","","","","","","","137","-1","5","false","","","",""
"psychophysics","210","620818","0.0-16.0-2.12","6071c813aa80712d47f34f03","609006691f6f4e337c17f836","609a612458189a03b2e8fc56","413.5600000154227","","","","77","","","","key","16.632958333332983","764","353","","","","","","","","","","","","","","","","","","","",""
"psychophysics","211","621820","0.0-16.0-0.13","6071c813aa80712d47f34f03","609006691f6f4e337c17f836","609a612458189a03b2e8fc56","null","","","","null","","","","key","16.638881355932504","764","353","","","","","","","","","","","","","","","","","","","",""
"psychophysics","212","622325","0.0-16.0-1.13","6071c813aa80712d47f34f03","609006691f6f4e337c17f836","609a612458189a03b2e8fc56","null","","","","null","","","","key","16.643599999998695","764","353","","","","","","","","","","","","","137","1","6","false","","","",""
"psychophysics","213","622593","0.0-16.0-2.13","6071c813aa80712d47f34f03","609006691f6f4e337c17f836","609a612458189a03b2e8fc56","264.9350001011044","","","","77","","","","key","16.640066666668282","764","353","","","","","","","","","","","","","","","","","","","",""
"psychophysics","214","623595","0.0-16.0-0.14","6071c813aa80712d47f34f03","609006691f6f4e337c17f836","609a612458189a03b2e8fc56","null","","","","null","","","","key","16.637355932204244","764","353","","","","","","","","","","","","","","","","","","","",""
"psychophysics","215","624099","0.0-16.0-1.14","6071c813aa80712d47f34f03","609006691f6f4e337c17f836","609a612458189a03b2e8fc56","null","","","","null","","","","key","16.64658620689819","764","353","","","","","","","","","","","","","137","1","5","false","","","",""
"psychophysics","216","624478","0.0-16.0-2.14","6071c813aa80712d47f34f03","609006691f6f4e337c17f836","609a612458189a03b2e8fc56","372.4549999460578","","","","77","","","","key","16.637590909090992","764","353","","","","","","","","","","","","","","","","","","","",""
"psychophysics","217","625481","0.0-16.0-0.15","6071c813aa80712d47f34f03","609006691f6f4e337c17f836","609a612458189a03b2e8fc56","null","","","","null","","","","key","16.641101694914465","764","353","","","","","","","","","","","","","","","","","","","",""
"psychophysics","218","625987","0.0-16.0-1.15","6071c813aa80712d47f34f03","609006691f6f4e337c17f836","609a612458189a03b2e8fc56","null","","","","null","","","","key","16.637466666668963","764","353","","","","","","","","","","","","","137","1","4","false","","","",""
"psychophysics","219","626300","0.0-16.0-2.15","6071c813aa80712d47f34f03","609006691f6f4e337c17f836","609a612458189a03b2e8fc56","309.6700001042336","","","","77","","","","key","16.654764705878573","764","353","","","","","","","","","","","","","","","","","","","",""
"psychophysics","220","627303","0.0-16.0-0.16","6071c813aa80712d47f34f03","609006691f6f4e337c17f836","609a612458189a03b2e8fc56","null","","","","null","","","","key","16.636349999999705","764","353","","","","","","","","","","","","","","","","","","","",""
"psychophysics","221","627806","0.0-16.0-1.16","6071c813aa80712d47f34f03","609006691f6f4e337c17f836","609a612458189a03b2e8fc56","null","","","","null","","","","key","16.641172413794518","764","353","","","","","","","","","","","","","137","1","0","false","","","",""
"psychophysics","222","627983","0.0-16.0-2.16","6071c813aa80712d47f34f03","609006691f6f4e337c17f836","609a612458189a03b2e8fc56","174.58499991334975","","","","77","","","","key","16.641399999998974","764","353","","","","","","","","","","","","","","","","","","","",""
"psychophysics","223","628986","0.0-16.0-0.17","6071c813aa80712d47f34f03","609006691f6f4e337c17f836","609a612458189a03b2e8fc56","null","","","","null","","","","key","16.63972881356041","764","353","","","","","","","","","","","","","","","","","","","",""
"psychophysics","224","629488","0.0-16.0-1.17","6071c813aa80712d47f34f03","609006691f6f4e337c17f836","609a612458189a03b2e8fc56","null","","","","null","","","","key","16.64006896551843","764","353","","","","","","","","","","","","","137","1","3","false","","","",""
"psychophysics","225","629715","0.0-16.0-2.17","6071c813aa80712d47f34f03","609006691f6f4e337c17f836","609a612458189a03b2e8fc56","223.58500002883375","","","","77","","","","key","16.640230769228836","764","353","","","","","","","","","","","","","","","","","","","",""
"psychophysics","226","630716","0.0-16.0-0.18","6071c813aa80712d47f34f03","609006691f6f4e337c17f836","609a612458189a03b2e8fc56","null","","","","null","","","","key","16.643779661017074","764","353","","","","","","","","","","","","","","","","","","","",""
"psychophysics","227","631219","0.0-16.0-1.18","6071c813aa80712d47f34f03","609006691f6f4e337c17f836","609a612458189a03b2e8fc56","null","","","","null","","","","key","16.64593103448138","764","353","","","","","","","","","","","","","137","-1","4","false","","","",""
"psychophysics","228","631864","0.0-16.0-2.18","6071c813aa80712d47f34f03","609006691f6f4e337c17f836","609a612458189a03b2e8fc56","641.9349999632686","","","","77","","","","key","16.63365789473449","764","353","","","","","","","","","","","","","","","","","","","",""
"psychophysics","229","632875","0.0-16.0-0.19","6071c813aa80712d47f34f03","609006691f6f4e337c17f836","609a612458189a03b2e8fc56","null","","","","null","","","","key","16.639966666665472","764","353","","","","","","","","","","","","","","","","","","","",""
"psychophysics","230","633380","0.0-16.0-1.19","6071c813aa80712d47f34f03","609006691f6f4e337c17f836","609a612458189a03b2e8fc56","null","","","","null","","","","key","16.63996551724167","764","353","","","","","","","","","","","","","137","1","2","false","","","",""
"psychophysics","231","633549","0.0-16.0-2.19","6071c813aa80712d47f34f03","609006691f6f4e337c17f836","609a612458189a03b2e8fc56","164.2549999523908","","","","77","","","","key","16.638999999992343","764","353","","","","","","","","","","","","","","","","","","","",""
"psychophysics","232","634553","0.0-16.0-0.20","6071c813aa80712d47f34f03","609006691f6f4e337c17f836","609a612458189a03b2e8fc56","null","","","","null","","","","key","16.64108474576309","764","353","","","","","","","","","","","","","","","","","","","",""
"psychophysics","233","635058","0.0-16.0-1.20","6071c813aa80712d47f34f03","609006691f6f4e337c17f836","609a612458189a03b2e8fc56","null","","","","null","","","","key","16.64033333333209","764","353","","","","","","","","","","","","","137","-1","2","false","","","",""
"psychophysics","234","635405","0.0-16.0-2.20","6071c813aa80712d47f34f03","609006691f6f4e337c17f836","609a612458189a03b2e8fc56","343.80499995313585","","","","90","","","","key","16.63969999999972","764","353","","","","","","","","","","","","","","","","","","","",""
"psychophysics","235","636410","0.0-16.0-0.21","6071c813aa80712d47f34f03","609006691f6f4e337c17f836","609a612458189a03b2e8fc56","null","","","","null","","","","key","16.639915254237366","764","353","","","","","","","","","","","","","","","","","","","",""
"psychophysics","236","636913","0.0-16.0-1.21","6071c813aa80712d47f34f03","609006691f6f4e337c17f836","609a612458189a03b2e8fc56","null","","","","null","","","","key","16.634275862071984","764","353","","","","","","","","","","","","","137","-1","6","false","","","",""
"psychophysics","237","637256","0.0-16.0-2.21","6071c813aa80712d47f34f03","609006691f6f4e337c17f836","609a612458189a03b2e8fc56","337.26499998010695","","","","77","","","","key","16.639899999997578","764","353","","","","","","","","","","","","","","","","","","","",""
"psychophysics","238","638260","0.0-16.0-0.22","6071c813aa80712d47f34f03","609006691f6f4e337c17f836","609a612458189a03b2e8fc56","null","","","","null","","","","key","16.643118644068096","764","353","","","","","","","","","","","","","","","","","","","",""
"psychophysics","239","638765","0.0-16.0-1.22","6071c813aa80712d47f34f03","609006691f6f4e337c17f836","609a612458189a03b2e8fc56","null","","","","null","","","","key","16.642699999998634","764","353","","","","","","","","","","","","","137","-1","3","false","","","",""
"psychophysics","240","638953","0.0-16.0-2.22","6071c813aa80712d47f34f03","609006691f6f4e337c17f836","609a612458189a03b2e8fc56","185.36000000312924","","","","77","","","","key","16.921100000001026","764","353","","","","","","","","","","","","","","","","","","","",""
"psychophysics","241","639960","0.0-16.0-0.23","6071c813aa80712d47f34f03","609006691f6f4e337c17f836","609a612458189a03b2e8fc56","null","","","","null","","","","key","16.643898305084587","764","353","","","","","","","","","","","","","","","","","","","",""
"psychophysics","242","640480","0.0-16.0-1.23","6071c813aa80712d47f34f03","609006691f6f4e337c17f836","609a612458189a03b2e8fc56","null","","","","null","","","","key","17.77786206896417","764","353","","","","","","","","","","","","","137","-1","0","false","","","",""
"psychophysics","243","642014","0.0-16.0-2.23","6071c813aa80712d47f34f03","609006691f6f4e337c17f836","609a612458189a03b2e8fc56","1531.1150001361966","","","","90","","","","key","16.64081318681333","764","353","","","","","","","","","","","","","","","","","","","",""
"html-keyboard-response","244","643349","0.0-17.0","6071c813aa80712d47f34f03","609006691f6f4e337c17f836","609a612458189a03b2e8fc56","1332.979999948293","<p>Well Done !</p><p>Training Complete. Press the spacebar to start.</p><p>DON'T EXIT THE FULL SCREEN MODE</p>","","","32","","","","","","","","","","","","","","","","","","","","","","","","","","",""
"psychophysics","245","646359","0.0-18.0-0.0","6071c813aa80712d47f34f03","609006691f6f4e337c17f836","609a612458189a03b2e8fc56","null","","","","null","","","","key","16.58969999999972","764","353","","","","","","","","","","","","","","","","","","","",""
"psychophysics","246","646863","0.0-18.0-1.0","6071c813aa80712d47f34f03","609006691f6f4e337c17f836","609a612458189a03b2e8fc56","null","","","","null","","","","key","16.640551724137964","764","353","","","","","","","","","","","","","137","1","5","true","","","",""
"psychophysics","247","647571","0.0-18.0-2.0","6071c813aa80712d47f34f03","609006691f6f4e337c17f836","609a612458189a03b2e8fc56","706.3849999103695","","","","77","","","","key","16.639523809523478","764","353","","","","","","","","","","","","","","","","","","","",""
"psychophysics","248","648574","0.0-18.0-0.1","6071c813aa80712d47f34f03","609006691f6f4e337c17f836","609a612458189a03b2e8fc56","null","","","","null","","","","key","16.639796610169853","764","353","","","","","","","","","","","","","","","","","","","",""
"psychophysics","249","649076","0.0-18.0-1.1","6071c813aa80712d47f34f03","609006691f6f4e337c17f836","609a612458189a03b2e8fc56","null","","","","null","","","","key","16.63927586206861","764","353","","","","","","","","","","","","","137","-1","0","true","","","",""
"psychophysics","250","649357","0.0-18.0-2.1","6071c813aa80712d47f34f03","609006691f6f4e337c17f836","609a612458189a03b2e8fc56","278.6550000309944","","","","90","","","","key","16.649624999998196","764","353","","","","","","","","","","","","","","","","","","","",""
"psychophysics","251","650360","0.0-18.0-0.2","6071c813aa80712d47f34f03","609006691f6f4e337c17f836","609a612458189a03b2e8fc56","null","","","","null","","","","key","16.644728813559148","764","353","","","","","","","","","","","","","","","","","","","",""
"psychophysics","252","650863","0.0-18.0-1.2","6071c813aa80712d47f34f03","609006691f6f4e337c17f836","609a612458189a03b2e8fc56","null","","","","null","","","","key","16.638733333333708","764","353","","","","","","","","","","","","","137","-1","2","true","","","",""
"psychophysics","253","651258","0.0-18.0-2.2","6071c813aa80712d47f34f03","609006691f6f4e337c17f836","609a612458189a03b2e8fc56","391.97500003501773","","","","77","","","","key","16.638863636365965","764","353","","","","","","","","","","","","","","","","","","","",""
"psychophysics","254","652261","0.0-18.0-0.3","6071c813aa80712d47f34f03","609006691f6f4e337c17f836","609a612458189a03b2e8fc56","null","","","","null","","","","key","16.637616666666386","764","353","","","","","","","","","","","","","","","","","","","",""
"psychophysics","255","652763","0.0-18.0-1.3","6071c813aa80712d47f34f03","609006691f6f4e337c17f836","609a612458189a03b2e8fc56","null","","","","null","","","","key","16.649034482756115","764","353","","","","","","","","","","","","","137","1","3","true","","","",""
"psychophysics","256","653176","0.0-18.0-2.3","6071c813aa80712d47f34f03","609006691f6f4e337c17f836","609a612458189a03b2e8fc56","408.70500006712973","","","","77","","","","key","16.631750000000466","764","353","","","","","","","","","","","","","","","","","","","",""
"psychophysics","257","654179","0.0-18.0-0.4","6071c813aa80712d47f34f03","609006691f6f4e337c17f836","609a612458189a03b2e8fc56","null","","","","null","","","","key","16.6398135593232","764","353","","","","","","","","","","","","","","","","","","","",""
"psychophysics","258","654682","0.0-18.0-1.4","6071c813aa80712d47f34f03","609006691f6f4e337c17f836","609a612458189a03b2e8fc56","null","","","","null","","","","key","16.64965517241267","764","353","","","","","","","","","","","","","137","1","2","true","","","",""
"psychophysics","259","654975","0.0-18.0-2.4","6071c813aa80712d47f34f03","609006691f6f4e337c17f836","609a612458189a03b2e8fc56","290.694999974221","","","","90","","","","key","16.625882352942","764","353","","","","","","","","","","","","","","","","","","","",""
"psychophysics","260","655976","0.0-18.0-0.5","6071c813aa80712d47f34f03","609006691f6f4e337c17f836","609a612458189a03b2e8fc56","null","","","","null","","","","key","16.64016949152574","764","353","","","","","","","","","","","","","","","","","","","",""
"psychophysics","261","656479","0.0-18.0-1.5","6071c813aa80712d47f34f03","609006691f6f4e337c17f836","609a612458189a03b2e8fc56","null","","","","null","","","","key","16.65103448275878","764","353","","","","","","","","","","","","","137","1","4","true","","","",""
"psychophysics","262","656895","0.0-18.0-2.5","6071c813aa80712d47f34f03","609006691f6f4e337c17f836","609a612458189a03b2e8fc56","413.13000000081956","","","","77","","","","key","16.637750000004115","764","353","","","","","","","","","","","","","","","","","","","",""
"psychophysics","263","657897","0.0-18.0-0.6","6071c813aa80712d47f34f03","609006691f6f4e337c17f836","609a612458189a03b2e8fc56","null","","","","null","","","","key","16.640186440679088","764","353","","","","","","","","","","","","","","","","","","","",""
"psychophysics","264","658401","0.0-18.0-1.6","6071c813aa80712d47f34f03","609006691f6f4e337c17f836","609a612458189a03b2e8fc56","null","","","","null","","","","key","16.64753333333259","764","353","","","","","","","","","","","","","137","1","6","true","","","",""
"psychophysics","265","658802","0.0-18.0-2.6","6071c813aa80712d47f34f03","609006691f6f4e337c17f836","609a612458189a03b2e8fc56","395.41999995708466","","","","77","","","","key","16.6381304347837","764","353","","","","","","","","","","","","","","","","","","","",""
"psychophysics","266","659804","0.0-18.0-0.7","6071c813aa80712d47f34f03","609006691f6f4e337c17f836","609a612458189a03b2e8fc56","null","","","","null","","","","key","16.645355932203405","764","353","","","","","","","","","","","","","","","","","","","",""
"psychophysics","267","660307","0.0-18.0-1.7","6071c813aa80712d47f34f03","609006691f6f4e337c17f836","609a612458189a03b2e8fc56","null","","","","null","","","","key","16.630448275859916","764","353","","","","","","","","","","","","","137","1","0","true","","","",""
"psychophysics","268","661040","0.0-18.0-2.7","6071c813aa80712d47f34f03","609006691f6f4e337c17f836","609a612458189a03b2e8fc56","729.8850000370294","","","","77","","","","key","16.64453488372288","764","353","","","","","","","","","","","","","","","","","","","",""
"psychophysics","269","662044","0.0-18.0-0.8","6071c813aa80712d47f34f03","609006691f6f4e337c17f836","609a612458189a03b2e8fc56","null","","","","null","","","","key","16.64025000000062","764","353","","","","","","","","","","","","","","","","","","","",""
"psychophysics","270","662550","0.0-18.0-1.8","6071c813aa80712d47f34f03","609006691f6f4e337c17f836","609a612458189a03b2e8fc56","null","","","","null","","","","key","16.636172413793876","764","353","","","","","","","","","","","","","137","-1","4","true","","","",""
"psychophysics","271","662873","0.0-18.0-2.8","6071c813aa80712d47f34f03","609006691f6f4e337c17f836","609a612458189a03b2e8fc56","319.12999995984137","","","","77","","","","key","16.65466666666584","764","353","","","","","","","","","","","","","","","","","","","",""
"psychophysics","272","663875","0.0-18.0-0.9","6071c813aa80712d47f34f03","609006691f6f4e337c17f836","609a612458189a03b2e8fc56","null","","","","null","","","","key","16.6391333333333","764","353","","","","","","","","","","","","","","","","","","","",""
"psychophysics","273","664380","0.0-18.0-1.9","6071c813aa80712d47f34f03","609006691f6f4e337c17f836","609a612458189a03b2e8fc56","null","","","","null","","","","key","16.631586206896262","764","353","","","","","","","","","","","","","137","-1","6","true","","","",""
"psychophysics","274","664558","0.0-18.0-2.9","6071c813aa80712d47f34f03","609006691f6f4e337c17f836","609a612458189a03b2e8fc56","174.9899999704212","","","","77","","","","key","16.661900000006426","764","353","","","","","","","","","","","","","","","","","","","",""
"psychophysics","275","665561","0.0-18.0-0.10","6071c813aa80712d47f34f03","609006691f6f4e337c17f836","609a612458189a03b2e8fc56","null","","","","null","","","","key","16.639796610169853","764","353","","","","","","","","","","","","","","","","","","","",""
"psychophysics","276","666063","0.0-18.0-1.10","6071c813aa80712d47f34f03","609006691f6f4e337c17f836","609a612458189a03b2e8fc56","null","","","","null","","","","key","16.649068965516374","764","353","","","","","","","","","","","","","137","-1","3","true","","","",""
"psychophysics","277","666315","0.0-18.0-2.10","6071c813aa80712d47f34f03","609006691f6f4e337c17f836","609a612458189a03b2e8fc56","248.08500008657575","","","","77","","","","key","16.642714285715815","764","353","","","","","","","","","","","","","","","","","","","",""
"psychophysics","278","667318","0.0-18.0-0.11","6071c813aa80712d47f34f03","609006691f6f4e337c17f836","609a612458189a03b2e8fc56","null","","","","null","","","","key","16.635516666665595","764","353","","","","","","","","","","","","","","","","","","","",""
"psychophysics","279","667822","0.0-18.0-1.11","6071c813aa80712d47f34f03","609006691f6f4e337c17f836","609a612458189a03b2e8fc56","null","","","","null","","","","key","16.647931034484042","764","353","","","","","","","","","","","","","137","-1","5","true","","","",""
"psychophysics","280","668037","0.0-18.0-2.11","6071c813aa80712d47f34f03","609006691f6f4e337c17f836","609a612458189a03b2e8fc56","211.6249999962747","","","","77","","","","key","16.639916666666977","764","353","","","","","","","","","","","","","","","","","","","",""
"psychophysics","281","669039","0.0-18.0-0.12","6071c813aa80712d47f34f03","609006691f6f4e337c17f836","609a612458189a03b2e8fc56","null","","","","null","","","","key","16.643423728812564","764","353","","","","","","","","","","","","","","","","","","","",""
"psychophysics","282","669543","0.0-18.0-1.12","6071c813aa80712d47f34f03","609006691f6f4e337c17f836","609a612458189a03b2e8fc56","null","","","","null","","","","key","16.631999999999294","764","353","","","","","","","","","","","","","137","-1","4","true","","","",""
"psychophysics","283","670123","0.0-18.0-2.12","6071c813aa80712d47f34f03","609006691f6f4e337c17f836","609a612458189a03b2e8fc56","577.4300000630319","","","","77","","","","key","16.64820588235264","764","353","","","","","","","","","","","","","","","","","","","",""
"psychophysics","284","671126","0.0-18.0-0.13","6071c813aa80712d47f34f03","609006691f6f4e337c17f836","609a612458189a03b2e8fc56","null","","","","null","","","","key","16.643203389830887","764","353","","","","","","","","","","","","","","","","","","","",""
"psychophysics","285","671629","0.0-18.0-1.13","6071c813aa80712d47f34f03","609006691f6f4e337c17f836","609a612458189a03b2e8fc56","null","","","","null","","","","key","16.643899999997423","764","353","","","","","","","","","","","","","137","-1","0","true","","","",""
"psychophysics","286","671855","0.0-18.0-2.13","6071c813aa80712d47f34f03","609006691f6f4e337c17f836","609a612458189a03b2e8fc56","220.8350000437349","","","","77","","","","key","16.65558333333077","764","353","","","","","","","","","","","","","","","","","","","",""
"psychophysics","287","672857","0.0-18.0-0.14","6071c813aa80712d47f34f03","609006691f6f4e337c17f836","609a612458189a03b2e8fc56","null","","","","null","","","","key","16.639237288137014","764","353","","","","","","","","","","","","","","","","","","","",""
"psychophysics","288","673359","0.0-18.0-1.14","6071c813aa80712d47f34f03","609006691f6f4e337c17f836","609a612458189a03b2e8fc56","null","","","","null","","","","key","16.645533333334605","764","353","","","","","","","","","","","","","137","1","3","true","","","",""
"psychophysics","289","673487","0.0-18.0-2.14","6071c813aa80712d47f34f03","609006691f6f4e337c17f836","609a612458189a03b2e8fc56","122.71500006318092","","","","77","","","","key","16.639833333319984","764","353","","","","","","","","","","","","","","","","","","","",""
"psychophysics","290","674490","0.0-18.0-0.15","6071c813aa80712d47f34f03","609006691f6f4e337c17f836","609a612458189a03b2e8fc56","null","","","","null","","","","key","16.639416666666513","764","353","","","","","","","","","","","","","","","","","","","",""
"psychophysics","291","674993","0.0-18.0-1.15","6071c813aa80712d47f34f03","609006691f6f4e337c17f836","609a612458189a03b2e8fc56","null","","","","null","","","","key","16.651172413791787","764","353","","","","","","","","","","","","","137","-1","3","true","","","",""
"psychophysics","292","675240","0.0-18.0-2.15","6071c813aa80712d47f34f03","609006691f6f4e337c17f836","609a612458189a03b2e8fc56","243.62499988637865","","","","77","","","","key","16.641214285711094","764","353","","","","","","","","","","","","","","","","","","","",""
"psychophysics","293","676244","0.0-18.0-0.16","6071c813aa80712d47f34f03","609006691f6f4e337c17f836","609a612458189a03b2e8fc56","null","","","","null","","","","key","16.639966101695435","764","353","","","","","","","","","","","","","","","","","","","",""
"psychophysics","294","676747","0.0-18.0-1.16","6071c813aa80712d47f34f03","609006691f6f4e337c17f836","609a612458189a03b2e8fc56","null","","","","null","","","","key","16.639827586208664","764","353","","","","","","","","","","","","","137","-1","6","true","","","",""
"psychophysics","295","676959","0.0-18.0-2.16","6071c813aa80712d47f34f03","609006691f6f4e337c17f836","609a612458189a03b2e8fc56","206.559999845922","","","","77","","","","key","16.655833333332946","764","353","","","","","","","","","","","","","","","","","","","",""
"psychophysics","296","677961","0.0-18.0-0.17","6071c813aa80712d47f34f03","609006691f6f4e337c17f836","609a612458189a03b2e8fc56","null","","","","null","","","","key","16.636288135594658","764","353","","","","","","","","","","","","","","","","","","","",""
"psychophysics","297","678464","0.0-18.0-1.17","6071c813aa80712d47f34f03","609006691f6f4e337c17f836","609a612458189a03b2e8fc56","null","","","","null","","","","key","16.638517241379052","764","353","","","","","","","","","","","","","137","1","2","true","","","",""
"psychophysics","298","678593","0.0-18.0-2.17","6071c813aa80712d47f34f03","609006691f6f4e337c17f836","609a612458189a03b2e8fc56","124.55000006593764","","","","77","","","","key","16.6394285714154","764","353","","","","","","","","","","","","","","","","","","","",""
"psychophysics","299","679596","0.0-18.0-0.18","6071c813aa80712d47f34f03","609006691f6f4e337c17f836","609a612458189a03b2e8fc56","null","","","","null","","","","key","16.6405084745769","764","353","","","","","","","","","","","","","","","","","","","",""
"psychophysics","300","680099","0.0-18.0-1.18","6071c813aa80712d47f34f03","609006691f6f4e337c17f836","609a612458189a03b2e8fc56","null","","","","null","","","","key","16.64606666666611","764","353","","","","","","","","","","","","","137","-1","5","true","","","",""
"psychophysics","301","680342","0.0-18.0-2.18","6071c813aa80712d47f34f03","609006691f6f4e337c17f836","609a612458189a03b2e8fc56","237.39499994553626","","","","77","","","","key","16.616230769226185","764","353","","","","","","","","","","","","","","","","","","","",""
"psychophysics","302","681346","0.0-18.0-0.19","6071c813aa80712d47f34f03","609006691f6f4e337c17f836","609a612458189a03b2e8fc56","null","","","","null","","","","key","16.639366666666078","764","353","","","","","","","","","","","","","","","","","","","",""
"psychophysics","303","681849","0.0-18.0-1.19","6071c813aa80712d47f34f03","609006691f6f4e337c17f836","609a612458189a03b2e8fc56","null","","","","null","","","","key","16.64093103448475","764","353","","","","","","","","","","","","","137","1","6","true","","","",""
"psychophysics","304","682098","0.0-18.0-2.19","6071c813aa80712d47f34f03","609006691f6f4e337c17f836","609a612458189a03b2e8fc56","245.5949999857694","","","","77","","","","key","16.65185714285222","764","353","","","","","","","","","","","","","","","","","","","",""
"psychophysics","305","683100","0.0-18.0-0.20","6071c813aa80712d47f34f03","609006691f6f4e337c17f836","609a612458189a03b2e8fc56","null","","","","null","","","","key","16.639491525423413","764","353","","","","","","","","","","","","","","","","","","","",""
"psychophysics","306","683602","0.0-18.0-1.20","6071c813aa80712d47f34f03","609006691f6f4e337c17f836","609a612458189a03b2e8fc56","null","","","","null","","","","key","16.634758620691517","764","353","","","","","","","","","","","","","137","1","0","true","","","",""
"psychophysics","307","684565","0.0-18.0-2.20","6071c813aa80712d47f34f03","609006691f6f4e337c17f836","609a612458189a03b2e8fc56","959.3199999071658","","","","77","","","","key","16.64068421052581","764","353","","","","","","","","","","","","","","","","","","","",""
"psychophysics","308","685567","0.0-18.0-0.21","6071c813aa80712d47f34f03","609006691f6f4e337c17f836","609a612458189a03b2e8fc56","null","","","","null","","","","key","16.640322033897974","764","353","","","","","","","","","","","","","","","","","","","",""
"psychophysics","309","686072","0.0-18.0-1.21","6071c813aa80712d47f34f03","609006691f6f4e337c17f836","609a612458189a03b2e8fc56","null","","","","null","","","","key","16.63409999999761","764","353","","","","","","","","","","","","","137","-1","2","true","","","",""
"psychophysics","310","686280","0.0-18.0-2.21","6071c813aa80712d47f34f03","609006691f6f4e337c17f836","609a612458189a03b2e8fc56","204.87000001594424","","","","77","","","","key","16.619181818180632","764","353","","","","","","","","","","","","","","","","","","","",""
"psychophysics","311","687284","0.0-18.0-0.22","6071c813aa80712d47f34f03","609006691f6f4e337c17f836","609a612458189a03b2e8fc56","null","","","","null","","","","key","16.640050847458227","764","353","","","","","","","","","","","","","","","","","","","",""
"psychophysics","312","687787","0.0-18.0-1.22","6071c813aa80712d47f34f03","609006691f6f4e337c17f836","609a612458189a03b2e8fc56","null","","","","null","","","","key","16.63770000000174","764","353","","","","","","","","","","","","","137","1","4","true","","","",""
"psychophysics","313","688106","0.0-18.0-2.22","6071c813aa80712d47f34f03","609006691f6f4e337c17f836","609a612458189a03b2e8fc56","315.5300000216812","","","","77","","","","key","16.653000000004088","764","353","","","","","","","","","","","","","","","","","","","",""
"psychophysics","314","689108","0.0-18.0-0.23","6071c813aa80712d47f34f03","609006691f6f4e337c17f836","609a612458189a03b2e8fc56","null","","","","null","","","","key","16.638135593220735","764","353","","","","","","","","","","","","","","","","","","","",""
"psychophysics","315","689610","0.0-18.0-1.23","6071c813aa80712d47f34f03","609006691f6f4e337c17f836","609a612458189a03b2e8fc56","null","","","","null","","","","key","16.63279310344911","764","353","","","","","","","","","","","","","137","1","5","true","","","",""
"psychophysics","316","689974","0.0-18.0-2.23","6071c813aa80712d47f34f03","609006691f6f4e337c17f836","609a612458189a03b2e8fc56","362.4299999792129","","","","77","","","","key","16.629761904760795","764","353","","","","","","","","","","","","","","","","","","","",""
"psychophysics","317","690977","0.0-18.0-0.24","6071c813aa80712d47f34f03","609006691f6f4e337c17f836","609a612458189a03b2e8fc56","null","","","","null","","","","key","16.64064406779579","764","353","","","","","","","","","","","","","","","","","","","",""
"psychophysics","318","691480","0.0-18.0-1.24","6071c813aa80712d47f34f03","609006691f6f4e337c17f836","609a612458189a03b2e8fc56","null","","","","null","","","","key","16.63896666666648","764","353","","","","","","","","","","","","","137","-1","6","true","","","",""
"psychophysics","319","691766","0.0-18.0-2.24","6071c813aa80712d47f34f03","609006691f6f4e337c17f836","609a612458189a03b2e8fc56","282.2300000116229","","","","77","","","","key","16.639374999998836","764","353","","","","","","","","","","","","","","","","","","","",""
"psychophysics","320","692769","0.0-18.0-0.25","6071c813aa80712d47f34f03","609006691f6f4e337c17f836","609a612458189a03b2e8fc56","null","","","","null","","","","key","16.639796610169853","764","353","","","","","","","","","","","","","","","","","","","",""
"psychophysics","321","693271","0.0-18.0-1.25","6071c813aa80712d47f34f03","609006691f6f4e337c17f836","609a612458189a03b2e8fc56","null","","","","null","","","","key","16.64006896551843","764","353","","","","","","","","","","","","","137","-1","4","true","","","",""
"psychophysics","322","694264","0.0-18.0-2.25","6071c813aa80712d47f34f03","609006691f6f4e337c17f836","609a612458189a03b2e8fc56","991.0349999554455","","","","90","","","","key","16.639949152542087","764","353","","","","","","","","","","","","","","","","","","","",""
"psychophysics","323","695267","0.0-18.0-0.26","6071c813aa80712d47f34f03","609006691f6f4e337c17f836","609a612458189a03b2e8fc56","null","","","","null","","","","key","16.642118644067953","764","353","","","","","","","","","","","","","","","","","","","",""
"psychophysics","324","695770","0.0-18.0-1.26","6071c813aa80712d47f34f03","609006691f6f4e337c17f836","609a612458189a03b2e8fc56","null","","","","null","","","","key","16.63506896551779","764","353","","","","","","","","","","","","","137","1","4","true","","","",""
"psychophysics","325","695905","0.0-18.0-2.26","6071c813aa80712d47f34f03","609006691f6f4e337c17f836","609a612458189a03b2e8fc56","129.66500013135374","","","","77","","","","key","16.629285714289704","764","353","","","","","","","","","","","","","","","","","","","",""
"psychophysics","326","696908","0.0-18.0-0.27","6071c813aa80712d47f34f03","609006691f6f4e337c17f836","609a612458189a03b2e8fc56","null","","","","null","","","","key","16.632716666668422","764","353","","","","","","","","","","","","","","","","","","","",""
"psychophysics","327","697410","0.0-18.0-1.27","6071c813aa80712d47f34f03","609006691f6f4e337c17f836","609a612458189a03b2e8fc56","null","","","","null","","","","key","16.648000000000547","764","353","","","","","","","","","","","","","137","1","0","true","","","",""
"psychophysics","328","697794","0.0-18.0-2.27","6071c813aa80712d47f34f03","609006691f6f4e337c17f836","609a612458189a03b2e8fc56","380.23999985307455","","","","77","","","","key","16.633363636364017","764","353","","","","","","","","","","","","","","","","","","","",""
"psychophysics","329","698795","0.0-18.0-0.28","6071c813aa80712d47f34f03","609006691f6f4e337c17f836","609a612458189a03b2e8fc56","null","","","","null","","","","key","16.640101694916297","764","353","","","","","","","","","","","","","","","","","","","",""
"psychophysics","330","699298","0.0-18.0-1.28","6071c813aa80712d47f34f03","609006691f6f4e337c17f836","609a612458189a03b2e8fc56","null","","","","null","","","","key","16.636482758620144","764","353","","","","","","","","","","","","","137","1","6","true","","","",""
