"trial_type","trial_index","time_elapsed","internal_node_id","PROLIFIC_PID","STUDY_ID","SESSION_ID","rt","stimulus","button_pressed","success","key_press","responses","isData","view_history","response_type","avg_frame_time","center_x","center_y","isSC","stim_side","trial_luminance","step_size","nReversal","correct","prev_ans","isThreshold","SC_threshold","final_threshold","isLuminance","FF_luminance","luminance","stimSide","ISInt","isFF","question_order","isSPQ","isCAPS","isAQ"
"pavlovia","0","4","0.0-0.0","5f6a6797690a7411965ea6cb","609006691f6f4e337c17f836","609a6121a007584bb24e6a37","","","","","","","","","","","","","","","","","","","","","","","","","","","","","","","",""
"html-button-response","1","31586","0.0-1.0","5f6a6797690a7411965ea6cb","609006691f6f4e337c17f836","609a6121a007584bb24e6a37","31579.14499999606","<div style='background-color: white; width:60%; margin: auto; padding: 50px; text-align: justify; text-justify: inter-word; margin-bottom: 20px;'><h1 style='text-align: center;'>Consent Form</h1><p>Please read this consent form carefully before deciding whether you would like to participate in this study. You have to be 18 years old or older to participate to this study.</p><p style='text-decoration: underline;'>Participation is voluntary:</p><p>It is your choice whether or not to participate in this research. If you choose to participate, you may change your mind and leave the study at any time. Refusal to participate or stopping your participation will involve no penalty or loss of benefits to which you are otherwise entitled.</p><p style='text-decoration: underline;'>Purpose of the Study:</p><p>To understand the mechanisms underlying human perception.</p><p style='text-decoration: underline;'>What you will do in this study:</p><p>You will be presented with a series of visual images and then you will press buttons on the keyboard of your computer to respond to simple questions about the images (e.g. Were one or two images presented?). In addition, you will be asked to complete a questionnaire concerning your beliefs and everyday mental and perceptual experiences.'</p><p style='text-decoration: underline;'> Time Required:</p><p>The study will take 40 minutes to complete. </p><p style='text-decoration: underline;'>Risks:</p><p>There are no anticipated risks associated with participating in this study that are beyond those experienced in everyday life. </p><p style='text-decoration: underline;'>Benefits:</p><p>There are no benefits to you in participating in the study. However, this study may lead to a better understanding of how different kinds of visual information are used.</p><p style='text-decoration: underline;'>Compensation:</p><p>You will be paid US$6.6/hour. </p><p style='text-decoration: underline;'>Privacy and Confidentiality:</p><p>Your participation in this study will be anonymous. No personal information about your name or identity will be asked or recorded. This anonymous data will be stored for several years and may be used for a variety of research purposes. The overall results of the study may be published, or the data files may be shared with other researchers, but your identity will not be revealed in any way. The online services we are using for this study may temporarily store your data, but this data will be downloaded and then promptly deleted from those services.Your data will not be permanently associated with your name, IP address, or any other identifiable information (e.g., your information will only be connected to your payment, not to any of your responses), though they may be temporarily stored together before we download and separate them. Even so, no guarantee of internet survey security can be given because, although unlikely, transmissions can be intercepted and IP addresses can be identified. The anonymous data may be shared publicly (for example, in conjunction with a resulting academic publication).</p><p style='text-decoration: underline;'>Participation and Withdrawal:</p><p>Your participation in this study is completely voluntary. You may stop responding to the stimuli or stop answering questions if you so choose and without penalty by exiting the full screen mode, closing this tab of your browser or redirecting it to a different website.</p><p style='text-decoration: underline;'>Contact Info of the Researcher: </p><p>If you have questions about this study, or if you would like to talk to the research team, please contact David Melcher (david.melcher@nyu.edu, md5050@nyu.edu) at the Perception and Active Cognition Laboratory, New York University Abu Dhabi, Computational Research Building, Saadiyat Island, Abu Dhabi, UAE.This research has been reviewed by the New York University Abu Dhabi Institutional Review Board (NYUAD IRB). To contact about your rights in this research, for questions, suggestions, or complaints that are not addressed by the researchers, please email IRBnyuad@nyu.edu, or call the NYUAD IRB at +971 2 628 4313. </p></div>","0","","","","","","","","","","","","","","","","","","","","","","","","","","","","",""
"fullscreen","2","33904","0.0-2.0","5f6a6797690a7411965ea6cb","609006691f6f4e337c17f836","609a6121a007584bb24e6a37","","","","true","","","","","","","","","","","","","","","","","","","","","","","","","","","",""
"html-keyboard-response","3","94682","0.0-3.0","5f6a6797690a7411965ea6cb","609006691f6f4e337c17f836","609a6121a007584bb24e6a37","60774.87999999721","<p>Welcome !</p><p>READ CAREFULLY THE FOLLOWING INDICATIONS:</p><p>From this moment you have ~40 minutes to complete the experiment.</p><p>During the experiment you will be prompted to take several breaks. Each break should not last longer than 2-3 minutes.</p><p>Make sure that your computer is plugged in and it's not running on battery power, even if the battery is already fully charged.</p><p>Turn off your phone and music, make sure that you are in a quiet room and that you will not be distracted for the next hour.</p><p>Failure to comply with the instructions and indications provided during the experiment will most likely result in the rejection of your data.<p>Press the spacebar to start.</p>","","","32","","","","","","","","","","","","","","","","","","","","","","","","","","",""
"survey-html-form","4","124580","0.0-4.0","5f6a6797690a7411965ea6cb","609006691f6f4e337c17f836","609a6121a007584bb24e6a37","29895.92000000266","","","","","{""age"":""34"",""sex"":""f""}","true","","","","","","","","","","","","","","","","","","","","","","","","",""
"instructions","5","256050","0.0-5.0","5f6a6797690a7411965ea6cb","609006691f6f4e337c17f836","609a6121a007584bb24e6a37","131468.23500000028","","","","","","","[{""page_index"":0,""viewing_time"":111969.02499999851},{""page_index"":1,""viewing_time"":15027.914999998757},{""page_index"":2,""viewing_time"":4470.835000000079}]","","","","","","","","","","","","","","","","","","","","","","","",""
"psychophysics","6","262142","0.0-6.0-0.0","5f6a6797690a7411965ea6cb","609006691f6f4e337c17f836","609a6121a007584bb24e6a37","5084.875000000466","","","","37","","","","key","16.661459016393394","960","468.5","true","-1","180","30","0","-1","","","","","","","","","","","","","",""
"psychophysics","7","267071","0.0-6.0-0.1","5f6a6797690a7411965ea6cb","609006691f6f4e337c17f836","609a6121a007584bb24e6a37","3916.7950000046403","","","","39","","","","key","16.661210169491625","960","468.5","true","-1","180","30","0","1","-1","","","","","","","","","","","","",""
"psychophysics","8","268498","0.0-6.0-0.2","5f6a6797690a7411965ea6cb","609006691f6f4e337c17f836","609a6121a007584bb24e6a37","421.20499999873573","","","","39","","","","key","16.668523809524014","960","468.5","true","1","210","30","0","-1","1","","","","","","","","","","","","",""
"psychophysics","9","270204","0.0-6.0-0.3","5f6a6797690a7411965ea6cb","609006691f6f4e337c17f836","609a6121a007584bb24e6a37","701.679999998305","","","","39","","","","key","16.663627450980414","960","468.5","true","1","210","24","1","-1","-1","","","","","","","","","","","","",""
"psychophysics","10","271292","0.0-6.0-0.4","5f6a6797690a7411965ea6cb","609006691f6f4e337c17f836","609a6121a007584bb24e6a37","72.970000001078","","","","37","","","","key","16.671656249999614","960","468.5","true","-1","186","24","1","-1","-1","","","","","","","","","","","","",""
"psychophysics","11","272496","0.0-6.0-0.5","5f6a6797690a7411965ea6cb","609006691f6f4e337c17f836","609a6121a007584bb24e6a37","194.710000003397","","","","37","","","","key","16.657676056338126","960","468.5","true","-1","186","24","1","-1","-1","","","","","","","","","","","","",""
"psychophysics","12","273520","0.0-6.0-0.6","5f6a6797690a7411965ea6cb","609006691f6f4e337c17f836","609a6121a007584bb24e6a37","18.439999999827705","","","","37","","","","key","16.66426229508132","960","468.5","true","-1","162","24","1","-1","-1","","","","","","","","","","","","",""
"psychophysics","13","274558","0.0-6.0-0.7","5f6a6797690a7411965ea6cb","609006691f6f4e337c17f836","609a6121a007584bb24e6a37","25.0850000011269","","","","37","","","","key","16.658557377048563","960","468.5","true","-1","162","24","1","-1","-1","","","","","","","","","","","","",""
"psychophysics","14","278618","0.0-6.0-0.8","5f6a6797690a7411965ea6cb","609006691f6f4e337c17f836","609a6121a007584bb24e6a37","3051.3950000022305","","","","39","","","","key","16.659724279835487","960","468.5","true","-1","138","19.2","2","1","-1","","","","","","","","","","","","",""
"psychophysics","15","279758","0.0-6.0-0.9","5f6a6797690a7411965ea6cb","609006691f6f4e337c17f836","609a6121a007584bb24e6a37","125.54500000260305","","","","39","","","","key","16.661402985073952","960","468.5","true","1","157.2","19.2","2","-1","1","","","","","","","","","","","","",""
"psychophysics","16","280805","0.0-6.0-0.10","5f6a6797690a7411965ea6cb","609006691f6f4e337c17f836","609a6121a007584bb24e6a37","41.4600000003702","","","","37","","","","key","16.654709677419422","960","468.5","true","-1","157.2","15.36","3","-1","-1","","","","","","","","","","","","",""
"psychophysics","17","284644","0.0-6.0-0.11","5f6a6797690a7411965ea6cb","609006691f6f4e337c17f836","609a6121a007584bb24e6a37","2828.9500000028056","","","","37","","","","key","16.66189082969421","960","468.5","true","1","141.83999999999997","12.287999999999998","4","1","-1","","","","","","","","","","","","",""
"psychophysics","18","285763","0.0-6.0-0.12","5f6a6797690a7411965ea6cb","609006691f6f4e337c17f836","609a6121a007584bb24e6a37","114.90499999490567","","","","37","","","","key","16.668727272727253","960","468.5","true","-1","154.128","12.287999999999998","4","-1","1","","","","","","","","","","","","",""
"psychophysics","19","286776","0.0-6.0-0.13","5f6a6797690a7411965ea6cb","609006691f6f4e337c17f836","609a6121a007584bb24e6a37","10.640000000421423","","","","39","","","","key","16.665783333333092","960","468.5","true","1","154.128","9.8304","5","-1","-1","","","","","","","","","","","","",""
"psychophysics","20","288786","0.0-6.0-0.14","5f6a6797690a7411965ea6cb","609006691f6f4e337c17f836","609a6121a007584bb24e6a37","1005.830000001879","","","","39","","","","key","16.66166666666686","960","468.5","true","1","144.2976","9.8304","5","-1","-1","","","","","","","","","","","","",""
"psychophysics","21","291224","0.0-6.0-0.15","5f6a6797690a7411965ea6cb","609006691f6f4e337c17f836","609a6121a007584bb24e6a37","1428.9849999986473","","","","39","","","","key","16.662006896551585","960","468.5","true","1","144.2976","9.8304","5","-1","-1","","","","","","","","","","","","",""
"psychophysics","22","294332","0.0-6.0-0.16","5f6a6797690a7411965ea6cb","609006691f6f4e337c17f836","609a6121a007584bb24e6a37","2102.7649999959976","","","","37","","","","key","16.66369354838702","960","468.5","true","-1","134.4672","9.8304","5","-1","-1","","","","","","","","","","","","",""
"psychophysics","23","297198","0.0-6.0-0.17","5f6a6797690a7411965ea6cb","609006691f6f4e337c17f836","609a6121a007584bb24e6a37","1852.6550000024145","","","","37","","","","key","16.66505847953203","960","468.5","true","1","134.4672","7.864319999999999","6","1","-1","","","","","","","","","","","","",""
"psychophysics","24","298891","0.0-6.0-0.18","5f6a6797690a7411965ea6cb","609006691f6f4e337c17f836","609a6121a007584bb24e6a37","683.9599999948405","","","","37","","","","key","16.662600000000094","960","468.5","true","-1","142.33151999999998","7.864319999999999","6","-1","1","","","","","","","","","","","","",""
"psychophysics","25","300933","0.0-6.0-0.19","5f6a6797690a7411965ea6cb","609006691f6f4e337c17f836","609a6121a007584bb24e6a37","1039.8199999981443","","","","37","","","","key","16.665901639344664","960","468.5","true","-1","142.33151999999998","6.291456","7","-1","-1","","","","","","","","","","","","",""
"psychophysics","26","303511","0.0-6.0-0.20","5f6a6797690a7411965ea6cb","609006691f6f4e337c17f836","609a6121a007584bb24e6a37","1571.4099999968312","","","","39","","","","key","16.65983116883118","960","468.5","true","1","136.04006399999997","6.291456","7","-1","-1","","","","","","","","","","","","",""
"psychophysics","27","304906","0.0-6.0-0.21","5f6a6797690a7411965ea6cb","609006691f6f4e337c17f836","609a6121a007584bb24e6a37","380.5200000060722","","","","39","","","","key","16.661158536585678","960","468.5","true","1","136.04006399999997","6.291456","7","-1","-1","","","","","","","","","","","","",""
"psychophysics","28","307847","0.0-6.0-0.22","5f6a6797690a7411965ea6cb","609006691f6f4e337c17f836","609a6121a007584bb24e6a37","1936.7799999963609","","","","39","","","","key","16.664488636363703","960","468.5","true","1","129.74860799999996","6.291456","7","-1","-1","","","","","","","","","","","","",""
"psychophysics","29","310273","0.0-6.0-0.23","5f6a6797690a7411965ea6cb","609006691f6f4e337c17f836","609a6121a007584bb24e6a37","1422.8150000053574","","","","39","","","","key","16.659638888888974","960","468.5","true","-1","129.74860799999996","5.033164800000001","8","1","-1","","","","","","","","","","","","",""
"psychophysics","30","313108","0.0-6.0-0.24","5f6a6797690a7411965ea6cb","609006691f6f4e337c17f836","609a6121a007584bb24e6a37","1827.4449999953504","","","","37","","","","key","16.66093529411763","960","468.5","true","-1","134.78177279999997","5.033164800000001","8","-1","1","","","","","","","","","","","","",""
"psychophysics","31","316269","0.0-6.0-0.25","5f6a6797690a7411965ea6cb","609006691f6f4e337c17f836","609a6121a007584bb24e6a37","2146.3049999947543","","","","37","","","","key","16.662941489361867","960","468.5","true","-1","134.78177279999997","4.0265318400000005","9","-1","-1","","","","","","","","","","","","",""
"psychophysics","32","320584","0.0-6.0-0.26","5f6a6797690a7411965ea6cb","609006691f6f4e337c17f836","609a6121a007584bb24e6a37","3310.795000004873","","","","39","","","","key","16.663089147286783","960","468.5","true","-1","130.75524095999998","3.2212254720000004","10","1","-1","","","","","","","","","","","","",""
"psychophysics","33","322160","0.0-6.0-0.27","5f6a6797690a7411965ea6cb","609006691f6f4e337c17f836","609a6121a007584bb24e6a37","559.6700000023702","","","","39","","","","key","16.665095744680546","960","468.5","true","1","133.976466432","3.2212254720000004","10","-1","1","","","","","","","","","","","","",""
"psychophysics","34","325323","0.0-6.0-0.28","5f6a6797690a7411965ea6cb","609006691f6f4e337c17f836","609a6121a007584bb24e6a37","2160.235000003013","","","","39","","","","key","16.660857142857154","960","468.5","true","-1","133.976466432","2.5769803776000004","11","1","-1","","","","","","","","","","","","",""
"psychophysics","35","327580","0.0-6.0-0.29","5f6a6797690a7411965ea6cb","609006691f6f4e337c17f836","609a6121a007584bb24e6a37","1251.8199999976787","","","","39","","","","key","16.661552238805868","960","468.5","true","1","136.5534468096","2.5769803776000004","11","-1","1","","","","","","","","","","","","",""
"psychophysics","36","329062","0.0-6.0-0.30","5f6a6797690a7411965ea6cb","609006691f6f4e337c17f836","609a6121a007584bb24e6a37","477.1450000043842","","","","39","","","","key","16.66178409090935","960","468.5","true","1","136.5534468096","2.0615843020800004","12","-1","-1","","","","","","","","","","","","",""
"psychophysics","37","331286","0.0-6.0-0.31","5f6a6797690a7411965ea6cb","609006691f6f4e337c17f836","609a6121a007584bb24e6a37","1217.6800000015646","","","","37","","","","key","16.659924812030216","960","468.5","true","1","134.49186250751998","1.6492674416640005","13","1","-1","","","","","","","","","","","","",""
"psychophysics","38","333807","0.0-6.0-0.32","5f6a6797690a7411965ea6cb","609006691f6f4e337c17f836","609a6121a007584bb24e6a37","1510.3149999995367","","","","37","","","","key","16.663640000000207","960","468.5","true","-1","136.14112994918398","1.6492674416640005","13","-1","1","","","","","","","","","","","","",""
"psychophysics","39","335454","0.0-6.0-0.33","5f6a6797690a7411965ea6cb","609006691f6f4e337c17f836","609a6121a007584bb24e6a37","644.2099999985658","","","","39","","","","key","16.66684693877576","960","468.5","true","1","136.14112994918398","1.3194139533312006","14","-1","-1","","","","","","","","","","","","",""
"psychophysics","40","337346","0.0-6.0-0.34","5f6a6797690a7411965ea6cb","609006691f6f4e337c17f836","609a6121a007584bb24e6a37","888.2949999970151","","","","39","","","","key","16.65828571428574","960","468.5","true","1","134.82171599585277","1.3194139533312006","14","-1","-1","","","","","","","","","","","","",""
"psychophysics","41","340634","0.0-6.0-0.35","5f6a6797690a7411965ea6cb","609006691f6f4e337c17f836","609a6121a007584bb24e6a37","2284.944999999425","","","","39","","","","key","16.662385786801984","960","468.5","true","-1","134.82171599585277","1.0555311626649604","15","1","-1","","","","","","","","","","","","",""
"psychophysics","42","342200","0.0-6.0-0.36","5f6a6797690a7411965ea6cb","609006691f6f4e337c17f836","609a6121a007584bb24e6a37","557.6650000002701","","","","39","","","","key","16.662623655913468","960","468.5","true","1","135.87724715851772","1.0555311626649604","15","-1","1","","","","","","","","","","","","",""
"psychophysics","43","343951","0.0-6.0-0.37","5f6a6797690a7411965ea6cb","609006691f6f4e337c17f836","609a6121a007584bb24e6a37","737.105000000156","","","","39","","","","key","16.660692307692305","960","468.5","true","1","135.87724715851772","1","16","-1","-1","","","","","","","","","","","","",""
"psychophysics","44","345761","0.0-6.0-0.38","5f6a6797690a7411965ea6cb","609006691f6f4e337c17f836","609a6121a007584bb24e6a37","805.0849999999627","","","","39","","","","key","16.659420560747296","960","468.5","true","1","134.87724715851772","1","16","-1","-1","","","","","","","","","","","","",""
"psychophysics","45","347691","0.0-6.0-0.39","5f6a6797690a7411965ea6cb","609006691f6f4e337c17f836","609a6121a007584bb24e6a37","926.3499999942724","","","","39","","","","key","16.665747826086843","960","468.5","true","-1","134.87724715851772","1","17","1","-1","","","","","","","","","","","","",""
"html-keyboard-response","46","351789","0.0-7.0","5f6a6797690a7411965ea6cb","609006691f6f4e337c17f836","609a6121a007584bb24e6a37","4096.324999998615","<p>Well Done !</p><p>Prepare for a new block.</p><p>DON'T EXIT THE FULL SCREEN MODE</p><p>Press the Spacebar to start.</p>","","","32","","","","","","","","","","","","","","","true","134.96822555165764","","","","","","","","","","",""
"psychophysics","47","352903","0.0-8.0-0.0","5f6a6797690a7411965ea6cb","609006691f6f4e337c17f836","609a6121a007584bb24e6a37","109.8100000017439","","","","37","","","","key","16.65743283582104","960","468.5","true","-1","180","30","0","-1","","","","","","","","","","","","","",""
"psychophysics","48","355502","0.0-8.0-0.1","5f6a6797690a7411965ea6cb","609006691f6f4e337c17f836","609a6121a007584bb24e6a37","1595.8600000012666","","","","39","","","","key","16.661896774193814","960","468.5","true","1","180","30","0","-1","-1","","","","","","","","","","","","",""
"psychophysics","49","356511","0.0-8.0-0.2","5f6a6797690a7411965ea6cb","609006691f6f4e337c17f836","609a6121a007584bb24e6a37","5.890000000363216","","","","37","","","","key","16.654933333332885","960","468.5","true","-1","150","30","0","-1","-1","","","","","","","","","","","","",""
"psychophysics","50","357666","0.0-8.0-0.3","5f6a6797690a7411965ea6cb","609006691f6f4e337c17f836","609a6121a007584bb24e6a37","152.00000000186265","","","","39","","","","key","16.662941176470827","960","468.5","true","1","150","30","0","-1","-1","","","","","","","","","","","","",""
"psychophysics","51","359599","0.0-8.0-0.4","5f6a6797690a7411965ea6cb","609006691f6f4e337c17f836","609a6121a007584bb24e6a37","930.9399999983725","","","","37","","","","key","16.660200000000085","960","468.5","true","1","129","24","1","1","-1","","","","","","","","","","","","",""
"psychophysics","52","360855","0.0-8.0-0.5","5f6a6797690a7411965ea6cb","609006691f6f4e337c17f836","609a6121a007584bb24e6a37","253.29000000056112","","","","37","","","","key","16.666689189189473","960","468.5","true","-1","153","24","1","-1","1","","","","","","","","","","","","",""
"psychophysics","53","361887","0.0-8.0-0.6","5f6a6797690a7411965ea6cb","609006691f6f4e337c17f836","609a6121a007584bb24e6a37","30.084999998507556","","","","39","","","","key","16.666672131147802","960","468.5","true","1","153","19.2","2","-1","-1","","","","","","","","","","","","",""
"psychophysics","54","363700","0.0-8.0-0.7","5f6a6797690a7411965ea6cb","609006691f6f4e337c17f836","609a6121a007584bb24e6a37","809.6650000006775","","","","39","","","","key","16.66456481481469","960","468.5","true","1","133.8","19.2","2","-1","-1","","","","","","","","","","","","",""
"psychophysics","55","365220","0.0-8.0-0.8","5f6a6797690a7411965ea6cb","609006691f6f4e337c17f836","609a6121a007584bb24e6a37","516.5000000051805","","","","39","","","","key","16.663066666667063","960","468.5","true","1","133.8","19.2","2","-1","-1","","","","","","","","","","","","",""
"psychophysics","56","368611","0.0-8.0-0.9","5f6a6797690a7411965ea6cb","609006691f6f4e337c17f836","609a6121a007584bb24e6a37","2388.8799999986077","","","","39","","","","key","16.663270935960448","960","468.5","true","-1","129","15.36","3","1","-1","","","","","","","","","","","","",""
"psychophysics","57","370125","0.0-8.0-0.10","5f6a6797690a7411965ea6cb","609006691f6f4e337c17f836","609a6121a007584bb24e6a37","509.56500000029337","","","","39","","","","key","16.653399999999802","960","468.5","true","1","144.36","15.36","3","-1","1","","","","","","","","","","","","",""
"psychophysics","58","371649","0.0-8.0-0.11","5f6a6797690a7411965ea6cb","609006691f6f4e337c17f836","609a6121a007584bb24e6a37","520.6850000031409","","","","39","","","","key","16.661733333333782","960","468.5","true","1","144.36","12.287999999999998","4","-1","-1","","","","","","","","","","","","",""
"psychophysics","59","374716","0.0-8.0-0.12","5f6a6797690a7411965ea6cb","609006691f6f4e337c17f836","609a6121a007584bb24e6a37","2064.3899999995483","","","","37","","","","key","16.660475409836216","960","468.5","true","1","132.072","9.8304","5","1","-1","","","","","","","","","","","","",""
"psychophysics","60","376196","0.0-8.0-0.13","5f6a6797690a7411965ea6cb","609006691f6f4e337c17f836","609a6121a007584bb24e6a37","476.3999999995576","","","","39","","","","key","16.665636363636374","960","468.5","true","1","141.9024","9.8304","5","-1","1","","","","","","","","","","","","",""
"psychophysics","61","377521","0.0-8.0-0.14","5f6a6797690a7411965ea6cb","609006691f6f4e337c17f836","609a6121a007584bb24e6a37","322.6199999990058","","","","39","","","","key","16.65727848101251","960","468.5","true","1","141.9024","7.864319999999999","6","-1","-1","","","","","","","","","","","","",""
"psychophysics","62","378717","0.0-8.0-0.15","5f6a6797690a7411965ea6cb","609006691f6f4e337c17f836","609a6121a007584bb24e6a37","192.9950000048848","","","","37","","","","key","16.665814285714546","960","468.5","true","-1","134.03808","7.864319999999999","6","-1","-1","","","","","","","","","","","","",""
"psychophysics","63","379919","0.0-8.0-0.16","5f6a6797690a7411965ea6cb","609006691f6f4e337c17f836","609a6121a007584bb24e6a37","198.38000000163447","","","","37","","","","key","16.66747887323948","960","468.5","true","-1","134.03808","7.864319999999999","6","-1","-1","","","","","","","","","","","","",""
"psychophysics","64","381929","0.0-8.0-0.17","5f6a6797690a7411965ea6cb","609006691f6f4e337c17f836","609a6121a007584bb24e6a37","1005.9699999983422","","","","37","","","","key","16.664724999999937","960","468.5","true","1","129","6.291456","7","1","-1","","","","","","","","","","","","",""
"psychophysics","65","383580","0.0-8.0-0.18","5f6a6797690a7411965ea6cb","609006691f6f4e337c17f836","609a6121a007584bb24e6a37","649.1900000037276","","","","37","","","","key","16.661734693877907","960","468.5","true","-1","135.291456","6.291456","7","-1","1","","","","","","","","","","","","",""
"psychophysics","66","385240","0.0-8.0-0.19","5f6a6797690a7411965ea6cb","609006691f6f4e337c17f836","609a6121a007584bb24e6a37","658.1749999968451","","","","39","","","","key","16.66135353535341","960","468.5","true","1","135.291456","5.033164800000001","8","-1","-1","","","","","","","","","","","","",""
"psychophysics","67","387548","0.0-8.0-0.20","5f6a6797690a7411965ea6cb","609006691f6f4e337c17f836","609a6121a007584bb24e6a37","1305.2150000003166","","","","39","","","","key","16.660138686131482","960","468.5","true","-1","130.2582912","4.0265318400000005","9","1","-1","","","","","","","","","","","","",""
"psychophysics","68","389678","0.0-8.0-0.21","5f6a6797690a7411965ea6cb","609006691f6f4e337c17f836","609a6121a007584bb24e6a37","1127.9600000052596","","","","39","","","","key","16.664614173228024","960","468.5","true","1","134.28482304","4.0265318400000005","9","-1","1","","","","","","","","","","","","",""
"psychophysics","69","391118","0.0-8.0-0.22","5f6a6797690a7411965ea6cb","609006691f6f4e337c17f836","609a6121a007584bb24e6a37","437.0550000021467","","","","37","","","","key","16.662151162790778","960","468.5","true","-1","134.28482304","3.2212254720000004","10","-1","-1","","","","","","","","","","","","",""
"psychophysics","70","393326","0.0-8.0-0.23","5f6a6797690a7411965ea6cb","609006691f6f4e337c17f836","609a6121a007584bb24e6a37","1205.4500000012922","","","","37","","","","key","16.659366412213576","960","468.5","true","-1","131.06359756799998","3.2212254720000004","10","-1","-1","","","","","","","","","","","","",""
"psychophysics","71","395260","0.0-8.0-0.24","5f6a6797690a7411965ea6cb","609006691f6f4e337c17f836","609a6121a007584bb24e6a37","931.590000000142","","","","39","","","","key","16.664939130434725","960","468.5","true","-1","131.06359756799998","2.5769803776000004","11","1","-1","","","","","","","","","","","","",""
"psychophysics","72","396709","0.0-8.0-0.25","5f6a6797690a7411965ea6cb","609006691f6f4e337c17f836","609a6121a007584bb24e6a37","445.3700000012759","","","","37","","","","key","16.65944186046511","960","468.5","true","-1","133.64057794559997","2.5769803776000004","11","-1","1","","","","","","","","","","","","",""
"psychophysics","73","398223","0.0-8.0-0.26","5f6a6797690a7411965ea6cb","609006691f6f4e337c17f836","609a6121a007584bb24e6a37","512.6650000020163","","","","37","","","","key","16.667166666667132","960","468.5","true","-1","133.64057794559997","2.0615843020800004","12","-1","-1","","","","","","","","","","","","",""
"psychophysics","74","399689","0.0-8.0-0.27","5f6a6797690a7411965ea6cb","609006691f6f4e337c17f836","609a6121a007584bb24e6a37","463.0249999972875","","","","39","","","","key","16.661241379310912","960","468.5","true","1","131.57899364351996","2.0615843020800004","12","-1","-1","","","","","","","","","","","","",""
"psychophysics","75","402953","0.0-8.0-0.28","5f6a6797690a7411965ea6cb","609006691f6f4e337c17f836","609a6121a007584bb24e6a37","2261.6800000032526","","","","39","","","","key","16.661328205128367","960","468.5","true","-1","131.57899364351996","1.6492674416640005","13","1","-1","","","","","","","","","","","","",""
"psychophysics","76","406797","0.0-8.0-0.29","5f6a6797690a7411965ea6cb","609006691f6f4e337c17f836","609a6121a007584bb24e6a37","2839.590000003227","","","","37","","","","key","16.659573913043435","960","468.5","true","-1","133.22826108518396","1.6492674416640005","13","-1","1","","","","","","","","","","","","",""
"psychophysics","77","409300","0.0-8.0-0.30","5f6a6797690a7411965ea6cb","609006691f6f4e337c17f836","609a6121a007584bb24e6a37","1499.340000002121","","","","39","","","","key","16.661704697986462","960","468.5","true","1","133.22826108518396","1.3194139533312006","14","-1","-1","","","","","","","","","","","","",""
"psychophysics","78","411115","0.0-8.0-0.31","5f6a6797690a7411965ea6cb","609006691f6f4e337c17f836","609a6121a007584bb24e6a37","811.600000000908","","","","37","","","","key","16.660324074074097","960","468.5","true","-1","131.90884713185275","1.3194139533312006","14","-1","-1","","","","","","","","","","","","",""
"psychophysics","79","413173","0.0-8.0-0.32","5f6a6797690a7411965ea6cb","609006691f6f4e337c17f836","609a6121a007584bb24e6a37","1056.1999999990803","","","","37","","","","key","16.66056557377079","960","468.5","true","1","131.90884713185275","1.0555311626649604","15","1","-1","","","","","","","","","","","","",""
"psychophysics","80","415672","0.0-8.0-0.33","5f6a6797690a7411965ea6cb","609006691f6f4e337c17f836","609a6121a007584bb24e6a37","1494.024999999965","","","","37","","","","key","16.663523489933215","960","468.5","true","-1","132.9643782945177","1.0555311626649604","15","-1","1","","","","","","","","","","","","",""
"psychophysics","81","417848","0.0-8.0-0.34","5f6a6797690a7411965ea6cb","609006691f6f4e337c17f836","609a6121a007584bb24e6a37","1174.0149999968708","","","","37","","","","key","16.66281538461514","960","468.5","true","1","132.9643782945177","1","16","1","-1","","","","","","","","","","","","",""
"psychophysics","82","419907","0.0-8.0-0.35","5f6a6797690a7411965ea6cb","609006691f6f4e337c17f836","609a6121a007584bb24e6a37","1055.8149999997113","","","","37","","","","key","16.66209836065584","960","468.5","true","-1","133.9643782945177","1","16","-1","1","","","","","","","","","","","","",""
"psychophysics","83","421113","0.0-8.0-0.36","5f6a6797690a7411965ea6cb","609006691f6f4e337c17f836","609a6121a007584bb24e6a37","203.29499999934342","","","","39","","","","key","16.66352777777825","960","468.5","true","1","133.9643782945177","1","17","-1","-1","","","","","","","","","","","","",""
"psychophysics","84","422929","0.0-8.0-0.37","5f6a6797690a7411965ea6cb","609006691f6f4e337c17f836","609a6121a007584bb24e6a37","813.5499999989406","","","","39","","","","key","16.658370370370296","960","468.5","true","1","132.9643782945177","1","17","-1","-1","","","","","","","","","","","","",""
"psychophysics","85","425305","0.0-8.0-0.38","5f6a6797690a7411965ea6cb","609006691f6f4e337c17f836","609a6121a007584bb24e6a37","1374.0449999968405","","","","39","","","","key","16.665957446808264","960","468.5","true","-1","132.9643782945177","1","18","1","-1","","","","","","","","","","","","",""
"psychophysics","86","426591","0.0-8.0-0.39","5f6a6797690a7411965ea6cb","609006691f6f4e337c17f836","609a6121a007584bb24e6a37","282.72499999729916","","","","37","","","","key","16.666649350649283","960","468.5","true","-1","133.9643782945177","1","18","-1","1","","","","","","","","","","","","",""
"html-keyboard-response","87","429690","0.0-9.0","5f6a6797690a7411965ea6cb","609006691f6f4e337c17f836","609a6121a007584bb24e6a37","3096.109999998589","<p>Well Done !</p><p>Prepare for a new block.</p><p>DON'T EXIT THE FULL SCREEN MODE</p><p>Press the Spacebar to start.</p>","","","32","","","","","","","","","","","","","","","true","132.96426717826247","","","","","","","","","","",""
"psychophysics","88","431501","0.0-10.0-0.0","5f6a6797690a7411965ea6cb","609006691f6f4e337c17f836","609a6121a007584bb24e6a37","807.1350000027451","","","","37","","","","key","16.662907407407786","960","468.5","true","-1","180","30","0","-1","","","","","","","","","","","","","",""
"psychophysics","89","432549","0.0-10.0-0.1","5f6a6797690a7411965ea6cb","609006691f6f4e337c17f836","609a6121a007584bb24e6a37","45.97500000090804","","","","37","","","","key","16.666258064516438","960","468.5","true","-1","180","30","0","-1","-1","","","","","","","","","","","","",""
"psychophysics","90","433857","0.0-10.0-0.2","5f6a6797690a7411965ea6cb","609006691f6f4e337c17f836","609a6121a007584bb24e6a37","305.9399999983725","","","","39","","","","key","16.663564102564496","960","468.5","true","1","150","30","0","-1","-1","","","","","","","","","","","","",""
"psychophysics","91","434910","0.0-10.0-0.3","5f6a6797690a7411965ea6cb","609006691f6f4e337c17f836","609a6121a007584bb24e6a37","49.539999999979045","","","","37","","","","key","16.670016129031747","960","468.5","true","-1","150","30","0","-1","-1","","","","","","","","","","","","",""
"psychophysics","92","436839","0.0-10.0-0.4","5f6a6797690a7411965ea6cb","609006691f6f4e337c17f836","609a6121a007584bb24e6a37","925.8350000018254","","","","39","","","","key","16.66517391304344","960","468.5","true","1","129","30","0","-1","-1","","","","","","","","","","","","",""
"psychophysics","93","438922","0.0-10.0-0.5","5f6a6797690a7411965ea6cb","609006691f6f4e337c17f836","609a6121a007584bb24e6a37","1081.000000005588","","","","37","","","","key","16.65883870967739","960","468.5","true","-1","129","30","0","-1","-1","","","","","","","","","","","","",""
"psychophysics","94","441439","0.0-10.0-0.6","5f6a6797690a7411965ea6cb","609006691f6f4e337c17f836","609a6121a007584bb24e6a37","1513.0299999946146","","","","37","","","","key","16.66423333333301","960","468.5","true","1","129","24","1","1","-1","","","","","","","","","","","","",""
"psychophysics","95","442499","0.0-10.0-0.7","5f6a6797690a7411965ea6cb","609006691f6f4e337c17f836","609a6121a007584bb24e6a37","56.82999999407912","","","","37","","","","key","16.654903225806326","960","468.5","true","-1","153","24","1","-1","1","","","","","","","","","","","","",""
"psychophysics","96","443665","0.0-10.0-0.8","5f6a6797690a7411965ea6cb","609006691f6f4e337c17f836","609a6121a007584bb24e6a37","163.5099999984959","","","","39","","","","key","16.667507246377088","960","468.5","true","1","153","19.2","2","-1","-1","","","","","","","","","","","","",""
"psychophysics","97","445887","0.0-10.0-0.9","5f6a6797690a7411965ea6cb","609006691f6f4e337c17f836","609a6121a007584bb24e6a37","1218.8249999962864","","","","39","","","","key","16.66492481203006","960","468.5","true","1","133.8","19.2","2","-1","-1","","","","","","","","","","","","",""
"psychophysics","98","448351","0.0-10.0-0.10","5f6a6797690a7411965ea6cb","609006691f6f4e337c17f836","609a6121a007584bb24e6a37","1461.1349999977392","","","","37","","","","key","16.66242176870741","960","468.5","true","1","133.8","15.36","3","1","-1","","","","","","","","","","","","",""
"psychophysics","99","450441","0.0-10.0-0.11","5f6a6797690a7411965ea6cb","609006691f6f4e337c17f836","609a6121a007584bb24e6a37","1086.2400000041816","","","","39","","","","key","16.66228225806469","960","468.5","true","1","149.16000000000003","15.36","3","-1","1","","","","","","","","","","","","",""
"psychophysics","100","451983","0.0-10.0-0.12","5f6a6797690a7411965ea6cb","609006691f6f4e337c17f836","609a6121a007584bb24e6a37","539.3650000041816","","","","39","","","","key","16.65995652173866","960","468.5","true","1","149.16000000000003","12.287999999999998","4","-1","-1","","","","","","","","","","","","",""
"psychophysics","101","453461","0.0-10.0-0.13","5f6a6797690a7411965ea6cb","609006691f6f4e337c17f836","609a6121a007584bb24e6a37","475.11500000109663","","","","37","","","","key","16.660045977011485","960","468.5","true","-1","136.872","12.287999999999998","4","-1","-1","","","","","","","","","","","","",""
"psychophysics","102","454878","0.0-10.0-0.14","5f6a6797690a7411965ea6cb","609006691f6f4e337c17f836","609a6121a007584bb24e6a37","415.78499999741325","","","","39","","","","key","16.658714285714225","960","468.5","true","1","136.872","12.287999999999998","4","-1","-1","","","","","","","","","","","","",""
"psychophysics","103","457453","0.0-10.0-0.15","5f6a6797690a7411965ea6cb","609006691f6f4e337c17f836","609a6121a007584bb24e6a37","1572.905000000901","","","","37","","","","key","16.663571428571444","960","468.5","true","-1","129","12.287999999999998","4","-1","-1","","","","","","","","","","","","",""
"psychophysics","104","460162","0.0-10.0-0.16","5f6a6797690a7411965ea6cb","609006691f6f4e337c17f836","609a6121a007584bb24e6a37","1705.564999996568","","","","37","","","","key","16.662962732919034","960","468.5","true","1","129","9.8304","5","1","-1","","","","","","","","","","","","",""
"psychophysics","105","461886","0.0-10.0-0.17","5f6a6797690a7411965ea6cb","609006691f6f4e337c17f836","609a6121a007584bb24e6a37","721.1349999997765","","","","37","","","","key","16.664718446601523","960","468.5","true","-1","138.8304","9.8304","5","-1","1","","","","","","","","","","","","",""
"psychophysics","106","463116","0.0-10.0-0.18","5f6a6797690a7411965ea6cb","609006691f6f4e337c17f836","609a6121a007584bb24e6a37","226.50000000430737","","","","39","","","","key","16.669561643835973","960","468.5","true","1","138.8304","7.864319999999999","6","-1","-1","","","","","","","","","","","","",""
"psychophysics","107","465524","0.0-10.0-0.19","5f6a6797690a7411965ea6cb","609006691f6f4e337c17f836","609a6121a007584bb24e6a37","1405.705000004673","","","","39","","","","key","16.660846153846485","960","468.5","true","-1","130.96608","6.291456","7","1","-1","","","","","","","","","","","","",""
"psychophysics","108","467046","0.0-10.0-0.20","5f6a6797690a7411965ea6cb","609006691f6f4e337c17f836","609a6121a007584bb24e6a37","517.8949999972247","","","","37","","","","key","16.65976923076912","960","468.5","true","-1","137.25753600000002","6.291456","7","-1","1","","","","","","","","","","","","",""
"psychophysics","109","468518","0.0-10.0-0.21","5f6a6797690a7411965ea6cb","609006691f6f4e337c17f836","609a6121a007584bb24e6a37","468.6250000013388","","","","39","","","","key","16.66719540229921","960","468.5","true","1","137.25753600000002","5.033164800000001","8","-1","-1","","","","","","","","","","","","",""
"psychophysics","110","470691","0.0-10.0-0.22","5f6a6797690a7411965ea6cb","609006691f6f4e337c17f836","609a6121a007584bb24e6a37","1170.2900000018417","","","","37","","","","key","16.662449612403144","960","468.5","true","1","132.2243712","4.0265318400000005","9","1","-1","","","","","","","","","","","","",""
"psychophysics","111","472278","0.0-10.0-0.23","5f6a6797690a7411965ea6cb","609006691f6f4e337c17f836","609a6121a007584bb24e6a37","584.7199999989243","","","","39","","","","key","16.661463157894506","960","468.5","true","-1","136.25090304","4.0265318400000005","9","1","1","","","","","","","","","","","","",""
"psychophysics","112","473936","0.0-10.0-0.24","5f6a6797690a7411965ea6cb","609006691f6f4e337c17f836","609a6121a007584bb24e6a37","655.5499999958556","","","","37","","","","key","16.663918367347073","960","468.5","true","-1","140.27743488","4.0265318400000005","9","-1","1","","","","","","","","","","","","",""
"psychophysics","113","475365","0.0-10.0-0.25","5f6a6797690a7411965ea6cb","609006691f6f4e337c17f836","609a6121a007584bb24e6a37","424.81499999848893","","","","37","","","","key","16.67065882352934","960","468.5","true","-1","140.27743488","3.2212254720000004","10","-1","-1","","","","","","","","","","","","",""
"psychophysics","114","477013","0.0-10.0-0.26","5f6a6797690a7411965ea6cb","609006691f6f4e337c17f836","609a6121a007584bb24e6a37","644.9700000011944","","","","37","","","","key","16.662693877551202","960","468.5","true","-1","137.05620940799997","3.2212254720000004","10","-1","-1","","","","","","","","","","","","",""
"psychophysics","115","478498","0.0-10.0-0.27","5f6a6797690a7411965ea6cb","609006691f6f4e337c17f836","609a6121a007584bb24e6a37","481.93499999615597","","","","39","","","","key","16.659647727272716","960","468.5","true","1","137.05620940799997","3.2212254720000004","10","-1","-1","","","","","","","","","","","","",""
"psychophysics","116","480885","0.0-10.0-0.28","5f6a6797690a7411965ea6cb","609006691f6f4e337c17f836","609a6121a007584bb24e6a37","1385.0800000000163","","","","37","","","","key","16.65904225352135","960","468.5","true","1","133.83498393599996","2.5769803776000004","11","1","-1","","","","","","","","","","","","",""
"psychophysics","117","482319","0.0-10.0-0.29","5f6a6797690a7411965ea6cb","609006691f6f4e337c17f836","609a6121a007584bb24e6a37","430.2749999988009","","","","39","","","","key","16.66445882352932","960","468.5","true","1","136.41196431359995","2.5769803776000004","11","-1","1","","","","","","","","","","","","",""
"psychophysics","118","483809","0.0-10.0-0.30","5f6a6797690a7411965ea6cb","609006691f6f4e337c17f836","609a6121a007584bb24e6a37","486.72999999689637","","","","37","","","","key","16.66547191011251","960","468.5","true","-1","136.41196431359995","2.0615843020800004","12","-1","-1","","","","","","","","","","","","",""
"psychophysics","119","485561","0.0-10.0-0.31","5f6a6797690a7411965ea6cb","609006691f6f4e337c17f836","609a6121a007584bb24e6a37","748.9050000003772","","","","37","","","","key","16.66199999999998","960","468.5","true","-1","134.35038001151995","2.0615843020800004","12","-1","-1","","","","","","","","","","","","",""
"psychophysics","120","488040","0.0-10.0-0.32","5f6a6797690a7411965ea6cb","609006691f6f4e337c17f836","609a6121a007584bb24e6a37","1476.054999999178","","","","39","","","","key","16.664533783783554","960","468.5","true","-1","134.35038001151995","1.6492674416640005","13","1","-1","","","","","","","","","","","","",""
"psychophysics","121","490298","0.0-10.0-0.33","5f6a6797690a7411965ea6cb","609006691f6f4e337c17f836","609a6121a007584bb24e6a37","1255.8199999984936","","","","37","","","","key","16.661440298507692","960","468.5","true","1","135.99964745318394","1.6492674416640005","13","1","1","","","","","","","","","","","","",""
"psychophysics","122","491814","0.0-10.0-0.34","5f6a6797690a7411965ea6cb","609006691f6f4e337c17f836","609a6121a007584bb24e6a37","513.0649999991874","","","","39","","","","key","16.665022222222373","960","468.5","true","1","137.64891489484793","1.6492674416640005","13","-1","1","","","","","","","","","","","","",""
"psychophysics","123","494554","0.0-10.0-0.35","5f6a6797690a7411965ea6cb","609006691f6f4e337c17f836","609a6121a007584bb24e6a37","1736.8449999994482","","","","37","","","","key","16.661164634146587","960","468.5","true","-1","137.64891489484793","1.3194139533312006","14","-1","-1","","","","","","","","","","","","",""
"psychophysics","124","496203","0.0-10.0-0.36","5f6a6797690a7411965ea6cb","609006691f6f4e337c17f836","609a6121a007584bb24e6a37","645.0449999974808","","","","37","","","","key","16.660908163265606","960","468.5","true","-1","136.32950094151673","1.3194139533312006","14","-1","-1","","","","","","","","","","","","",""
"psychophysics","125","498634","0.0-10.0-0.37","5f6a6797690a7411965ea6cb","609006691f6f4e337c17f836","609a6121a007584bb24e6a37","1428.605000000971","","","","37","","","","key","16.66177083333322","960","468.5","true","1","136.32950094151673","1.0555311626649604","15","1","-1","","","","","","","","","","","","",""
"psychophysics","126","500105","0.0-10.0-0.38","5f6a6797690a7411965ea6cb","609006691f6f4e337c17f836","609a6121a007584bb24e6a37","467.89999999600695","","","","39","","","","key","16.661704545454995","960","468.5","true","1","137.38503210418168","1.0555311626649604","15","-1","1","","","","","","","","","","","","",""
"psychophysics","127","502405","0.0-10.0-0.39","5f6a6797690a7411965ea6cb","609006691f6f4e337c17f836","609a6121a007584bb24e6a37","1296.474999995553","","","","37","","","","key","16.663021897810026","960","468.5","true","-1","137.38503210418168","1","16","-1","-1","","","","","","","","","","","","",""
"html-keyboard-response","128","536858","0.0-11.0","5f6a6797690a7411965ea6cb","609006691f6f4e337c17f836","609a6121a007584bb24e6a37","34450.960000002","<p>Well Done !</p><p>Prepare for a new block.</p><p>DON'T EXIT THE FULL SCREEN MODE</p><p>Press the Spacebar to start.</p>","","","32","","","","","","","","","","","","","","","true","136.56507130776774","","","","","","","","","","",""
"psychophysics","129","538477","0.0-12.0-0.0","5f6a6797690a7411965ea6cb","609006691f6f4e337c17f836","609a6121a007584bb24e6a37","604.6199999982491","","","","37","","","","key","16.78397938144302","960","468.5","true","-1","180","30","0","-1","","","","","","","","","","","","","",""
"psychophysics","130","540401","0.0-12.0-0.1","5f6a6797690a7411965ea6cb","609006691f6f4e337c17f836","609a6121a007584bb24e6a37","918.7699999966426","","","","37","","","","key","16.661763157894665","960","468.5","true","-1","180","30","0","-1","-1","","","","","","","","","","","","",""
"psychophysics","131","541920","0.0-12.0-0.2","5f6a6797690a7411965ea6cb","609006691f6f4e337c17f836","609a6121a007584bb24e6a37","514.4799999980023","","","","39","","","","key","16.660911111110668","960","468.5","true","1","150","30","0","-1","-1","","","","","","","","","","","","",""
"psychophysics","132","543349","0.0-12.0-0.3","5f6a6797690a7411965ea6cb","609006691f6f4e337c17f836","609a6121a007584bb24e6a37","425.6600000008475","","","","37","","","","key","16.665470588236005","960","468.5","true","-1","150","30","0","-1","-1","","","","","","","","","","","","",""
"psychophysics","133","545782","0.0-12.0-0.4","5f6a6797690a7411965ea6cb","609006691f6f4e337c17f836","609a6121a007584bb24e6a37","1427.9250000036554","","","","37","","","","key","16.66192413793058","960","468.5","true","1","129","24","1","1","-1","","","","","","","","","","","","",""
"psychophysics","134","547286","0.0-12.0-0.5","5f6a6797690a7411965ea6cb","609006691f6f4e337c17f836","609a6121a007584bb24e6a37","499.145000001532","","","","39","","","","key","16.664797752807857","960","468.5","true","1","153","24","1","-1","1","","","","","","","","","","","","",""
"psychophysics","135","548877","0.0-12.0-0.6","5f6a6797690a7411965ea6cb","609006691f6f4e337c17f836","609a6121a007584bb24e6a37","588.2500000006985","","","","39","","","","key","16.66857894736857","960","468.5","true","1","153","19.2","2","-1","-1","","","","","","","","","","","","",""
"psychophysics","136","550357","0.0-12.0-0.7","5f6a6797690a7411965ea6cb","609006691f6f4e337c17f836","609a6121a007584bb24e6a37","470.4500000006519","","","","39","","","","key","16.66197727272811","960","468.5","true","1","133.8","19.2","2","-1","-1","","","","","","","","","","","","",""
"psychophysics","137","551847","0.0-12.0-0.8","5f6a6797690a7411965ea6cb","609006691f6f4e337c17f836","609a6121a007584bb24e6a37","484.67499999981374","","","","37","","","","key","16.6612159090913","960","468.5","true","-1","133.8","19.2","2","-1","-1","","","","","","","","","","","","",""
"psychophysics","138","554972","0.0-12.0-0.9","5f6a6797690a7411965ea6cb","609006691f6f4e337c17f836","609a6121a007584bb24e6a37","2120.0549999993527","","","","37","","","","key","16.662106951871728","960","468.5","true","-1","129","19.2","2","-1","-1","","","","","","","","","","","","",""
"psychophysics","139","556797","0.0-12.0-0.10","5f6a6797690a7411965ea6cb","609006691f6f4e337c17f836","609a6121a007584bb24e6a37","812.1450000035111","","","","39","","","","key","16.657629629629405","960","468.5","true","-1","129","15.36","3","1","-1","","","","","","","","","","","","",""
"psychophysics","140","558269","0.0-12.0-0.11","5f6a6797690a7411965ea6cb","609006691f6f4e337c17f836","609a6121a007584bb24e6a37","468.73499999498017","","","","39","","","","key","16.661170454546333","960","468.5","true","1","144.36","15.36","3","-1","1","","","","","","","","","","","","",""
"psychophysics","141","559989","0.0-12.0-0.12","5f6a6797690a7411965ea6cb","609006691f6f4e337c17f836","609a6121a007584bb24e6a37","705.7649999987334","","","","39","","","","key","16.659676470588344","960","468.5","true","1","144.36","12.287999999999998","4","-1","-1","","","","","","","","","","","","",""
"psychophysics","142","562094","0.0-12.0-0.13","5f6a6797690a7411965ea6cb","609006691f6f4e337c17f836","609a6121a007584bb24e6a37","1093.9700000016019","","","","37","","","","key","16.661064000000245","960","468.5","true","-1","132.072","12.287999999999998","4","-1","-1","","","","","","","","","","","","",""
"psychophysics","143","564037","0.0-12.0-0.14","5f6a6797690a7411965ea6cb","609006691f6f4e337c17f836","609a6121a007584bb24e6a37","937.4650000027614","","","","39","","","","key","16.663896551724033","960","468.5","true","1","132.072","12.287999999999998","4","-1","-1","","","","","","","","","","","","",""
"psychophysics","144","566321","0.0-12.0-0.15","5f6a6797690a7411965ea6cb","609006691f6f4e337c17f836","609a6121a007584bb24e6a37","1274.339999996242","","","","39","","","","key","16.66025735294063","960","468.5","true","1","129","12.287999999999998","4","-1","-1","","","","","","","","","","","","",""
"psychophysics","145","569188","0.0-12.0-0.16","5f6a6797690a7411965ea6cb","609006691f6f4e337c17f836","609a6121a007584bb24e6a37","1856.6599999975879","","","","39","","","","key","16.66032163742644","960","468.5","true","-1","129","9.8304","5","1","-1","","","","","","","","","","","","",""
"psychophysics","146","570596","0.0-12.0-0.17","5f6a6797690a7411965ea6cb","609006691f6f4e337c17f836","609a6121a007584bb24e6a37","398.995000003255","","","","39","","","","key","16.666072289156446","960","468.5","true","1","138.8304","9.8304","5","-1","1","","","","","","","","","","","","",""
"psychophysics","147","572162","0.0-12.0-0.18","5f6a6797690a7411965ea6cb","609006691f6f4e337c17f836","609a6121a007584bb24e6a37","548.8800000019837","","","","39","","","","key","16.66420430107473","960","468.5","true","1","138.8304","7.864319999999999","6","-1","-1","","","","","","","","","","","","",""
"psychophysics","148","574450","0.0-12.0-0.19","5f6a6797690a7411965ea6cb","609006691f6f4e337c17f836","609a6121a007584bb24e6a37","1273.654999997234","","","","39","","","","key","16.66305109489043","960","468.5","true","-1","130.96608","6.291456","7","1","-1","","","","","","","","","","","","",""
"psychophysics","149","576768","0.0-12.0-0.20","5f6a6797690a7411965ea6cb","609006691f6f4e337c17f836","609a6121a007584bb24e6a37","1307.5400000015507","","","","37","","","","key","16.66448550724654","960","468.5","true","1","137.25753600000002","6.291456","7","1","1","","","","","","","","","","","","",""
"psychophysics","150","578307","0.0-12.0-0.21","5f6a6797690a7411965ea6cb","609006691f6f4e337c17f836","609a6121a007584bb24e6a37","531.6050000038231","","","","39","","","","key","16.65424175824136","960","468.5","true","1","143.54899200000003","6.291456","7","-1","1","","","","","","","","","","","","",""
"psychophysics","151","579756","0.0-12.0-0.22","5f6a6797690a7411965ea6cb","609006691f6f4e337c17f836","609a6121a007584bb24e6a37","444.8950000004843","","","","37","","","","key","16.66113953488381","960","468.5","true","-1","143.54899200000003","5.033164800000001","8","-1","-1","","","","","","","","","","","","",""
"psychophysics","152","581410","0.0-12.0-0.23","5f6a6797690a7411965ea6cb","609006691f6f4e337c17f836","609a6121a007584bb24e6a37","649.3149999950547","","","","37","","","","key","16.661622448979962","960","468.5","true","-1","138.51582720000002","5.033164800000001","8","-1","-1","","","","","","","","","","","","",""
"psychophysics","153","582841","0.0-12.0-0.24","5f6a6797690a7411965ea6cb","609006691f6f4e337c17f836","609a6121a007584bb24e6a37","422.5399999995716","","","","39","","","","key","16.664435294117123","960","468.5","true","1","138.51582720000002","5.033164800000001","8","-1","-1","","","","","","","","","","","","",""
"psychophysics","154","585836","0.0-12.0-0.25","5f6a6797690a7411965ea6cb","609006691f6f4e337c17f836","609a6121a007584bb24e6a37","1990.590000001248","","","","37","","","","key","16.6627597765361","960","468.5","true","-1","133.4826624","5.033164800000001","8","-1","-1","","","","","","","","","","","","",""
"psychophysics","155","587306","0.0-12.0-0.26","5f6a6797690a7411965ea6cb","609006691f6f4e337c17f836","609a6121a007584bb24e6a37","464.33999999868684","","","","39","","","","key","16.66056321838994","960","468.5","true","1","133.4826624","5.033164800000001","8","-1","-1","","","","","","","","","","","","",""
"psychophysics","156","590078","0.0-12.0-0.27","5f6a6797690a7411965ea6cb","609006691f6f4e337c17f836","609a6121a007584bb24e6a37","1768.924999996554","","","","39","","","","key","16.66396385542165","960","468.5","true","-1","129","4.0265318400000005","9","1","-1","","","","","","","","","","","","",""
"psychophysics","157","592212","0.0-12.0-0.28","5f6a6797690a7411965ea6cb","609006691f6f4e337c17f836","609a6121a007584bb24e6a37","1129.755000001751","","","","39","","","","key","16.66521259842488","960","468.5","true","-1","133.02653184","4.0265318400000005","9","1","1","","","","","","","","","","","","",""
"psychophysics","158","593754","0.0-12.0-0.29","5f6a6797690a7411965ea6cb","609006691f6f4e337c17f836","609a6121a007584bb24e6a37","537.8599999968428","","","","39","","","","key","16.66568131868185","960","468.5","true","1","137.05306367999998","4.0265318400000005","9","-1","1","","","","","","","","","","","","",""
"psychophysics","159","595158","0.0-12.0-0.30","5f6a6797690a7411965ea6cb","609006691f6f4e337c17f836","609a6121a007584bb24e6a37","400.0850000011269","","","","37","","","","key","16.662523809523833","960","468.5","true","-1","137.05306367999998","3.2212254720000004","10","-1","-1","","","","","","","","","","","","",""
"psychophysics","160","597316","0.0-12.0-0.31","5f6a6797690a7411965ea6cb","609006691f6f4e337c17f836","609a6121a007584bb24e6a37","1144.8250000030966","","","","39","","","","key","16.66539843749979","960","468.5","true","1","133.83183820799997","3.2212254720000004","10","-1","-1","","","","","","","","","","","","",""
"psychophysics","161","598776","0.0-12.0-0.32","5f6a6797690a7411965ea6cb","609006691f6f4e337c17f836","609a6121a007584bb24e6a37","453.7350000026636","","","","37","","","","key","16.662517241378925","960","468.5","true","-1","133.83183820799997","3.2212254720000004","10","-1","-1","","","","","","","","","","","","",""
"psychophysics","162","601406","0.0-12.0-0.33","5f6a6797690a7411965ea6cb","609006691f6f4e337c17f836","609a6121a007584bb24e6a37","1618.6499999966472","","","","39","","","","key","16.65867515923574","960","468.5","true","-1","130.61061273599995","2.5769803776000004","11","1","-1","","","","","","","","","","","","",""
"psychophysics","163","603413","0.0-12.0-0.34","5f6a6797690a7411965ea6cb","609006691f6f4e337c17f836","609a6121a007584bb24e6a37","992.8700000019744","","","","37","","","","key","16.655075630252327","960","468.5","true","-1","133.18759311359995","2.5769803776000004","11","-1","1","","","","","","","","","","","","",""
"psychophysics","164","605028","0.0-12.0-0.35","5f6a6797690a7411965ea6cb","609006691f6f4e337c17f836","609a6121a007584bb24e6a37","611.8700000006938","","","","37","","","","key","16.665395833333605","960","468.5","true","-1","133.18759311359995","2.0615843020800004","12","-1","-1","","","","","","","","","","","","",""
"psychophysics","165","607148","0.0-12.0-0.36","5f6a6797690a7411965ea6cb","609006691f6f4e337c17f836","609a6121a007584bb24e6a37","1115.8350000041537","","","","37","","","","key","16.66268253968271","960","468.5","true","1","131.12600881151994","1.6492674416640005","13","1","-1","","","","","","","","","","","","",""
"psychophysics","166","610099","0.0-12.0-0.37","5f6a6797690a7411965ea6cb","609006691f6f4e337c17f836","609a6121a007584bb24e6a37","1948.0600000025006","","","","37","","","","key","16.662653409090787","960","468.5","true","1","132.77527625318393","1.6492674416640005","13","1","1","","","","","","","","","","","","",""
"psychophysics","167","611192","0.0-12.0-0.38","5f6a6797690a7411965ea6cb","609006691f6f4e337c17f836","609a6121a007584bb24e6a37","90.30500000505708","","","","37","","","","key","16.668584615384372","960","468.5","true","-1","134.42454369484793","1.6492674416640005","13","-1","1","","","","","","","","","","","","",""
"psychophysics","168","612956","0.0-12.0-0.39","5f6a6797690a7411965ea6cb","609006691f6f4e337c17f836","609a6121a007584bb24e6a37","754.335000005085","","","","37","","","","key","16.662019047618934","960","468.5","true","1","134.42454369484793","1.3194139533312006","14","1","-1","","","","","","","","","","","","",""
"html-keyboard-response","169","639405","0.0-13.0","5f6a6797690a7411965ea6cb","609006691f6f4e337c17f836","609a6121a007584bb24e6a37","26446.980000000563","<p>Well Done !</p><p>Prepare for a new block.</p><p>DON'T EXIT THE FULL SCREEN MODE</p><p>Press the Spacebar to start.</p>","","","32","","","","","","","","","","","","","","","true","133.36652212223993","","","","","","","","","","",""
"html-keyboard-response","170","639513","0.0-14.0","5f6a6797690a7411965ea6cb","609006691f6f4e337c17f836","609a6121a007584bb24e6a37","null","","","","null","","","","","","","","","","","","","","","","","134.46602153998197","true","140.93204307996393","","","","","","","",""
"instructions","171","678935","0.0-15.0","5f6a6797690a7411965ea6cb","609006691f6f4e337c17f836","609a6121a007584bb24e6a37","39420.250000002794","","","","","","","[{""page_index"":0,""viewing_time"":31702.720000001136},{""page_index"":1,""viewing_time"":2451.885000002221},{""page_index"":2,""viewing_time"":5265.149999999325}]","","","","","","","","","","","","","","","","","","","","","","","",""
"psychophysics","172","681940","0.0-16.0-0.0","5f6a6797690a7411965ea6cb","609006691f6f4e337c17f836","609a6121a007584bb24e6a37","null","","","","null","","","","key","16.660716666667334","960","468.5","","","","","","","","","","","","","","","","","","","",""
"psychophysics","173","682442","0.0-16.0-1.0","5f6a6797690a7411965ea6cb","609006691f6f4e337c17f836","609a6121a007584bb24e6a37","null","","","","null","","","","key","16.661275862069832","960","468.5","","","","","","","","","","","","","141","-1","6","false","","","",""
"psychophysics","174","684568","0.0-16.0-2.0","5f6a6797690a7411965ea6cb","609006691f6f4e337c17f836","609a6121a007584bb24e6a37","2122.4599999985658","","","","90","","","","key","16.662968503937353","960","468.5","","","","","","","","","","","","","","","","","","","",""
"psychophysics","175","685569","0.0-16.0-0.1","5f6a6797690a7411965ea6cb","609006691f6f4e337c17f836","609a6121a007584bb24e6a37","null","","","","null","","","","key","16.66622033898158","960","468.5","","","","","","","","","","","","","","","","","","","",""
"psychophysics","176","686072","0.0-16.0-1.1","5f6a6797690a7411965ea6cb","609006691f6f4e337c17f836","609a6121a007584bb24e6a37","null","","","","null","","","","key","16.661310344826077","960","468.5","","","","","","","","","","","","","141","-1","0","false","","","",""
"psychophysics","177","686582","0.0-16.0-2.1","5f6a6797690a7411965ea6cb","609006691f6f4e337c17f836","609a6121a007584bb24e6a37","506.87000000465196","","","","90","","","","key","16.666699999997704","960","468.5","","","","","","","","","","","","","","","","","","","",""
"psychophysics","178","687585","0.0-16.0-0.2","5f6a6797690a7411965ea6cb","609006691f6f4e337c17f836","609a6121a007584bb24e6a37","null","","","","null","","","","key","16.666169491525487","960","468.5","","","","","","","","","","","","","","","","","","","",""
"psychophysics","179","688087","0.0-16.0-1.2","5f6a6797690a7411965ea6cb","609006691f6f4e337c17f836","609a6121a007584bb24e6a37","null","","","","null","","","","key","16.657551724138543","960","468.5","","","","","","","","","","","","","141","-1","3","false","","","",""
"psychophysics","180","688712","0.0-16.0-2.2","5f6a6797690a7411965ea6cb","609006691f6f4e337c17f836","609a6121a007584bb24e6a37","621.1799999945797","","","","90","","","","key","16.65066666666664","960","468.5","","","","","","","","","","","","","","","","","","","",""
"psychophysics","181","689716","0.0-16.0-0.3","5f6a6797690a7411965ea6cb","609006691f6f4e337c17f836","609a6121a007584bb24e6a37","null","","","","null","","","","key","16.665133333332292","960","468.5","","","","","","","","","","","","","","","","","","","",""
"psychophysics","182","690219","0.0-16.0-1.3","5f6a6797690a7411965ea6cb","609006691f6f4e337c17f836","609a6121a007584bb24e6a37","null","","","","null","","","","key","16.65168965517158","960","468.5","","","","","","","","","","","","","141","1","0","false","","","",""
"psychophysics","183","690836","0.0-16.0-2.3","5f6a6797690a7411965ea6cb","609006691f6f4e337c17f836","609a6121a007584bb24e6a37","615.3699999996461","","","","77","","","","key","16.657638888890183","960","468.5","","","","","","","","","","","","","","","","","","","",""
"psychophysics","184","691838","0.0-16.0-0.4","5f6a6797690a7411965ea6cb","609006691f6f4e337c17f836","609a6121a007584bb24e6a37","null","","","","null","","","","key","16.6588305084753","960","468.5","","","","","","","","","","","","","","","","","","","",""
"psychophysics","185","692341","0.0-16.0-1.4","5f6a6797690a7411965ea6cb","609006691f6f4e337c17f836","609a6121a007584bb24e6a37","null","","","","null","","","","key","16.659793103450973","960","468.5","","","","","","","","","","","","","141","1","2","false","","","",""
"psychophysics","186","692914","0.0-16.0-2.4","5f6a6797690a7411965ea6cb","609006691f6f4e337c17f836","609a6121a007584bb24e6a37","569.8750000009313","","","","77","","","","key","16.66694117646993","960","468.5","","","","","","","","","","","","","","","","","","","",""
"psychophysics","187","693918","0.0-16.0-0.5","5f6a6797690a7411965ea6cb","609006691f6f4e337c17f836","609a6121a007584bb24e6a37","null","","","","null","","","","key","16.666864406779187","960","468.5","","","","","","","","","","","","","","","","","","","",""
"psychophysics","188","694420","0.0-16.0-1.5","5f6a6797690a7411965ea6cb","609006691f6f4e337c17f836","609a6121a007584bb24e6a37","null","","","","null","","","","key","16.6647931034476","960","468.5","","","","","","","","","","","","","141","1","3","false","","","",""
"psychophysics","189","694685","0.0-16.0-2.5","5f6a6797690a7411965ea6cb","609006691f6f4e337c17f836","609a6121a007584bb24e6a37","263.6549999952549","","","","77","","","","key","16.661333333328365","960","468.5","","","","","","","","","","","","","","","","","","","",""
"psychophysics","190","695687","0.0-16.0-0.6","5f6a6797690a7411965ea6cb","609006691f6f4e337c17f836","609a6121a007584bb24e6a37","null","","","","null","","","","key","16.662762711864453","960","468.5","","","","","","","","","","","","","","","","","","","",""
"psychophysics","191","696191","0.0-16.0-1.6","5f6a6797690a7411965ea6cb","609006691f6f4e337c17f836","609a6121a007584bb24e6a37","null","","","","null","","","","key","16.661758620689366","960","468.5","","","","","","","","","","","","","141","1","4","false","","","",""
"psychophysics","192","701081","0.0-16.0-2.6","5f6a6797690a7411965ea6cb","609006691f6f4e337c17f836","609a6121a007584bb24e6a37","4887.4500000019325","","","","77","","","","key","16.66258703071645","960","468.5","","","","","","","","","","","","","","","","","","","",""
"psychophysics","193","702082","0.0-16.0-0.7","5f6a6797690a7411965ea6cb","609006691f6f4e337c17f836","609a6121a007584bb24e6a37","null","","","","null","","","","key","16.657322033898417","960","468.5","","","","","","","","","","","","","","","","","","","",""
"psychophysics","194","702585","0.0-16.0-1.7","5f6a6797690a7411965ea6cb","609006691f6f4e337c17f836","609a6121a007584bb24e6a37","null","","","","null","","","","key","16.656620689651703","960","468.5","","","","","","","","","","","","","141","-1","4","false","","","",""
"psychophysics","195","704722","0.0-16.0-2.7","5f6a6797690a7411965ea6cb","609006691f6f4e337c17f836","609a6121a007584bb24e6a37","2133.910000004107","","","","77","","","","key","16.661236220472087","960","468.5","","","","","","","","","","","","","","","","","","","",""
"psychophysics","196","705724","0.0-16.0-0.8","5f6a6797690a7411965ea6cb","609006691f6f4e337c17f836","609a6121a007584bb24e6a37","null","","","","null","","","","key","16.664542372881087","960","468.5","","","","","","","","","","","","","","","","","","","",""
"psychophysics","197","706228","0.0-16.0-1.8","5f6a6797690a7411965ea6cb","609006691f6f4e337c17f836","609a6121a007584bb24e6a37","null","","","","null","","","","key","16.66279999999873","960","468.5","","","","","","","","","","","","","141","1","6","false","","","",""
"psychophysics","198","706598","0.0-16.0-2.8","5f6a6797690a7411965ea6cb","609006691f6f4e337c17f836","609a6121a007584bb24e6a37","367.5199999997858","","","","77","","","","key","16.65066666666618","960","468.5","","","","","","","","","","","","","","","","","","","",""
"psychophysics","199","707600","0.0-16.0-0.9","5f6a6797690a7411965ea6cb","609006691f6f4e337c17f836","609a6121a007584bb24e6a37","null","","","","null","","","","key","16.665779661016256","960","468.5","","","","","","","","","","","","","","","","","","","",""
"psychophysics","200","708103","0.0-16.0-1.9","5f6a6797690a7411965ea6cb","609006691f6f4e337c17f836","609a6121a007584bb24e6a37","null","","","","null","","","","key","16.66103448275605","960","468.5","","","","","","","","","","","","","141","-1","2","false","","","",""
"psychophysics","201","709439","0.0-16.0-2.9","5f6a6797690a7411965ea6cb","609006691f6f4e337c17f836","609a6121a007584bb24e6a37","1332.6950000047218","","","","90","","","","key","16.664544303796866","960","468.5","","","","","","","","","","","","","","","","","","","",""
"psychophysics","202","710442","0.0-16.0-0.10","5f6a6797690a7411965ea6cb","609006691f6f4e337c17f836","609a6121a007584bb24e6a37","null","","","","null","","","","key","16.66958333333217","960","468.5","","","","","","","","","","","","","","","","","","","",""
"psychophysics","203","710945","0.0-16.0-1.10","5f6a6797690a7411965ea6cb","609006691f6f4e337c17f836","609a6121a007584bb24e6a37","null","","","","null","","","","key","16.673172413793008","960","468.5","","","","","","","","","","","","","141","-1","5","false","","","",""
"psychophysics","204","711303","0.0-16.0-2.10","5f6a6797690a7411965ea6cb","609006691f6f4e337c17f836","609a6121a007584bb24e6a37","356.2450000026729","","","","77","","","","key","16.656599999999163","960","468.5","","","","","","","","","","","","","","","","","","","",""
"psychophysics","205","712305","0.0-16.0-0.11","5f6a6797690a7411965ea6cb","609006691f6f4e337c17f836","609a6121a007584bb24e6a37","null","","","","null","","","","key","16.6657966101696","960","468.5","","","","","","","","","","","","","","","","","","","",""
"psychophysics","206","712808","0.0-16.0-1.11","5f6a6797690a7411965ea6cb","609006691f6f4e337c17f836","609a6121a007584bb24e6a37","null","","","","null","","","","key","16.667133333332217","960","468.5","","","","","","","","","","","","","141","1","5","false","","","",""
"psychophysics","207","713196","0.0-16.0-2.11","5f6a6797690a7411965ea6cb","609006691f6f4e337c17f836","609a6121a007584bb24e6a37","384.2750000039814","","","","77","","","","key","16.64972727272702","960","468.5","","","","","","","","","","","","","","","","","","","",""
"psychophysics","208","714198","0.0-16.0-0.12","5f6a6797690a7411965ea6cb","609006691f6f4e337c17f836","609a6121a007584bb24e6a37","null","","","","null","","","","key","16.6593220338987","960","468.5","","","","","","","","","","","","","","","","","","","",""
"psychophysics","209","714701","0.0-16.0-1.12","5f6a6797690a7411965ea6cb","609006691f6f4e337c17f836","609a6121a007584bb24e6a37","null","","","","null","","","","key","16.663793103448278","960","468.5","","","","","","","","","","","","","141","1","6","false","","","",""
"psychophysics","210","716125","0.0-16.0-2.12","5f6a6797690a7411965ea6cb","609006691f6f4e337c17f836","609a6121a007584bb24e6a37","1421.040000001085","","","","77","","","","key","16.66332941176507","960","468.5","","","","","","","","","","","","","","","","","","","",""
"psychophysics","211","717127","0.0-16.0-0.13","5f6a6797690a7411965ea6cb","609006691f6f4e337c17f836","609a6121a007584bb24e6a37","null","","","","null","","","","key","16.66232203389715","960","468.5","","","","","","","","","","","","","","","","","","","",""
"psychophysics","212","717629","0.0-16.0-1.13","5f6a6797690a7411965ea6cb","609006691f6f4e337c17f836","609a6121a007584bb24e6a37","null","","","","null","","","","key","16.660000000000483","960","468.5","","","","","","","","","","","","","141","-1","6","false","","","",""
"psychophysics","213","718893","0.0-16.0-2.13","5f6a6797690a7411965ea6cb","609006691f6f4e337c17f836","609a6121a007584bb24e6a37","1260.675000004936","","","","77","","","","key","16.66155999999959","960","468.5","","","","","","","","","","","","","","","","","","","",""
"psychophysics","214","719896","0.0-16.0-0.14","5f6a6797690a7411965ea6cb","609006691f6f4e337c17f836","609a6121a007584bb24e6a37","null","","","","null","","","","key","16.665423728813717","960","468.5","","","","","","","","","","","","","","","","","","","",""
"psychophysics","215","720399","0.0-16.0-1.14","5f6a6797690a7411965ea6cb","609006691f6f4e337c17f836","609a6121a007584bb24e6a37","null","","","","null","","","","key","16.666000000000448","960","468.5","","","","","","","","","","","","","141","-1","2","false","","","",""
"psychophysics","216","720861","0.0-16.0-2.14","5f6a6797690a7411965ea6cb","609006691f6f4e337c17f836","609a6121a007584bb24e6a37","460.1500000063097","","","","90","","","","key","16.67399999999907","960","468.5","","","","","","","","","","","","","","","","","","","",""
"psychophysics","217","721862","0.0-16.0-0.15","5f6a6797690a7411965ea6cb","609006691f6f4e337c17f836","609a6121a007584bb24e6a37","null","","","","null","","","","key","16.663457627118156","960","468.5","","","","","","","","","","","","","","","","","","","",""
"psychophysics","218","722365","0.0-16.0-1.15","5f6a6797690a7411965ea6cb","609006691f6f4e337c17f836","609a6121a007584bb24e6a37","null","","","","null","","","","key","16.663344827584986","960","468.5","","","","","","","","","","","","","141","1","4","false","","","",""
"psychophysics","219","722823","0.0-16.0-2.15","5f6a6797690a7411965ea6cb","609006691f6f4e337c17f836","609a6121a007584bb24e6a37","455.87000000523403","","","","90","","","","key","16.67770370370191","960","468.5","","","","","","","","","","","","","","","","","","","",""
"psychophysics","220","723825","0.0-16.0-0.16","5f6a6797690a7411965ea6cb","609006691f6f4e337c17f836","609a6121a007584bb24e6a37","null","","","","null","","","","key","16.657864406779883","960","468.5","","","","","","","","","","","","","","","","","","","",""
"psychophysics","221","724328","0.0-16.0-1.16","5f6a6797690a7411965ea6cb","609006691f6f4e337c17f836","609a6121a007584bb24e6a37","null","","","","null","","","","key","16.65093103448202","960","468.5","","","","","","","","","","","","","141","1","3","false","","","",""
"psychophysics","222","725800","0.0-16.0-2.16","5f6a6797690a7411965ea6cb","609006691f6f4e337c17f836","609a6121a007584bb24e6a37","1470.689999994589","","","","90","","","","key","16.66235632183908","960","468.5","","","","","","","","","","","","","","","","","","","",""
"psychophysics","223","726803","0.0-16.0-0.17","5f6a6797690a7411965ea6cb","609006691f6f4e337c17f836","609a6121a007584bb24e6a37","null","","","","null","","","","key","16.667066666666262","960","468.5","","","","","","","","","","","","","","","","","","","",""
"psychophysics","224","727306","0.0-16.0-1.17","5f6a6797690a7411965ea6cb","609006691f6f4e337c17f836","609a6121a007584bb24e6a37","null","","","","null","","","","key","16.65393103448401","960","468.5","","","","","","","","","","","","","141","1","2","false","","","",""
"psychophysics","225","727771","0.0-16.0-2.17","5f6a6797690a7411965ea6cb","609006691f6f4e337c17f836","609a6121a007584bb24e6a37","461.2699999997858","","","","90","","","","key","16.658888888890267","960","468.5","","","","","","","","","","","","","","","","","","","",""
"psychophysics","226","728773","0.0-16.0-0.18","5f6a6797690a7411965ea6cb","609006691f6f4e337c17f836","609a6121a007584bb24e6a37","null","","","","null","","","","key","16.658999999998912","960","468.5","","","","","","","","","","","","","","","","","","","",""
"psychophysics","227","729275","0.0-16.0-1.18","5f6a6797690a7411965ea6cb","609006691f6f4e337c17f836","609a6121a007584bb24e6a37","null","","","","null","","","","key","16.672275862070443","960","468.5","","","","","","","","","","","","","141","1","0","false","","","",""
"psychophysics","228","729770","0.0-16.0-2.18","5f6a6797690a7411965ea6cb","609006691f6f4e337c17f836","609a6121a007584bb24e6a37","492.8050000015646","","","","77","","","","key","16.66117241379307","960","468.5","","","","","","","","","","","","","","","","","","","",""
"psychophysics","229","730772","0.0-16.0-0.19","5f6a6797690a7411965ea6cb","609006691f6f4e337c17f836","609a6121a007584bb24e6a37","null","","","","null","","","","key","16.656576271186648","960","468.5","","","","","","","","","","","","","","","","","","","",""
"psychophysics","230","731274","0.0-16.0-1.19","5f6a6797690a7411965ea6cb","609006691f6f4e337c17f836","609a6121a007584bb24e6a37","null","","","","null","","","","key","16.650896551725776","960","468.5","","","","","","","","","","","","","141","-1","3","false","","","",""
"psychophysics","231","731716","0.0-16.0-2.19","5f6a6797690a7411965ea6cb","609006691f6f4e337c17f836","609a6121a007584bb24e6a37","438.76499999896623","","","","77","","","","key","16.650159999998287","960","468.5","","","","","","","","","","","","","","","","","","","",""
"psychophysics","232","732718","0.0-16.0-0.20","5f6a6797690a7411965ea6cb","609006691f6f4e337c17f836","609a6121a007584bb24e6a37","null","","","","null","","","","key","16.666499999999846","960","468.5","","","","","","","","","","","","","","","","","","","",""
"psychophysics","233","733221","0.0-16.0-1.20","5f6a6797690a7411965ea6cb","609006691f6f4e337c17f836","609a6121a007584bb24e6a37","null","","","","null","","","","key","16.67472413792837","960","468.5","","","","","","","","","","","","","141","-1","0","false","","","",""
"psychophysics","234","733632","0.0-16.0-2.20","5f6a6797690a7411965ea6cb","609006691f6f4e337c17f836","609a6121a007584bb24e6a37","408.79499999573454","","","","77","","","","key","16.686999999999028","960","468.5","","","","","","","","","","","","","","","","","","","",""
"psychophysics","235","734636","0.0-16.0-0.21","5f6a6797690a7411965ea6cb","609006691f6f4e337c17f836","609a6121a007584bb24e6a37","null","","","","null","","","","key","16.66709999999924","960","468.5","","","","","","","","","","","","","","","","","","","",""
"psychophysics","236","735138","0.0-16.0-1.21","5f6a6797690a7411965ea6cb","609006691f6f4e337c17f836","609a6121a007584bb24e6a37","null","","","","null","","","","key","16.66482758620786","960","468.5","","","","","","","","","","","","","141","-1","5","false","","","",""
"psychophysics","237","735669","0.0-16.0-2.21","5f6a6797690a7411965ea6cb","609006691f6f4e337c17f836","609a6121a007584bb24e6a37","529.2150000024121","","","","77","","","","key","16.65764516128993","960","468.5","","","","","","","","","","","","","","","","","","","",""
"psychophysics","238","736672","0.0-16.0-0.22","5f6a6797690a7411965ea6cb","609006691f6f4e337c17f836","609a6121a007584bb24e6a37","null","","","","null","","","","key","16.66627118643965","960","468.5","","","","","","","","","","","","","","","","","","","",""
"psychophysics","239","737174","0.0-16.0-1.22","5f6a6797690a7411965ea6cb","609006691f6f4e337c17f836","609a6121a007584bb24e6a37","null","","","","null","","","","key","16.663758620688018","960","468.5","","","","","","","","","","","","","141","1","5","false","","","",""
"psychophysics","240","737551","0.0-16.0-2.22","5f6a6797690a7411965ea6cb","609006691f6f4e337c17f836","609a6121a007584bb24e6a37","374.49999999802094","","","","77","","","","key","16.67718181818385","960","468.5","","","","","","","","","","","","","","","","","","","",""
"psychophysics","241","738554","0.0-16.0-0.23","5f6a6797690a7411965ea6cb","609006691f6f4e337c17f836","609a6121a007584bb24e6a37","null","","","","null","","","","key","16.66086440678031","960","468.5","","","","","","","","","","","","","","","","","","","",""
"psychophysics","242","739055","0.0-16.0-1.23","5f6a6797690a7411965ea6cb","609006691f6f4e337c17f836","609a6121a007584bb24e6a37","null","","","","null","","","","key","16.662827586205193","960","468.5","","","","","","","","","","","","","141","-1","4","false","","","",""
"psychophysics","243","739358","0.0-16.0-2.23","5f6a6797690a7411965ea6cb","609006691f6f4e337c17f836","609a6121a007584bb24e6a37","301.0599999979604","","","","77","","","","key","16.668411764706594","960","468.5","","","","","","","","","","","","","","","","","","","",""
"html-keyboard-response","244","741831","0.0-17.0","5f6a6797690a7411965ea6cb","609006691f6f4e337c17f836","609a6121a007584bb24e6a37","2471.5300000024727","<p>Well Done !</p><p>Training Complete. Press the spacebar to start.</p><p>DON'T EXIT THE FULL SCREEN MODE</p>","","","32","","","","","","","","","","","","","","","","","","","","","","","","","","",""
"psychophysics","245","744846","0.0-18.0-0.0","5f6a6797690a7411965ea6cb","609006691f6f4e337c17f836","609a6121a007584bb24e6a37","null","","","","null","","","","key","16.94862711864279","960","468.5","","","","","","","","","","","","","","","","","","","",""
"psychophysics","246","745363","0.0-18.0-1.0","5f6a6797690a7411965ea6cb","609006691f6f4e337c17f836","609a6121a007584bb24e6a37","null","","","","null","","","","key","16.66219999999739","960","468.5","","","","","","","","","","","","","141","-1","6","true","","","",""
"psychophysics","247","747491","0.0-18.0-2.0","5f6a6797690a7411965ea6cb","609006691f6f4e337c17f836","609a6121a007584bb24e6a37","2121.124999997788","","","","90","","","","key","16.658566929134135","960","468.5","","","","","","","","","","","","","","","","","","","",""
"psychophysics","248","748495","0.0-18.0-0.1","5f6a6797690a7411965ea6cb","609006691f6f4e337c17f836","609a6121a007584bb24e6a37","null","","","","null","","","","key","16.66610169491407","960","468.5","","","","","","","","","","","","","","","","","","","",""
"psychophysics","249","749006","0.0-18.0-1.1","5f6a6797690a7411965ea6cb","609006691f6f4e337c17f836","609a6121a007584bb24e6a37","null","","","","null","","","","key","16.663233333333242","960","468.5","","","","","","","","","","","","","141","1","2","true","","","",""
"psychophysics","250","750134","0.0-18.0-2.1","5f6a6797690a7411965ea6cb","609006691f6f4e337c17f836","609a6121a007584bb24e6a37","1125.0599999985425","","","","77","","","","key","16.651850746268643","960","468.5","","","","","","","","","","","","","","","","","","","",""
"psychophysics","251","751141","0.0-18.0-0.2","5f6a6797690a7411965ea6cb","609006691f6f4e337c17f836","609a6121a007584bb24e6a37","null","","","","null","","","","key","16.66269491525501","960","468.5","","","","","","","","","","","","","","","","","","","",""
"psychophysics","252","751644","0.0-18.0-1.2","5f6a6797690a7411965ea6cb","609006691f6f4e337c17f836","609a6121a007584bb24e6a37","null","","","","null","","","","key","16.669758620687986","960","468.5","","","","","","","","","","","","","141","1","4","true","","","",""
"psychophysics","253","752146","0.0-18.0-2.2","5f6a6797690a7411965ea6cb","609006691f6f4e337c17f836","609a6121a007584bb24e6a37","496.48500000324566","","","","77","","","","key","16.64679999999935","960","468.5","","","","","","","","","","","","","","","","","","","",""
"psychophysics","254","753162","0.0-18.0-0.3","5f6a6797690a7411965ea6cb","609006691f6f4e337c17f836","609a6121a007584bb24e6a37","null","","","","null","","","","key","16.665711864406813","960","468.5","","","","","","","","","","","","","","","","","","","",""
"psychophysics","255","753677","0.0-18.0-1.3","5f6a6797690a7411965ea6cb","609006691f6f4e337c17f836","609a6121a007584bb24e6a37","null","","","","null","","","","key","16.65193333333203","960","468.5","","","","","","","","","","","","","141","1","6","true","","","",""
"psychophysics","256","754024","0.0-18.0-2.3","5f6a6797690a7411965ea6cb","609006691f6f4e337c17f836","609a6121a007584bb24e6a37","341.0599999987753","","","","77","","","","key","16.64079999999958","960","468.5","","","","","","","","","","","","","","","","","","","",""
"psychophysics","257","755026","0.0-18.0-0.4","5f6a6797690a7411965ea6cb","609006691f6f4e337c17f836","609a6121a007584bb24e6a37","null","","","","null","","","","key","16.666864406779187","960","468.5","","","","","","","","","","","","","","","","","","","",""
"psychophysics","258","755543","0.0-18.0-1.4","5f6a6797690a7411965ea6cb","609006691f6f4e337c17f836","609a6121a007584bb24e6a37","null","","","","null","","","","key","16.660699999999874","960","468.5","","","","","","","","","","","","","141","1","5","true","","","",""
"psychophysics","259","756073","0.0-18.0-2.4","5f6a6797690a7411965ea6cb","609006691f6f4e337c17f836","609a6121a007584bb24e6a37","523.8150000005262","","","","77","","","","key","16.666193548387156","960","468.5","","","","","","","","","","","","","","","","","","","",""
"psychophysics","260","757076","0.0-18.0-0.5","5f6a6797690a7411965ea6cb","609006691f6f4e337c17f836","609a6121a007584bb24e6a37","null","","","","null","","","","key","16.667559322032886","960","468.5","","","","","","","","","","","","","","","","","","","",""
"psychophysics","261","757588","0.0-18.0-1.5","5f6a6797690a7411965ea6cb","609006691f6f4e337c17f836","609a6121a007584bb24e6a37","null","","","","null","","","","key","16.65606666666766","960","468.5","","","","","","","","","","","","","141","1","3","true","","","",""
"psychophysics","262","758505","0.0-18.0-2.5","5f6a6797690a7411965ea6cb","609006691f6f4e337c17f836","609a6121a007584bb24e6a37","913.6050000014948","","","","77","","","","key","16.673648148147752","960","468.5","","","","","","","","","","","","","","","","","","","",""
"psychophysics","263","759508","0.0-18.0-0.6","5f6a6797690a7411965ea6cb","609006691f6f4e337c17f836","609a6121a007584bb24e6a37","null","","","","null","","","","key","16.658983050847535","960","468.5","","","","","","","","","","","","","","","","","","","",""
"psychophysics","264","760010","0.0-18.0-1.6","5f6a6797690a7411965ea6cb","609006691f6f4e337c17f836","609a6121a007584bb24e6a37","null","","","","null","","","","key","16.684500000001087","960","468.5","","","","","","","","","","","","","141","1","0","true","","","",""
"psychophysics","265","761541","0.0-18.0-2.6","5f6a6797690a7411965ea6cb","609006691f6f4e337c17f836","609a6121a007584bb24e6a37","1527.2600000025705","","","","77","","","","key","16.667255555556363","960","468.5","","","","","","","","","","","","","","","","","","","",""
"psychophysics","266","762547","0.0-18.0-0.7","5f6a6797690a7411965ea6cb","609006691f6f4e337c17f836","609a6121a007584bb24e6a37","null","","","","null","","","","key","16.665416666667443","960","468.5","","","","","","","","","","","","","","","","","","","",""
"psychophysics","267","763049","0.0-18.0-1.7","5f6a6797690a7411965ea6cb","609006691f6f4e337c17f836","609a6121a007584bb24e6a37","null","","","","null","","","","key","16.65906896551766","960","468.5","","","","","","","","","","","","","141","-1","2","true","","","",""
"psychophysics","268","763485","0.0-18.0-2.7","5f6a6797690a7411965ea6cb","609006691f6f4e337c17f836","609a6121a007584bb24e6a37","433.6500000061933","","","","90","","","","key","16.663799999998883","960","468.5","","","","","","","","","","","","","","","","","","","",""
"psychophysics","269","764488","0.0-18.0-0.8","5f6a6797690a7411965ea6cb","609006691f6f4e337c17f836","609a6121a007584bb24e6a37","null","","","","null","","","","key","16.658322033898557","960","468.5","","","","","","","","","","","","","","","","","","","",""
"psychophysics","270","764991","0.0-18.0-1.8","5f6a6797690a7411965ea6cb","609006691f6f4e337c17f836","609a6121a007584bb24e6a37","null","","","","null","","","","key","16.66182758620587","960","468.5","","","","","","","","","","","","","141","-1","3","true","","","",""
"psychophysics","271","765299","0.0-18.0-2.8","5f6a6797690a7411965ea6cb","609006691f6f4e337c17f836","609a6121a007584bb24e6a37","301.34499999985565","","","","77","","","","key","16.621166666672153","960","468.5","","","","","","","","","","","","","","","","","","","",""
"psychophysics","272","766307","0.0-18.0-0.9","5f6a6797690a7411965ea6cb","609006691f6f4e337c17f836","609a6121a007584bb24e6a37","null","","","","null","","","","key","16.662169491524917","960","468.5","","","","","","","","","","","","","","","","","","","",""
"psychophysics","273","766816","0.0-18.0-1.9","5f6a6797690a7411965ea6cb","609006691f6f4e337c17f836","609a6121a007584bb24e6a37","null","","","","null","","","","key","16.650133333331905","960","468.5","","","","","","","","","","","","","141","-1","5","true","","","",""
"psychophysics","274","767136","0.0-18.0-2.9","5f6a6797690a7411965ea6cb","609006691f6f4e337c17f836","609a6121a007584bb24e6a37","317.28000000305474","","","","77","","","","key","16.645944444443256","960","468.5","","","","","","","","","","","","","","","","","","","",""
"psychophysics","275","768139","0.0-18.0-0.10","5f6a6797690a7411965ea6cb","609006691f6f4e337c17f836","609a6121a007584bb24e6a37","null","","","","null","","","","key","16.674508474575813","960","468.5","","","","","","","","","","","","","","","","","","","",""
"psychophysics","276","768657","0.0-18.0-1.10","5f6a6797690a7411965ea6cb","609006691f6f4e337c17f836","609a6121a007584bb24e6a37","null","","","","null","","","","key","16.66093333333265","960","468.5","","","","","","","","","","","","","141","-1","0","true","","","",""
"psychophysics","277","769011","0.0-18.0-2.10","5f6a6797690a7411965ea6cb","609006691f6f4e337c17f836","609a6121a007584bb24e6a37","349.3450000024168","","","","77","","","","key","16.628190476192337","960","468.5","","","","","","","","","","","","","","","","","","","",""
"psychophysics","278","770014","0.0-18.0-0.11","5f6a6797690a7411965ea6cb","609006691f6f4e337c17f836","609a6121a007584bb24e6a37","null","","","","null","","","","key","16.659915254238236","960","468.5","","","","","","","","","","","","","","","","","","","",""
"psychophysics","279","770522","0.0-18.0-1.11","5f6a6797690a7411965ea6cb","609006691f6f4e337c17f836","609a6121a007584bb24e6a37","null","","","","null","","","","key","16.68648275861854","960","468.5","","","","","","","","","","","","","141","-1","4","true","","","",""
"psychophysics","280","770931","0.0-18.0-2.11","5f6a6797690a7411965ea6cb","609006691f6f4e337c17f836","609a6121a007584bb24e6a37","403.044999999227","","","","77","","","","key","16.66899999999926","960","468.5","","","","","","","","","","","","","","","","","","","",""
"psychophysics","281","771936","0.0-18.0-0.12","5f6a6797690a7411965ea6cb","609006691f6f4e337c17f836","609a6121a007584bb24e6a37","null","","","","null","","","","key","16.664559322034435","960","468.5","","","","","","","","","","","","","","","","","","","",""
"psychophysics","282","772438","0.0-18.0-1.12","5f6a6797690a7411965ea6cb","609006691f6f4e337c17f836","609a6121a007584bb24e6a37","null","","","","null","","","","key","16.67134482758762","960","468.5","","","","","","","","","","","","","141","-1","6","true","","","",""
"psychophysics","283","773042","0.0-18.0-2.12","5f6a6797690a7411965ea6cb","609006691f6f4e337c17f836","609a6121a007584bb24e6a37","596.8350000039209","","","","77","","","","key","16.63919444444279","960","468.5","","","","","","","","","","","","","","","","","","","",""
"psychophysics","284","774054","0.0-18.0-0.13","5f6a6797690a7411965ea6cb","609006691f6f4e337c17f836","609a6121a007584bb24e6a37","null","","","","null","","","","key","16.668627118644448","960","468.5","","","","","","","","","","","","","","","","","","","",""
"psychophysics","285","774567","0.0-18.0-1.13","5f6a6797690a7411965ea6cb","609006691f6f4e337c17f836","609a6121a007584bb24e6a37","null","","","","null","","","","key","16.662100000000404","960","468.5","","","","","","","","","","","","","141","-1","3","true","","","",""
"psychophysics","286","775116","0.0-18.0-2.13","5f6a6797690a7411965ea6cb","609006691f6f4e337c17f836","609a6121a007584bb24e6a37","546.0699999966891","","","","90","","","","key","16.684250000002066","960","468.5","","","","","","","","","","","","","","","","","","","",""
"psychophysics","287","776120","0.0-18.0-0.14","5f6a6797690a7411965ea6cb","609006691f6f4e337c17f836","609a6121a007584bb24e6a37","null","","","","null","","","","key","16.666101694916044","960","468.5","","","","","","","","","","","","","","","","","","","",""
"psychophysics","288","776626","0.0-18.0-1.14","5f6a6797690a7411965ea6cb","609006691f6f4e337c17f836","609a6121a007584bb24e6a37","null","","","","null","","","","key","16.672566666663624","960","468.5","","","","","","","","","","","","","141","1","2","true","","","",""
"psychophysics","289","777131","0.0-18.0-2.14","5f6a6797690a7411965ea6cb","609006691f6f4e337c17f836","609a6121a007584bb24e6a37","499.5850000049686","","","","90","","","","key","16.66565517241392","960","468.5","","","","","","","","","","","","","","","","","","","",""
"psychophysics","290","778136","0.0-18.0-0.15","5f6a6797690a7411965ea6cb","609006691f6f4e337c17f836","609a6121a007584bb24e6a37","null","","","","null","","","","key","16.664864406780875","960","468.5","","","","","","","","","","","","","","","","","","","",""
"psychophysics","291","778652","0.0-18.0-1.15","5f6a6797690a7411965ea6cb","609006691f6f4e337c17f836","609a6121a007584bb24e6a37","null","","","","null","","","","key","16.668233333334015","960","468.5","","","","","","","","","","","","","141","1","5","true","","","",""
"psychophysics","292","779239","0.0-18.0-2.15","5f6a6797690a7411965ea6cb","609006691f6f4e337c17f836","609a6121a007584bb24e6a37","582.3349999991478","","","","77","","","","key","16.66811428571652","960","468.5","","","","","","","","","","","","","","","","","","","",""
"psychophysics","293","780242","0.0-18.0-0.16","5f6a6797690a7411965ea6cb","609006691f6f4e337c17f836","609a6121a007584bb24e6a37","null","","","","null","","","","key","16.66330508474592","960","468.5","","","","","","","","","","","","","","","","","","","",""
"psychophysics","294","780751","0.0-18.0-1.16","5f6a6797690a7411965ea6cb","609006691f6f4e337c17f836","609a6121a007584bb24e6a37","null","","","","null","","","","key","16.671931034483915","960","468.5","","","","","","","","","","","","","141","-1","0","true","","","",""
"psychophysics","295","781274","0.0-18.0-2.16","5f6a6797690a7411965ea6cb","609006691f6f4e337c17f836","609a6121a007584bb24e6a37","515.6000000061467","","","","90","","","","key","16.672129032258393","960","468.5","","","","","","","","","","","","","","","","","","","",""
"psychophysics","296","782285","0.0-18.0-0.17","5f6a6797690a7411965ea6cb","609006691f6f4e337c17f836","609a6121a007584bb24e6a37","null","","","","null","","","","key","16.661474576271218","960","468.5","","","","","","","","","","","","","","","","","","","",""
"psychophysics","297","782792","0.0-18.0-1.17","5f6a6797690a7411965ea6cb","609006691f6f4e337c17f836","609a6121a007584bb24e6a37","null","","","","null","","","","key","16.658399999999286","960","468.5","","","","","","","","","","","","","141","-1","5","true","","","",""
"psychophysics","298","783253","0.0-18.0-2.17","5f6a6797690a7411965ea6cb","609006691f6f4e337c17f836","609a6121a007584bb24e6a37","457.6950000047218","","","","77","","","","key","16.65274074073898","960","468.5","","","","","","","","","","","","","","","","","","","",""
"psychophysics","299","784264","0.0-18.0-0.18","5f6a6797690a7411965ea6cb","609006691f6f4e337c17f836","609a6121a007584bb24e6a37","null","","","","null","","","","key","16.656627118644714","960","468.5","","","","","","","","","","","","","","","","","","","",""
"psychophysics","300","784768","0.0-18.0-1.18","5f6a6797690a7411965ea6cb","609006691f6f4e337c17f836","609a6121a007584bb24e6a37","null","","","","null","","","","key","16.667620689656328","960","468.5","","","","","","","","","","","","","141","1","6","true","","","",""
"psychophysics","301","785847","0.0-18.0-2.18","5f6a6797690a7411965ea6cb","609006691f6f4e337c17f836","609a6121a007584bb24e6a37","1074.5899999965914","","","","77","","","","key","16.662828124999578","960","468.5","","","","","","","","","","","","","","","","","","","",""
"psychophysics","302","786851","0.0-18.0-0.19","5f6a6797690a7411965ea6cb","609006691f6f4e337c17f836","609a6121a007584bb24e6a37","null","","","","null","","","","key","16.669915254237683","960","468.5","","","","","","","","","","","","","","","","","","","",""
"psychophysics","303","787356","0.0-18.0-1.19","5f6a6797690a7411965ea6cb","609006691f6f4e337c17f836","609a6121a007584bb24e6a37","null","","","","null","","","","key","16.65900000000062","960","468.5","","","","","","","","","","","","","141","1","0","true","","","",""
"psychophysics","304","787660","0.0-18.0-2.19","5f6a6797690a7411965ea6cb","609006691f6f4e337c17f836","609a6121a007584bb24e6a37","301.38499999884516","","","","90","","","","key","16.69523529411869","960","468.5","","","","","","","","","","","","","","","","","","","",""
"psychophysics","305","788667","0.0-18.0-0.20","5f6a6797690a7411965ea6cb","609006691f6f4e337c17f836","609a6121a007584bb24e6a37","null","","","","null","","","","key","16.673813559322113","960","468.5","","","","","","","","","","","","","","","","","","","",""
"psychophysics","306","789183","0.0-18.0-1.20","5f6a6797690a7411965ea6cb","609006691f6f4e337c17f836","609a6121a007584bb24e6a37","null","","","","null","","","","key","16.663066666666417","960","468.5","","","","","","","","","","","","","141","-1","4","true","","","",""
"psychophysics","307","789598","0.0-18.0-2.20","5f6a6797690a7411965ea6cb","609006691f6f4e337c17f836","609a6121a007584bb24e6a37","408.8800000026822","","","","77","","","","key","16.661625000003067","960","468.5","","","","","","","","","","","","","","","","","","","",""
"psychophysics","308","790601","0.0-18.0-0.21","5f6a6797690a7411965ea6cb","609006691f6f4e337c17f836","609a6121a007584bb24e6a37","null","","","","null","","","","key","16.668399999998897","960","468.5","","","","","","","","","","","","","","","","","","","",""
"psychophysics","309","791115","0.0-18.0-1.21","5f6a6797690a7411965ea6cb","609006691f6f4e337c17f836","609a6121a007584bb24e6a37","null","","","","null","","","","key","16.662551724139185","960","468.5","","","","","","","","","","","","","141","-1","2","true","","","",""
"psychophysics","310","791973","0.0-18.0-2.21","5f6a6797690a7411965ea6cb","609006691f6f4e337c17f836","609a6121a007584bb24e6a37","851.669999996433","","","","90","","","","key","16.663039215685178","960","468.5","","","","","","","","","","","","","","","","","","","",""
"psychophysics","311","792982","0.0-18.0-0.22","5f6a6797690a7411965ea6cb","609006691f6f4e337c17f836","609a6121a007584bb24e6a37","null","","","","null","","","","key","16.66538983050702","960","468.5","","","","","","","","","","","","","","","","","","","",""
"psychophysics","312","793498","0.0-18.0-1.22","5f6a6797690a7411965ea6cb","609006691f6f4e337c17f836","609a6121a007584bb24e6a37","null","","","","null","","","","key","16.663400000000063","960","468.5","","","","","","","","","","","","","141","1","4","true","","","",""
"psychophysics","313","793877","0.0-18.0-2.22","5f6a6797690a7411965ea6cb","609006691f6f4e337c17f836","609a6121a007584bb24e6a37","373.7900000051595","","","","77","","","","key","16.675772727276623","960","468.5","","","","","","","","","","","","","","","","","","","",""
"psychophysics","314","794881","0.0-18.0-0.23","5f6a6797690a7411965ea6cb","609006691f6f4e337c17f836","609a6121a007584bb24e6a37","null","","","","null","","","","key","16.66708474576284","960","468.5","","","","","","","","","","","","","","","","","","","",""
"psychophysics","315","795384","0.0-18.0-1.23","5f6a6797690a7411965ea6cb","609006691f6f4e337c17f836","609a6121a007584bb24e6a37","null","","","","null","","","","key","16.66543333333296","960","468.5","","","","","","","","","","","","","141","1","3","true","","","",""
"psychophysics","316","795876","0.0-18.0-2.23","5f6a6797690a7411965ea6cb","609006691f6f4e337c17f836","609a6121a007584bb24e6a37","487.78999999910593","","","","77","","","","key","16.66860714285784","960","468.5","","","","","","","","","","","","","","","","","","","",""
"psychophysics","317","796880","0.0-18.0-0.24","5f6a6797690a7411965ea6cb","609006691f6f4e337c17f836","609a6121a007584bb24e6a37","null","","","","null","","","","key","16.667762711865166","960","468.5","","","","","","","","","","","","","","","","","","","",""
"psychophysics","318","797397","0.0-18.0-1.24","5f6a6797690a7411965ea6cb","609006691f6f4e337c17f836","609a6121a007584bb24e6a37","null","","","","null","","","","key","16.65763333333113","960","468.5","","","","","","","","","","","","","141","-1","6","true","","","",""
"psychophysics","319","797805","0.0-18.0-2.24","5f6a6797690a7411965ea6cb","609006691f6f4e337c17f836","609a6121a007584bb24e6a37","400.73000000126194","","","","77","","","","key","16.64337499999965","960","468.5","","","","","","","","","","","","","","","","","","","",""
"psychophysics","320","798813","0.0-18.0-0.25","5f6a6797690a7411965ea6cb","609006691f6f4e337c17f836","609a6121a007584bb24e6a37","null","","","","null","","","","key","16.665016949151138","960","468.5","","","","","","","","","","","","","","","","","","","",""
"psychophysics","321","799327","0.0-18.0-1.25","5f6a6797690a7411965ea6cb","609006691f6f4e337c17f836","609a6121a007584bb24e6a37","null","","","","null","","","","key","16.66496666666741","960","468.5","","","","","","","","","","","","","141","-1","5","true","","","",""
"psychophysics","322","800565","0.0-18.0-2.25","5f6a6797690a7411965ea6cb","609006691f6f4e337c17f836","609a6121a007584bb24e6a37","1232.6350000003586","","","","77","","","","key","16.67031081081085","960","468.5","","","","","","","","","","","","","","","","","","","",""
"psychophysics","323","801567","0.0-18.0-0.26","5f6a6797690a7411965ea6cb","609006691f6f4e337c17f836","609a6121a007584bb24e6a37","null","","","","null","","","","key","16.673864406780183","960","468.5","","","","","","","","","","","","","","","","","","","",""
"psychophysics","324","802078","0.0-18.0-1.26","5f6a6797690a7411965ea6cb","609006691f6f4e337c17f836","609a6121a007584bb24e6a37","null","","","","null","","","","key","16.662448275862424","960","468.5","","","","","","","","","","","","","141","1","6","true","","","",""
"psychophysics","325","802677","0.0-18.0-2.26","5f6a6797690a7411965ea6cb","609006691f6f4e337c17f836","609a6121a007584bb24e6a37","594.7650000015274","","","","77","","","","key","16.671857142857544","960","468.5","","","","","","","","","","","","","","","","","","","",""
"psychophysics","326","803680","0.0-18.0-0.27","5f6a6797690a7411965ea6cb","609006691f6f4e337c17f836","609a6121a007584bb24e6a37","null","","","","null","","","","key","16.6681999999991","960","468.5","","","","","","","","","","","","","","","","","","","",""
"psychophysics","327","804186","0.0-18.0-1.27","5f6a6797690a7411965ea6cb","609006691f6f4e337c17f836","609a6121a007584bb24e6a37","null","","","","null","","","","key","16.676241379311502","960","468.5","","","","","","","","","","","","","141","1","0","true","","","",""
