"trial_type","trial_index","time_elapsed","internal_node_id","PROLIFIC_PID","STUDY_ID","SESSION_ID","rt","stimulus","button_pressed","success","key_press","responses","isData","view_history","response_type","avg_frame_time","center_x","center_y","isSC","stim_side","trial_luminance","step_size","nReversal","correct","prev_ans","isThreshold","SC_threshold","final_threshold","isLuminance","FF_luminance","luminance","stimSide","ISInt","isFF","question_order","isSPQ","isCAPS","isAQ"
"pavlovia","0","10","0.0-0.0","607da171f464f9e638d62de2","609006691f6f4e337c17f836","609a6128943474fe8c689c14","","","","","","","","","","","","","","","","","","","","","","","","","","","","","","","",""
"html-button-response","1","51753","0.0-1.0","607da171f464f9e638d62de2","609006691f6f4e337c17f836","609a6128943474fe8c689c14","51743","<div style='background-color: white; width:60%; margin: auto; padding: 50px; text-align: justify; text-justify: inter-word; margin-bottom: 20px;'><h1 style='text-align: center;'>Consent Form</h1><p>Please read this consent form carefully before deciding whether you would like to participate in this study. You have to be 18 years old or older to participate to this study.</p><p style='text-decoration: underline;'>Participation is voluntary:</p><p>It is your choice whether or not to participate in this research. If you choose to participate, you may change your mind and leave the study at any time. Refusal to participate or stopping your participation will involve no penalty or loss of benefits to which you are otherwise entitled.</p><p style='text-decoration: underline;'>Purpose of the Study:</p><p>To understand the mechanisms underlying human perception.</p><p style='text-decoration: underline;'>What you will do in this study:</p><p>You will be presented with a series of visual images and then you will press buttons on the keyboard of your computer to respond to simple questions about the images (e.g. Were one or two images presented?). In addition, you will be asked to complete a questionnaire concerning your beliefs and everyday mental and perceptual experiences.'</p><p style='text-decoration: underline;'> Time Required:</p><p>The study will take 40 minutes to complete. </p><p style='text-decoration: underline;'>Risks:</p><p>There are no anticipated risks associated with participating in this study that are beyond those experienced in everyday life. </p><p style='text-decoration: underline;'>Benefits:</p><p>There are no benefits to you in participating in the study. However, this study may lead to a better understanding of how different kinds of visual information are used.</p><p style='text-decoration: underline;'>Compensation:</p><p>You will be paid US$6.6/hour. </p><p style='text-decoration: underline;'>Privacy and Confidentiality:</p><p>Your participation in this study will be anonymous. No personal information about your name or identity will be asked or recorded. This anonymous data will be stored for several years and may be used for a variety of research purposes. The overall results of the study may be published, or the data files may be shared with other researchers, but your identity will not be revealed in any way. The online services we are using for this study may temporarily store your data, but this data will be downloaded and then promptly deleted from those services.Your data will not be permanently associated with your name, IP address, or any other identifiable information (e.g., your information will only be connected to your payment, not to any of your responses), though they may be temporarily stored together before we download and separate them. Even so, no guarantee of internet survey security can be given because, although unlikely, transmissions can be intercepted and IP addresses can be identified. The anonymous data may be shared publicly (for example, in conjunction with a resulting academic publication).</p><p style='text-decoration: underline;'>Participation and Withdrawal:</p><p>Your participation in this study is completely voluntary. You may stop responding to the stimuli or stop answering questions if you so choose and without penalty by exiting the full screen mode, closing this tab of your browser or redirecting it to a different website.</p><p style='text-decoration: underline;'>Contact Info of the Researcher: </p><p>If you have questions about this study, or if you would like to talk to the research team, please contact David Melcher (david.melcher@nyu.edu, md5050@nyu.edu) at the Perception and Active Cognition Laboratory, New York University Abu Dhabi, Computational Research Building, Saadiyat Island, Abu Dhabi, UAE.This research has been reviewed by the New York University Abu Dhabi Institutional Review Board (NYUAD IRB). To contact about your rights in this research, for questions, suggestions, or complaints that are not addressed by the researchers, please email IRBnyuad@nyu.edu, or call the NYUAD IRB at +971 2 628 4313. </p></div>","0","","","","","","","","","","","","","","","","","","","","","","","","","","","","",""
"fullscreen","2","53374","0.0-2.0","607da171f464f9e638d62de2","609006691f6f4e337c17f836","609a6128943474fe8c689c14","","","","true","","","","","","","","","","","","","","","","","","","","","","","","","","","",""
"html-keyboard-response","3","70984","0.0-3.0","607da171f464f9e638d62de2","609006691f6f4e337c17f836","609a6128943474fe8c689c14","17610","<p>Welcome !</p><p>READ CAREFULLY THE FOLLOWING INDICATIONS:</p><p>From this moment you have ~40 minutes to complete the experiment.</p><p>During the experiment you will be prompted to take several breaks. Each break should not last longer than 2-3 minutes.</p><p>Make sure that your computer is plugged in and it's not running on battery power, even if the battery is already fully charged.</p><p>Turn off your phone and music, make sure that you are in a quiet room and that you will not be distracted for the next hour.</p><p>Failure to comply with the instructions and indications provided during the experiment will most likely result in the rejection of your data.<p>Press the spacebar to start.</p>","","","32","","","","","","","","","","","","","","","","","","","","","","","","","","",""
"survey-html-form","4","75733","0.0-4.0","607da171f464f9e638d62de2","609006691f6f4e337c17f836","609a6128943474fe8c689c14","4748","","","","","{""age"":""38"",""sex"":""f""}","true","","","","","","","","","","","","","","","","","","","","","","","","",""
"instructions","5","129335","0.0-5.0","607da171f464f9e638d62de2","609006691f6f4e337c17f836","609a6128943474fe8c689c14","53601","","","","","","","[{""page_index"":0,""viewing_time"":21761},{""page_index"":1,""viewing_time"":24773},{""page_index"":2,""viewing_time"":7067}]","","","","","","","","","","","","","","","","","","","","","","","",""
"psychophysics","6","131681","0.0-6.0-0.0","607da171f464f9e638d62de2","609006691f6f4e337c17f836","609a6128943474fe8c689c14","1335","","","","37","","","","key","16.716258992805738","720","399","true","-1","180","30","0","-1","","","","","","","","","","","","","",""
"psychophysics","7","132720","0.0-6.0-0.1","607da171f464f9e638d62de2","609006691f6f4e337c17f836","609a6128943474fe8c689c14","35","","","","37","","","","key","16.710163934426344","720","399","true","-1","180","30","0","-1","-1","","","","","","","","","","","","",""
"psychophysics","8","138169","0.0-6.0-0.2","607da171f464f9e638d62de2","609006691f6f4e337c17f836","609a6128943474fe8c689c14","4444","","","","39","","","","key","16.723507692307646","720","399","true","-1","150","24","1","1","-1","","","","","","","","","","","","",""
"psychophysics","9","139180","0.0-6.0-0.3","607da171f464f9e638d62de2","609006691f6f4e337c17f836","609a6128943474fe8c689c14","8","","","","37","","","","key","16.735666666666898","720","399","true","-1","174","24","1","-1","1","","","","","","","","","","","","",""
"psychophysics","10","140296","0.0-6.0-0.4","607da171f464f9e638d62de2","609006691f6f4e337c17f836","609a6128943474fe8c689c14","111","","","","39","","","","key","16.70818181818168","720","399","true","1","174","19.2","2","-1","-1","","","","","","","","","","","","",""
"psychophysics","11","141364","0.0-6.0-0.5","607da171f464f9e638d62de2","609006691f6f4e337c17f836","609a6128943474fe8c689c14","61","","","","37","","","","key","16.72064516129021","720","399","true","-1","154.8","19.2","2","-1","-1","","","","","","","","","","","","",""
"psychophysics","12","144948","0.0-6.0-0.6","607da171f464f9e638d62de2","609006691f6f4e337c17f836","609a6128943474fe8c689c14","2578","","","","37","","","","key","16.72271028037385","720","399","true","-1","154.8","19.2","2","-1","-1","","","","","","","","","","","","",""
"psychophysics","13","146003","0.0-6.0-0.7","607da171f464f9e638d62de2","609006691f6f4e337c17f836","609a6128943474fe8c689c14","53","","","","39","","","","key","16.72354838709702","720","399","true","1","135.60000000000002","19.2","2","-1","-1","","","","","","","","","","","","",""
"psychophysics","14","149339","0.0-6.0-0.8","607da171f464f9e638d62de2","609006691f6f4e337c17f836","609a6128943474fe8c689c14","2333","","","","37","","","","key","16.722727272727155","720","399","true","1","135.60000000000002","15.36","3","1","-1","","","","","","","","","","","","",""
"psychophysics","15","150767","0.0-6.0-0.9","607da171f464f9e638d62de2","609006691f6f4e337c17f836","609a6128943474fe8c689c14","423","","","","37","","","","key","16.723058823529318","720","399","true","-1","150.96000000000004","15.36","3","-1","1","","","","","","","","","","","","",""
"psychophysics","16","153154","0.0-6.0-0.10","607da171f464f9e638d62de2","609006691f6f4e337c17f836","609a6128943474fe8c689c14","1386","","","","39","","","","key","16.71549295774652","720","399","true","1","150.96000000000004","12.287999999999998","4","-1","-1","","","","","","","","","","","","",""
"psychophysics","17","155926","0.0-6.0-0.11","607da171f464f9e638d62de2","609006691f6f4e337c17f836","609a6128943474fe8c689c14","1769","","","","39","","","","key","16.721585365853638","720","399","true","-1","138.67200000000003","9.8304","5","1","-1","","","","","","","","","","","","",""
"psychophysics","18","158889","0.0-6.0-0.12","607da171f464f9e638d62de2","609006691f6f4e337c17f836","609a6128943474fe8c689c14","1956","","","","37","","","","key","16.71740112994356","720","399","true","-1","148.50240000000002","9.8304","5","-1","1","","","","","","","","","","","","",""
"psychophysics","19","161286","0.0-6.0-0.13","607da171f464f9e638d62de2","609006691f6f4e337c17f836","609a6128943474fe8c689c14","1393","","","","39","","","","key","16.721830985915492","720","399","true","1","148.50240000000002","7.864319999999999","6","-1","-1","","","","","","","","","","","","",""
"psychophysics","20","164275","0.0-6.0-0.14","607da171f464f9e638d62de2","609006691f6f4e337c17f836","609a6128943474fe8c689c14","1989","","","","37","","","","key","16.719775280899015","720","399","true","1","140.63808000000003","6.291456","7","1","-1","","","","","","","","","","","","",""
"psychophysics","21","166619","0.0-6.0-0.15","607da171f464f9e638d62de2","609006691f6f4e337c17f836","609a6128943474fe8c689c14","1341","","","","37","","","","key","16.721582733812866","720","399","true","-1","146.92953600000004","6.291456","7","-1","1","","","","","","","","","","","","",""
"psychophysics","22","168537","0.0-6.0-0.16","607da171f464f9e638d62de2","609006691f6f4e337c17f836","609a6128943474fe8c689c14","914","","","","39","","","","key","16.712280701754487","720","399","true","1","146.92953600000004","5.033164800000001","8","-1","-1","","","","","","","","","","","","",""
"psychophysics","23","171274","0.0-6.0-0.17","607da171f464f9e638d62de2","609006691f6f4e337c17f836","609a6128943474fe8c689c14","1732","","","","39","","","","key","16.725432098765367","720","399","true","1","141.89637120000003","5.033164800000001","8","-1","-1","","","","","","","","","","","","",""
"psychophysics","24","173169","0.0-6.0-0.18","607da171f464f9e638d62de2","609006691f6f4e337c17f836","609a6128943474fe8c689c14","891","","","","37","","","","key","16.71929203539822","720","399","true","-1","141.89637120000003","5.033164800000001","8","-1","-1","","","","","","","","","","","","",""
"psychophysics","25","175559","0.0-6.0-0.19","607da171f464f9e638d62de2","609006691f6f4e337c17f836","609a6128943474fe8c689c14","1387","","","","39","","","","key","16.715492957746314","720","399","true","1","136.86320640000002","5.033164800000001","8","-1","-1","","","","","","","","","","","","",""
"psychophysics","26","177830","0.0-6.0-0.20","607da171f464f9e638d62de2","609006691f6f4e337c17f836","609a6128943474fe8c689c14","1269","","","","37","","","","key","16.721343283582115","720","399","true","1","136.86320640000002","4.0265318400000005","9","1","-1","","","","","","","","","","","","",""
"psychophysics","27","180315","0.0-6.0-0.21","607da171f464f9e638d62de2","609006691f6f4e337c17f836","609a6128943474fe8c689c14","1479","","","","37","","","","key","16.7206756756757","720","399","true","-1","140.88973824","4.0265318400000005","9","-1","1","","","","","","","","","","","","",""
"psychophysics","28","181391","0.0-6.0-0.22","607da171f464f9e638d62de2","609006691f6f4e337c17f836","609a6128943474fe8c689c14","73","","","","39","","","","key","16.723809523809617","720","399","true","1","140.88973824","3.2212254720000004","10","-1","-1","","","","","","","","","","","","",""
"psychophysics","29","182409","0.0-6.0-0.23","607da171f464f9e638d62de2","609006691f6f4e337c17f836","609a6128943474fe8c689c14","17","","","","39","","","","key","16.720333333333354","720","399","true","1","137.66851276800003","3.2212254720000004","10","-1","-1","","","","","","","","","","","","",""
"psychophysics","30","184892","0.0-6.0-0.24","607da171f464f9e638d62de2","609006691f6f4e337c17f836","609a6128943474fe8c689c14","1481","","","","37","","","","key","16.726486486486614","720","399","true","1","137.66851276800003","2.5769803776000004","11","1","-1","","","","","","","","","","","","",""
"psychophysics","31","187866","0.0-6.0-0.25","607da171f464f9e638d62de2","609006691f6f4e337c17f836","609a6128943474fe8c689c14","1971","","","","39","","","","key","16.71728813559334","720","399","true","1","140.24549314560002","2.5769803776000004","11","-1","1","","","","","","","","","","","","",""
"psychophysics","32","188875","0.0-6.0-0.26","607da171f464f9e638d62de2","609006691f6f4e337c17f836","609a6128943474fe8c689c14","4","","","","37","","","","key","16.720338983050848","720","399","true","-1","140.24549314560002","2.0615843020800004","12","-1","-1","","","","","","","","","","","","",""
"psychophysics","33","192731","0.0-6.0-0.27","607da171f464f9e638d62de2","609006691f6f4e337c17f836","609a6128943474fe8c689c14","2850","","","","37","","","","key","16.71695652173923","720","399","true","-1","138.18390884352002","2.0615843020800004","12","-1","-1","","","","","","","","","","","","",""
"psychophysics","34","195671","0.0-6.0-0.28","607da171f464f9e638d62de2","609006691f6f4e337c17f836","609a6128943474fe8c689c14","1936","","","","37","","","","key","16.721149425287248","720","399","true","1","138.18390884352002","1.6492674416640005","13","1","-1","","","","","","","","","","","","",""
"psychophysics","35","199403","0.0-6.0-0.29","607da171f464f9e638d62de2","609006691f6f4e337c17f836","609a6128943474fe8c689c14","2730","","","","37","","","","key","16.717488789237667","720","399","true","-1","139.833176285184","1.6492674416640005","13","-1","1","","","","","","","","","","","","",""
"psychophysics","36","202374","0.0-6.0-0.30","607da171f464f9e638d62de2","609006691f6f4e337c17f836","609a6128943474fe8c689c14","1969","","","","37","","","","key","16.72250000000002","720","399","true","-1","139.833176285184","1.3194139533312006","14","-1","-1","","","","","","","","","","","","",""
"psychophysics","37","207379","0.0-6.0-0.31","607da171f464f9e638d62de2","609006691f6f4e337c17f836","609a6128943474fe8c689c14","4004","","","","37","","","","key","16.71899665551843","720","399","true","1","138.5137623318528","1.0555311626649604","15","1","-1","","","","","","","","","","","","",""
"psychophysics","38","210106","0.0-6.0-0.32","607da171f464f9e638d62de2","609006691f6f4e337c17f836","609a6128943474fe8c689c14","1725","","","","37","","","","key","16.7243209876543","720","399","true","-1","139.56929349451775","1.0555311626649604","15","-1","1","","","","","","","","","","","","",""
"psychophysics","39","213611","0.0-6.0-0.33","607da171f464f9e638d62de2","609006691f6f4e337c17f836","609a6128943474fe8c689c14","2504","","","","37","","","","key","16.7209615384615","720","399","true","1","139.56929349451775","1","16","1","-1","","","","","","","","","","","","",""
"psychophysics","40","216571","0.0-6.0-0.34","607da171f464f9e638d62de2","609006691f6f4e337c17f836","609a6128943474fe8c689c14","1958","","","","37","","","","key","16.72204545454538","720","399","true","-1","140.56929349451775","1","16","-1","1","","","","","","","","","","","","",""
"psychophysics","41","219482","0.0-6.0-0.35","607da171f464f9e638d62de2","609006691f6f4e337c17f836","609a6128943474fe8c689c14","1909","","","","37","","","","key","16.720462427745577","720","399","true","1","140.56929349451775","1","17","1","-1","","","","","","","","","","","","",""
"psychophysics","42","222745","0.0-6.0-0.36","607da171f464f9e638d62de2","609006691f6f4e337c17f836","609a6128943474fe8c689c14","2260","","","","37","","","","key","16.72276923076924","720","399","true","-1","141.56929349451775","1","17","-1","1","","","","","","","","","","","","",""
"psychophysics","43","226201","0.0-6.0-0.37","607da171f464f9e638d62de2","609006691f6f4e337c17f836","609a6128943474fe8c689c14","2452","","","","37","","","","key","16.7210731707316","720","399","true","-1","141.56929349451775","1","18","-1","-1","","","","","","","","","","","","",""
"psychophysics","44","229949","0.0-6.0-0.38","607da171f464f9e638d62de2","609006691f6f4e337c17f836","609a6128943474fe8c689c14","2742","","","","39","","","","key","16.722600896860918","720","399","true","1","140.56929349451775","1","18","-1","-1","","","","","","","","","","","","",""
"psychophysics","45","232025","0.0-6.0-0.39","607da171f464f9e638d62de2","609006691f6f4e337c17f836","609a6128943474fe8c689c14","1075","","","","37","","","","key","16.722419354838607","720","399","true","1","140.56929349451775","1","19","1","-1","","","","","","","","","","","","",""
"html-keyboard-response","46","238314","0.0-7.0","607da171f464f9e638d62de2","609006691f6f4e337c17f836","609a6128943474fe8c689c14","6288","<p>Well Done !</p><p>Prepare for a new block.</p><p>DON'T EXIT THE FULL SCREEN MODE</p><p>Press the Spacebar to start.</p>","","","32","","","","","","","","","","","","","","","true","139.97288445577354","","","","","","","","","","",""
"psychophysics","47","241219","0.0-8.0-0.0","607da171f464f9e638d62de2","609006691f6f4e337c17f836","609a6128943474fe8c689c14","1903","","","","37","","","","key","16.79209302325593","720","399","true","1","180","30","0","1","","","","","","","","","","","","","",""
"psychophysics","48","244213","0.0-8.0-0.1","607da171f464f9e638d62de2","609006691f6f4e337c17f836","609a6128943474fe8c689c14","1990","","","","39","","","","key","16.718659217877175","720","399","true","1","210","30","0","-1","1","","","","","","","","","","","","",""
"psychophysics","49","246270","0.0-8.0-0.2","607da171f464f9e638d62de2","609006691f6f4e337c17f836","609a6128943474fe8c689c14","1053","","","","37","","","","key","16.722295081967175","720","399","true","-1","210","24","1","-1","-1","","","","","","","","","","","","",""
"psychophysics","50","248445","0.0-8.0-0.3","607da171f464f9e638d62de2","609006691f6f4e337c17f836","609a6128943474fe8c689c14","1171","","","","37","","","","key","16.713178294573645","720","399","true","-1","186","24","1","-1","-1","","","","","","","","","","","","",""
"psychophysics","51","250582","0.0-8.0-0.4","607da171f464f9e638d62de2","609006691f6f4e337c17f836","609a6128943474fe8c689c14","1135","","","","39","","","","key","16.720158730158655","720","399","true","1","186","24","1","-1","-1","","","","","","","","","","","","",""
"psychophysics","52","253532","0.0-8.0-0.5","607da171f464f9e638d62de2","609006691f6f4e337c17f836","609a6128943474fe8c689c14","1950","","","","37","","","","key","16.72625000000004","720","399","true","-1","162","24","1","-1","-1","","","","","","","","","","","","",""
"psychophysics","53","255701","0.0-8.0-0.6","607da171f464f9e638d62de2","609006691f6f4e337c17f836","609a6128943474fe8c689c14","1166","","","","37","","","","key","16.713798449612305","720","399","true","-1","162","24","1","-1","-1","","","","","","","","","","","","",""
"psychophysics","54","257751","0.0-8.0-0.7","607da171f464f9e638d62de2","609006691f6f4e337c17f836","609a6128943474fe8c689c14","1048","","","","37","","","","key","16.72066115702465","720","399","true","-1","138","24","1","-1","-1","","","","","","","","","","","","",""
"psychophysics","55","260713","0.0-8.0-0.8","607da171f464f9e638d62de2","609006691f6f4e337c17f836","609a6128943474fe8c689c14","1961","","","","39","","","","key","16.720909090909117","720","399","true","-1","138","19.2","2","1","-1","","","","","","","","","","","","",""
"psychophysics","56","262730","0.0-8.0-0.9","607da171f464f9e638d62de2","609006691f6f4e337c17f836","609a6128943474fe8c689c14","1011","","","","39","","","","key","16.728500000000107","720","399","true","1","157.2","19.2","2","-1","1","","","","","","","","","","","","",""
"psychophysics","57","265492","0.0-8.0-0.10","607da171f464f9e638d62de2","609006691f6f4e337c17f836","609a6128943474fe8c689c14","1761","","","","37","","","","key","16.71402439024376","720","399","true","-1","157.2","15.36","3","-1","-1","","","","","","","","","","","","",""
"psychophysics","58","267737","0.0-8.0-0.11","607da171f464f9e638d62de2","609006691f6f4e337c17f836","609a6128943474fe8c689c14","1243","","","","37","","","","key","16.71669172932336","720","399","true","1","141.83999999999997","12.287999999999998","4","1","-1","","","","","","","","","","","","",""
"psychophysics","59","269946","0.0-8.0-0.12","607da171f464f9e638d62de2","609006691f6f4e337c17f836","609a6128943474fe8c689c14","1203","","","","39","","","","key","16.72166666666674","720","399","true","-1","154.128","12.287999999999998","4","1","1","","","","","","","","","","","","",""
"psychophysics","60","272038","0.0-8.0-0.13","607da171f464f9e638d62de2","609006691f6f4e337c17f836","609a6128943474fe8c689c14","1089","","","","37","","","","key","16.720322580645217","720","399","true","-1","166.416","12.287999999999998","4","-1","1","","","","","","","","","","","","",""
"psychophysics","61","274097","0.0-8.0-0.14","607da171f464f9e638d62de2","609006691f6f4e337c17f836","609a6128943474fe8c689c14","1059","","","","37","","","","key","16.719999999999732","720","399","true","1","166.416","9.8304","5","1","-1","","","","","","","","","","","","",""
"psychophysics","62","275933","0.0-8.0-0.15","607da171f464f9e638d62de2","609006691f6f4e337c17f836","609a6128943474fe8c689c14","833","","","","39","","","","key","16.712844036697355","720","399","true","1","176.2464","9.8304","5","-1","1","","","","","","","","","","","","",""
"psychophysics","63","278254","0.0-8.0-0.16","607da171f464f9e638d62de2","609006691f6f4e337c17f836","609a6128943474fe8c689c14","1318","","","","39","","","","key","16.725401459854048","720","399","true","1","176.2464","7.864319999999999","6","-1","-1","","","","","","","","","","","","",""
"psychophysics","64","280785","0.0-8.0-0.17","607da171f464f9e638d62de2","609006691f6f4e337c17f836","609a6128943474fe8c689c14","1528","","","","39","","","","key","16.72807947019869","720","399","true","-1","168.38208","6.291456","7","1","-1","","","","","","","","","","","","",""
"psychophysics","65","283540","0.0-8.0-0.18","607da171f464f9e638d62de2","609006691f6f4e337c17f836","609a6128943474fe8c689c14","1754","","","","37","","","","key","16.71487804878043","720","399","true","-1","174.673536","6.291456","7","-1","1","","","","","","","","","","","","",""
"psychophysics","66","286231","0.0-8.0-0.19","607da171f464f9e638d62de2","609006691f6f4e337c17f836","609a6128943474fe8c689c14","1686","","","","37","","","","key","16.721383647798817","720","399","true","-1","174.673536","5.033164800000001","8","-1","-1","","","","","","","","","","","","",""
"psychophysics","67","288684","0.0-8.0-0.20","607da171f464f9e638d62de2","609006691f6f4e337c17f836","609a6128943474fe8c689c14","1450","","","","37","","","","key","16.724657534246496","720","399","true","1","169.6403712","4.0265318400000005","9","1","-1","","","","","","","","","","","","",""
"psychophysics","68","289775","0.0-8.0-0.21","607da171f464f9e638d62de2","609006691f6f4e337c17f836","609a6128943474fe8c689c14","88","","","","37","","","","key","16.715312499999527","720","399","true","-1","173.66690304","4.0265318400000005","9","-1","1","","","","","","","","","","","","",""
"psychophysics","69","292721","0.0-8.0-0.22","607da171f464f9e638d62de2","609006691f6f4e337c17f836","609a6128943474fe8c689c14","1940","","","","37","","","","key","16.724886363636458","720","399","true","1","173.66690304","3.2212254720000004","10","1","-1","","","","","","","","","","","","",""
"psychophysics","70","295619","0.0-8.0-0.23","607da171f464f9e638d62de2","609006691f6f4e337c17f836","609a6128943474fe8c689c14","1893","","","","39","","","","key","16.72023255813956","720","399","true","1","176.88812851199998","3.2212254720000004","10","-1","1","","","","","","","","","","","","",""
"psychophysics","71","299636","0.0-8.0-0.24","607da171f464f9e638d62de2","609006691f6f4e337c17f836","609a6128943474fe8c689c14","3013","","","","39","","","","key","16.719999999999825","720","399","true","1","176.88812851199998","2.5769803776000004","11","-1","-1","","","","","","","","","","","","",""
"psychophysics","72","301872","0.0-8.0-0.25","607da171f464f9e638d62de2","609006691f6f4e337c17f836","609a6128943474fe8c689c14","1232","","","","39","","","","key","16.721353383458663","720","399","true","1","174.31114813439999","2.5769803776000004","11","-1","-1","","","","","","","","","","","","",""
"psychophysics","73","302915","0.0-8.0-0.26","607da171f464f9e638d62de2","609006691f6f4e337c17f836","609a6128943474fe8c689c14","39","","","","37","","","","key","16.71245901639283","720","399","true","-1","174.31114813439999","2.5769803776000004","11","-1","-1","","","","","","","","","","","","",""
"psychophysics","74","303992","0.0-8.0-0.27","607da171f464f9e638d62de2","609006691f6f4e337c17f836","609a6128943474fe8c689c14","77","","","","39","","","","key","16.720000000000255","720","399","true","1","171.7341677568","2.5769803776000004","11","-1","-1","","","","","","","","","","","","",""
"psychophysics","75","306358","0.0-8.0-0.28","607da171f464f9e638d62de2","609006691f6f4e337c17f836","609a6128943474fe8c689c14","1363","","","","37","","","","key","16.72171428571455","720","399","true","-1","171.7341677568","2.5769803776000004","11","-1","-1","","","","","","","","","","","","",""
"psychophysics","76","308197","0.0-8.0-0.29","607da171f464f9e638d62de2","609006691f6f4e337c17f836","609a6128943474fe8c689c14","835","","","","39","","","","key","16.720183486238533","720","399","true","1","169.1571873792","2.5769803776000004","11","-1","-1","","","","","","","","","","","","",""
"psychophysics","77","310527","0.0-8.0-0.30","607da171f464f9e638d62de2","609006691f6f4e337c17f836","609a6128943474fe8c689c14","1327","","","","37","","","","key","16.720143884891918","720","399","true","-1","169.1571873792","2.5769803776000004","11","-1","-1","","","","","","","","","","","","",""
"psychophysics","78","312021","0.0-8.0-0.31","607da171f464f9e638d62de2","609006691f6f4e337c17f836","609a6128943474fe8c689c14","490","","","","37","","","","key","16.721818181818392","720","399","true","-1","166.5802070016","2.5769803776000004","11","-1","-1","","","","","","","","","","","","",""
"psychophysics","79","313443","0.0-8.0-0.32","607da171f464f9e638d62de2","609006691f6f4e337c17f836","609a6128943474fe8c689c14","422","","","","39","","","","key","16.72047619047641","720","399","true","1","166.5802070016","2.5769803776000004","11","-1","-1","","","","","","","","","","","","",""
"psychophysics","80","314939","0.0-8.0-0.33","607da171f464f9e638d62de2","609006691f6f4e337c17f836","609a6128943474fe8c689c14","492","","","","39","","","","key","16.71409090909054","720","399","true","1","164.003226624","2.5769803776000004","11","-1","-1","","","","","","","","","","","","",""
"psychophysics","81","317355","0.0-8.0-0.34","607da171f464f9e638d62de2","609006691f6f4e337c17f836","609a6128943474fe8c689c14","1410","","","","37","","","","key","16.720277777777582","720","399","true","-1","164.003226624","2.5769803776000004","11","-1","-1","","","","","","","","","","","","",""
"psychophysics","82","318854","0.0-8.0-0.35","607da171f464f9e638d62de2","609006691f6f4e337c17f836","609a6128943474fe8c689c14","493","","","","37","","","","key","16.72134831460687","720","399","true","-1","161.4262462464","2.5769803776000004","11","-1","-1","","","","","","","","","","","","",""
"psychophysics","83","320139","0.0-8.0-0.36","607da171f464f9e638d62de2","609006691f6f4e337c17f836","609a6128943474fe8c689c14","283","","","","37","","","","key","16.72079999999997","720","399","true","-1","161.4262462464","2.5769803776000004","11","-1","-1","","","","","","","","","","","","",""
"psychophysics","84","321429","0.0-8.0-0.37","607da171f464f9e638d62de2","609006691f6f4e337c17f836","609a6128943474fe8c689c14","285","","","","39","","","","key","16.72077922077922","720","399","true","1","158.84926586880002","2.5769803776000004","11","-1","-1","","","","","","","","","","","","",""
"psychophysics","85","322716","0.0-8.0-0.38","607da171f464f9e638d62de2","609006691f6f4e337c17f836","609a6128943474fe8c689c14","284","","","","39","","","","key","16.70710526315777","720","399","true","1","158.84926586880002","2.5769803776000004","11","-1","-1","","","","","","","","","","","","",""
"psychophysics","86","323935","0.0-8.0-0.39","607da171f464f9e638d62de2","609006691f6f4e337c17f836","609a6128943474fe8c689c14","215","","","","39","","","","key","16.720281690140222","720","399","true","1","156.27228549120002","2.5769803776000004","11","-1","-1","","","","","","","","","","","","",""
"html-keyboard-response","87","325848","0.0-9.0","607da171f464f9e638d62de2","609006691f6f4e337c17f836","609a6128943474fe8c689c14","1912","<p>Well Done !</p><p>Prepare for a new block.</p><p>DON'T EXIT THE FULL SCREEN MODE</p><p>Press the Spacebar to start.</p>","","","32","","","","","","","","","","","","","","","true","165.89301223424","","","","","","","","","","",""
"psychophysics","88","327164","0.0-10.0-0.0","607da171f464f9e638d62de2","609006691f6f4e337c17f836","609a6128943474fe8c689c14","310","","","","39","","","","key","16.83769230769189","720","399","true","1","180","30","0","-1","","","","","","","","","","","","","",""
"psychophysics","89","328372","0.0-10.0-0.1","607da171f464f9e638d62de2","609006691f6f4e337c17f836","609a6128943474fe8c689c14","204","","","","39","","","","key","16.7104225352113","720","399","true","1","180","30","0","-1","-1","","","","","","","","","","","","",""
"psychophysics","90","329556","0.0-10.0-0.2","607da171f464f9e638d62de2","609006691f6f4e337c17f836","609a6128943474fe8c689c14","182","","","","37","","","","key","16.717428571429004","720","399","true","-1","150","30","0","-1","-1","","","","","","","","","","","","",""
"psychophysics","91","330693","0.0-10.0-0.3","607da171f464f9e638d62de2","609006691f6f4e337c17f836","609a6128943474fe8c689c14","133","","","","39","","","","key","16.70507462686553","720","399","true","1","150","30","0","-1","-1","","","","","","","","","","","","",""
"psychophysics","92","332520","0.0-10.0-0.4","607da171f464f9e638d62de2","609006691f6f4e337c17f836","609a6128943474fe8c689c14","824","","","","39","","","","key","16.72129629629651","720","399","true","-1","129","24","1","1","-1","","","","","","","","","","","","",""
"psychophysics","93","333536","0.0-10.0-0.5","607da171f464f9e638d62de2","609006691f6f4e337c17f836","609a6128943474fe8c689c14","16","","","","39","","","","key","16.719000000000232","720","399","true","1","153","24","1","-1","1","","","","","","","","","","","","",""
"psychophysics","94","336187","0.0-10.0-0.6","607da171f464f9e638d62de2","609006691f6f4e337c17f836","609a6128943474fe8c689c14","1649","","","","37","","","","key","16.71668789808929","720","399","true","-1","153","19.2","2","-1","-1","","","","","","","","","","","","",""
"psychophysics","95","338379","0.0-10.0-0.7","607da171f464f9e638d62de2","609006691f6f4e337c17f836","609a6128943474fe8c689c14","1190","","","","37","","","","key","16.720923076922862","720","399","true","-1","133.8","19.2","2","-1","-1","","","","","","","","","","","","",""
"psychophysics","96","339875","0.0-10.0-0.8","607da171f464f9e638d62de2","609006691f6f4e337c17f836","609a6128943474fe8c689c14","489","","","","39","","","","key","16.70988764044936","720","399","true","1","133.8","19.2","2","-1","-1","","","","","","","","","","","","",""
"psychophysics","97","342520","0.0-10.0-0.9","607da171f464f9e638d62de2","609006691f6f4e337c17f836","609a6128943474fe8c689c14","1644","","","","39","","","","key","16.719872611464716","720","399","true","1","129","19.2","2","-1","-1","","","","","","","","","","","","",""
"psychophysics","98","344163","0.0-10.0-0.10","607da171f464f9e638d62de2","609006691f6f4e337c17f836","609a6128943474fe8c689c14","639","","","","39","","","","key","16.72659793814414","720","399","true","1","129","19.2","2","-1","-1","","","","","","","","","","","","",""
"psychophysics","99","345880","0.0-10.0-0.11","607da171f464f9e638d62de2","609006691f6f4e337c17f836","609a6128943474fe8c689c14","713","","","","37","","","","key","16.720196078431577","720","399","true","1","129","15.36","3","1","-1","","","","","","","","","","","","",""
"psychophysics","100","346995","0.0-10.0-0.12","607da171f464f9e638d62de2","609006691f6f4e337c17f836","609a6128943474fe8c689c14","111","","","","37","","","","key","16.718787878787914","720","399","true","-1","144.36","15.36","3","-1","1","","","","","","","","","","","","",""
"psychophysics","101","348161","0.0-10.0-0.13","607da171f464f9e638d62de2","609006691f6f4e337c17f836","609a6128943474fe8c689c14","164","","","","37","","","","key","16.730000000000206","720","399","true","-1","144.36","12.287999999999998","4","-1","-1","","","","","","","","","","","","",""
"psychophysics","102","349739","0.0-10.0-0.14","607da171f464f9e638d62de2","609006691f6f4e337c17f836","609a6128943474fe8c689c14","576","","","","37","","","","key","16.712340425532137","720","399","true","1","132.072","9.8304","5","1","-1","","","","","","","","","","","","",""
"psychophysics","103","351476","0.0-10.0-0.15","607da171f464f9e638d62de2","609006691f6f4e337c17f836","609a6128943474fe8c689c14","734","","","","39","","","","key","16.713009708737886","720","399","true","1","141.9024","9.8304","5","-1","1","","","","","","","","","","","","",""
"psychophysics","104","352560","0.0-10.0-0.16","607da171f464f9e638d62de2","609006691f6f4e337c17f836","609a6128943474fe8c689c14","79","","","","37","","","","key","16.723492063492323","720","399","true","-1","141.9024","7.864319999999999","6","-1","-1","","","","","","","","","","","","",""
"psychophysics","105","353804","0.0-10.0-0.17","607da171f464f9e638d62de2","609006691f6f4e337c17f836","609a6128943474fe8c689c14","238","","","","37","","","","key","16.720810810811155","720","399","true","1","134.03808","6.291456","7","1","-1","","","","","","","","","","","","",""
"psychophysics","106","354944","0.0-10.0-0.18","607da171f464f9e638d62de2","609006691f6f4e337c17f836","609a6128943474fe8c689c14","138","","","","37","","","","key","16.71999999999986","720","399","true","-1","140.32953600000002","6.291456","7","-1","1","","","","","","","","","","","","",""
"psychophysics","107","355963","0.0-10.0-0.19","607da171f464f9e638d62de2","609006691f6f4e337c17f836","609a6128943474fe8c689c14","16","","","","37","","","","key","16.719999999999224","720","399","true","-1","140.32953600000002","5.033164800000001","8","-1","-1","","","","","","","","","","","","",""
"psychophysics","108","357056","0.0-10.0-0.20","607da171f464f9e638d62de2","609006691f6f4e337c17f836","609a6128943474fe8c689c14","92","","","","39","","","","key","16.725312499999745","720","399","true","1","135.2963712","5.033164800000001","8","-1","-1","","","","","","","","","","","","",""
"psychophysics","109","358247","0.0-10.0-0.21","607da171f464f9e638d62de2","609006691f6f4e337c17f836","609a6128943474fe8c689c14","190","","","","39","","","","key","16.71746478873243","720","399","true","1","135.2963712","5.033164800000001","8","-1","-1","","","","","","","","","","","","",""
"psychophysics","110","360512","0.0-10.0-0.22","607da171f464f9e638d62de2","609006691f6f4e337c17f836","609a6128943474fe8c689c14","1262","","","","39","","","","key","16.721194029850416","720","399","true","1","130.2632064","5.033164800000001","8","-1","-1","","","","","","","","","","","","",""
"psychophysics","111","362220","0.0-10.0-0.23","607da171f464f9e638d62de2","609006691f6f4e337c17f836","609a6128943474fe8c689c14","703","","","","39","","","","key","16.72475247524764","720","399","true","-1","130.2632064","4.0265318400000005","9","1","-1","","","","","","","","","","","","",""
"psychophysics","112","363226","0.0-10.0-0.24","607da171f464f9e638d62de2","609006691f6f4e337c17f836","609a6128943474fe8c689c14","0","","","","37","","","","key","16.719999999999683","720","399","true","-1","134.28973824","4.0265318400000005","9","-1","1","","","","","","","","","","","","",""
"psychophysics","113","365032","0.0-10.0-0.25","607da171f464f9e638d62de2","609006691f6f4e337c17f836","609a6128943474fe8c689c14","802","","","","39","","","","key","16.728411214953294","720","399","true","1","134.28973824","3.2212254720000004","10","-1","-1","","","","","","","","","","","","",""
"psychophysics","114","366728","0.0-10.0-0.26","607da171f464f9e638d62de2","609006691f6f4e337c17f836","609a6128943474fe8c689c14","695","","","","37","","","","key","16.721980198020216","720","399","true","1","131.068512768","2.5769803776000004","11","1","-1","","","","","","","","","","","","",""
"psychophysics","115","367878","0.0-10.0-0.27","607da171f464f9e638d62de2","609006691f6f4e337c17f836","609a6128943474fe8c689c14","149","","","","37","","","","key","16.705588235294698","720","399","true","-1","133.6454931456","2.5769803776000004","11","-1","1","","","","","","","","","","","","",""
"psychophysics","116","368960","0.0-10.0-0.28","607da171f464f9e638d62de2","609006691f6f4e337c17f836","609a6128943474fe8c689c14","78","","","","37","","","","key","16.705079365079108","720","399","true","-1","133.6454931456","2.0615843020800004","12","-1","-1","","","","","","","","","","","","",""
"psychophysics","117","371043","0.0-10.0-0.29","607da171f464f9e638d62de2","609006691f6f4e337c17f836","609a6128943474fe8c689c14","1079","","","","37","","","","key","16.722903225806565","720","399","true","1","131.58390884352","1.6492674416640005","13","1","-1","","","","","","","","","","","","",""
"psychophysics","118","372496","0.0-10.0-0.30","607da171f464f9e638d62de2","609006691f6f4e337c17f836","609a6128943474fe8c689c14","446","","","","37","","","","key","16.720697674419064","720","399","true","-1","133.233176285184","1.6492674416640005","13","-1","1","","","","","","","","","","","","",""
"psychophysics","119","373947","0.0-10.0-0.31","607da171f464f9e638d62de2","609006691f6f4e337c17f836","609a6128943474fe8c689c14","448","","","","37","","","","key","16.708139534883315","720","399","true","-1","133.233176285184","1.3194139533312006","14","-1","-1","","","","","","","","","","","","",""
"psychophysics","120","375472","0.0-10.0-0.32","607da171f464f9e638d62de2","609006691f6f4e337c17f836","609a6128943474fe8c689c14","520","","","","37","","","","key","16.713555555555246","720","399","true","-1","131.91376233185278","1.3194139533312006","14","-1","-1","","","","","","","","","","","","",""
"psychophysics","121","376914","0.0-10.0-0.33","607da171f464f9e638d62de2","609006691f6f4e337c17f836","609a6128943474fe8c689c14","440","","","","37","","","","key","16.723529411764705","720","399","true","-1","131.91376233185278","1.3194139533312006","14","-1","-1","","","","","","","","","","","","",""
"psychophysics","122","378448","0.0-10.0-0.34","607da171f464f9e638d62de2","609006691f6f4e337c17f836","609a6128943474fe8c689c14","530","","","","37","","","","key","16.72109890109885","720","399","true","1","130.59434837852157","1.0555311626649604","15","1","-1","","","","","","","","","","","","",""
"psychophysics","123","381166","0.0-10.0-0.35","607da171f464f9e638d62de2","609006691f6f4e337c17f836","609a6128943474fe8c689c14","1717","","","","37","","","","key","16.721490683230016","720","399","true","1","131.64987954118652","1.0555311626649604","15","1","1","","","","","","","","","","","","",""
"psychophysics","124","382521","0.0-10.0-0.36","607da171f464f9e638d62de2","609006691f6f4e337c17f836","609a6128943474fe8c689c14","354","","","","37","","","","key","16.716249999999853","720","399","true","-1","132.70541070385147","1.0555311626649604","15","-1","1","","","","","","","","","","","","",""
"psychophysics","125","383769","0.0-10.0-0.37","607da171f464f9e638d62de2","609006691f6f4e337c17f836","609a6128943474fe8c689c14","247","","","","37","","","","key","16.717567567567254","720","399","true","-1","132.70541070385147","1","16","-1","-1","","","","","","","","","","","","",""
"psychophysics","126","385391","0.0-10.0-0.38","607da171f464f9e638d62de2","609006691f6f4e337c17f836","609a6128943474fe8c689c14","618","","","","37","","","","key","16.720208333333478","720","399","true","-1","131.70541070385147","1","16","-1","-1","","","","","","","","","","","","",""
"psychophysics","127","387373","0.0-10.0-0.39","607da171f464f9e638d62de2","609006691f6f4e337c17f836","609a6128943474fe8c689c14","978","","","","37","","","","key","16.721709401709422","720","399","true","1","131.70541070385147","1","17","1","-1","","","","","","","","","","","","",""
"html-keyboard-response","128","389190","0.0-11.0","607da171f464f9e638d62de2","609006691f6f4e337c17f836","609a6128943474fe8c689c14","1818","<p>Well Done !</p><p>Prepare for a new block.</p><p>DON'T EXIT THE FULL SCREEN MODE</p><p>Press the Spacebar to start.</p>","","","32","","","","","","","","","","","","","","","true","132.37285960746047","","","","","","","","","","",""
"psychophysics","129","391610","0.0-12.0-0.0","607da171f464f9e638d62de2","609006691f6f4e337c17f836","609a6128943474fe8c689c14","1418","","","","37","","","","key","16.861258741258563","720","399","true","-1","180","30","0","-1","","","","","","","","","","","","","",""
"psychophysics","130","393298","0.0-12.0-0.1","607da171f464f9e638d62de2","609006691f6f4e337c17f836","609a6128943474fe8c689c14","687","","","","39","","","","key","16.72640000000014","720","399","true","1","180","30","0","-1","-1","","","","","","","","","","","","",""
"psychophysics","131","394670","0.0-12.0-0.2","607da171f464f9e638d62de2","609006691f6f4e337c17f836","609a6128943474fe8c689c14","372","","","","39","","","","key","16.721234567901753","720","399","true","1","150","30","0","-1","-1","","","","","","","","","","","","",""
"psychophysics","132","396071","0.0-12.0-0.3","607da171f464f9e638d62de2","609006691f6f4e337c17f836","609a6128943474fe8c689c14","396","","","","37","","","","key","16.72024096385576","720","399","true","-1","150","30","0","-1","-1","","","","","","","","","","","","",""
"psychophysics","133","398049","0.0-12.0-0.4","607da171f464f9e638d62de2","609006691f6f4e337c17f836","609a6128943474fe8c689c14","977","","","","37","","","","key","16.72239316239332","720","399","true","1","129","24","1","1","-1","","","","","","","","","","","","",""
"psychophysics","134","399458","0.0-12.0-0.5","607da171f464f9e638d62de2","609006691f6f4e337c17f836","609a6128943474fe8c689c14","406","","","","37","","","","key","16.714939759036454","720","399","true","-1","153","24","1","-1","1","","","","","","","","","","","","",""
"psychophysics","135","400922","0.0-12.0-0.6","607da171f464f9e638d62de2","609006691f6f4e337c17f836","609a6128943474fe8c689c14","462","","","","37","","","","key","16.713563218390323","720","399","true","-1","153","19.2","2","-1","-1","","","","","","","","","","","","",""
"psychophysics","136","402422","0.0-12.0-0.7","607da171f464f9e638d62de2","609006691f6f4e337c17f836","609a6128943474fe8c689c14","500","","","","37","","","","key","16.71325842696608","720","399","true","-1","133.8","19.2","2","-1","-1","","","","","","","","","","","","",""
"psychophysics","137","403783","0.0-12.0-0.8","607da171f464f9e638d62de2","609006691f6f4e337c17f836","609a6128943474fe8c689c14","356","","","","39","","","","key","16.708000000000176","720","399","true","1","133.8","19.2","2","-1","-1","","","","","","","","","","","","",""
"psychophysics","138","405289","0.0-12.0-0.9","607da171f464f9e638d62de2","609006691f6f4e337c17f836","609a6128943474fe8c689c14","505","","","","39","","","","key","16.720674157302874","720","399","true","-1","129","15.36","3","1","-1","","","","","","","","","","","","",""
"psychophysics","139","406734","0.0-12.0-0.10","607da171f464f9e638d62de2","609006691f6f4e337c17f836","609a6128943474fe8c689c14","440","","","","37","","","","key","16.722588235293927","720","399","true","-1","144.36","15.36","3","-1","1","","","","","","","","","","","","",""
"psychophysics","140","408184","0.0-12.0-0.11","607da171f464f9e638d62de2","609006691f6f4e337c17f836","609a6128943474fe8c689c14","445","","","","39","","","","key","16.730930232558652","720","399","true","1","144.36","12.287999999999998","4","-1","-1","","","","","","","","","","","","",""
"psychophysics","141","409647","0.0-12.0-0.12","607da171f464f9e638d62de2","609006691f6f4e337c17f836","609a6128943474fe8c689c14","458","","","","37","","","","key","16.715862068965837","720","399","true","1","132.072","9.8304","5","1","-1","","","","","","","","","","","","",""
"psychophysics","142","411100","0.0-12.0-0.13","607da171f464f9e638d62de2","609006691f6f4e337c17f836","609a6128943474fe8c689c14","450","","","","37","","","","key","16.71651162790692","720","399","true","-1","141.9024","9.8304","5","-1","1","","","","","","","","","","","","",""
"psychophysics","143","412302","0.0-12.0-0.14","607da171f464f9e638d62de2","609006691f6f4e337c17f836","609a6128943474fe8c689c14","197","","","","39","","","","key","16.734857142857177","720","399","true","1","141.9024","7.864319999999999","6","-1","-1","","","","","","","","","","","","",""
"psychophysics","144","413695","0.0-12.0-0.15","607da171f464f9e638d62de2","609006691f6f4e337c17f836","609a6128943474fe8c689c14","388","","","","37","","","","key","16.726987951807537","720","399","true","-1","134.03808","7.864319999999999","6","-1","-1","","","","","","","","","","","","",""
"psychophysics","145","415030","0.0-12.0-0.16","607da171f464f9e638d62de2","609006691f6f4e337c17f836","609a6128943474fe8c689c14","331","","","","39","","","","key","16.72379746835434","720","399","true","1","134.03808","7.864319999999999","6","-1","-1","","","","","","","","","","","","",""
"psychophysics","146","416599","0.0-12.0-0.17","607da171f464f9e638d62de2","609006691f6f4e337c17f836","609a6128943474fe8c689c14","567","","","","37","","","","key","16.720869565217466","720","399","true","-1","129","7.864319999999999","6","-1","-1","","","","","","","","","","","","",""
"psychophysics","147","418481","0.0-12.0-0.18","607da171f464f9e638d62de2","609006691f6f4e337c17f836","609a6128943474fe8c689c14","876","","","","37","","","","key","16.724285714285674","720","399","true","1","129","6.291456","7","1","-1","","","","","","","","","","","","",""
"psychophysics","148","419559","0.0-12.0-0.19","607da171f464f9e638d62de2","609006691f6f4e337c17f836","609a6128943474fe8c689c14","73","","","","39","","","","key","16.70603174603145","720","399","true","1","135.291456","6.291456","7","-1","1","","","","","","","","","","","","",""
"psychophysics","149","420823","0.0-12.0-0.20","607da171f464f9e638d62de2","609006691f6f4e337c17f836","609a6128943474fe8c689c14","259","","","","37","","","","key","16.72959999999963","720","399","true","-1","135.291456","5.033164800000001","8","-1","-1","","","","","","","","","","","","",""
"psychophysics","150","422442","0.0-12.0-0.21","607da171f464f9e638d62de2","609006691f6f4e337c17f836","609a6128943474fe8c689c14","618","","","","37","","","","key","16.717916666666497","720","399","true","1","130.2582912","4.0265318400000005","9","1","-1","","","","","","","","","","","","",""
"psychophysics","151","423454","0.0-12.0-0.22","607da171f464f9e638d62de2","609006691f6f4e337c17f836","609a6128943474fe8c689c14","10","","","","39","","","","key","16.716949152542174","720","399","true","1","134.28482304","4.0265318400000005","9","-1","1","","","","","","","","","","","","",""
"psychophysics","152","424993","0.0-12.0-0.23","607da171f464f9e638d62de2","609006691f6f4e337c17f836","609a6128943474fe8c689c14","533","","","","39","","","","key","16.727472527472656","720","399","true","1","134.28482304","3.2212254720000004","10","-1","-1","","","","","","","","","","","","",""
"psychophysics","153","426446","0.0-12.0-0.24","607da171f464f9e638d62de2","609006691f6f4e337c17f836","609a6128943474fe8c689c14","448","","","","37","","","","key","16.724186046511274","720","399","true","1","131.06359756799998","2.5769803776000004","11","1","-1","","","","","","","","","","","","",""
"psychophysics","154","427865","0.0-12.0-0.25","607da171f464f9e638d62de2","609006691f6f4e337c17f836","609a6128943474fe8c689c14","418","","","","37","","","","key","16.720238095238095","720","399","true","-1","133.64057794559997","2.5769803776000004","11","-1","1","","","","","","","","","","","","",""
"psychophysics","155","429278","0.0-12.0-0.26","607da171f464f9e638d62de2","609006691f6f4e337c17f836","609a6128943474fe8c689c14","411","","","","39","","","","key","16.71952380952384","720","399","true","1","133.64057794559997","2.0615843020800004","12","-1","-1","","","","","","","","","","","","",""
"psychophysics","156","430793","0.0-12.0-0.27","607da171f464f9e638d62de2","609006691f6f4e337c17f836","609a6128943474fe8c689c14","514","","","","37","","","","key","16.71842696629216","720","399","true","-1","131.57899364351996","2.0615843020800004","12","-1","-1","","","","","","","","","","","","",""
"psychophysics","157","432356","0.0-12.0-0.28","607da171f464f9e638d62de2","609006691f6f4e337c17f836","609a6128943474fe8c689c14","561","","","","37","","","","key","16.710967741935434","720","399","true","-1","131.57899364351996","2.0615843020800004","12","-1","-1","","","","","","","","","","","","",""
"psychophysics","158","446377","0.0-12.0-0.29","607da171f464f9e638d62de2","609006691f6f4e337c17f836","609a6128943474fe8c689c14","13020","","","","37","","","","key","52.418651685393144","720","399","true","-1","129.51740934143996","2.0615843020800004","12","-1","-1","","","","","","","","","","","","",""
"psychophysics","159","448616","0.0-12.0-0.30","607da171f464f9e638d62de2","609006691f6f4e337c17f836","609a6128943474fe8c689c14","1231","","","","37","","","","key","16.842272727273116","720","399","true","-1","129.51740934143996","2.0615843020800004","12","-1","-1","","","","","","","","","","","","",""
"psychophysics","160","450515","0.0-12.0-0.31","607da171f464f9e638d62de2","609006691f6f4e337c17f836","609a6128943474fe8c689c14","897","","","","37","","","","key","16.72070796460179","720","399","true","-1","129","2.0615843020800004","12","-1","-1","","","","","","","","","","","","",""
"psychophysics","161","452045","0.0-12.0-0.32","607da171f464f9e638d62de2","609006691f6f4e337c17f836","609a6128943474fe8c689c14","525","","","","39","","","","key","16.7213333333338","720","399","true","-1","129","1.6492674416640005","13","1","-1","","","","","","","","","","","","",""
"psychophysics","162","453799","0.0-12.0-0.33","607da171f464f9e638d62de2","609006691f6f4e337c17f836","609a6128943474fe8c689c14","752","","","","39","","","","key","16.72692307692285","720","399","true","-1","130.649267441664","1.6492674416640005","13","1","1","","","","","","","","","","","","",""
"psychophysics","163","455634","0.0-12.0-0.34","607da171f464f9e638d62de2","609006691f6f4e337c17f836","609a6128943474fe8c689c14","833","","","","39","","","","key","16.720183486238533","720","399","true","1","132.298534883328","1.6492674416640005","13","-1","1","","","","","","","","","","","","",""
"psychophysics","164","456950","0.0-12.0-0.35","607da171f464f9e638d62de2","609006691f6f4e337c17f836","609a6128943474fe8c689c14","310","","","","39","","","","key","16.71153846153846","720","399","true","1","132.298534883328","1.3194139533312006","14","-1","-1","","","","","","","","","","","","",""
"psychophysics","165","459035","0.0-12.0-0.36","607da171f464f9e638d62de2","609006691f6f4e337c17f836","609a6128943474fe8c689c14","1079","","","","39","","","","key","16.72016260162615","720","399","true","1","130.97912092999678","1.3194139533312006","14","-1","-1","","","","","","","","","","","","",""
"psychophysics","166","461108","0.0-12.0-0.37","607da171f464f9e638d62de2","609006691f6f4e337c17f836","609a6128943474fe8c689c14","1071","","","","37","","","","key","16.71967479674812","720","399","true","-1","130.97912092999678","1.3194139533312006","14","-1","-1","","","","","","","","","","","","",""
"psychophysics","167","462579","0.0-12.0-0.38","607da171f464f9e638d62de2","609006691f6f4e337c17f836","609a6128943474fe8c689c14","468","","","","39","","","","key","16.713333333333306","720","399","true","1","129.65970697666557","1.3194139533312006","14","-1","-1","","","","","","","","","","","","",""
"psychophysics","168","464410","0.0-12.0-0.39","607da171f464f9e638d62de2","609006691f6f4e337c17f836","609a6128943474fe8c689c14","830","","","","37","","","","key","16.715779816513933","720","399","true","1","129.65970697666557","1.0555311626649604","15","1","-1","","","","","","","","","","","","",""
"html-keyboard-response","169","466082","0.0-13.0","607da171f464f9e638d62de2","609006691f6f4e337c17f836","609a6128943474fe8c689c14","1672","<p>Well Done !</p><p>Prepare for a new block.</p><p>DON'T EXIT THE FULL SCREEN MODE</p><p>Press the Spacebar to start.</p>","","","32","","","","","","","","","","","","","","","true","130.9331969921843","","","","","","","","","","",""
"html-keyboard-response","170","466187","0.0-14.0","607da171f464f9e638d62de2","609006691f6f4e337c17f836","609a6128943474fe8c689c14","null","","","","null","","","","","","","","","","","","","","","","","142.29298832241457","true","156.58597664482915","","","","","","","",""
"instructions","171","496810","0.0-15.0","607da171f464f9e638d62de2","609006691f6f4e337c17f836","609a6128943474fe8c689c14","30623","","","","","","","[{""page_index"":0,""viewing_time"":25332},{""page_index"":1,""viewing_time"":1816},{""page_index"":2,""viewing_time"":3475}]","","","","","","","","","","","","","","","","","","","","","","","",""
"psychophysics","172","499814","0.0-16.0-0.0","607da171f464f9e638d62de2","609006691f6f4e337c17f836","609a6128943474fe8c689c14","null","","","","null","","","","key","17.072413793102644","720","399","","","","","","","","","","","","","","","","","","","",""
"psychophysics","173","500321","0.0-16.0-1.0","607da171f464f9e638d62de2","609006691f6f4e337c17f836","609a6128943474fe8c689c14","null","","","","null","","","","key","16.720000000000162","720","399","","","","","","","","","","","","","157","-1","5","false","","","",""
"psychophysics","174","501708","0.0-16.0-2.0","607da171f464f9e638d62de2","609006691f6f4e337c17f836","609a6128943474fe8c689c14","1383","","","","77","","","","key","16.71180722891586","720","399","","","","","","","","","","","","","","","","","","","",""
"psychophysics","175","502713","0.0-16.0-0.1","607da171f464f9e638d62de2","609006691f6f4e337c17f836","609a6128943474fe8c689c14","null","","","","null","","","","key","16.708135593220813","720","399","","","","","","","","","","","","","","","","","","","",""
"psychophysics","176","503215","0.0-16.0-1.1","607da171f464f9e638d62de2","609006691f6f4e337c17f836","609a6128943474fe8c689c14","null","","","","null","","","","key","16.717931034482998","720","399","","","","","","","","","","","","","157","-1","6","false","","","",""
"psychophysics","177","503703","0.0-16.0-2.1","607da171f464f9e638d62de2","609006691f6f4e337c17f836","609a6128943474fe8c689c14","486","","","","77","","","","key","16.698571428571345","720","399","","","","","","","","","","","","","","","","","","","",""
"psychophysics","178","504703","0.0-16.0-0.2","607da171f464f9e638d62de2","609006691f6f4e337c17f836","609a6128943474fe8c689c14","null","","","","null","","","","key","16.736271186440717","720","399","","","","","","","","","","","","","","","","","","","",""
"psychophysics","179","505206","0.0-16.0-1.2","607da171f464f9e638d62de2","609006691f6f4e337c17f836","609a6128943474fe8c689c14","null","","","","null","","","","key","16.719999999998155","720","399","","","","","","","","","","","","","157","1","6","false","","","",""
"psychophysics","180","505443","0.0-16.0-2.2","607da171f464f9e638d62de2","609006691f6f4e337c17f836","609a6128943474fe8c689c14","236","","","","77","","","","key","16.735384615384437","720","399","","","","","","","","","","","","","","","","","","","",""
"psychophysics","181","506449","0.0-16.0-0.3","607da171f464f9e638d62de2","609006691f6f4e337c17f836","609a6128943474fe8c689c14","null","","","","null","","","","key","16.722372881355852","720","399","","","","","","","","","","","","","","","","","","","",""
"psychophysics","182","506956","0.0-16.0-1.3","607da171f464f9e638d62de2","609006691f6f4e337c17f836","609a6128943474fe8c689c14","null","","","","null","","","","key","16.725517241380594","720","399","","","","","","","","","","","","","157","-1","2","false","","","",""
"psychophysics","183","507475","0.0-16.0-2.3","607da171f464f9e638d62de2","609006691f6f4e337c17f836","609a6128943474fe8c689c14","518","","","","90","","","","key","16.686000000000544","720","399","","","","","","","","","","","","","","","","","","","",""
"psychophysics","184","508481","0.0-16.0-0.4","607da171f464f9e638d62de2","609006691f6f4e337c17f836","609a6128943474fe8c689c14","null","","","","null","","","","key","16.733666666666007","720","399","","","","","","","","","","","","","","","","","","","",""
"psychophysics","185","508985","0.0-16.0-1.4","607da171f464f9e638d62de2","609006691f6f4e337c17f836","609a6128943474fe8c689c14","null","","","","null","","","","key","16.716551724136888","720","399","","","","","","","","","","","","","157","1","4","false","","","",""
"psychophysics","186","509246","0.0-16.0-2.4","607da171f464f9e638d62de2","609006691f6f4e337c17f836","609a6128943474fe8c689c14","261","","","","77","","","","key","16.714285714285715","720","399","","","","","","","","","","","","","","","","","","","",""
"psychophysics","187","510252","0.0-16.0-0.5","607da171f464f9e638d62de2","609006691f6f4e337c17f836","609a6128943474fe8c689c14","null","","","","null","","","","key","16.73559322033839","720","399","","","","","","","","","","","","","","","","","","","",""
"psychophysics","188","510757","0.0-16.0-1.5","607da171f464f9e638d62de2","609006691f6f4e337c17f836","609a6128943474fe8c689c14","null","","","","null","","","","key","16.72133333333186","720","399","","","","","","","","","","","","","157","1","3","false","","","",""
"psychophysics","189","511289","0.0-16.0-2.5","607da171f464f9e638d62de2","609006691f6f4e337c17f836","609a6128943474fe8c689c14","532","","","","77","","","","key","16.69161290322588","720","399","","","","","","","","","","","","","","","","","","","",""
"psychophysics","190","512292","0.0-16.0-0.6","607da171f464f9e638d62de2","609006691f6f4e337c17f836","609a6128943474fe8c689c14","null","","","","null","","","","key","16.723793103447953","720","399","","","","","","","","","","","","","","","","","","","",""
"psychophysics","191","512794","0.0-16.0-1.6","607da171f464f9e638d62de2","609006691f6f4e337c17f836","609a6128943474fe8c689c14","null","","","","null","","","","key","16.744137931035045","720","399","","","","","","","","","","","","","157","-1","4","false","","","",""
"psychophysics","192","513429","0.0-16.0-2.6","607da171f464f9e638d62de2","609006691f6f4e337c17f836","609a6128943474fe8c689c14","629","","","","77","","","","key","16.70432432432426","720","399","","","","","","","","","","","","","","","","","","","",""
"psychophysics","193","514434","0.0-16.0-0.7","607da171f464f9e638d62de2","609006691f6f4e337c17f836","609a6128943474fe8c689c14","null","","","","null","","","","key","16.735333333333255","720","399","","","","","","","","","","","","","","","","","","","",""
"psychophysics","194","514935","0.0-16.0-1.7","607da171f464f9e638d62de2","609006691f6f4e337c17f836","609a6128943474fe8c689c14","null","","","","null","","","","key","16.75310344827474","720","399","","","","","","","","","","","","","157","1","5","false","","","",""
"psychophysics","195","515678","0.0-16.0-2.7","607da171f464f9e638d62de2","609006691f6f4e337c17f836","609a6128943474fe8c689c14","741","","","","77","","","","key","16.7362790697682","720","399","","","","","","","","","","","","","","","","","","","",""
"psychophysics","196","516680","0.0-16.0-0.8","607da171f464f9e638d62de2","609006691f6f4e337c17f836","609a6128943474fe8c689c14","null","","","","null","","","","key","16.723389830509344","720","399","","","","","","","","","","","","","","","","","","","",""
"psychophysics","197","517185","0.0-16.0-1.8","607da171f464f9e638d62de2","609006691f6f4e337c17f836","609a6128943474fe8c689c14","null","","","","null","","","","key","16.721379310344265","720","399","","","","","","","","","","","","","157","-1","0","false","","","",""
"psychophysics","198","517628","0.0-16.0-2.8","607da171f464f9e638d62de2","609006691f6f4e337c17f836","609a6128943474fe8c689c14","442","","","","90","","","","key","16.69846153846279","720","399","","","","","","","","","","","","","","","","","","","",""
"psychophysics","199","518629","0.0-16.0-0.9","607da171f464f9e638d62de2","609006691f6f4e337c17f836","609a6128943474fe8c689c14","null","","","","null","","","","key","16.72034482758669","720","399","","","","","","","","","","","","","","","","","","","",""
"psychophysics","200","519135","0.0-16.0-1.9","607da171f464f9e638d62de2","609006691f6f4e337c17f836","609a6128943474fe8c689c14","null","","","","null","","","","key","16.7213333333338","720","399","","","","","","","","","","","","","157","1","0","false","","","",""
"psychophysics","201","519695","0.0-16.0-2.9","607da171f464f9e638d62de2","609006691f6f4e337c17f836","609a6128943474fe8c689c14","559","","","","90","","","","key","16.732500000000073","720","399","","","","","","","","","","","","","","","","","","","",""
"psychophysics","202","520698","0.0-16.0-0.10","607da171f464f9e638d62de2","609006691f6f4e337c17f836","609a6128943474fe8c689c14","null","","","","null","","","","key","16.72779661016953","720","399","","","","","","","","","","","","","","","","","","","",""
"psychophysics","203","521205","0.0-16.0-1.10","607da171f464f9e638d62de2","609006691f6f4e337c17f836","609a6128943474fe8c689c14","null","","","","null","","","","key","16.71866666666659","720","399","","","","","","","","","","","","","157","-1","3","false","","","",""
"psychophysics","204","521755","0.0-16.0-2.10","607da171f464f9e638d62de2","609006691f6f4e337c17f836","609a6128943474fe8c689c14","549","","","","90","","","","key","16.71806451612933","720","399","","","","","","","","","","","","","","","","","","","",""
"psychophysics","205","522756","0.0-16.0-0.11","607da171f464f9e638d62de2","609006691f6f4e337c17f836","609a6128943474fe8c689c14","null","","","","null","","","","key","16.721694915254513","720","399","","","","","","","","","","","","","","","","","","","",""
"psychophysics","206","523258","0.0-16.0-1.11","607da171f464f9e638d62de2","609006691f6f4e337c17f836","609a6128943474fe8c689c14","null","","","","null","","","","key","16.748275862069367","720","399","","","","","","","","","","","","","157","1","2","false","","","",""
"psychophysics","207","523712","0.0-16.0-2.11","607da171f464f9e638d62de2","609006691f6f4e337c17f836","609a6128943474fe8c689c14","454","","","","90","","","","key","16.720000000000088","720","399","","","","","","","","","","","","","","","","","","","",""
"psychophysics","208","524717","0.0-16.0-0.12","607da171f464f9e638d62de2","609006691f6f4e337c17f836","609a6128943474fe8c689c14","null","","","","null","","","","key","16.71932203389736","720","399","","","","","","","","","","","","","","","","","","","",""
"psychophysics","209","525219","0.0-16.0-1.12","607da171f464f9e638d62de2","609006691f6f4e337c17f836","609a6128943474fe8c689c14","null","","","","null","","","","key","16.714482758619727","720","399","","","","","","","","","","","","","157","-1","3","false","","","",""
"psychophysics","210","525885","0.0-16.0-2.12","607da171f464f9e638d62de2","609006691f6f4e337c17f836","609a6128943474fe8c689c14","665","","","","90","","","","key","16.718947368419705","720","399","","","","","","","","","","","","","","","","","","","",""
"psychophysics","211","526889","0.0-16.0-0.13","607da171f464f9e638d62de2","609006691f6f4e337c17f836","609a6128943474fe8c689c14","null","","","","null","","","","key","16.73728813559322","720","399","","","","","","","","","","","","","","","","","","","",""
"psychophysics","212","527392","0.0-16.0-1.13","607da171f464f9e638d62de2","609006691f6f4e337c17f836","609a6128943474fe8c689c14","null","","","","null","","","","key","16.719999999999224","720","399","","","","","","","","","","","","","157","1","3","false","","","",""
"psychophysics","213","527605","0.0-16.0-2.13","607da171f464f9e638d62de2","609006691f6f4e337c17f836","609a6128943474fe8c689c14","212","","","","77","","","","key","16.723636363632977","720","399","","","","","","","","","","","","","","","","","","","",""
"psychophysics","214","528607","0.0-16.0-0.14","607da171f464f9e638d62de2","609006691f6f4e337c17f836","609a6128943474fe8c689c14","null","","","","null","","","","key","16.726440677965865","720","399","","","","","","","","","","","","","","","","","","","",""
"psychophysics","215","529114","0.0-16.0-1.14","607da171f464f9e638d62de2","609006691f6f4e337c17f836","609a6128943474fe8c689c14","null","","","","null","","","","key","16.71866666666465","720","399","","","","","","","","","","","","","157","-1","0","false","","","",""
"psychophysics","216","529380","0.0-16.0-2.14","607da171f464f9e638d62de2","609006691f6f4e337c17f836","609a6128943474fe8c689c14","265","","","","90","","","","key","16.714285714285715","720","399","","","","","","","","","","","","","","","","","","","",""
"psychophysics","217","530385","0.0-16.0-0.15","607da171f464f9e638d62de2","609006691f6f4e337c17f836","609a6128943474fe8c689c14","null","","","","null","","","","key","16.736000000000544","720","399","","","","","","","","","","","","","","","","","","","",""
"psychophysics","218","530886","0.0-16.0-1.15","607da171f464f9e638d62de2","609006691f6f4e337c17f836","609a6128943474fe8c689c14","null","","","","null","","","","key","16.695862068967283","720","399","","","","","","","","","","","","","157","1","0","false","","","",""
"psychophysics","219","531270","0.0-16.0-2.15","607da171f464f9e638d62de2","609006691f6f4e337c17f836","609a6128943474fe8c689c14","383","","","","90","","","","key","16.68545454545264","720","399","","","","","","","","","","","","","","","","","","","",""
"psychophysics","220","532275","0.0-16.0-0.16","607da171f464f9e638d62de2","609006691f6f4e337c17f836","609a6128943474fe8c689c14","null","","","","null","","","","key","16.705762711864644","720","399","","","","","","","","","","","","","","","","","","","",""
"psychophysics","221","532780","0.0-16.0-1.16","607da171f464f9e638d62de2","609006691f6f4e337c17f836","609a6128943474fe8c689c14","null","","","","null","","","","key","16.720689655173217","720","399","","","","","","","","","","","","","157","1","2","false","","","",""
"psychophysics","222","533407","0.0-16.0-2.16","607da171f464f9e638d62de2","609006691f6f4e337c17f836","609a6128943474fe8c689c14","626","","","","90","","","","key","16.69555555555659","720","399","","","","","","","","","","","","","","","","","","","",""
"psychophysics","223","534408","0.0-16.0-0.17","607da171f464f9e638d62de2","609006691f6f4e337c17f836","609a6128943474fe8c689c14","null","","","","null","","","","key","16.726101694914703","720","399","","","","","","","","","","","","","","","","","","","",""
"psychophysics","224","534915","0.0-16.0-1.17","607da171f464f9e638d62de2","609006691f6f4e337c17f836","609a6128943474fe8c689c14","null","","","","null","","","","key","16.749655172413473","720","399","","","","","","","","","","","","","157","-1","6","false","","","",""
"psychophysics","225","535446","0.0-16.0-2.17","607da171f464f9e638d62de2","609006691f6f4e337c17f836","609a6128943474fe8c689c14","526","","","","77","","","","key","16.718709677420257","720","399","","","","","","","","","","","","","","","","","","","",""
"psychophysics","226","536448","0.0-16.0-0.18","607da171f464f9e638d62de2","609006691f6f4e337c17f836","609a6128943474fe8c689c14","null","","","","null","","","","key","16.719999999999683","720","399","","","","","","","","","","","","","","","","","","","",""
"psychophysics","227","536950","0.0-16.0-1.18","607da171f464f9e638d62de2","609006691f6f4e337c17f836","609a6128943474fe8c689c14","null","","","","null","","","","key","16.726896551726707","720","399","","","","","","","","","","","","","157","-1","4","false","","","",""
"psychophysics","228","537475","0.0-16.0-2.18","607da171f464f9e638d62de2","609006691f6f4e337c17f836","609a6128943474fe8c689c14","523","","","","90","","","","key","16.705806451613054","720","399","","","","","","","","","","","","","","","","","","","",""
"psychophysics","229","538480","0.0-16.0-0.19","607da171f464f9e638d62de2","609006691f6f4e337c17f836","609a6128943474fe8c689c14","null","","","","null","","","","key","16.720338983050848","720","399","","","","","","","","","","","","","","","","","","","",""
"psychophysics","230","538982","0.0-16.0-1.19","607da171f464f9e638d62de2","609006691f6f4e337c17f836","609a6128943474fe8c689c14","null","","","","null","","","","key","16.721379310346272","720","399","","","","","","","","","","","","","157","1","6","false","","","",""
"psychophysics","231","539787","0.0-16.0-2.19","607da171f464f9e638d62de2","609006691f6f4e337c17f836","609a6128943474fe8c689c14","803","","","","77","","","","key","16.73617021276546","720","399","","","","","","","","","","","","","","","","","","","",""
"psychophysics","232","540788","0.0-16.0-0.20","607da171f464f9e638d62de2","609006691f6f4e337c17f836","609a6128943474fe8c689c14","null","","","","null","","","","key","16.720338983050848","720","399","","","","","","","","","","","","","","","","","","","",""
"psychophysics","233","541293","0.0-16.0-1.20","607da171f464f9e638d62de2","609006691f6f4e337c17f836","609a6128943474fe8c689c14","null","","","","null","","","","key","16.720000000000162","720","399","","","","","","","","","","","","","157","-1","2","false","","","",""
"psychophysics","234","541566","0.0-16.0-2.20","607da171f464f9e638d62de2","609006691f6f4e337c17f836","609a6128943474fe8c689c14","272","","","","90","","","","key","16.717333333333954","720","399","","","","","","","","","","","","","","","","","","","",""
"psychophysics","235","542568","0.0-16.0-0.21","607da171f464f9e638d62de2","609006691f6f4e337c17f836","609a6128943474fe8c689c14","null","","","","null","","","","key","16.73627118643973","720","399","","","","","","","","","","","","","","","","","","","",""
"psychophysics","236","543072","0.0-16.0-1.21","607da171f464f9e638d62de2","609006691f6f4e337c17f836","609a6128943474fe8c689c14","null","","","","null","","","","key","16.714482758619727","720","399","","","","","","","","","","","","","157","1","5","false","","","",""
"psychophysics","237","543550","0.0-16.0-2.21","607da171f464f9e638d62de2","609006691f6f4e337c17f836","609a6128943474fe8c689c14","477","","","","90","","","","key","16.689285714287376","720","399","","","","","","","","","","","","","","","","","","","",""
"psychophysics","238","544554","0.0-16.0-0.22","607da171f464f9e638d62de2","609006691f6f4e337c17f836","609a6128943474fe8c689c14","null","","","","null","","","","key","16.721355932204336","720","399","","","","","","","","","","","","","","","","","","","",""
"psychophysics","239","545057","0.0-16.0-1.22","607da171f464f9e638d62de2","609006691f6f4e337c17f836","609a6128943474fe8c689c14","null","","","","null","","","","key","16.720000000000162","720","399","","","","","","","","","","","","","157","1","4","false","","","",""
"psychophysics","240","545515","0.0-16.0-2.22","607da171f464f9e638d62de2","609006691f6f4e337c17f836","609a6128943474fe8c689c14","457","","","","90","","","","key","16.695384615383002","720","399","","","","","","","","","","","","","","","","","","","",""
"psychophysics","241","546520","0.0-16.0-0.23","607da171f464f9e638d62de2","609006691f6f4e337c17f836","609a6128943474fe8c689c14","null","","","","null","","","","key","16.73666666666589","720","399","","","","","","","","","","","","","","","","","","","",""
"psychophysics","242","547025","0.0-16.0-1.23","607da171f464f9e638d62de2","609006691f6f4e337c17f836","609a6128943474fe8c689c14","null","","","","null","","","","key","16.73103448276103","720","399","","","","","","","","","","","","","157","-1","5","false","","","",""
"psychophysics","243","547367","0.0-16.0-2.23","607da171f464f9e638d62de2","609006691f6f4e337c17f836","609a6128943474fe8c689c14","340","","","","90","","","","key","16.758947368417132","720","399","","","","","","","","","","","","","","","","","","","",""
"html-keyboard-response","244","549002","0.0-17.0","607da171f464f9e638d62de2","609006691f6f4e337c17f836","609a6128943474fe8c689c14","1634","<p>Well Done !</p><p>Training Complete. Press the spacebar to start.</p><p>DON'T EXIT THE FULL SCREEN MODE</p>","","","32","","","","","","","","","","","","","","","","","","","","","","","","","","",""
"psychophysics","245","552005","0.0-18.0-0.0","607da171f464f9e638d62de2","609006691f6f4e337c17f836","609a6128943474fe8c689c14","null","","","","null","","","","key","16.90542372881427","720","399","","","","","","","","","","","","","","","","","","","",""
"psychophysics","246","552507","0.0-18.0-1.0","607da171f464f9e638d62de2","609006691f6f4e337c17f836","609a6128943474fe8c689c14","null","","","","null","","","","key","16.71724137931195","720","399","","","","","","","","","","","","","157","1","5","true","","","",""
"psychophysics","247","553359","0.0-18.0-2.0","607da171f464f9e638d62de2","609006691f6f4e337c17f836","609a6128943474fe8c689c14","851","","","","77","","","","key","16.706399999998975","720","399","","","","","","","","","","","","","","","","","","","",""
"psychophysics","248","554365","0.0-18.0-0.1","607da171f464f9e638d62de2","609006691f6f4e337c17f836","609a6128943474fe8c689c14","null","","","","null","","","","key","16.720338983050848","720","399","","","","","","","","","","","","","","","","","","","",""
"psychophysics","249","554867","0.0-18.0-1.1","607da171f464f9e638d62de2","609006691f6f4e337c17f836","609a6128943474fe8c689c14","null","","","","null","","","","key","16.68896551724074","720","399","","","","","","","","","","","","","157","1","4","true","","","",""
"psychophysics","250","555067","0.0-18.0-2.1","607da171f464f9e638d62de2","609006691f6f4e337c17f836","609a6128943474fe8c689c14","199","","","","77","","","","key","16.645454545452427","720","399","","","","","","","","","","","","","","","","","","","",""
"psychophysics","251","556069","0.0-18.0-0.2","607da171f464f9e638d62de2","609006691f6f4e337c17f836","609a6128943474fe8c689c14","null","","","","null","","","","key","16.727796610170518","720","399","","","","","","","","","","","","","","","","","","","",""
"psychophysics","252","556570","0.0-18.0-1.2","607da171f464f9e638d62de2","609006691f6f4e337c17f836","609a6128943474fe8c689c14","null","","","","null","","","","key","16.720000000000162","720","399","","","","","","","","","","","","","157","-1","5","true","","","",""
"psychophysics","253","556887","0.0-18.0-2.2","607da171f464f9e638d62de2","609006691f6f4e337c17f836","609a6128943474fe8c689c14","318","","","","90","","","","key","16.687777777778038","720","399","","","","","","","","","","","","","","","","","","","",""
"psychophysics","254","557891","0.0-18.0-0.3","607da171f464f9e638d62de2","609006691f6f4e337c17f836","609a6128943474fe8c689c14","null","","","","null","","","","key","16.72745762711738","720","399","","","","","","","","","","","","","","","","","","","",""
"psychophysics","255","558394","0.0-18.0-1.3","607da171f464f9e638d62de2","609006691f6f4e337c17f836","609a6128943474fe8c689c14","null","","","","null","","","","key","16.720000000000162","720","399","","","","","","","","","","","","","157","-1","2","true","","","",""
"psychophysics","256","558563","0.0-18.0-2.3","607da171f464f9e638d62de2","609006691f6f4e337c17f836","609a6128943474fe8c689c14","169","","","","90","","","","key","16.63777777778968","720","399","","","","","","","","","","","","","","","","","","","",""
"psychophysics","257","559564","0.0-18.0-0.4","607da171f464f9e638d62de2","609006691f6f4e337c17f836","609a6128943474fe8c689c14","null","","","","null","","","","key","16.722372881357828","720","399","","","","","","","","","","","","","","","","","","","",""
"psychophysics","258","560066","0.0-18.0-1.4","607da171f464f9e638d62de2","609006691f6f4e337c17f836","609a6128943474fe8c689c14","null","","","","null","","","","key","16.721379310342257","720","399","","","","","","","","","","","","","157","1","6","true","","","",""
"psychophysics","259","560302","0.0-18.0-2.4","607da171f464f9e638d62de2","609006691f6f4e337c17f836","609a6128943474fe8c689c14","236","","","","77","","","","key","16.719999999998926","720","399","","","","","","","","","","","","","","","","","","","",""
"psychophysics","260","561305","0.0-18.0-0.5","607da171f464f9e638d62de2","609006691f6f4e337c17f836","609a6128943474fe8c689c14","null","","","","null","","","","key","16.719999999999683","720","399","","","","","","","","","","","","","","","","","","","",""
"psychophysics","261","561810","0.0-18.0-1.5","607da171f464f9e638d62de2","609006691f6f4e337c17f836","609a6128943474fe8c689c14","null","","","","null","","","","key","16.71793103448099","720","399","","","","","","","","","","","","","157","-1","6","true","","","",""
"psychophysics","262","562168","0.0-18.0-2.5","607da171f464f9e638d62de2","609006691f6f4e337c17f836","609a6128943474fe8c689c14","355","","","","90","","","","key","16.71699999999837","720","399","","","","","","","","","","","","","","","","","","","",""
"psychophysics","263","563172","0.0-18.0-0.6","607da171f464f9e638d62de2","609006691f6f4e337c17f836","609a6128943474fe8c689c14","null","","","","null","","","","key","16.734237288134725","720","399","","","","","","","","","","","","","","","","","","","",""
"psychophysics","264","563679","0.0-18.0-1.6","607da171f464f9e638d62de2","609006691f6f4e337c17f836","609a6128943474fe8c689c14","null","","","","null","","","","key","16.6926666666676","720","399","","","","","","","","","","","","","157","1","0","true","","","",""
"psychophysics","265","564515","0.0-18.0-2.6","607da171f464f9e638d62de2","609006691f6f4e337c17f836","609a6128943474fe8c689c14","836","","","","90","","","","key","16.703673469387375","720","399","","","","","","","","","","","","","","","","","","","",""
"psychophysics","266","565516","0.0-18.0-0.7","607da171f464f9e638d62de2","609006691f6f4e337c17f836","609a6128943474fe8c689c14","null","","","","null","","","","key","16.724067796609695","720","399","","","","","","","","","","","","","","","","","","","",""
"psychophysics","267","566017","0.0-18.0-1.7","607da171f464f9e638d62de2","609006691f6f4e337c17f836","609a6128943474fe8c689c14","null","","","","null","","","","key","16.720000000000162","720","399","","","","","","","","","","","","","157","-1","4","true","","","",""
"psychophysics","268","566406","0.0-18.0-2.7","607da171f464f9e638d62de2","609006691f6f4e337c17f836","609a6128943474fe8c689c14","388","","","","77","","","","key","16.68636363636787","720","399","","","","","","","","","","","","","","","","","","","",""
"psychophysics","269","567408","0.0-18.0-0.8","607da171f464f9e638d62de2","609006691f6f4e337c17f836","609a6128943474fe8c689c14","null","","","","null","","","","key","16.723728813560506","720","399","","","","","","","","","","","","","","","","","","","",""
"psychophysics","270","567911","0.0-18.0-1.8","607da171f464f9e638d62de2","609006691f6f4e337c17f836","609a6128943474fe8c689c14","null","","","","null","","","","key","16.721379310346272","720","399","","","","","","","","","","","","","157","1","3","true","","","",""
"psychophysics","271","568111","0.0-18.0-2.8","607da171f464f9e638d62de2","609006691f6f4e337c17f836","609a6128943474fe8c689c14","200","","","","90","","","","key","16.718181818173353","720","399","","","","","","","","","","","","","","","","","","","",""
"psychophysics","272","569112","0.0-18.0-0.9","607da171f464f9e638d62de2","609006691f6f4e337c17f836","609a6128943474fe8c689c14","null","","","","null","","","","key","16.721016949153174","720","399","","","","","","","","","","","","","","","","","","","",""
"psychophysics","273","569618","0.0-18.0-1.9","607da171f464f9e638d62de2","609006691f6f4e337c17f836","609a6128943474fe8c689c14","null","","","","null","","","","key","16.685517241379472","720","399","","","","","","","","","","","","","157","-1","3","true","","","",""
"psychophysics","274","569923","0.0-18.0-2.9","607da171f464f9e638d62de2","609006691f6f4e337c17f836","609a6128943474fe8c689c14","304","","","","90","","","","key","16.735294117647058","720","399","","","","","","","","","","","","","","","","","","","",""
"psychophysics","275","570925","0.0-18.0-0.10","607da171f464f9e638d62de2","609006691f6f4e337c17f836","609a6128943474fe8c689c14","null","","","","null","","","","key","16.720338983050848","720","399","","","","","","","","","","","","","","","","","","","",""
"psychophysics","276","571431","0.0-18.0-1.10","607da171f464f9e638d62de2","609006691f6f4e337c17f836","609a6128943474fe8c689c14","null","","","","null","","","","key","16.720689655173217","720","399","","","","","","","","","","","","","157","-1","0","true","","","",""
"psychophysics","277","571546","0.0-18.0-2.10","607da171f464f9e638d62de2","609006691f6f4e337c17f836","609a6128943474fe8c689c14","110","","","","90","","","","key","16.83666666666977","720","399","","","","","","","","","","","","","","","","","","","",""
"psychophysics","278","572548","0.0-18.0-0.11","607da171f464f9e638d62de2","609006691f6f4e337c17f836","609a6128943474fe8c689c14","null","","","","null","","","","key","16.708813559321165","720","399","","","","","","","","","","","","","","","","","","","",""
"psychophysics","279","573051","0.0-18.0-1.11","607da171f464f9e638d62de2","609006691f6f4e337c17f836","609a6128943474fe8c689c14","null","","","","null","","","","key","16.720000000000162","720","399","","","","","","","","","","","","","157","1","2","true","","","",""
"psychophysics","280","573242","0.0-18.0-2.11","607da171f464f9e638d62de2","609006691f6f4e337c17f836","609a6128943474fe8c689c14","190","","","","90","","","","key","16.689090909097683","720","399","","","","","","","","","","","","","","","","","","","",""
"psychophysics","281","574244","0.0-18.0-0.12","607da171f464f9e638d62de2","609006691f6f4e337c17f836","609a6128943474fe8c689c14","null","","","","null","","","","key","16.713559322035476","720","399","","","","","","","","","","","","","","","","","","","",""
"psychophysics","282","574745","0.0-18.0-1.12","607da171f464f9e638d62de2","609006691f6f4e337c17f836","609a6128943474fe8c689c14","null","","","","null","","","","key","16.71793103448099","720","399","","","","","","","","","","","","","157","-1","5","true","","","",""
"psychophysics","283","575176","0.0-18.0-2.12","607da171f464f9e638d62de2","609006691f6f4e337c17f836","609a6128943474fe8c689c14","428","","","","77","","","","key","16.720000000001164","720","399","","","","","","","","","","","","","","","","","","","",""
"psychophysics","284","576181","0.0-18.0-0.13","607da171f464f9e638d62de2","609006691f6f4e337c17f836","609a6128943474fe8c689c14","null","","","","null","","","","key","16.73559322033938","720","399","","","","","","","","","","","","","","","","","","","",""
"psychophysics","285","576684","0.0-18.0-1.13","607da171f464f9e638d62de2","609006691f6f4e337c17f836","609a6128943474fe8c689c14","null","","","","null","","","","key","16.725333333333644","720","399","","","","","","","","","","","","","157","-1","0","true","","","",""
"psychophysics","286","576896","0.0-18.0-2.13","607da171f464f9e638d62de2","609006691f6f4e337c17f836","609a6128943474fe8c689c14","210","","","","90","","","","key","16.73272727273235","720","399","","","","","","","","","","","","","","","","","","","",""
"psychophysics","287","577897","0.0-18.0-0.14","607da171f464f9e638d62de2","609006691f6f4e337c17f836","609a6128943474fe8c689c14","null","","","","null","","","","key","16.727457627119353","720","399","","","","","","","","","","","","","","","","","","","",""
"psychophysics","288","578401","0.0-18.0-1.14","607da171f464f9e638d62de2","609006691f6f4e337c17f836","609a6128943474fe8c689c14","null","","","","null","","","","key","16.70068965517065","720","399","","","","","","","","","","","","","157","1","5","true","","","",""
"psychophysics","289","578697","0.0-18.0-2.14","607da171f464f9e638d62de2","609006691f6f4e337c17f836","609a6128943474fe8c689c14","295","","","","90","","","","key","16.71999999999945","720","399","","","","","","","","","","","","","","","","","","","",""
"psychophysics","290","579700","0.0-18.0-0.15","607da171f464f9e638d62de2","609006691f6f4e337c17f836","609a6128943474fe8c689c14","null","","","","null","","","","key","16.71186440677966","720","399","","","","","","","","","","","","","","","","","","","",""
"psychophysics","291","580202","0.0-18.0-1.15","607da171f464f9e638d62de2","609006691f6f4e337c17f836","609a6128943474fe8c689c14","null","","","","null","","","","key","16.726896551722692","720","399","","","","","","","","","","","","","157","-1","3","true","","","",""
"psychophysics","292","580615","0.0-18.0-2.15","607da171f464f9e638d62de2","609006691f6f4e337c17f836","609a6128943474fe8c689c14","412","","","","77","","","","key","16.691666666665697","720","399","","","","","","","","","","","","","","","","","","","",""
"psychophysics","293","581617","0.0-18.0-0.16","607da171f464f9e638d62de2","609006691f6f4e337c17f836","609a6128943474fe8c689c14","null","","","","null","","","","key","16.720338983050848","720","399","","","","","","","","","","","","","","","","","","","",""
"psychophysics","294","582118","0.0-18.0-1.16","607da171f464f9e638d62de2","609006691f6f4e337c17f836","609a6128943474fe8c689c14","null","","","","null","","","","key","16.726206896553652","720","399","","","","","","","","","","","","","157","1","4","true","","","",""
"psychophysics","295","582386","0.0-18.0-2.16","607da171f464f9e638d62de2","609006691f6f4e337c17f836","609a6128943474fe8c689c14","267","","","","77","","","","key","16.657333333332403","720","399","","","","","","","","","","","","","","","","","","","",""
"psychophysics","296","583388","0.0-18.0-0.17","607da171f464f9e638d62de2","609006691f6f4e337c17f836","609a6128943474fe8c689c14","null","","","","null","","","","key","16.705084745762317","720","399","","","","","","","","","","","","","","","","","","","",""
"psychophysics","297","583892","0.0-18.0-1.17","607da171f464f9e638d62de2","609006691f6f4e337c17f836","609a6128943474fe8c689c14","null","","","","null","","","","key","16.706206896555095","720","399","","","","","","","","","","","","","157","-1","4","true","","","",""
"psychophysics","298","584383","0.0-18.0-2.17","607da171f464f9e638d62de2","609006691f6f4e337c17f836","609a6128943474fe8c689c14","491","","","","77","","","","key","16.710000000000168","720","399","","","","","","","","","","","","","","","","","","","",""
"psychophysics","299","585383","0.0-18.0-0.18","607da171f464f9e638d62de2","609006691f6f4e337c17f836","609a6128943474fe8c689c14","null","","","","null","","","","key","16.720338983050848","720","399","","","","","","","","","","","","","","","","","","","",""
"psychophysics","300","585886","0.0-18.0-1.18","607da171f464f9e638d62de2","609006691f6f4e337c17f836","609a6128943474fe8c689c14","null","","","","null","","","","key","16.722068965515316","720","399","","","","","","","","","","","","","157","1","2","true","","","",""
"psychophysics","301","586176","0.0-18.0-2.18","607da171f464f9e638d62de2","609006691f6f4e337c17f836","609a6128943474fe8c689c14","289","","","","90","","","","key","16.719999999993888","720","399","","","","","","","","","","","","","","","","","","","",""
"psychophysics","302","587177","0.0-18.0-0.19","607da171f464f9e638d62de2","609006691f6f4e337c17f836","609a6128943474fe8c689c14","null","","","","null","","","","key","16.726779661015055","720","399","","","","","","","","","","","","","","","","","","","",""
"psychophysics","303","587679","0.0-18.0-1.19","607da171f464f9e638d62de2","609006691f6f4e337c17f836","609a6128943474fe8c689c14","null","","","","null","","","","key","16.717241379307936","720","399","","","","","","","","","","","","","157","-1","6","true","","","",""
"psychophysics","304","588148","0.0-18.0-2.19","607da171f464f9e638d62de2","609006691f6f4e337c17f836","609a6128943474fe8c689c14","468","","","","90","","","","key","16.720740740739362","720","399","","","","","","","","","","","","","","","","","","","",""
"psychophysics","305","589151","0.0-18.0-0.20","607da171f464f9e638d62de2","609006691f6f4e337c17f836","609a6128943474fe8c689c14","null","","","","null","","","","key","16.71525423728932","720","399","","","","","","","","","","","","","","","","","","","",""
"psychophysics","306","589655","0.0-18.0-1.20","607da171f464f9e638d62de2","609006691f6f4e337c17f836","609a6128943474fe8c689c14","null","","","","null","","","","key","16.71862068965405","720","399","","","","","","","","","","","","","157","1","0","true","","","",""
"psychophysics","307","590166","0.0-18.0-2.20","607da171f464f9e638d62de2","609006691f6f4e337c17f836","609a6128943474fe8c689c14","509","","","","90","","","","key","16.75266666666527","720","399","","","","","","","","","","","","","","","","","","","",""
"psychophysics","308","591168","0.0-18.0-0.21","607da171f464f9e638d62de2","609006691f6f4e337c17f836","609a6128943474fe8c689c14","null","","","","null","","","","key","16.72949152542436","720","399","","","","","","","","","","","","","","","","","","","",""
"psychophysics","309","591672","0.0-18.0-1.21","607da171f464f9e638d62de2","609006691f6f4e337c17f836","609a6128943474fe8c689c14","null","","","","null","","","","key","16.719999999996148","720","399","","","","","","","","","","","","","157","-1","2","true","","","",""
"psychophysics","310","591889","0.0-18.0-2.21","607da171f464f9e638d62de2","609006691f6f4e337c17f836","609a6128943474fe8c689c14","216","","","","90","","","","key","16.654999999998836","720","399","","","","","","","","","","","","","","","","","","","",""
"psychophysics","311","592890","0.0-18.0-0.22","607da171f464f9e638d62de2","609006691f6f4e337c17f836","609a6128943474fe8c689c14","null","","","","null","","","","key","16.719999999999683","720","399","","","","","","","","","","","","","","","","","","","",""
"psychophysics","312","593391","0.0-18.0-1.22","607da171f464f9e638d62de2","609006691f6f4e337c17f836","609a6128943474fe8c689c14","null","","","","null","","","","key","16.744827586206092","720","399","","","","","","","","","","","","","157","1","3","true","","","",""
"psychophysics","313","594053","0.0-18.0-2.22","607da171f464f9e638d62de2","609006691f6f4e337c17f836","609a6128943474fe8c689c14","662","","","","90","","","","key","16.723157894736353","720","399","","","","","","","","","","","","","","","","","","","",""
"psychophysics","314","595058","0.0-18.0-0.23","607da171f464f9e638d62de2","609006691f6f4e337c17f836","609a6128943474fe8c689c14","null","","","","null","","","","key","16.73728813559322","720","399","","","","","","","","","","","","","","","","","","","",""
"psychophysics","315","595562","0.0-18.0-1.23","607da171f464f9e638d62de2","609006691f6f4e337c17f836","609a6128943474fe8c689c14","null","","","","null","","","","key","16.719999999999224","720","399","","","","","","","","","","","","","157","1","6","true","","","",""
"psychophysics","316","596010","0.0-18.0-2.23","607da171f464f9e638d62de2","609006691f6f4e337c17f836","609a6128943474fe8c689c14","448","","","","90","","","","key","16.719199999999255","720","399","","","","","","","","","","","","","","","","","","","",""
"psychophysics","317","597015","0.0-18.0-0.24","607da171f464f9e638d62de2","609006691f6f4e337c17f836","609a6128943474fe8c689c14","null","","","","null","","","","key","16.73084745762704","720","399","","","","","","","","","","","","","","","","","","","",""
"psychophysics","318","597517","0.0-18.0-1.24","607da171f464f9e638d62de2","609006691f6f4e337c17f836","609a6128943474fe8c689c14","null","","","","null","","","","key","16.6926666666676","720","399","","","","","","","","","","","","","157","1","0","true","","","",""
"psychophysics","319","597990","0.0-18.0-2.24","607da171f464f9e638d62de2","609006691f6f4e337c17f836","609a6128943474fe8c689c14","473","","","","90","","","","key","16.724444444446515","720","399","","","","","","","","","","","","","","","","","","","",""
"psychophysics","320","598991","0.0-18.0-0.25","607da171f464f9e638d62de2","609006691f6f4e337c17f836","609a6128943474fe8c689c14","null","","","","null","","","","key","16.71966101694852","720","399","","","","","","","","","","","","","","","","","","","",""
"psychophysics","321","599492","0.0-18.0-1.25","607da171f464f9e638d62de2","609006691f6f4e337c17f836","609a6128943474fe8c689c14","null","","","","null","","","","key","16.720689655169203","720","399","","","","","","","","","","","","","157","1","4","true","","","",""
"psychophysics","322","599703","0.0-18.0-2.25","607da171f464f9e638d62de2","609006691f6f4e337c17f836","609a6128943474fe8c689c14","209","","","","77","","","","key","16.689090909097683","720","399","","","","","","","","","","","","","","","","","","","",""
"psychophysics","323","600708","0.0-18.0-0.26","607da171f464f9e638d62de2","609006691f6f4e337c17f836","609a6128943474fe8c689c14","null","","","","null","","","","key","16.720338983050848","720","399","","","","","","","","","","","","","","","","","","","",""
"psychophysics","324","601211","0.0-18.0-1.26","607da171f464f9e638d62de2","609006691f6f4e337c17f836","609a6128943474fe8c689c14","null","","","","null","","","","key","16.714482758619727","720","399","","","","","","","","","","","","","157","-1","5","true","","","",""
"psychophysics","325","601631","0.0-18.0-2.26","607da171f464f9e638d62de2","609006691f6f4e337c17f836","609a6128943474fe8c689c14","415","","","","90","","","","key","16.722399999997577","720","399","","","","","","","","","","","","","","","","","","","",""
"psychophysics","326","602633","0.0-18.0-0.27","607da171f464f9e638d62de2","609006691f6f4e337c17f836","609a6128943474fe8c689c14","null","","","","null","","","","key","16.714482758619727","720","399","","","","","","","","","","","","","","","","","","","",""
"psychophysics","327","603137","0.0-18.0-1.27","607da171f464f9e638d62de2","609006691f6f4e337c17f836","609a6128943474fe8c689c14","null","","","","null","","","","key","16.733333333333334","720","399","","","","","","","","","","","","","157","-1","6","true","","","",""
"psychophysics","328","603521","0.0-18.0-2.27","607da171f464f9e638d62de2","609006691f6f4e337c17f836","609a6128943474fe8c689c14","382","","","","90","","","","key","16.673636363634035","720","399","","","","","","","","","","","","","","","","","","","",""
"psychophysics","329","604522","0.0-18.0-0.28","607da171f464f9e638d62de2","609006691f6f4e337c17f836","609a6128943474fe8c689c14","null","","","","null","","","","key","16.727586206897755","720","399","","","","","","","","","","","","","","","","","","","",""
"psychophysics","330","605027","0.0-18.0-1.28","607da171f464f9e638d62de2","609006691f6f4e337c17f836","609a6128943474fe8c689c14","null","","","","null","","","","key","16.72333333333178","720","399","","","","","","","","","","","","","157","1","2","true","","","",""
"psychophysics","331","605263","0.0-18.0-2.28","607da171f464f9e638d62de2","609006691f6f4e337c17f836","609a6128943474fe8c689c14","235","","","","90","","","","key","16.719999999998926","720","399","","","","","","","","","","","","","","","","","","","",""
"psychophysics","332","606263","0.0-18.0-0.29","607da171f464f9e638d62de2","609006691f6f4e337c17f836","609a6128943474fe8c689c14","null","","","","null","","","","key","16.713559322033504","720","399","","","","","","","","","","","","","","","","","","","",""
"psychophysics","333","606766","0.0-18.0-1.29","607da171f464f9e638d62de2","609006691f6f4e337c17f836","609a6128943474fe8c689c14","null","","","","null","","","","key","16.72275862068837","720","399","","","","","","","","","","","","","157","1","3","true","","","",""
"psychophysics","334","607288","0.0-18.0-2.29","607da171f464f9e638d62de2","609006691f6f4e337c17f836","609a6128943474fe8c689c14","522","","","","90","","","","key","16.72333333333178","720","399","","","","","","","","","","","","","","","","","","","",""
"psychophysics","335","608293","0.0-18.0-0.30","607da171f464f9e638d62de2","609006691f6f4e337c17f836","609a6128943474fe8c689c14","null","","","","null","","","","key","16.736610169492867","720","399","","","","","","","","","","","","","","","","","","","",""
"psychophysics","336","608795","0.0-18.0-1.30","607da171f464f9e638d62de2","609006691f6f4e337c17f836","609a6128943474fe8c689c14","null","","","","null","","","","key","16.721379310342257","720","399","","","","","","","","","","","","","157","-1","3","true","","","",""
"psychophysics","337","610126","0.0-18.0-2.30","607da171f464f9e638d62de2","609006691f6f4e337c17f836","609a6128943474fe8c689c14","1329","","","","90","","","","key","16.719746835442862","720","399","","","","","","","","","","","","","","","","","","","",""
"psychophysics","338","611128","0.0-18.0-0.31","607da171f464f9e638d62de2","609006691f6f4e337c17f836","609a6128943474fe8c689c14","null","","","","null","","","","key","16.71694915254316","720","399","","","","","","","","","","","","","","","","","","","",""
"psychophysics","339","611633","0.0-18.0-1.31","607da171f464f9e638d62de2","609006691f6f4e337c17f836","609a6128943474fe8c689c14","null","","","","null","","","","key","16.714482758619727","720","399","","","","","","","","","","","","","157","-1","4","true","","","",""
"psychophysics","340","611982","0.0-18.0-2.31","607da171f464f9e638d62de2","609006691f6f4e337c17f836","609a6128943474fe8c689c14","348","","","","77","","","","key","16.744000000000234","720","399","","","","","","","","","","","","","","","","","","","",""
"psychophysics","341","612987","0.0-18.0-0.32","607da171f464f9e638d62de2","609006691f6f4e337c17f836","609a6128943474fe8c689c14","null","","","","null","","","","key","16.717627118643517","720","399","","","","","","","","","","","","","","","","","","","",""
