"trial_type","trial_index","time_elapsed","internal_node_id","PROLIFIC_PID","STUDY_ID","SESSION_ID","rt","stimulus","button_pressed","success","key_press","responses","isData","view_history","response_type","avg_frame_time","center_x","center_y","isSC","stim_side","trial_luminance","step_size","nReversal","correct","prev_ans","isThreshold","SC_threshold","final_threshold","isLuminance","FF_luminance","luminance","stimSide","ISInt","isFF","question_order","isSPQ","isCAPS","isAQ"
"pavlovia","0","7","0.0-0.0","5980fff19bf4fe0001070984","609006691f6f4e337c17f836","609a612a9f2eb15e86a59c71","","","","","","","","","","","","","","","","","","","","","","","","","","","","","","","",""
"html-button-response","1","150942","0.0-1.0","5980fff19bf4fe0001070984","609006691f6f4e337c17f836","609a612a9f2eb15e86a59c71","150933","<div style='background-color: white; width:60%; margin: auto; padding: 50px; text-align: justify; text-justify: inter-word; margin-bottom: 20px;'><h1 style='text-align: center;'>Consent Form</h1><p>Please read this consent form carefully before deciding whether you would like to participate in this study. You have to be 18 years old or older to participate to this study.</p><p style='text-decoration: underline;'>Participation is voluntary:</p><p>It is your choice whether or not to participate in this research. If you choose to participate, you may change your mind and leave the study at any time. Refusal to participate or stopping your participation will involve no penalty or loss of benefits to which you are otherwise entitled.</p><p style='text-decoration: underline;'>Purpose of the Study:</p><p>To understand the mechanisms underlying human perception.</p><p style='text-decoration: underline;'>What you will do in this study:</p><p>You will be presented with a series of visual images and then you will press buttons on the keyboard of your computer to respond to simple questions about the images (e.g. Were one or two images presented?). In addition, you will be asked to complete a questionnaire concerning your beliefs and everyday mental and perceptual experiences.'</p><p style='text-decoration: underline;'> Time Required:</p><p>The study will take 40 minutes to complete. </p><p style='text-decoration: underline;'>Risks:</p><p>There are no anticipated risks associated with participating in this study that are beyond those experienced in everyday life. </p><p style='text-decoration: underline;'>Benefits:</p><p>There are no benefits to you in participating in the study. However, this study may lead to a better understanding of how different kinds of visual information are used.</p><p style='text-decoration: underline;'>Compensation:</p><p>You will be paid US$6.6/hour. </p><p style='text-decoration: underline;'>Privacy and Confidentiality:</p><p>Your participation in this study will be anonymous. No personal information about your name or identity will be asked or recorded. This anonymous data will be stored for several years and may be used for a variety of research purposes. The overall results of the study may be published, or the data files may be shared with other researchers, but your identity will not be revealed in any way. The online services we are using for this study may temporarily store your data, but this data will be downloaded and then promptly deleted from those services.Your data will not be permanently associated with your name, IP address, or any other identifiable information (e.g., your information will only be connected to your payment, not to any of your responses), though they may be temporarily stored together before we download and separate them. Even so, no guarantee of internet survey security can be given because, although unlikely, transmissions can be intercepted and IP addresses can be identified. The anonymous data may be shared publicly (for example, in conjunction with a resulting academic publication).</p><p style='text-decoration: underline;'>Participation and Withdrawal:</p><p>Your participation in this study is completely voluntary. You may stop responding to the stimuli or stop answering questions if you so choose and without penalty by exiting the full screen mode, closing this tab of your browser or redirecting it to a different website.</p><p style='text-decoration: underline;'>Contact Info of the Researcher: </p><p>If you have questions about this study, or if you would like to talk to the research team, please contact David Melcher (david.melcher@nyu.edu, md5050@nyu.edu) at the Perception and Active Cognition Laboratory, New York University Abu Dhabi, Computational Research Building, Saadiyat Island, Abu Dhabi, UAE.This research has been reviewed by the New York University Abu Dhabi Institutional Review Board (NYUAD IRB). To contact about your rights in this research, for questions, suggestions, or complaints that are not addressed by the researchers, please email IRBnyuad@nyu.edu, or call the NYUAD IRB at +971 2 628 4313. </p></div>","0","","","","","","","","","","","","","","","","","","","","","","","","","","","","",""
"fullscreen","2","152598","0.0-2.0","5980fff19bf4fe0001070984","609006691f6f4e337c17f836","609a612a9f2eb15e86a59c71","","","","true","","","","","","","","","","","","","","","","","","","","","","","","","","","",""
"html-keyboard-response","3","171678","0.0-3.0","5980fff19bf4fe0001070984","609006691f6f4e337c17f836","609a612a9f2eb15e86a59c71","19077","<p>Welcome !</p><p>READ CAREFULLY THE FOLLOWING INDICATIONS:</p><p>From this moment you have ~40 minutes to complete the experiment.</p><p>During the experiment you will be prompted to take several breaks. Each break should not last longer than 2-3 minutes.</p><p>Make sure that your computer is plugged in and it's not running on battery power, even if the battery is already fully charged.</p><p>Turn off your phone and music, make sure that you are in a quiet room and that you will not be distracted for the next hour.</p><p>Failure to comply with the instructions and indications provided during the experiment will most likely result in the rejection of your data.<p>Press the spacebar to start.</p>","","","32","","","","","","","","","","","","","","","","","","","","","","","","","","",""
"survey-html-form","4","177463","0.0-4.0","5980fff19bf4fe0001070984","609006691f6f4e337c17f836","609a612a9f2eb15e86a59c71","5783","","","","","{""age"":""42"",""sex"":""M""}","true","","","","","","","","","","","","","","","","","","","","","","","","",""
"instructions","5","224013","0.0-5.0","5980fff19bf4fe0001070984","609006691f6f4e337c17f836","609a612a9f2eb15e86a59c71","46548","","","","","","","[{""page_index"":0,""viewing_time"":16859},{""page_index"":1,""viewing_time"":24408},{""page_index"":2,""viewing_time"":5280}]","","","","","","","","","","","","","","","","","","","","","","","",""
"psychophysics","6","226051","0.0-6.0-0.0","5980fff19bf4fe0001070984","609006691f6f4e337c17f836","609a612a9f2eb15e86a59c71","1026","","","","37","","","","key","17.090338983050877","960","469","true","-1","180","30","0","-1","","","","","","","","","","","","","",""
"psychophysics","7","227417","0.0-6.0-0.1","5980fff19bf4fe0001070984","609006691f6f4e337c17f836","609a612a9f2eb15e86a59c71","349","","","","39","","","","key","16.666666666666668","960","469","true","1","180","30","0","-1","-1","","","","","","","","","","","","",""
"psychophysics","8","228683","0.0-6.0-0.2","5980fff19bf4fe0001070984","609006691f6f4e337c17f836","609a612a9f2eb15e86a59c71","263","","","","39","","","","key","16.666666666666668","960","469","true","1","150","30","0","-1","-1","","","","","","","","","","","","",""
"psychophysics","9","229706","0.0-6.0-0.3","5980fff19bf4fe0001070984","609006691f6f4e337c17f836","609a612a9f2eb15e86a59c71","24","","","","37","","","","key","16.666666666666668","960","469","true","-1","150","30","0","-1","-1","","","","","","","","","","","","",""
"psychophysics","10","231849","0.0-6.0-0.4","5980fff19bf4fe0001070984","609006691f6f4e337c17f836","609a612a9f2eb15e86a59c71","1133","","","","37","","","","key","16.666718749999973","960","469","true","1","129","24","1","1","-1","","","","","","","","","","","","",""
"psychophysics","11","233186","0.0-6.0-0.5","5980fff19bf4fe0001070984","609006691f6f4e337c17f836","609a612a9f2eb15e86a59c71","320","","","","39","","","","key","16.666835443037886","960","469","true","1","153","24","1","-1","1","","","","","","","","","","","","",""
"psychophysics","12","234416","0.0-6.0-0.6","5980fff19bf4fe0001070984","609006691f6f4e337c17f836","609a612a9f2eb15e86a59c71","218","","","","37","","","","key","16.6665753424658","960","469","true","-1","153","19.2","2","-1","-1","","","","","","","","","","","","",""
"psychophysics","13","235817","0.0-6.0-0.7","5980fff19bf4fe0001070984","609006691f6f4e337c17f836","609a612a9f2eb15e86a59c71","383","","","","39","","","","key","16.66650602409647","960","469","true","-1","133.8","15.36","3","1","-1","","","","","","","","","","","","",""
"psychophysics","14","236834","0.0-6.0-0.8","5980fff19bf4fe0001070984","609006691f6f4e337c17f836","609a612a9f2eb15e86a59c71","17","","","","37","","","","key","16.666666666666668","960","469","true","-1","149.16000000000003","15.36","3","-1","1","","","","","","","","","","","","",""
"psychophysics","15","238474","0.0-6.0-0.9","5980fff19bf4fe0001070984","609006691f6f4e337c17f836","609a612a9f2eb15e86a59c71","626","","","","39","","","","key","16.66680412371127","960","469","true","1","149.16000000000003","12.287999999999998","4","-1","-1","","","","","","","","","","","","",""
"psychophysics","16","240000","0.0-6.0-0.10","5980fff19bf4fe0001070984","609006691f6f4e337c17f836","609a612a9f2eb15e86a59c71","517","","","","39","","","","key","16.666593406593446","960","469","true","1","136.872","12.287999999999998","4","-1","-1","","","","","","","","","","","","",""
"psychophysics","17","241283","0.0-6.0-0.11","5980fff19bf4fe0001070984","609006691f6f4e337c17f836","609a612a9f2eb15e86a59c71","281","","","","37","","","","key","16.666578947368468","960","469","true","-1","136.872","12.287999999999998","4","-1","-1","","","","","","","","","","","","",""
"psychophysics","18","242683","0.0-6.0-0.12","5980fff19bf4fe0001070984","609006691f6f4e337c17f836","609a612a9f2eb15e86a59c71","397","","","","37","","","","key","16.666746987951765","960","469","true","-1","129","12.287999999999998","4","-1","-1","","","","","","","","","","","","",""
"psychophysics","19","244233","0.0-6.0-0.13","5980fff19bf4fe0001070984","609006691f6f4e337c17f836","609a612a9f2eb15e86a59c71","547","","","","39","","","","key","16.666739130434745","960","469","true","1","129","12.287999999999998","4","-1","-1","","","","","","","","","","","","",""
"psychophysics","20","245583","0.0-6.0-0.14","5980fff19bf4fe0001070984","609006691f6f4e337c17f836","609a612a9f2eb15e86a59c71","333","","","","37","","","","key","16.666749999999958","960","469","true","-1","129","12.287999999999998","4","-1","-1","","","","","","","","","","","","",""
"psychophysics","21","247016","0.0-6.0-0.15","5980fff19bf4fe0001070984","609006691f6f4e337c17f836","609a612a9f2eb15e86a59c71","416","","","","39","","","","key","16.666823529411683","960","469","true","1","129","12.287999999999998","4","-1","-1","","","","","","","","","","","","",""
"psychophysics","22","248370","0.0-6.0-0.16","5980fff19bf4fe0001070984","609006691f6f4e337c17f836","609a612a9f2eb15e86a59c71","350","","","","37","","","","key","16.666749999999958","960","469","true","-1","129","12.287999999999998","4","-1","-1","","","","","","","","","","","","",""
"psychophysics","23","249933","0.0-6.0-0.17","5980fff19bf4fe0001070984","609006691f6f4e337c17f836","609a612a9f2eb15e86a59c71","550","","","","37","","","","key","16.666666666666668","960","469","true","1","129","9.8304","5","1","-1","","","","","","","","","","","","",""
"psychophysics","24","251322","0.0-6.0-0.18","5980fff19bf4fe0001070984","609006691f6f4e337c17f836","609a612a9f2eb15e86a59c71","382","","","","37","","","","key","16.6668292682926","960","469","true","1","138.8304","9.8304","5","1","1","","","","","","","","","","","","",""
"psychophysics","25","252602","0.0-6.0-0.19","5980fff19bf4fe0001070984","609006691f6f4e337c17f836","609a612a9f2eb15e86a59c71","268","","","","37","","","","key","16.666578947368468","960","469","true","-1","148.6608","9.8304","5","-1","1","","","","","","","","","","","","",""
"psychophysics","26","253835","0.0-6.0-0.20","5980fff19bf4fe0001070984","609006691f6f4e337c17f836","609a612a9f2eb15e86a59c71","228","","","","39","","","","key","16.6665753424658","960","469","true","1","148.6608","7.864319999999999","6","-1","-1","","","","","","","","","","","","",""
"psychophysics","27","255033","0.0-6.0-0.21","5980fff19bf4fe0001070984","609006691f6f4e337c17f836","609a612a9f2eb15e86a59c71","184","","","","39","","","","key","16.666760563380233","960","469","true","1","140.79648","7.864319999999999","6","-1","-1","","","","","","","","","","","","",""
"psychophysics","28","256350","0.0-6.0-0.22","5980fff19bf4fe0001070984","609006691f6f4e337c17f836","609a612a9f2eb15e86a59c71","300","","","","37","","","","key","16.666666666666668","960","469","true","-1","140.79648","7.864319999999999","6","-1","-1","","","","","","","","","","","","",""
"psychophysics","29","257650","0.0-6.0-0.23","5980fff19bf4fe0001070984","609006691f6f4e337c17f836","609a612a9f2eb15e86a59c71","283","","","","37","","","","key","16.666493506493598","960","469","true","-1","132.93216","7.864319999999999","6","-1","-1","","","","","","","","","","","","",""
"psychophysics","30","259100","0.0-6.0-0.24","5980fff19bf4fe0001070984","609006691f6f4e337c17f836","609a612a9f2eb15e86a59c71","448","","","","37","","","","key","16.687674418604814","960","469","true","-1","132.93216","7.864319999999999","6","-1","-1","","","","","","","","","","","","",""
"psychophysics","31","260658","0.0-6.0-0.25","5980fff19bf4fe0001070984","609006691f6f4e337c17f836","609a612a9f2eb15e86a59c71","542","","","","37","","","","key","16.66652173913051","960","469","true","1","129","6.291456","7","1","-1","","","","","","","","","","","","",""
"psychophysics","32","262474","0.0-6.0-0.26","5980fff19bf4fe0001070984","609006691f6f4e337c17f836","609a612a9f2eb15e86a59c71","806","","","","39","","","","key","16.666666666666668","960","469","true","1","135.291456","6.291456","7","-1","1","","","","","","","","","","","","",""
"psychophysics","33","266154","0.0-6.0-0.27","5980fff19bf4fe0001070984","609006691f6f4e337c17f836","609a612a9f2eb15e86a59c71","2672","","","","39","","","","key","16.666636363636513","960","469","true","1","135.291456","5.033164800000001","8","-1","-1","","","","","","","","","","","","",""
"psychophysics","34","268884","0.0-6.0-0.28","5980fff19bf4fe0001070984","609006691f6f4e337c17f836","609a612a9f2eb15e86a59c71","1717","","","","37","","","","key","16.666625766871007","960","469","true","-1","130.2582912","5.033164800000001","8","-1","-1","","","","","","","","","","","","",""
"psychophysics","35","272690","0.0-6.0-0.29","5980fff19bf4fe0001070984","609006691f6f4e337c17f836","609a612a9f2eb15e86a59c71","2790","","","","39","","","","key","16.666696035242147","960","469","true","-1","130.2582912","4.0265318400000005","9","1","-1","","","","","","","","","","","","",""
"psychophysics","36","274033","0.0-6.0-0.30","5980fff19bf4fe0001070984","609006691f6f4e337c17f836","609a612a9f2eb15e86a59c71","333","","","","37","","","","key","16.666749999999592","960","469","true","1","134.28482304","4.0265318400000005","9","1","1","","","","","","","","","","","","",""
"psychophysics","37","275306","0.0-6.0-0.31","5980fff19bf4fe0001070984","609006691f6f4e337c17f836","609a612a9f2eb15e86a59c71","257","","","","39","","","","key","16.666666666666668","960","469","true","1","138.31135487999998","4.0265318400000005","9","-1","1","","","","","","","","","","","","",""
"psychophysics","38","276418","0.0-6.0-0.32","5980fff19bf4fe0001070984","609006691f6f4e337c17f836","609a612a9f2eb15e86a59c71","101","","","","39","","","","key","16.666666666666668","960","469","true","1","138.31135487999998","3.2212254720000004","10","-1","-1","","","","","","","","","","","","",""
"psychophysics","39","277767","0.0-6.0-0.33","5980fff19bf4fe0001070984","609006691f6f4e337c17f836","609a612a9f2eb15e86a59c71","334","","","","39","","","","key","16.66675000000032","960","469","true","-1","135.090129408","2.5769803776000004","11","1","-1","","","","","","","","","","","","",""
"psychophysics","40","279067","0.0-6.0-0.34","5980fff19bf4fe0001070984","609006691f6f4e337c17f836","609a612a9f2eb15e86a59c71","294","","","","37","","","","key","16.66675324675358","960","469","true","-1","137.6671097856","2.5769803776000004","11","-1","1","","","","","","","","","","","","",""
"psychophysics","41","280367","0.0-6.0-0.35","5980fff19bf4fe0001070984","609006691f6f4e337c17f836","609a612a9f2eb15e86a59c71","299","","","","39","","","","key","16.66675324675358","960","469","true","1","137.6671097856","2.0615843020800004","12","-1","-1","","","","","","","","","","","","",""
"psychophysics","42","283634","0.0-6.0-0.36","5980fff19bf4fe0001070984","609006691f6f4e337c17f836","609a612a9f2eb15e86a59c71","2250","","","","37","","","","key","16.666666666666668","960","469","true","-1","135.60552548351998","2.0615843020800004","12","-1","-1","","","","","","","","","","","","",""
"psychophysics","43","288134","0.0-6.0-0.37","5980fff19bf4fe0001070984","609006691f6f4e337c17f836","609a612a9f2eb15e86a59c71","3484","","","","39","","","","key","16.666691449814007","960","469","true","-1","135.60552548351998","1.6492674416640005","13","1","-1","","","","","","","","","","","","",""
"psychophysics","44","305689","0.0-6.0-0.38","5980fff19bf4fe0001070984","609006691f6f4e337c17f836","609a612a9f2eb15e86a59c71","16553","","","","37","","","","key","16.666673003802252","960","469","true","-1","137.25479292518398","1.6492674416640005","13","-1","1","","","","","","","","","","","","",""
"psychophysics","45","307151","0.0-6.0-0.39","5980fff19bf4fe0001070984","609006691f6f4e337c17f836","609a612a9f2eb15e86a59c71","460","","","","39","","","","key","16.666666666666668","960","469","true","1","137.25479292518398","1.3194139533312006","14","-1","-1","","","","","","","","","","","","",""
"html-keyboard-response","46","384970","0.0-7.0","5980fff19bf4fe0001070984","609006691f6f4e337c17f836","609a612a9f2eb15e86a59c71","77820","<p>Well Done !</p><p>Prepare for a new block.</p><p>DON'T EXIT THE FULL SCREEN MODE</p><p>Press the Spacebar to start.</p>","","","32","","","","","","","","","","","","","","","true","135.14346753310718","","","","","","","","","","",""
"psychophysics","47","386153","0.0-8.0-0.0","5980fff19bf4fe0001070984","609006691f6f4e337c17f836","609a612a9f2eb15e86a59c71","179","","","","39","","","","key","16.666571428571896","960","469","true","1","180","30","0","-1","","","","","","","","","","","","","",""
"psychophysics","48","387436","0.0-8.0-0.1","5980fff19bf4fe0001070984","609006691f6f4e337c17f836","609a612a9f2eb15e86a59c71","267","","","","37","","","","key","16.666578947368084","960","469","true","-1","180","30","0","-1","-1","","","","","","","","","","","","",""
"psychophysics","49","388689","0.0-8.0-0.2","5980fff19bf4fe0001070984","609006691f6f4e337c17f836","609a612a9f2eb15e86a59c71","237","","","","37","","","","key","16.666756756756318","960","469","true","-1","150","30","0","-1","-1","","","","","","","","","","","","",""
"psychophysics","50","389803","0.0-8.0-0.3","5980fff19bf4fe0001070984","609006691f6f4e337c17f836","609a612a9f2eb15e86a59c71","98","","","","39","","","","key","16.666666666666668","960","469","true","1","150","30","0","-1","-1","","","","","","","","","","","","",""
"psychophysics","51","391186","0.0-8.0-0.4","5980fff19bf4fe0001070984","609006691f6f4e337c17f836","609a612a9f2eb15e86a59c71","367","","","","37","","","","key","16.666585365853347","960","469","true","1","129","24","1","1","-1","","","","","","","","","","","","",""
"psychophysics","52","392536","0.0-8.0-0.5","5980fff19bf4fe0001070984","609006691f6f4e337c17f836","609a612a9f2eb15e86a59c71","349","","","","37","","","","key","16.666749999999592","960","469","true","-1","153","24","1","-1","1","","","","","","","","","","","","",""
"psychophysics","53","393553","0.0-8.0-0.6","5980fff19bf4fe0001070984","609006691f6f4e337c17f836","609a612a9f2eb15e86a59c71","10","","","","39","","","","key","16.666666666666668","960","469","true","1","153","19.2","2","-1","-1","","","","","","","","","","","","",""
"psychophysics","54","394819","0.0-8.0-0.7","5980fff19bf4fe0001070984","609006691f6f4e337c17f836","609a612a9f2eb15e86a59c71","264","","","","37","","","","key","16.666666666666668","960","469","true","-1","133.8","19.2","2","-1","-1","","","","","","","","","","","","",""
"psychophysics","55","396019","0.0-8.0-0.8","5980fff19bf4fe0001070984","609006691f6f4e337c17f836","609a612a9f2eb15e86a59c71","198","","","","37","","","","key","16.66676056338064","960","469","true","1","133.8","15.36","3","1","-1","","","","","","","","","","","","",""
"psychophysics","56","397289","0.0-8.0-0.9","5980fff19bf4fe0001070984","609006691f6f4e337c17f836","609a612a9f2eb15e86a59c71","253","","","","39","","","","key","16.666666666666668","960","469","true","1","149.16000000000003","15.36","3","-1","1","","","","","","","","","","","","",""
"psychophysics","57","398303","0.0-8.0-0.10","5980fff19bf4fe0001070984","609006691f6f4e337c17f836","609a612a9f2eb15e86a59c71","12","","","","37","","","","key","16.666666666666668","960","469","true","-1","149.16000000000003","12.287999999999998","4","-1","-1","","","","","","","","","","","","",""
"psychophysics","58","399610","0.0-8.0-0.11","5980fff19bf4fe0001070984","609006691f6f4e337c17f836","609a612a9f2eb15e86a59c71","304","","","","37","","","","key","16.666493506493598","960","469","true","1","136.872","9.8304","5","1","-1","","","","","","","","","","","","",""
"psychophysics","59","400625","0.0-8.0-0.12","5980fff19bf4fe0001070984","609006691f6f4e337c17f836","609a612a9f2eb15e86a59c71","6","","","","37","","","","key","16.666666666666668","960","469","true","-1","146.7024","9.8304","5","-1","1","","","","","","","","","","","","",""
"psychophysics","60","401735","0.0-8.0-0.13","5980fff19bf4fe0001070984","609006691f6f4e337c17f836","609a612a9f2eb15e86a59c71","95","","","","39","","","","key","16.666666666666668","960","469","true","1","146.7024","7.864319999999999","6","-1","-1","","","","","","","","","","","","",""
"psychophysics","61","403353","0.0-8.0-0.14","5980fff19bf4fe0001070984","609006691f6f4e337c17f836","609a612a9f2eb15e86a59c71","600","","","","37","","","","key","16.666666666666668","960","469","true","-1","138.83808000000002","7.864319999999999","6","-1","-1","","","","","","","","","","","","",""
"psychophysics","62","404737","0.0-8.0-0.15","5980fff19bf4fe0001070984","609006691f6f4e337c17f836","609a612a9f2eb15e86a59c71","383","","","","39","","","","key","16.666585365853347","960","469","true","1","138.83808000000002","7.864319999999999","6","-1","-1","","","","","","","","","","","","",""
"psychophysics","63","406086","0.0-8.0-0.16","5980fff19bf4fe0001070984","609006691f6f4e337c17f836","609a612a9f2eb15e86a59c71","332","","","","39","","","","key","16.666749999999592","960","469","true","-1","130.97376000000003","6.291456","7","1","-1","","","","","","","","","","","","",""
"psychophysics","64","407353","0.0-8.0-0.17","5980fff19bf4fe0001070984","609006691f6f4e337c17f836","609a612a9f2eb15e86a59c71","250","","","","37","","","","key","16.666666666666668","960","469","true","-1","137.26521600000004","6.291456","7","-1","1","","","","","","","","","","","","",""
"psychophysics","65","408669","0.0-8.0-0.18","5980fff19bf4fe0001070984","609006691f6f4e337c17f836","609a612a9f2eb15e86a59c71","310","","","","37","","","","key","16.666666666666668","960","469","true","1","137.26521600000004","5.033164800000001","8","1","-1","","","","","","","","","","","","",""
"psychophysics","66","410270","0.0-8.0-0.19","5980fff19bf4fe0001070984","609006691f6f4e337c17f836","609a612a9f2eb15e86a59c71","582","","","","39","","","","key","16.666736842105532","960","469","true","1","142.29838080000005","5.033164800000001","8","-1","1","","","","","","","","","","","","",""
"psychophysics","67","411320","0.0-8.0-0.20","5980fff19bf4fe0001070984","609006691f6f4e337c17f836","609a612a9f2eb15e86a59c71","49","","","","37","","","","key","16.6667741935488","960","469","true","-1","142.29838080000005","4.0265318400000005","9","-1","-1","","","","","","","","","","","","",""
"psychophysics","68","412473","0.0-8.0-0.21","5980fff19bf4fe0001070984","609006691f6f4e337c17f836","609a612a9f2eb15e86a59c71","136","","","","39","","","","key","16.66676470588273","960","469","true","1","138.27184896000006","4.0265318400000005","9","-1","-1","","","","","","","","","","","","",""
"psychophysics","69","413601","0.0-8.0-0.22","5980fff19bf4fe0001070984","609006691f6f4e337c17f836","609a612a9f2eb15e86a59c71","116","","","","39","","","","key","16.666567164178723","960","469","true","1","138.27184896000006","4.0265318400000005","9","-1","-1","","","","","","","","","","","","",""
"psychophysics","70","414857","0.0-8.0-0.23","5980fff19bf4fe0001070984","609006691f6f4e337c17f836","609a612a9f2eb15e86a59c71","253","","","","37","","","","key","16.666756756756318","960","469","true","-1","134.24531712000007","4.0265318400000005","9","-1","-1","","","","","","","","","","","","",""
"psychophysics","71","415953","0.0-8.0-0.24","5980fff19bf4fe0001070984","609006691f6f4e337c17f836","609a612a9f2eb15e86a59c71","84","","","","39","","","","key","16.66676923076873","960","469","true","1","134.24531712000007","4.0265318400000005","9","-1","-1","","","","","","","","","","","","",""
"psychophysics","72","417337","0.0-8.0-0.25","5980fff19bf4fe0001070984","609006691f6f4e337c17f836","609a612a9f2eb15e86a59c71","376","","","","37","","","","key","16.6668292682926","960","469","true","1","130.21878528000008","3.2212254720000004","10","1","-1","","","","","","","","","","","","",""
"psychophysics","73","419070","0.0-8.0-0.26","5980fff19bf4fe0001070984","609006691f6f4e337c17f836","609a612a9f2eb15e86a59c71","717","","","","37","","","","key","16.66660194174789","960","469","true","-1","133.4400107520001","3.2212254720000004","10","-1","1","","","","","","","","","","","","",""
"psychophysics","74","421009","0.0-8.0-0.27","5980fff19bf4fe0001070984","609006691f6f4e337c17f836","609a612a9f2eb15e86a59c71","923","","","","39","","","","key","16.666608695651952","960","469","true","-1","133.4400107520001","2.5769803776000004","11","1","-1","","","","","","","","","","","","",""
"psychophysics","75","422269","0.0-8.0-0.28","5980fff19bf4fe0001070984","609006691f6f4e337c17f836","609a612a9f2eb15e86a59c71","260","","","","37","","","","key","16.666666666666668","960","469","true","-1","136.0169911296001","2.5769803776000004","11","-1","1","","","","","","","","","","","","",""
"psychophysics","76","423424","0.0-8.0-0.29","5980fff19bf4fe0001070984","609006691f6f4e337c17f836","609a612a9f2eb15e86a59c71","153","","","","37","","","","key","16.6664705882354","960","469","true","-1","136.0169911296001","2.0615843020800004","12","-1","-1","","","","","","","","","","","","",""
"psychophysics","77","424745","0.0-8.0-0.30","5980fff19bf4fe0001070984","609006691f6f4e337c17f836","609a612a9f2eb15e86a59c71","319","","","","37","","","","key","16.666666666666668","960","469","true","1","133.95540682752008","1.6492674416640005","13","1","-1","","","","","","","","","","","","",""
"psychophysics","78","425770","0.0-8.0-0.31","5980fff19bf4fe0001070984","609006691f6f4e337c17f836","609a612a9f2eb15e86a59c71","17","","","","37","","","","key","16.666557377049713","960","469","true","-1","135.60467426918407","1.6492674416640005","13","-1","1","","","","","","","","","","","","",""
"psychophysics","79","426853","0.0-8.0-0.32","5980fff19bf4fe0001070984","609006691f6f4e337c17f836","609a612a9f2eb15e86a59c71","76","","","","37","","","","key","16.6665624999996","960","469","true","-1","135.60467426918407","1.3194139533312006","14","-1","-1","","","","","","","","","","","","",""
"psychophysics","80","428170","0.0-8.0-0.33","5980fff19bf4fe0001070984","609006691f6f4e337c17f836","609a612a9f2eb15e86a59c71","300","","","","37","","","","key","16.666666666666668","960","469","true","1","134.28526031585287","1.0555311626649604","15","1","-1","","","","","","","","","","","","",""
"psychophysics","81","429503","0.0-8.0-0.34","5980fff19bf4fe0001070984","609006691f6f4e337c17f836","609a612a9f2eb15e86a59c71","317","","","","37","","","","key","16.66658227848069","960","469","true","-1","135.34079147851781","1.0555311626649604","15","-1","1","","","","","","","","","","","","",""
"psychophysics","82","430625","0.0-8.0-0.35","5980fff19bf4fe0001070984","609006691f6f4e337c17f836","609a612a9f2eb15e86a59c71","118","","","","39","","","","key","16.666666666666668","960","469","true","1","135.34079147851781","1","16","-1","-1","","","","","","","","","","","","",""
"psychophysics","83","431945","0.0-8.0-0.36","5980fff19bf4fe0001070984","609006691f6f4e337c17f836","609a612a9f2eb15e86a59c71","307","","","","39","","","","key","16.666666666666668","960","469","true","1","134.34079147851781","1","16","-1","-1","","","","","","","","","","","","",""
"psychophysics","84","433336","0.0-8.0-0.37","5980fff19bf4fe0001070984","609006691f6f4e337c17f836","609a612a9f2eb15e86a59c71","381","","","","39","","","","key","16.666746987952116","960","469","true","-1","134.34079147851781","1","17","1","-1","","","","","","","","","","","","",""
"psychophysics","85","434873","0.0-8.0-0.38","5980fff19bf4fe0001070984","609006691f6f4e337c17f836","609a612a9f2eb15e86a59c71","532","","","","39","","","","key","16.66681318681311","960","469","true","1","135.34079147851781","1","17","-1","1","","","","","","","","","","","","",""
"psychophysics","86","435937","0.0-8.0-0.39","5980fff19bf4fe0001070984","609006691f6f4e337c17f836","609a612a9f2eb15e86a59c71","50","","","","37","","","","key","16.666666666666668","960","469","true","-1","135.34079147851781","1","18","-1","-1","","","","","","","","","","","","",""
"html-keyboard-response","87","551833","0.0-9.0","5980fff19bf4fe0001070984","609006691f6f4e337c17f836","609a612a9f2eb15e86a59c71","115896","<p>Well Done !</p><p>Prepare for a new block.</p><p>DON'T EXIT THE FULL SCREEN MODE</p><p>Press the Spacebar to start.</p>","","","32","","","","","","","","","","","","","","","true","134.57517023973654","","","","","","","","","","",""
"psychophysics","88","553639","0.0-10.0-0.0","5980fff19bf4fe0001070984","609006691f6f4e337c17f836","609a612a9f2eb15e86a59c71","798","","","","39","","","","key","16.66672897196231","960","469","true","1","180","30","0","-1","","","","","","","","","","","","","",""
"psychophysics","89","555057","0.0-10.0-0.1","5980fff19bf4fe0001070984","609006691f6f4e337c17f836","609a612a9f2eb15e86a59c71","401","","","","39","","","","key","16.666666666666668","960","469","true","1","180","30","0","-1","-1","","","","","","","","","","","","",""
"psychophysics","90","556289","0.0-10.0-0.2","5980fff19bf4fe0001070984","609006691f6f4e337c17f836","609a612a9f2eb15e86a59c71","217","","","","39","","","","key","16.666575342464604","960","469","true","1","150","30","0","-1","-1","","","","","","","","","","","","",""
"psychophysics","91","557456","0.0-10.0-0.3","5980fff19bf4fe0001070984","609006691f6f4e337c17f836","609a612a9f2eb15e86a59c71","151","","","","39","","","","key","16.666666666666668","960","469","true","1","150","30","0","-1","-1","","","","","","","","","","","","",""
"psychophysics","92","558840","0.0-10.0-0.4","5980fff19bf4fe0001070984","609006691f6f4e337c17f836","609a612a9f2eb15e86a59c71","369","","","","37","","","","key","16.666585365852637","960","469","true","-1","129","30","0","-1","-1","","","","","","","","","","","","",""
"psychophysics","93","560265","0.0-10.0-0.5","5980fff19bf4fe0001070984","609006691f6f4e337c17f836","609a612a9f2eb15e86a59c71","422","","","","39","","","","key","16.666666666666668","960","469","true","1","129","30","0","-1","-1","","","","","","","","","","","","",""
"psychophysics","94","561624","0.0-10.0-0.6","5980fff19bf4fe0001070984","609006691f6f4e337c17f836","609a612a9f2eb15e86a59c71","344","","","","37","","","","key","16.666666666666668","960","469","true","1","129","24","1","1","-1","","","","","","","","","","","","",""
"psychophysics","95","562823","0.0-10.0-0.7","5980fff19bf4fe0001070984","609006691f6f4e337c17f836","609a612a9f2eb15e86a59c71","184","","","","39","","","","key","16.666760563381462","960","469","true","1","153","24","1","-1","1","","","","","","","","","","","","",""
"psychophysics","96","563989","0.0-10.0-0.8","5980fff19bf4fe0001070984","609006691f6f4e337c17f836","609a612a9f2eb15e86a59c71","150","","","","39","","","","key","16.666666666666668","960","469","true","1","153","19.2","2","-1","-1","","","","","","","","","","","","",""
"psychophysics","97","565289","0.0-10.0-0.9","5980fff19bf4fe0001070984","609006691f6f4e337c17f836","609a612a9f2eb15e86a59c71","294","","","","39","","","","key","16.666753246752823","960","469","true","1","133.8","19.2","2","-1","-1","","","","","","","","","","","","",""
"psychophysics","98","568456","0.0-10.0-0.10","5980fff19bf4fe0001070984","609006691f6f4e337c17f836","609a612a9f2eb15e86a59c71","2165","","","","39","","","","key","16.666666666666668","960","469","true","-1","133.8","15.36","3","1","-1","","","","","","","","","","","","",""
"psychophysics","99","569496","0.0-10.0-0.11","5980fff19bf4fe0001070984","609006691f6f4e337c17f836","609a612a9f2eb15e86a59c71","23","","","","37","","","","key","16.666557377047805","960","469","true","-1","149.16000000000003","15.36","3","-1","1","","","","","","","","","","","","",""
"psychophysics","100","570512","0.0-10.0-0.12","5980fff19bf4fe0001070984","609006691f6f4e337c17f836","609a612a9f2eb15e86a59c71","7","","","","39","","","","key","16.666666666666668","960","469","true","1","149.16000000000003","12.287999999999998","4","-1","-1","","","","","","","","","","","","",""
"psychophysics","101","571976","0.0-10.0-0.13","5980fff19bf4fe0001070984","609006691f6f4e337c17f836","609a612a9f2eb15e86a59c71","462","","","","37","","","","key","16.666666666666668","960","469","true","-1","136.872","12.287999999999998","4","-1","-1","","","","","","","","","","","","",""
"psychophysics","102","573160","0.0-10.0-0.14","5980fff19bf4fe0001070984","609006691f6f4e337c17f836","609a612a9f2eb15e86a59c71","181","","","","37","","","","key","16.666571428571896","960","469","true","-1","136.872","12.287999999999998","4","-1","-1","","","","","","","","","","","","",""
"psychophysics","103","574328","0.0-10.0-0.15","5980fff19bf4fe0001070984","609006691f6f4e337c17f836","609a612a9f2eb15e86a59c71","154","","","","37","","","","key","16.666666666666668","960","469","true","-1","129","12.287999999999998","4","-1","-1","","","","","","","","","","","","",""
"psychophysics","104","576176","0.0-10.0-0.16","5980fff19bf4fe0001070984","609006691f6f4e337c17f836","609a612a9f2eb15e86a59c71","837","","","","39","","","","key","16.666727272728036","960","469","true","-1","129","9.8304","5","1","-1","","","","","","","","","","","","",""
"psychophysics","105","577679","0.0-10.0-0.17","5980fff19bf4fe0001070984","609006691f6f4e337c17f836","609a612a9f2eb15e86a59c71","490","","","","37","","","","key","16.66674157303465","960","469","true","-1","138.8304","9.8304","5","-1","1","","","","","","","","","","","","",""
"psychophysics","106","579023","0.0-10.0-0.18","5980fff19bf4fe0001070984","609006691f6f4e337c17f836","609a612a9f2eb15e86a59c71","333","","","","37","","","","key","16.66675000000105","960","469","true","-1","138.8304","7.864319999999999","6","-1","-1","","","","","","","","","","","","",""
"psychophysics","107","580407","0.0-10.0-0.19","5980fff19bf4fe0001070984","609006691f6f4e337c17f836","609a612a9f2eb15e86a59c71","384","","","","37","","","","key","16.66682926829331","960","469","true","1","130.96608","6.291456","7","1","-1","","","","","","","","","","","","",""
"psychophysics","108","581863","0.0-10.0-0.20","5980fff19bf4fe0001070984","609006691f6f4e337c17f836","609a612a9f2eb15e86a59c71","453","","","","37","","","","key","16.66674418604613","960","469","true","-1","137.25753600000002","6.291456","7","-1","1","","","","","","","","","","","","",""
"psychophysics","109","583108","0.0-10.0-0.21","5980fff19bf4fe0001070984","609006691f6f4e337c17f836","609a612a9f2eb15e86a59c71","235","","","","39","","","","key","16.666756756756318","960","469","true","-1","137.25753600000002","5.033164800000001","8","1","-1","","","","","","","","","","","","",""
"psychophysics","110","584206","0.0-10.0-0.22","5980fff19bf4fe0001070984","609006691f6f4e337c17f836","609a612a9f2eb15e86a59c71","83","","","","37","","","","key","16.66676923076873","960","469","true","-1","142.29070080000002","5.033164800000001","8","-1","1","","","","","","","","","","","","",""
"psychophysics","111","585389","0.0-10.0-0.23","5980fff19bf4fe0001070984","609006691f6f4e337c17f836","609a612a9f2eb15e86a59c71","179","","","","37","","","","key","16.666571428570233","960","469","true","-1","142.29070080000002","4.0265318400000005","9","-1","-1","","","","","","","","","","","","",""
"psychophysics","112","586640","0.0-10.0-0.24","5980fff19bf4fe0001070984","609006691f6f4e337c17f836","609a612a9f2eb15e86a59c71","244","","","","37","","","","key","16.666486486485795","960","469","true","-1","138.26416896000003","4.0265318400000005","9","-1","-1","","","","","","","","","","","","",""
"psychophysics","113","588064","0.0-10.0-0.25","5980fff19bf4fe0001070984","609006691f6f4e337c17f836","609a612a9f2eb15e86a59c71","421","","","","37","","","","key","16.666666666666668","960","469","true","-1","138.26416896000003","4.0265318400000005","9","-1","-1","","","","","","","","","","","","",""
"psychophysics","114","589375","0.0-10.0-0.26","5980fff19bf4fe0001070984","609006691f6f4e337c17f836","609a612a9f2eb15e86a59c71","301","","","","37","","","","key","16.666666666666668","960","469","true","-1","134.23763712000004","4.0265318400000005","9","-1","-1","","","","","","","","","","","","",""
"psychophysics","115","590679","0.0-10.0-0.27","5980fff19bf4fe0001070984","609006691f6f4e337c17f836","609a612a9f2eb15e86a59c71","290","","","","37","","","","key","16.666753246754336","960","469","true","1","134.23763712000004","3.2212254720000004","10","1","-1","","","","","","","","","","","","",""
"psychophysics","116","591756","0.0-10.0-0.28","5980fff19bf4fe0001070984","609006691f6f4e337c17f836","609a612a9f2eb15e86a59c71","66","","","","39","","","","key","16.6668750000008","960","469","true","1","137.45886259200006","3.2212254720000004","10","-1","1","","","","","","","","","","","","",""
"psychophysics","117","592839","0.0-10.0-0.29","5980fff19bf4fe0001070984","609006691f6f4e337c17f836","609a612a9f2eb15e86a59c71","76","","","","39","","","","key","16.66656249999869","960","469","true","1","137.45886259200006","2.5769803776000004","11","-1","-1","","","","","","","","","","","","",""
"psychophysics","118","594040","0.0-10.0-0.30","5980fff19bf4fe0001070984","609006691f6f4e337c17f836","609a612a9f2eb15e86a59c71","184","","","","37","","","","key","16.666478873238717","960","469","true","-1","134.88188221440006","2.5769803776000004","11","-1","-1","","","","","","","","","","","","",""
"psychophysics","119","595296","0.0-10.0-0.31","5980fff19bf4fe0001070984","609006691f6f4e337c17f836","609a612a9f2eb15e86a59c71","239","","","","39","","","","key","16.666486486485795","960","469","true","1","134.88188221440006","2.5769803776000004","11","-1","-1","","","","","","","","","","","","",""
"psychophysics","120","596648","0.0-10.0-0.32","5980fff19bf4fe0001070984","609006691f6f4e337c17f836","609a612a9f2eb15e86a59c71","341","","","","39","","","","key","16.66649999999936","960","469","true","1","132.30490183680007","2.5769803776000004","11","-1","-1","","","","","","","","","","","","",""
"psychophysics","121","597823","0.0-10.0-0.33","5980fff19bf4fe0001070984","609006691f6f4e337c17f836","609a612a9f2eb15e86a59c71","167","","","","39","","","","key","16.666571428571896","960","469","true","1","132.30490183680007","2.5769803776000004","11","-1","-1","","","","","","","","","","","","",""
"psychophysics","122","598895","0.0-10.0-0.34","5980fff19bf4fe0001070984","609006691f6f4e337c17f836","609a612a9f2eb15e86a59c71","71","","","","37","","","","key","16.666666666666668","960","469","true","-1","129.72792145920008","2.5769803776000004","11","-1","-1","","","","","","","","","","","","",""
"psychophysics","123","600239","0.0-10.0-0.35","5980fff19bf4fe0001070984","609006691f6f4e337c17f836","609a612a9f2eb15e86a59c71","334","","","","39","","","","key","16.66649999999936","960","469","true","-1","129.72792145920008","2.0615843020800004","12","1","-1","","","","","","","","","","","","",""
"psychophysics","124","601559","0.0-10.0-0.36","5980fff19bf4fe0001070984","609006691f6f4e337c17f836","609a612a9f2eb15e86a59c71","304","","","","39","","","","key","16.666666666666668","960","469","true","-1","131.78950576128008","2.0615843020800004","12","1","1","","","","","","","","","","","","",""
"psychophysics","125","602623","0.0-10.0-0.37","5980fff19bf4fe0001070984","609006691f6f4e337c17f836","609a612a9f2eb15e86a59c71","48","","","","37","","","","key","16.666666666666668","960","469","true","1","133.8510900633601","2.0615843020800004","12","1","1","","","","","","","","","","","","",""
"psychophysics","126","603806","0.0-10.0-0.38","5980fff19bf4fe0001070984","609006691f6f4e337c17f836","609a612a9f2eb15e86a59c71","166","","","","39","","","","key","16.666857142857875","960","469","true","1","135.9126743654401","2.0615843020800004","12","-1","1","","","","","","","","","","","","",""
"psychophysics","127","604956","0.0-10.0-0.39","5980fff19bf4fe0001070984","609006691f6f4e337c17f836","609a612a9f2eb15e86a59c71","133","","","","37","","","","key","16.666764705881874","960","469","true","1","135.9126743654401","1.6492674416640005","13","1","-1","","","","","","","","","","","","",""
"html-keyboard-response","128","605856","0.0-11.0","5980fff19bf4fe0001070984","609006691f6f4e337c17f836","609a612a9f2eb15e86a59c71","900","<p>Well Done !</p><p>Prepare for a new block.</p><p>DON'T EXIT THE FULL SCREEN MODE</p><p>Press the Spacebar to start.</p>","","","32","","","","","","","","","","","","","","","true","134.19683493068808","","","","","","","","","","",""
"psychophysics","129","607496","0.0-12.0-0.0","5980fff19bf4fe0001070984","609006691f6f4e337c17f836","609a612a9f2eb15e86a59c71","624","","","","39","","","","key","16.666597938143465","960","469","true","1","180","30","0","-1","","","","","","","","","","","","","",""
"psychophysics","130","608664","0.0-12.0-0.1","5980fff19bf4fe0001070984","609006691f6f4e337c17f836","609a612a9f2eb15e86a59c71","154","","","","39","","","","key","16.666666666666668","960","469","true","1","180","30","0","-1","-1","","","","","","","","","","","","",""
"psychophysics","131","609806","0.0-12.0-0.2","5980fff19bf4fe0001070984","609006691f6f4e337c17f836","609a612a9f2eb15e86a59c71","128","","","","37","","","","key","16.666764705881874","960","469","true","-1","150","30","0","-1","-1","","","","","","","","","","","","",""
"psychophysics","132","610927","0.0-12.0-0.3","5980fff19bf4fe0001070984","609006691f6f4e337c17f836","609a612a9f2eb15e86a59c71","113","","","","39","","","","key","16.666666666666668","960","469","true","1","150","30","0","-1","-1","","","","","","","","","","","","",""
"psychophysics","133","612023","0.0-12.0-0.4","5980fff19bf4fe0001070984","609006691f6f4e337c17f836","609a612a9f2eb15e86a59c71","84","","","","37","","","","key","16.66676923077052","960","469","true","-1","129","30","0","-1","-1","","","","","","","","","","","","",""
"psychophysics","134","613223","0.0-12.0-0.5","5980fff19bf4fe0001070984","609006691f6f4e337c17f836","609a612a9f2eb15e86a59c71","196","","","","37","","","","key","16.666760563381462","960","469","true","1","129","24","1","1","-1","","","","","","","","","","","","",""
"psychophysics","135","614473","0.0-12.0-0.6","5980fff19bf4fe0001070984","609006691f6f4e337c17f836","609a612a9f2eb15e86a59c71","248","","","","37","","","","key","16.666756756757888","960","469","true","-1","153","24","1","-1","1","","","","","","","","","","","","",""
"psychophysics","136","615591","0.0-12.0-0.7","5980fff19bf4fe0001070984","609006691f6f4e337c17f836","609a612a9f2eb15e86a59c71","102","","","","37","","","","key","16.666666666666668","960","469","true","-1","153","19.2","2","-1","-1","","","","","","","","","","","","",""
"psychophysics","137","616856","0.0-12.0-0.8","5980fff19bf4fe0001070984","609006691f6f4e337c17f836","609a612a9f2eb15e86a59c71","250","","","","37","","","","key","16.691199999999565","960","469","true","1","133.8","15.36","3","1","-1","","","","","","","","","","","","",""
"psychophysics","138","618063","0.0-12.0-0.9","5980fff19bf4fe0001070984","609006691f6f4e337c17f836","609a612a9f2eb15e86a59c71","198","","","","39","","","","key","16.666478873238717","960","469","true","1","149.16000000000003","15.36","3","-1","1","","","","","","","","","","","","",""
"psychophysics","139","619173","0.0-12.0-0.10","5980fff19bf4fe0001070984","609006691f6f4e337c17f836","609a612a9f2eb15e86a59c71","94","","","","37","","","","key","16.666666666666668","960","469","true","-1","149.16000000000003","12.287999999999998","4","-1","-1","","","","","","","","","","","","",""
"psychophysics","140","620207","0.0-12.0-0.11","5980fff19bf4fe0001070984","609006691f6f4e337c17f836","609a612a9f2eb15e86a59c71","17","","","","37","","","","key","16.666557377047805","960","469","true","-1","136.872","12.287999999999998","4","-1","-1","","","","","","","","","","","","",""
"psychophysics","141","621247","0.0-12.0-0.12","5980fff19bf4fe0001070984","609006691f6f4e337c17f836","609a612a9f2eb15e86a59c71","24","","","","37","","","","key","16.666557377049713","960","469","true","-1","136.872","12.287999999999998","4","-1","-1","","","","","","","","","","","","",""
"psychophysics","142","622723","0.0-12.0-0.13","5980fff19bf4fe0001070984","609006691f6f4e337c17f836","609a612a9f2eb15e86a59c71","467","","","","37","","","","key","16.666818181818766","960","469","true","1","129","9.8304","5","1","-1","","","","","","","","","","","","",""
"psychophysics","143","623791","0.0-12.0-0.14","5980fff19bf4fe0001070984","609006691f6f4e337c17f836","609a612a9f2eb15e86a59c71","53","","","","37","","","","key","16.666666666666668","960","469","true","-1","138.8304","9.8304","5","-1","1","","","","","","","","","","","","",""
"psychophysics","144","624840","0.0-12.0-0.15","5980fff19bf4fe0001070984","609006691f6f4e337c17f836","609a612a9f2eb15e86a59c71","33","","","","39","","","","key","16.666774193549738","960","469","true","1","138.8304","7.864319999999999","6","-1","-1","","","","","","","","","","","","",""
"psychophysics","145","626159","0.0-12.0-0.16","5980fff19bf4fe0001070984","609006691f6f4e337c17f836","609a612a9f2eb15e86a59c71","303","","","","37","","","","key","16.666666666666668","960","469","true","1","130.96608","6.291456","7","1","-1","","","","","","","","","","","","",""
"psychophysics","146","627280","0.0-12.0-0.17","5980fff19bf4fe0001070984","609006691f6f4e337c17f836","609a612a9f2eb15e86a59c71","118","","","","39","","","","key","16.666666666666668","960","469","true","1","137.25753600000002","6.291456","7","-1","1","","","","","","","","","","","","",""
"psychophysics","147","628324","0.0-12.0-0.18","5980fff19bf4fe0001070984","609006691f6f4e337c17f836","609a612a9f2eb15e86a59c71","43","","","","39","","","","key","16.666774193547862","960","469","true","1","137.25753600000002","5.033164800000001","8","-1","-1","","","","","","","","","","","","",""
"psychophysics","148","629607","0.0-12.0-0.19","5980fff19bf4fe0001070984","609006691f6f4e337c17f836","609a612a9f2eb15e86a59c71","266","","","","39","","","","key","16.666578947367316","960","469","true","-1","132.2243712","4.0265318400000005","9","1","-1","","","","","","","","","","","","",""
"psychophysics","149","630840","0.0-12.0-0.20","5980fff19bf4fe0001070984","609006691f6f4e337c17f836","609a612a9f2eb15e86a59c71","231","","","","37","","","","key","16.6665753424662","960","469","true","-1","136.25090304","4.0265318400000005","9","-1","1","","","","","","","","","","","","",""
"psychophysics","150","632207","0.0-12.0-0.21","5980fff19bf4fe0001070984","609006691f6f4e337c17f836","609a612a9f2eb15e86a59c71","351","","","","39","","","","key","16.666666666666668","960","469","true","1","136.25090304","3.2212254720000004","10","-1","-1","","","","","","","","","","","","",""
"psychophysics","151","633791","0.0-12.0-0.22","5980fff19bf4fe0001070984","609006691f6f4e337c17f836","609a612a9f2eb15e86a59c71","569","","","","39","","","","key","16.6665957446812","960","469","true","1","133.029677568","3.2212254720000004","10","-1","-1","","","","","","","","","","","","",""
"psychophysics","152","635257","0.0-12.0-0.23","5980fff19bf4fe0001070984","609006691f6f4e337c17f836","609a612a9f2eb15e86a59c71","451","","","","39","","","","key","16.666666666666668","960","469","true","-1","133.029677568","2.5769803776000004","11","1","-1","","","","","","","","","","","","",""
"psychophysics","153","636390","0.0-12.0-0.24","5980fff19bf4fe0001070984","609006691f6f4e337c17f836","609a612a9f2eb15e86a59c71","117","","","","37","","","","key","16.66656716417959","960","469","true","-1","135.6066579456","2.5769803776000004","11","-1","1","","","","","","","","","","","","",""
"psychophysics","154","637575","0.0-12.0-0.25","5980fff19bf4fe0001070984","609006691f6f4e337c17f836","609a612a9f2eb15e86a59c71","178","","","","39","","","","key","16.666857142857875","960","469","true","1","135.6066579456","2.0615843020800004","12","-1","-1","","","","","","","","","","","","",""
"psychophysics","155","638928","0.0-12.0-0.26","5980fff19bf4fe0001070984","609006691f6f4e337c17f836","609a612a9f2eb15e86a59c71","337","","","","39","","","","key","16.666749999999592","960","469","true","1","133.54507364352","2.0615843020800004","12","-1","-1","","","","","","","","","","","","",""
"psychophysics","156","640290","0.0-12.0-0.27","5980fff19bf4fe0001070984","609006691f6f4e337c17f836","609a612a9f2eb15e86a59c71","350","","","","39","","","","key","16.666666666666668","960","469","true","1","133.54507364352","2.0615843020800004","12","-1","-1","","","","","","","","","","","","",""
"psychophysics","157","641674","0.0-12.0-0.28","5980fff19bf4fe0001070984","609006691f6f4e337c17f836","609a612a9f2eb15e86a59c71","383","","","","39","","","","key","16.66682926829331","960","469","true","1","131.48348934144","2.0615843020800004","12","-1","-1","","","","","","","","","","","","",""
"psychophysics","158","642759","0.0-12.0-0.29","5980fff19bf4fe0001070984","609006691f6f4e337c17f836","609a612a9f2eb15e86a59c71","81","","","","39","","","","key","16.66656249999869","960","469","true","-1","131.48348934144","1.6492674416640005","13","1","-1","","","","","","","","","","","","",""
"psychophysics","159","643840","0.0-12.0-0.30","5980fff19bf4fe0001070984","609006691f6f4e337c17f836","609a612a9f2eb15e86a59c71","67","","","","37","","","","key","16.66656250000051","960","469","true","-1","133.13275678310399","1.6492674416640005","13","-1","1","","","","","","","","","","","","",""
"psychophysics","160","644957","0.0-12.0-0.31","5980fff19bf4fe0001070984","609006691f6f4e337c17f836","609a612a9f2eb15e86a59c71","113","","","","39","","","","key","16.666666666666668","960","469","true","1","133.13275678310399","1.3194139533312006","14","-1","-1","","","","","","","","","","","","",""
"psychophysics","161","646190","0.0-12.0-0.32","5980fff19bf4fe0001070984","609006691f6f4e337c17f836","609a612a9f2eb15e86a59c71","228","","","","39","","","","key","16.6665753424662","960","469","true","-1","131.81334282977278","1.0555311626649604","15","1","-1","","","","","","","","","","","","",""
"psychophysics","162","647327","0.0-12.0-0.33","5980fff19bf4fe0001070984","609006691f6f4e337c17f836","609a612a9f2eb15e86a59c71","134","","","","37","","","","key","16.666865671642555","960","469","true","-1","132.86887399243773","1.0555311626649604","15","-1","1","","","","","","","","","","","","",""
"psychophysics","163","648728","0.0-12.0-0.34","5980fff19bf4fe0001070984","609006691f6f4e337c17f836","609a612a9f2eb15e86a59c71","396","","","","37","","","","key","16.666746987951413","960","469","true","1","132.86887399243773","1","16","1","-1","","","","","","","","","","","","",""
"psychophysics","164","650111","0.0-12.0-0.35","5980fff19bf4fe0001070984","609006691f6f4e337c17f836","609a612a9f2eb15e86a59c71","371","","","","37","","","","key","16.666585365852637","960","469","true","-1","133.86887399243773","1","16","-1","1","","","","","","","","","","","","",""
"psychophysics","165","651223","0.0-12.0-0.36","5980fff19bf4fe0001070984","609006691f6f4e337c17f836","609a612a9f2eb15e86a59c71","98","","","","39","","","","key","16.666666666666668","960","469","true","1","133.86887399243773","1","17","-1","-1","","","","","","","","","","","","",""
"psychophysics","166","652358","0.0-12.0-0.37","5980fff19bf4fe0001070984","609006691f6f4e337c17f836","609a612a9f2eb15e86a59c71","117","","","","37","","","","key","16.666567164177852","960","469","true","-1","132.86887399243773","1","17","-1","-1","","","","","","","","","","","","",""
"psychophysics","167","653641","0.0-12.0-0.38","5980fff19bf4fe0001070984","609006691f6f4e337c17f836","609a612a9f2eb15e86a59c71","268","","","","37","","","","key","16.66657894736885","960","469","true","-1","132.86887399243773","1","17","-1","-1","","","","","","","","","","","","",""
"psychophysics","168","654927","0.0-12.0-0.39","5980fff19bf4fe0001070984","609006691f6f4e337c17f836","609a612a9f2eb15e86a59c71","282","","","","39","","","","key","16.666842105263832","960","469","true","-1","131.86887399243773","1","18","1","-1","","","","","","","","","","","","",""
"html-keyboard-response","169","664456","0.0-13.0","5980fff19bf4fe0001070984","609006691f6f4e337c17f836","609a612a9f2eb15e86a59c71","9528","<p>Well Done !</p><p>Prepare for a new block.</p><p>DON'T EXIT THE FULL SCREEN MODE</p><p>Press the Spacebar to start.</p>","","","39","","","","","","","","","","","","","","","true","132.9883172172377","","","","","","","","","","",""
"html-keyboard-response","170","664560","0.0-14.0","5980fff19bf4fe0001070984","609006691f6f4e337c17f836","609a612a9f2eb15e86a59c71","null","","","","null","","","","","","","","","","","","","","","","","134.22594748019236","true","140.45189496038472","","","","","","","",""
"instructions","171","670503","0.0-15.0","5980fff19bf4fe0001070984","609006691f6f4e337c17f836","609a612a9f2eb15e86a59c71","5943","","","","","","","[{""page_index"":0,""viewing_time"":3766},{""page_index"":1,""viewing_time"":808},{""page_index"":2,""viewing_time"":1368}]","","","","","","","","","","","","","","","","","","","","","","","",""
"psychophysics","172","673530","0.0-16.0-0.0","5980fff19bf4fe0001070984","609006691f6f4e337c17f836","609a612a9f2eb15e86a59c71","null","","","","null","","","","key","16.666779661016395","960","469","","","","","","","","","","","","","","","","","","","",""
"psychophysics","173","674044","0.0-16.0-1.0","5980fff19bf4fe0001070984","609006691f6f4e337c17f836","609a612a9f2eb15e86a59c71","null","","","","null","","","","key","16.666666666666668","960","469","","","","","","","","","","","","","140","1","4","false","","","",""
"psychophysics","174","681543","0.0-16.0-2.0","5980fff19bf4fe0001070984","609006691f6f4e337c17f836","609a612a9f2eb15e86a59c71","7498","","","","90","","","","key","16.666681514476803","960","469","","","","","","","","","","","","","","","","","","","",""
"psychophysics","175","682559","0.0-16.0-0.1","5980fff19bf4fe0001070984","609006691f6f4e337c17f836","609a612a9f2eb15e86a59c71","null","","","","null","","","","key","16.666666666666668","960","469","","","","","","","","","","","","","","","","","","","",""
"psychophysics","176","683074","0.0-16.0-1.1","5980fff19bf4fe0001070984","609006691f6f4e337c17f836","609a612a9f2eb15e86a59c71","null","","","","null","","","","key","16.666666666666668","960","469","","","","","","","","","","","","","140","-1","4","false","","","",""
"psychophysics","177","683694","0.0-16.0-2.1","5980fff19bf4fe0001070984","609006691f6f4e337c17f836","609a612a9f2eb15e86a59c71","621","","","","77","","","","key","16.666666666666668","960","469","","","","","","","","","","","","","","","","","","","",""
"psychophysics","178","684709","0.0-16.0-0.2","5980fff19bf4fe0001070984","609006691f6f4e337c17f836","609a612a9f2eb15e86a59c71","null","","","","null","","","","key","16.666666666666668","960","469","","","","","","","","","","","","","","","","","","","",""
"psychophysics","179","685224","0.0-16.0-1.2","5980fff19bf4fe0001070984","609006691f6f4e337c17f836","609a612a9f2eb15e86a59c71","null","","","","null","","","","key","16.666666666666668","960","469","","","","","","","","","","","","","140","-1","6","false","","","",""
"psychophysics","180","685824","0.0-16.0-2.2","5980fff19bf4fe0001070984","609006691f6f4e337c17f836","609a612a9f2eb15e86a59c71","600","","","","90","","","","key","16.666857142856212","960","469","","","","","","","","","","","","","","","","","","","",""
"psychophysics","181","686841","0.0-16.0-0.3","5980fff19bf4fe0001070984","609006691f6f4e337c17f836","609a612a9f2eb15e86a59c71","null","","","","null","","","","key","16.666666666666668","960","469","","","","","","","","","","","","","","","","","","","",""
"psychophysics","182","687349","0.0-16.0-1.3","5980fff19bf4fe0001070984","609006691f6f4e337c17f836","609a612a9f2eb15e86a59c71","null","","","","null","","","","key","16.666896551727028","960","469","","","","","","","","","","","","","140","-1","3","false","","","",""
"psychophysics","183","687959","0.0-16.0-2.3","5980fff19bf4fe0001070984","609006691f6f4e337c17f836","609a612a9f2eb15e86a59c71","597","","","","90","","","","key","16.666666666666668","960","469","","","","","","","","","","","","","","","","","","","",""
"psychophysics","184","688975","0.0-16.0-0.4","5980fff19bf4fe0001070984","609006691f6f4e337c17f836","609a612a9f2eb15e86a59c71","null","","","","null","","","","key","16.666666666666668","960","469","","","","","","","","","","","","","","","","","","","",""
"psychophysics","185","689491","0.0-16.0-1.4","5980fff19bf4fe0001070984","609006691f6f4e337c17f836","609a612a9f2eb15e86a59c71","null","","","","null","","","","key","16.666666666666668","960","469","","","","","","","","","","","","","140","1","5","false","","","",""
"psychophysics","186","691895","0.0-16.0-2.4","5980fff19bf4fe0001070984","609006691f6f4e337c17f836","609a612a9f2eb15e86a59c71","2402","","","","90","","","","key","16.666713286713872","960","469","","","","","","","","","","","","","","","","","","","",""
"psychophysics","187","692897","0.0-16.0-0.5","5980fff19bf4fe0001070984","609006691f6f4e337c17f836","609a612a9f2eb15e86a59c71","null","","","","null","","","","key","16.66677966101837","960","469","","","","","","","","","","","","","","","","","","","",""
"psychophysics","188","693410","0.0-16.0-1.5","5980fff19bf4fe0001070984","609006691f6f4e337c17f836","609a612a9f2eb15e86a59c71","null","","","","null","","","","key","16.666666666666668","960","469","","","","","","","","","","","","","140","-1","5","false","","","",""
"psychophysics","189","694075","0.0-16.0-2.5","5980fff19bf4fe0001070984","609006691f6f4e337c17f836","609a612a9f2eb15e86a59c71","664","","","","77","","","","key","16.666666666666668","960","469","","","","","","","","","","","","","","","","","","","",""
"psychophysics","190","695076","0.0-16.0-0.6","5980fff19bf4fe0001070984","609006691f6f4e337c17f836","609a612a9f2eb15e86a59c71","null","","","","null","","","","key","16.666779661016395","960","469","","","","","","","","","","","","","","","","","","","",""
"psychophysics","191","695591","0.0-16.0-1.6","5980fff19bf4fe0001070984","609006691f6f4e337c17f836","609a612a9f2eb15e86a59c71","null","","","","null","","","","key","16.666666666666668","960","469","","","","","","","","","","","","","140","1","0","false","","","",""
"psychophysics","192","696511","0.0-16.0-2.6","5980fff19bf4fe0001070984","609006691f6f4e337c17f836","609a612a9f2eb15e86a59c71","919","","","","90","","","","key","16.666666666666668","960","469","","","","","","","","","","","","","","","","","","","",""
"psychophysics","193","697524","0.0-16.0-0.7","5980fff19bf4fe0001070984","609006691f6f4e337c17f836","609a612a9f2eb15e86a59c71","null","","","","null","","","","key","16.666666666666668","960","469","","","","","","","","","","","","","","","","","","","",""
"psychophysics","194","698041","0.0-16.0-1.7","5980fff19bf4fe0001070984","609006691f6f4e337c17f836","609a612a9f2eb15e86a59c71","null","","","","null","","","","key","16.666666666666668","960","469","","","","","","","","","","","","","140","1","3","false","","","",""
"psychophysics","195","698575","0.0-16.0-2.7","5980fff19bf4fe0001070984","609006691f6f4e337c17f836","609a612a9f2eb15e86a59c71","532","","","","90","","","","key","16.6670967741952","960","469","","","","","","","","","","","","","","","","","","","",""
"psychophysics","196","699577","0.0-16.0-0.8","5980fff19bf4fe0001070984","609006691f6f4e337c17f836","609a612a9f2eb15e86a59c71","null","","","","null","","","","key","16.666779661016395","960","469","","","","","","","","","","","","","","","","","","","",""
"psychophysics","197","700092","0.0-16.0-1.8","5980fff19bf4fe0001070984","609006691f6f4e337c17f836","609a612a9f2eb15e86a59c71","null","","","","null","","","","key","16.666666666666668","960","469","","","","","","","","","","","","","140","1","2","false","","","",""
"psychophysics","198","700825","0.0-16.0-2.8","5980fff19bf4fe0001070984","609006691f6f4e337c17f836","609a612a9f2eb15e86a59c71","731","","","","90","","","","key","16.666976744187238","960","469","","","","","","","","","","","","","","","","","","","",""
"psychophysics","199","701841","0.0-16.0-0.9","5980fff19bf4fe0001070984","609006691f6f4e337c17f836","609a612a9f2eb15e86a59c71","null","","","","null","","","","key","16.666666666666668","960","469","","","","","","","","","","","","","","","","","","","",""
"psychophysics","200","702350","0.0-16.0-1.9","5980fff19bf4fe0001070984","609006691f6f4e337c17f836","609a612a9f2eb15e86a59c71","null","","","","null","","","","key","16.666896551727028","960","469","","","","","","","","","","","","","140","-1","2","false","","","",""
"psychophysics","201","702894","0.0-16.0-2.9","5980fff19bf4fe0001070984","609006691f6f4e337c17f836","609a612a9f2eb15e86a59c71","532","","","","90","","","","key","16.66687500000262","960","469","","","","","","","","","","","","","","","","","","","",""
"psychophysics","202","703908","0.0-16.0-0.10","5980fff19bf4fe0001070984","609006691f6f4e337c17f836","609a612a9f2eb15e86a59c71","null","","","","null","","","","key","16.666666666666668","960","469","","","","","","","","","","","","","","","","","","","",""
"psychophysics","203","704424","0.0-16.0-1.10","5980fff19bf4fe0001070984","609006691f6f4e337c17f836","609a612a9f2eb15e86a59c71","null","","","","null","","","","key","16.666666666666668","960","469","","","","","","","","","","","","","140","-1","0","false","","","",""
"psychophysics","204","704792","0.0-16.0-2.10","5980fff19bf4fe0001070984","609006691f6f4e337c17f836","609a612a9f2eb15e86a59c71","366","","","","77","","","","key","16.666666666666668","960","469","","","","","","","","","","","","","","","","","","","",""
"psychophysics","205","705795","0.0-16.0-0.11","5980fff19bf4fe0001070984","609006691f6f4e337c17f836","609a612a9f2eb15e86a59c71","null","","","","null","","","","key","16.66677966101837","960","469","","","","","","","","","","","","","","","","","","","",""
"psychophysics","206","706308","0.0-16.0-1.11","5980fff19bf4fe0001070984","609006691f6f4e337c17f836","609a612a9f2eb15e86a59c71","null","","","","null","","","","key","16.666666666666668","960","469","","","","","","","","","","","","","140","1","6","false","","","",""
"psychophysics","207","706863","0.0-16.0-2.11","5980fff19bf4fe0001070984","609006691f6f4e337c17f836","609a612a9f2eb15e86a59c71","553","","","","90","","","","key","16.66687499999898","960","469","","","","","","","","","","","","","","","","","","","",""
"psychophysics","208","707877","0.0-16.0-0.12","5980fff19bf4fe0001070984","609006691f6f4e337c17f836","609a612a9f2eb15e86a59c71","null","","","","null","","","","key","16.666666666666668","960","469","","","","","","","","","","","","","","","","","","","",""
"psychophysics","209","708391","0.0-16.0-1.12","5980fff19bf4fe0001070984","609006691f6f4e337c17f836","609a612a9f2eb15e86a59c71","null","","","","null","","","","key","16.666666666666668","960","469","","","","","","","","","","","","","140","-1","5","false","","","",""
"psychophysics","210","708958","0.0-16.0-2.12","5980fff19bf4fe0001070984","609006691f6f4e337c17f836","609a612a9f2eb15e86a59c71","566","","","","90","","","","key","16.666666666666668","960","469","","","","","","","","","","","","","","","","","","","",""
"psychophysics","211","709966","0.0-16.0-0.13","5980fff19bf4fe0001070984","609006691f6f4e337c17f836","609a612a9f2eb15e86a59c71","null","","","","null","","","","key","16.666779661016395","960","469","","","","","","","","","","","","","","","","","","","",""
"psychophysics","212","710477","0.0-16.0-1.13","5980fff19bf4fe0001070984","609006691f6f4e337c17f836","609a612a9f2eb15e86a59c71","null","","","","null","","","","key","16.666666666666668","960","469","","","","","","","","","","","","","140","-1","4","false","","","",""
"psychophysics","213","710875","0.0-16.0-2.13","5980fff19bf4fe0001070984","609006691f6f4e337c17f836","609a612a9f2eb15e86a59c71","398","","","","77","","","","key","16.666956521737713","960","469","","","","","","","","","","","","","","","","","","","",""
"psychophysics","214","711880","0.0-16.0-0.14","5980fff19bf4fe0001070984","609006691f6f4e337c17f836","609a612a9f2eb15e86a59c71","null","","","","null","","","","key","16.666779661016395","960","469","","","","","","","","","","","","","","","","","","","",""
"psychophysics","215","712382","0.0-16.0-1.14","5980fff19bf4fe0001070984","609006691f6f4e337c17f836","609a612a9f2eb15e86a59c71","null","","","","null","","","","key","16.666896551723013","960","469","","","","","","","","","","","","","140","1","6","false","","","",""
"psychophysics","216","712782","0.0-16.0-2.14","5980fff19bf4fe0001070984","609006691f6f4e337c17f836","609a612a9f2eb15e86a59c71","401","","","","77","","","","key","16.666956521737713","960","469","","","","","","","","","","","","","","","","","","","",""
"psychophysics","217","713791","0.0-16.0-0.15","5980fff19bf4fe0001070984","609006691f6f4e337c17f836","609a612a9f2eb15e86a59c71","null","","","","null","","","","key","16.666666666666668","960","469","","","","","","","","","","","","","","","","","","","",""
"psychophysics","218","714308","0.0-16.0-1.15","5980fff19bf4fe0001070984","609006691f6f4e337c17f836","609a612a9f2eb15e86a59c71","null","","","","null","","","","key","16.666666666666668","960","469","","","","","","","","","","","","","140","1","3","false","","","",""
"psychophysics","219","714842","0.0-16.0-2.15","5980fff19bf4fe0001070984","609006691f6f4e337c17f836","609a612a9f2eb15e86a59c71","532","","","","90","","","","key","16.66645161290428","960","469","","","","","","","","","","","","","","","","","","","",""
"psychophysics","220","715858","0.0-16.0-0.16","5980fff19bf4fe0001070984","609006691f6f4e337c17f836","609a612a9f2eb15e86a59c71","null","","","","null","","","","key","16.666666666666668","960","469","","","","","","","","","","","","","","","","","","","",""
"psychophysics","221","716374","0.0-16.0-1.16","5980fff19bf4fe0001070984","609006691f6f4e337c17f836","609a612a9f2eb15e86a59c71","null","","","","null","","","","key","16.666666666666668","960","469","","","","","","","","","","","","","140","1","2","false","","","",""
"psychophysics","222","716858","0.0-16.0-2.16","5980fff19bf4fe0001070984","609006691f6f4e337c17f836","609a612a9f2eb15e86a59c71","483","","","","90","","","","key","16.66714285714053","960","469","","","","","","","","","","","","","","","","","","","",""
"psychophysics","223","717874","0.0-16.0-0.17","5980fff19bf4fe0001070984","609006691f6f4e337c17f836","609a612a9f2eb15e86a59c71","null","","","","null","","","","key","16.666666666666668","960","469","","","","","","","","","","","","","","","","","","","",""
"psychophysics","224","718382","0.0-16.0-1.17","5980fff19bf4fe0001070984","609006691f6f4e337c17f836","609a612a9f2eb15e86a59c71","null","","","","null","","","","key","16.666896551723013","960","469","","","","","","","","","","","","","140","1","5","false","","","",""
"psychophysics","225","718895","0.0-16.0-2.17","5980fff19bf4fe0001070984","609006691f6f4e337c17f836","609a612a9f2eb15e86a59c71","512","","","","90","","","","key","16.666666666666668","960","469","","","","","","","","","","","","","","","","","","","",""
"psychophysics","226","719909","0.0-16.0-0.18","5980fff19bf4fe0001070984","609006691f6f4e337c17f836","609a612a9f2eb15e86a59c71","null","","","","null","","","","key","16.666666666666668","960","469","","","","","","","","","","","","","","","","","","","",""
"psychophysics","227","720425","0.0-16.0-1.18","5980fff19bf4fe0001070984","609006691f6f4e337c17f836","609a612a9f2eb15e86a59c71","null","","","","null","","","","key","16.666666666666668","960","469","","","","","","","","","","","","","140","-1","3","false","","","",""
"psychophysics","228","720943","0.0-16.0-2.18","5980fff19bf4fe0001070984","609006691f6f4e337c17f836","609a612a9f2eb15e86a59c71","515","","","","90","","","","key","16.666666666666668","960","469","","","","","","","","","","","","","","","","","","","",""
"psychophysics","229","721945","0.0-16.0-0.19","5980fff19bf4fe0001070984","609006691f6f4e337c17f836","609a612a9f2eb15e86a59c71","null","","","","null","","","","key","16.666440677967206","960","469","","","","","","","","","","","","","","","","","","","",""
"psychophysics","230","722461","0.0-16.0-1.19","5980fff19bf4fe0001070984","609006691f6f4e337c17f836","609a612a9f2eb15e86a59c71","null","","","","null","","","","key","16.666666666666668","960","469","","","","","","","","","","","","","140","-1","0","false","","","",""
"psychophysics","231","723158","0.0-16.0-2.19","5980fff19bf4fe0001070984","609006691f6f4e337c17f836","609a612a9f2eb15e86a59c71","698","","","","90","","","","key","16.666829268291888","960","469","","","","","","","","","","","","","","","","","","","",""
"psychophysics","232","724174","0.0-16.0-0.20","5980fff19bf4fe0001070984","609006691f6f4e337c17f836","609a612a9f2eb15e86a59c71","null","","","","null","","","","key","16.666666666666668","960","469","","","","","","","","","","","","","","","","","","","",""
"psychophysics","233","724691","0.0-16.0-1.20","5980fff19bf4fe0001070984","609006691f6f4e337c17f836","609a612a9f2eb15e86a59c71","null","","","","null","","","","key","16.666666666666668","960","469","","","","","","","","","","","","","140","1","4","false","","","",""
"psychophysics","234","725214","0.0-16.0-2.20","5980fff19bf4fe0001070984","609006691f6f4e337c17f836","609a612a9f2eb15e86a59c71","522","","","","90","","","","key","16.666666666666668","960","469","","","","","","","","","","","","","","","","","","","",""
"psychophysics","235","726231","0.0-16.0-0.21","5980fff19bf4fe0001070984","609006691f6f4e337c17f836","609a612a9f2eb15e86a59c71","null","","","","null","","","","key","16.666666666666668","960","469","","","","","","","","","","","","","","","","","","","",""
"psychophysics","236","726743","0.0-16.0-1.21","5980fff19bf4fe0001070984","609006691f6f4e337c17f836","609a612a9f2eb15e86a59c71","null","","","","null","","","","key","16.666666666666668","960","469","","","","","","","","","","","","","140","-1","2","false","","","",""
"psychophysics","237","727308","0.0-16.0-2.21","5980fff19bf4fe0001070984","609006691f6f4e337c17f836","609a612a9f2eb15e86a59c71","565","","","","90","","","","key","16.666666666666668","960","469","","","","","","","","","","","","","","","","","","","",""
"psychophysics","238","728311","0.0-16.0-0.22","5980fff19bf4fe0001070984","609006691f6f4e337c17f836","609a612a9f2eb15e86a59c71","null","","","","null","","","","key","16.666779661016395","960","469","","","","","","","","","","","","","","","","","","","",""
"psychophysics","239","728827","0.0-16.0-1.22","5980fff19bf4fe0001070984","609006691f6f4e337c17f836","609a612a9f2eb15e86a59c71","null","","","","null","","","","key","16.666666666666668","960","469","","","","","","","","","","","","","140","-1","6","false","","","",""
"psychophysics","240","729262","0.0-16.0-2.22","5980fff19bf4fe0001070984","609006691f6f4e337c17f836","609a612a9f2eb15e86a59c71","434","","","","77","","","","key","16.667199999997393","960","469","","","","","","","","","","","","","","","","","","","",""
"psychophysics","241","730265","0.0-16.0-0.23","5980fff19bf4fe0001070984","609006691f6f4e337c17f836","609a612a9f2eb15e86a59c71","null","","","","null","","","","key","16.666779661016395","960","469","","","","","","","","","","","","","","","","","","","",""
"psychophysics","242","730779","0.0-16.0-1.23","5980fff19bf4fe0001070984","609006691f6f4e337c17f836","609a612a9f2eb15e86a59c71","null","","","","null","","","","key","16.666666666666668","960","469","","","","","","","","","","","","","140","1","0","false","","","",""
"psychophysics","243","731193","0.0-16.0-2.23","5980fff19bf4fe0001070984","609006691f6f4e337c17f836","609a612a9f2eb15e86a59c71","413","","","","90","","","","key","16.666666666666668","960","469","","","","","","","","","","","","","","","","","","","",""
"html-keyboard-response","244","912999","0.0-17.0","5980fff19bf4fe0001070984","609006691f6f4e337c17f836","609a612a9f2eb15e86a59c71","181805","<p>Well Done !</p><p>Training Complete. Press the spacebar to start.</p><p>DON'T EXIT THE FULL SCREEN MODE</p>","","","32","","","","","","","","","","","","","","","","","","","","","","","","","","",""
"psychophysics","245","916015","0.0-18.0-0.0","5980fff19bf4fe0001070984","609006691f6f4e337c17f836","609a612a9f2eb15e86a59c71","null","","","","null","","","","key","16.666779661016395","960","469","","","","","","","","","","","","","","","","","","","",""
"psychophysics","246","916530","0.0-18.0-1.0","5980fff19bf4fe0001070984","609006691f6f4e337c17f836","609a612a9f2eb15e86a59c71","null","","","","null","","","","key","16.666666666666668","960","469","","","","","","","","","","","","","140","-1","5","true","","","",""
"psychophysics","247","919821","0.0-18.0-2.0","5980fff19bf4fe0001070984","609006691f6f4e337c17f836","609a612a9f2eb15e86a59c71","3289","","","","90","","","","key","16.666632653060798","960","469","","","","","","","","","","","","","","","","","","","",""
"psychophysics","248","920830","0.0-18.0-0.1","5980fff19bf4fe0001070984","609006691f6f4e337c17f836","609a612a9f2eb15e86a59c71","null","","","","null","","","","key","16.666666666666668","960","469","","","","","","","","","","","","","","","","","","","",""
"psychophysics","249","921347","0.0-18.0-1.1","5980fff19bf4fe0001070984","609006691f6f4e337c17f836","609a612a9f2eb15e86a59c71","null","","","","null","","","","key","16.666666666666668","960","469","","","","","","","","","","","","","140","-1","2","true","","","",""
"psychophysics","250","922037","0.0-18.0-2.1","5980fff19bf4fe0001070984","609006691f6f4e337c17f836","609a612a9f2eb15e86a59c71","688","","","","90","","","","key","16.666500000000816","960","469","","","","","","","","","","","","","","","","","","","",""
"psychophysics","251","923052","0.0-18.0-0.2","5980fff19bf4fe0001070984","609006691f6f4e337c17f836","609a612a9f2eb15e86a59c71","null","","","","null","","","","key","16.666666666666668","960","469","","","","","","","","","","","","","","","","","","","",""
"psychophysics","252","923566","0.0-18.0-1.2","5980fff19bf4fe0001070984","609006691f6f4e337c17f836","609a612a9f2eb15e86a59c71","null","","","","null","","","","key","16.666666666666668","960","469","","","","","","","","","","","","","140","-1","4","true","","","",""
"psychophysics","253","924181","0.0-18.0-2.2","5980fff19bf4fe0001070984","609006691f6f4e337c17f836","609a612a9f2eb15e86a59c71","614","","","","90","","","","key","16.666666666666668","960","469","","","","","","","","","","","","","","","","","","","",""
"psychophysics","254","925198","0.0-18.0-0.3","5980fff19bf4fe0001070984","609006691f6f4e337c17f836","609a612a9f2eb15e86a59c71","null","","","","null","","","","key","16.666666666666668","960","469","","","","","","","","","","","","","","","","","","","",""
"psychophysics","255","925713","0.0-18.0-1.3","5980fff19bf4fe0001070984","609006691f6f4e337c17f836","609a612a9f2eb15e86a59c71","null","","","","null","","","","key","16.666666666666668","960","469","","","","","","","","","","","","","140","1","3","true","","","",""
"psychophysics","256","926421","0.0-18.0-2.3","5980fff19bf4fe0001070984","609006691f6f4e337c17f836","609a612a9f2eb15e86a59c71","707","","","","77","","","","key","16.666829268291888","960","469","","","","","","","","","","","","","","","","","","","",""
"psychophysics","257","927433","0.0-18.0-0.4","5980fff19bf4fe0001070984","609006691f6f4e337c17f836","609a612a9f2eb15e86a59c71","null","","","","null","","","","key","16.666666666666668","960","469","","","","","","","","","","","","","","","","","","","",""
"psychophysics","258","927947","0.0-18.0-1.4","5980fff19bf4fe0001070984","609006691f6f4e337c17f836","609a612a9f2eb15e86a59c71","null","","","","null","","","","key","16.666666666666668","960","469","","","","","","","","","","","","","140","-1","3","true","","","",""
"psychophysics","259","928531","0.0-18.0-2.4","5980fff19bf4fe0001070984","609006691f6f4e337c17f836","609a612a9f2eb15e86a59c71","581","","","","90","","","","key","16.66647058823625","960","469","","","","","","","","","","","","","","","","","","","",""
"psychophysics","260","929535","0.0-18.0-0.5","5980fff19bf4fe0001070984","609006691f6f4e337c17f836","609a612a9f2eb15e86a59c71","null","","","","null","","","","key","16.666440677965234","960","469","","","","","","","","","","","","","","","","","","","",""
"psychophysics","261","930050","0.0-18.0-1.5","5980fff19bf4fe0001070984","609006691f6f4e337c17f836","609a612a9f2eb15e86a59c71","null","","","","null","","","","key","16.666666666666668","960","469","","","","","","","","","","","","","140","1","4","true","","","",""
"psychophysics","262","934733","0.0-18.0-2.5","5980fff19bf4fe0001070984","609006691f6f4e337c17f836","609a612a9f2eb15e86a59c71","4682","","","","77","","","","key","16.666642857142975","960","469","","","","","","","","","","","","","","","","","","","",""
"psychophysics","263","935747","0.0-18.0-0.6","5980fff19bf4fe0001070984","609006691f6f4e337c17f836","609a612a9f2eb15e86a59c71","null","","","","null","","","","key","16.666666666666668","960","469","","","","","","","","","","","","","","","","","","","",""
"psychophysics","264","936263","0.0-18.0-1.6","5980fff19bf4fe0001070984","609006691f6f4e337c17f836","609a612a9f2eb15e86a59c71","null","","","","null","","","","key","16.666666666666668","960","469","","","","","","","","","","","","","140","-1","6","true","","","",""
"psychophysics","265","936701","0.0-18.0-2.6","5980fff19bf4fe0001070984","609006691f6f4e337c17f836","609a612a9f2eb15e86a59c71","436","","","","77","","","","key","16.667200000002047","960","469","","","","","","","","","","","","","","","","","","","",""
"psychophysics","266","937713","0.0-18.0-0.7","5980fff19bf4fe0001070984","609006691f6f4e337c17f836","609a612a9f2eb15e86a59c71","null","","","","null","","","","key","16.666666666666668","960","469","","","","","","","","","","","","","","","","","","","",""
"psychophysics","267","938231","0.0-18.0-1.7","5980fff19bf4fe0001070984","609006691f6f4e337c17f836","609a612a9f2eb15e86a59c71","null","","","","null","","","","key","16.666666666666668","960","469","","","","","","","","","","","","","140","-1","0","true","","","",""
"psychophysics","268","938864","0.0-18.0-2.7","5980fff19bf4fe0001070984","609006691f6f4e337c17f836","609a612a9f2eb15e86a59c71","632","","","","77","","","","key","16.66648648648422","960","469","","","","","","","","","","","","","","","","","","","",""
"psychophysics","269","939881","0.0-18.0-0.8","5980fff19bf4fe0001070984","609006691f6f4e337c17f836","609a612a9f2eb15e86a59c71","null","","","","null","","","","key","16.666666666666668","960","469","","","","","","","","","","","","","","","","","","","",""
"psychophysics","270","940398","0.0-18.0-1.8","5980fff19bf4fe0001070984","609006691f6f4e337c17f836","609a612a9f2eb15e86a59c71","null","","","","null","","","","key","16.666666666666668","960","469","","","","","","","","","","","","","140","1","5","true","","","",""
"psychophysics","271","940947","0.0-18.0-2.8","5980fff19bf4fe0001070984","609006691f6f4e337c17f836","609a612a9f2eb15e86a59c71","548","","","","90","","","","key","18.442758620692544","960","469","","","","","","","","","","","","","","","","","","","",""
"psychophysics","272","941956","0.0-18.0-0.9","5980fff19bf4fe0001070984","609006691f6f4e337c17f836","609a612a9f2eb15e86a59c71","null","","","","null","","","","key","16.66677966101837","960","469","","","","","","","","","","","","","","","","","","","",""
"psychophysics","273","942468","0.0-18.0-1.9","5980fff19bf4fe0001070984","609006691f6f4e337c17f836","609a612a9f2eb15e86a59c71","null","","","","null","","","","key","16.666666666666668","960","469","","","","","","","","","","","","","140","1","2","true","","","",""
"psychophysics","274","942964","0.0-18.0-2.9","5980fff19bf4fe0001070984","609006691f6f4e337c17f836","609a612a9f2eb15e86a59c71","495","","","","90","","","","key","16.66620689654996","960","469","","","","","","","","","","","","","","","","","","","",""
"psychophysics","275","943981","0.0-18.0-0.10","5980fff19bf4fe0001070984","609006691f6f4e337c17f836","609a612a9f2eb15e86a59c71","null","","","","null","","","","key","16.666666666666668","960","469","","","","","","","","","","","","","","","","","","","",""
"psychophysics","276","944497","0.0-18.0-1.10","5980fff19bf4fe0001070984","609006691f6f4e337c17f836","609a612a9f2eb15e86a59c71","null","","","","null","","","","key","16.666666666666668","960","469","","","","","","","","","","","","","140","1","6","true","","","",""
"psychophysics","277","944847","0.0-18.0-2.10","5980fff19bf4fe0001070984","609006691f6f4e337c17f836","609a612a9f2eb15e86a59c71","350","","","","77","","","","key","16.66700000000419","960","469","","","","","","","","","","","","","","","","","","","",""
"psychophysics","278","945849","0.0-18.0-0.11","5980fff19bf4fe0001070984","609006691f6f4e337c17f836","609a612a9f2eb15e86a59c71","null","","","","null","","","","key","16.66677966101837","960","469","","","","","","","","","","","","","","","","","","","",""
"psychophysics","279","946364","0.0-18.0-1.11","5980fff19bf4fe0001070984","609006691f6f4e337c17f836","609a612a9f2eb15e86a59c71","null","","","","null","","","","key","16.666666666666668","960","469","","","","","","","","","","","","","140","1","0","true","","","",""
"psychophysics","280","946749","0.0-18.0-2.11","5980fff19bf4fe0001070984","609006691f6f4e337c17f836","609a612a9f2eb15e86a59c71","383","","","","77","","","","key","16.66636363636512","960","469","","","","","","","","","","","","","","","","","","","",""
"psychophysics","281","947763","0.0-18.0-0.12","5980fff19bf4fe0001070984","609006691f6f4e337c17f836","609a612a9f2eb15e86a59c71","null","","","","null","","","","key","16.666666666666668","960","469","","","","","","","","","","","","","","","","","","","",""
"psychophysics","282","948272","0.0-18.0-1.12","5980fff19bf4fe0001070984","609006691f6f4e337c17f836","609a612a9f2eb15e86a59c71","null","","","","null","","","","key","16.66620689654996","960","469","","","","","","","","","","","","","140","1","4","true","","","",""
"psychophysics","283","948948","0.0-18.0-2.12","5980fff19bf4fe0001070984","609006691f6f4e337c17f836","609a612a9f2eb15e86a59c71","663","","","","90","","","","key","16.666500000000816","960","469","","","","","","","","","","","","","","","","","","","",""
"psychophysics","284","949964","0.0-18.0-0.13","5980fff19bf4fe0001070984","609006691f6f4e337c17f836","609a612a9f2eb15e86a59c71","null","","","","null","","","","key","16.666666666666668","960","469","","","","","","","","","","","","","","","","","","","",""
"psychophysics","285","950481","0.0-18.0-1.13","5980fff19bf4fe0001070984","609006691f6f4e337c17f836","609a612a9f2eb15e86a59c71","null","","","","null","","","","key","16.666666666666668","960","469","","","","","","","","","","","","","140","1","3","true","","","",""
"psychophysics","286","951014","0.0-18.0-2.13","5980fff19bf4fe0001070984","609006691f6f4e337c17f836","609a612a9f2eb15e86a59c71","531","","","","90","","","","key","16.666451612900524","960","469","","","","","","","","","","","","","","","","","","","",""
"psychophysics","287","952031","0.0-18.0-0.14","5980fff19bf4fe0001070984","609006691f6f4e337c17f836","609a612a9f2eb15e86a59c71","null","","","","null","","","","key","16.666666666666668","960","469","","","","","","","","","","","","","","","","","","","",""
"psychophysics","288","952547","0.0-18.0-1.14","5980fff19bf4fe0001070984","609006691f6f4e337c17f836","609a612a9f2eb15e86a59c71","null","","","","null","","","","key","16.666666666666668","960","469","","","","","","","","","","","","","140","-1","6","true","","","",""
"psychophysics","289","953133","0.0-18.0-2.14","5980fff19bf4fe0001070984","609006691f6f4e337c17f836","609a612a9f2eb15e86a59c71","583","","","","77","","","","key","16.66705882353092","960","469","","","","","","","","","","","","","","","","","","","",""
"psychophysics","290","954147","0.0-18.0-0.15","5980fff19bf4fe0001070984","609006691f6f4e337c17f836","609a612a9f2eb15e86a59c71","null","","","","null","","","","key","16.666666666666668","960","469","","","","","","","","","","","","","","","","","","","",""
"psychophysics","291","954652","0.0-18.0-1.15","5980fff19bf4fe0001070984","609006691f6f4e337c17f836","609a612a9f2eb15e86a59c71","null","","","","null","","","","key","16.666896551727028","960","469","","","","","","","","","","","","","140","1","0","true","","","",""
"psychophysics","292","955615","0.0-18.0-2.15","5980fff19bf4fe0001070984","609006691f6f4e337c17f836","609a612a9f2eb15e86a59c71","960","","","","90","","","","key","16.666666666666668","960","469","","","","","","","","","","","","","","","","","","","",""
"psychophysics","293","956615","0.0-18.0-0.16","5980fff19bf4fe0001070984","609006691f6f4e337c17f836","609a612a9f2eb15e86a59c71","null","","","","null","","","","key","16.666440677965234","960","469","","","","","","","","","","","","","","","","","","","",""
"psychophysics","294","957131","0.0-18.0-1.16","5980fff19bf4fe0001070984","609006691f6f4e337c17f836","609a612a9f2eb15e86a59c71","null","","","","null","","","","key","16.666666666666668","960","469","","","","","","","","","","","","","140","1","6","true","","","",""
"psychophysics","295","959231","0.0-18.0-2.16","5980fff19bf4fe0001070984","609006691f6f4e337c17f836","609a612a9f2eb15e86a59c71","2098","","","","77","","","","key","16.66671999999974","960","469","","","","","","","","","","","","","","","","","","","",""
"psychophysics","296","960247","0.0-18.0-0.17","5980fff19bf4fe0001070984","609006691f6f4e337c17f836","609a612a9f2eb15e86a59c71","null","","","","null","","","","key","16.666666666666668","960","469","","","","","","","","","","","","","","","","","","","",""
"psychophysics","297","960765","0.0-18.0-1.17","5980fff19bf4fe0001070984","609006691f6f4e337c17f836","609a612a9f2eb15e86a59c71","null","","","","null","","","","key","16.666666666666668","960","469","","","","","","","","","","","","","140","-1","5","true","","","",""
"psychophysics","298","961232","0.0-18.0-2.17","5980fff19bf4fe0001070984","609006691f6f4e337c17f836","609a612a9f2eb15e86a59c71","465","","","","90","","","","key","16.666666666666668","960","469","","","","","","","","","","","","","","","","","","","",""
"psychophysics","299","962238","0.0-18.0-0.18","5980fff19bf4fe0001070984","609006691f6f4e337c17f836","609a612a9f2eb15e86a59c71","null","","","","null","","","","key","16.666779661016395","960","469","","","","","","","","","","","","","","","","","","","",""
"psychophysics","300","962752","0.0-18.0-1.18","5980fff19bf4fe0001070984","609006691f6f4e337c17f836","609a612a9f2eb15e86a59c71","null","","","","null","","","","key","16.666666666666668","960","469","","","","","","","","","","","","","140","1","5","true","","","",""
"psychophysics","301","963253","0.0-18.0-2.18","5980fff19bf4fe0001070984","609006691f6f4e337c17f836","609a612a9f2eb15e86a59c71","500","","","","90","","","","key","16.666896551727028","960","469","","","","","","","","","","","","","","","","","","","",""
"psychophysics","302","964264","0.0-18.0-0.19","5980fff19bf4fe0001070984","609006691f6f4e337c17f836","609a612a9f2eb15e86a59c71","null","","","","null","","","","key","16.666666666666668","960","469","","","","","","","","","","","","","","","","","","","",""
"psychophysics","303","964782","0.0-18.0-1.19","5980fff19bf4fe0001070984","609006691f6f4e337c17f836","609a612a9f2eb15e86a59c71","null","","","","null","","","","key","16.666666666666668","960","469","","","","","","","","","","","","","140","-1","0","true","","","",""
"psychophysics","304","965265","0.0-18.0-2.19","5980fff19bf4fe0001070984","609006691f6f4e337c17f836","609a612a9f2eb15e86a59c71","481","","","","77","","","","key","16.666428571425577","960","469","","","","","","","","","","","","","","","","","","","",""
"psychophysics","305","966282","0.0-18.0-0.20","5980fff19bf4fe0001070984","609006691f6f4e337c17f836","609a612a9f2eb15e86a59c71","null","","","","null","","","","key","16.666666666666668","960","469","","","","","","","","","","","","","","","","","","","",""
"psychophysics","306","966788","0.0-18.0-1.20","5980fff19bf4fe0001070984","609006691f6f4e337c17f836","609a612a9f2eb15e86a59c71","null","","","","null","","","","key","16.666896551723013","960","469","","","","","","","","","","","","","140","-1","4","true","","","",""
"psychophysics","307","967698","0.0-18.0-2.20","5980fff19bf4fe0001070984","609006691f6f4e337c17f836","609a612a9f2eb15e86a59c71","908","","","","77","","","","key","16.666666666666668","960","469","","","","","","","","","","","","","","","","","","","",""
"psychophysics","308","968701","0.0-18.0-0.21","5980fff19bf4fe0001070984","609006691f6f4e337c17f836","609a612a9f2eb15e86a59c71","null","","","","null","","","","key","16.66677966101837","960","469","","","","","","","","","","","","","","","","","","","",""
"psychophysics","309","969215","0.0-18.0-1.21","5980fff19bf4fe0001070984","609006691f6f4e337c17f836","609a612a9f2eb15e86a59c71","null","","","","null","","","","key","16.666666666666668","960","469","","","","","","","","","","","","","140","1","2","true","","","",""
"psychophysics","310","969868","0.0-18.0-2.21","5980fff19bf4fe0001070984","609006691f6f4e337c17f836","609a612a9f2eb15e86a59c71","653","","","","90","","","","key","16.666315789472335","960","469","","","","","","","","","","","","","","","","","","","",""
"psychophysics","311","970871","0.0-18.0-0.22","5980fff19bf4fe0001070984","609006691f6f4e337c17f836","609a612a9f2eb15e86a59c71","null","","","","null","","","","key","16.666440677965234","960","469","","","","","","","","","","","","","","","","","","","",""
"psychophysics","312","971383","0.0-18.0-1.22","5980fff19bf4fe0001070984","609006691f6f4e337c17f836","609a612a9f2eb15e86a59c71","null","","","","null","","","","key","16.666666666666668","960","469","","","","","","","","","","","","","140","-1","3","true","","","",""
"psychophysics","313","971815","0.0-18.0-2.22","5980fff19bf4fe0001070984","609006691f6f4e337c17f836","609a612a9f2eb15e86a59c71","430","","","","77","","","","key","16.666399999996646","960","469","","","","","","","","","","","","","","","","","","","",""
"psychophysics","314","972816","0.0-18.0-0.23","5980fff19bf4fe0001070984","609006691f6f4e337c17f836","609a612a9f2eb15e86a59c71","null","","","","null","","","","key","16.666440677965234","960","469","","","","","","","","","","","","","","","","","","","",""
"psychophysics","315","973331","0.0-18.0-1.23","5980fff19bf4fe0001070984","609006691f6f4e337c17f836","609a612a9f2eb15e86a59c71","null","","","","null","","","","key","16.666666666666668","960","469","","","","","","","","","","","","","140","-1","2","true","","","",""
"psychophysics","316","973752","0.0-18.0-2.23","5980fff19bf4fe0001070984","609006691f6f4e337c17f836","609a612a9f2eb15e86a59c71","419","","","","90","","","","key","16.666666666666668","960","469","","","","","","","","","","","","","","","","","","","",""
"psychophysics","317","974764","0.0-18.0-0.24","5980fff19bf4fe0001070984","609006691f6f4e337c17f836","609a612a9f2eb15e86a59c71","null","","","","null","","","","key","16.666666666666668","960","469","","","","","","","","","","","","","","","","","","","",""
"psychophysics","318","975281","0.0-18.0-1.24","5980fff19bf4fe0001070984","609006691f6f4e337c17f836","609a612a9f2eb15e86a59c71","null","","","","null","","","","key","16.666666666666668","960","469","","","","","","","","","","","","","140","1","0","true","","","",""
"psychophysics","319","977069","0.0-18.0-2.24","5980fff19bf4fe0001070984","609006691f6f4e337c17f836","609a612a9f2eb15e86a59c71","1786","","","","77","","","","key","16.666603773584114","960","469","","","","","","","","","","","","","","","","","","","",""
"psychophysics","320","978069","0.0-18.0-0.25","5980fff19bf4fe0001070984","609006691f6f4e337c17f836","609a612a9f2eb15e86a59c71","null","","","","null","","","","key","16.666440677965234","960","469","","","","","","","","","","","","","","","","","","","",""
"psychophysics","321","978582","0.0-18.0-1.25","5980fff19bf4fe0001070984","609006691f6f4e337c17f836","609a612a9f2eb15e86a59c71","null","","","","null","","","","key","16.666666666666668","960","469","","","","","","","","","","","","","140","-1","4","true","","","",""
"psychophysics","322","979049","0.0-18.0-2.25","5980fff19bf4fe0001070984","609006691f6f4e337c17f836","609a612a9f2eb15e86a59c71","466","","","","90","","","","key","16.666666666666668","960","469","","","","","","","","","","","","","","","","","","","",""
"psychophysics","323","980065","0.0-18.0-0.26","5980fff19bf4fe0001070984","609006691f6f4e337c17f836","609a612a9f2eb15e86a59c71","null","","","","null","","","","key","16.666666666666668","960","469","","","","","","","","","","","","","","","","","","","",""
"psychophysics","324","980566","0.0-18.0-1.26","5980fff19bf4fe0001070984","609006691f6f4e337c17f836","609a612a9f2eb15e86a59c71","null","","","","null","","","","key","16.66620689654996","960","469","","","","","","","","","","","","","140","-1","2","true","","","",""
"psychophysics","325","981133","0.0-18.0-2.26","5980fff19bf4fe0001070984","609006691f6f4e337c17f836","609a612a9f2eb15e86a59c71","565","","","","90","","","","key","17.1875","960","469","","","","","","","","","","","","","","","","","","","",""
"psychophysics","326","982135","0.0-18.0-0.27","5980fff19bf4fe0001070984","609006691f6f4e337c17f836","609a612a9f2eb15e86a59c71","null","","","","null","","","","key","16.666779661016395","960","469","","","","","","","","","","","","","","","","","","","",""
"psychophysics","327","982649","0.0-18.0-1.27","5980fff19bf4fe0001070984","609006691f6f4e337c17f836","609a612a9f2eb15e86a59c71","null","","","","null","","","","key","16.666666666666668","960","469","","","","","","","","","","","","","140","1","3","true","","","",""
"psychophysics","328","985331","0.0-18.0-2.27","5980fff19bf4fe0001070984","609006691f6f4e337c17f836","609a612a9f2eb15e86a59c71","2681","","","","77","","","","key","16.66675000000032","960","469","","","","","","","","","","","","","","","","","","","",""
"psychophysics","329","986348","0.0-18.0-0.28","5980fff19bf4fe0001070984","609006691f6f4e337c17f836","609a612a9f2eb15e86a59c71","null","","","","null","","","","key","16.666666666666668","960","469","","","","","","","","","","","","","","","","","","","",""
"psychophysics","330","986854","0.0-18.0-1.28","5980fff19bf4fe0001070984","609006691f6f4e337c17f836","609a612a9f2eb15e86a59c71","null","","","","null","","","","key","16.666896551727028","960","469","","","","","","","","","","","","","140","1","2","true","","","",""
"psychophysics","331","987283","0.0-18.0-2.28","5980fff19bf4fe0001070984","609006691f6f4e337c17f836","609a612a9f2eb15e86a59c71","427","","","","90","","","","key","16.667200000002047","960","469","","","","","","","","","","","","","","","","","","","",""
"psychophysics","332","988284","0.0-18.0-0.29","5980fff19bf4fe0001070984","609006691f6f4e337c17f836","609a612a9f2eb15e86a59c71","null","","","","null","","","","key","16.666779661016395","960","469","","","","","","","","","","","","","","","","","","","",""
"psychophysics","333","988799","0.0-18.0-1.29","5980fff19bf4fe0001070984","609006691f6f4e337c17f836","609a612a9f2eb15e86a59c71","null","","","","null","","","","key","16.666666666666668","960","469","","","","","","","","","","","","","140","1","5","true","","","",""
"psychophysics","334","989315","0.0-18.0-2.29","5980fff19bf4fe0001070984","609006691f6f4e337c17f836","609a612a9f2eb15e86a59c71","516","","","","77","","","","key","16.666666666666668","960","469","","","","","","","","","","","","","","","","","","","",""
"psychophysics","335","990331","0.0-18.0-0.30","5980fff19bf4fe0001070984","609006691f6f4e337c17f836","609a612a9f2eb15e86a59c71","null","","","","null","","","","key","16.666666666666668","960","469","","","","","","","","","","","","","","","","","","","",""
"psychophysics","336","990840","0.0-18.0-1.30","5980fff19bf4fe0001070984","609006691f6f4e337c17f836","609a612a9f2eb15e86a59c71","null","","","","null","","","","key","16.666896551723013","960","469","","","","","","","","","","","","","140","1","4","true","","","",""
"psychophysics","337","991182","0.0-18.0-2.30","5980fff19bf4fe0001070984","609006691f6f4e337c17f836","609a612a9f2eb15e86a59c71","330","","","","77","","","","key","16.66699999999837","960","469","","","","","","","","","","","","","","","","","","","",""
"psychophysics","338","992190","0.0-18.0-0.31","5980fff19bf4fe0001070984","609006691f6f4e337c17f836","609a612a9f2eb15e86a59c71","null","","","","null","","","","key","16.666779661016395","960","469","","","","","","","","","","","","","","","","","","","",""
"psychophysics","339","992705","0.0-18.0-1.31","5980fff19bf4fe0001070984","609006691f6f4e337c17f836","609a612a9f2eb15e86a59c71","null","","","","null","","","","key","16.666666666666668","960","469","","","","","","","","","","","","","140","-1","3","true","","","",""
"psychophysics","340","993069","0.0-18.0-2.31","5980fff19bf4fe0001070984","609006691f6f4e337c17f836","609a612a9f2eb15e86a59c71","363","","","","90","","","","key","16.666666666666668","960","469","","","","","","","","","","","","","","","","","","","",""
"psychophysics","341","994082","0.0-18.0-0.32","5980fff19bf4fe0001070984","609006691f6f4e337c17f836","609a612a9f2eb15e86a59c71","null","","","","null","","","","key","16.666666666666668","960","469","","","","","","","","","","","","","","","","","","","",""
