"trial_type","trial_index","time_elapsed","internal_node_id","PROLIFIC_PID","STUDY_ID","SESSION_ID","rt","stimulus","button_pressed","success","key_press","responses","isData","view_history","response_type","avg_frame_time","center_x","center_y","isSC","stim_side","trial_luminance","step_size","nReversal","correct","prev_ans","isThreshold","SC_threshold","final_threshold","isLuminance","FF_luminance","luminance","stimSide","ISInt","isFF","question_order","isSPQ","isCAPS","isAQ"
"pavlovia","0","4","0.0-0.0","5e0e6a63a7fba65b0b863ccf","609006691f6f4e337c17f836","609a6efab0eb9c37d485db36","","","","","","","","","","","","","","","","","","","","","","","","","","","","","","","",""
"html-button-response","1","7413","0.0-1.0","5e0e6a63a7fba65b0b863ccf","609006691f6f4e337c17f836","609a6efab0eb9c37d485db36","7406","<div style='background-color: white; width:60%; margin: auto; padding: 50px; text-align: justify; text-justify: inter-word; margin-bottom: 20px;'><h1 style='text-align: center;'>Consent Form</h1><p>Please read this consent form carefully before deciding whether you would like to participate in this study. You have to be 18 years old or older to participate to this study.</p><p style='text-decoration: underline;'>Participation is voluntary:</p><p>It is your choice whether or not to participate in this research. If you choose to participate, you may change your mind and leave the study at any time. Refusal to participate or stopping your participation will involve no penalty or loss of benefits to which you are otherwise entitled.</p><p style='text-decoration: underline;'>Purpose of the Study:</p><p>To understand the mechanisms underlying human perception.</p><p style='text-decoration: underline;'>What you will do in this study:</p><p>You will be presented with a series of visual images and then you will press buttons on the keyboard of your computer to respond to simple questions about the images (e.g. Were one or two images presented?). In addition, you will be asked to complete a questionnaire concerning your beliefs and everyday mental and perceptual experiences.'</p><p style='text-decoration: underline;'> Time Required:</p><p>The study will take 40 minutes to complete. </p><p style='text-decoration: underline;'>Risks:</p><p>There are no anticipated risks associated with participating in this study that are beyond those experienced in everyday life. </p><p style='text-decoration: underline;'>Benefits:</p><p>There are no benefits to you in participating in the study. However, this study may lead to a better understanding of how different kinds of visual information are used.</p><p style='text-decoration: underline;'>Compensation:</p><p>You will be paid US$6.6/hour. </p><p style='text-decoration: underline;'>Privacy and Confidentiality:</p><p>Your participation in this study will be anonymous. No personal information about your name or identity will be asked or recorded. This anonymous data will be stored for several years and may be used for a variety of research purposes. The overall results of the study may be published, or the data files may be shared with other researchers, but your identity will not be revealed in any way. The online services we are using for this study may temporarily store your data, but this data will be downloaded and then promptly deleted from those services.Your data will not be permanently associated with your name, IP address, or any other identifiable information (e.g., your information will only be connected to your payment, not to any of your responses), though they may be temporarily stored together before we download and separate them. Even so, no guarantee of internet survey security can be given because, although unlikely, transmissions can be intercepted and IP addresses can be identified. The anonymous data may be shared publicly (for example, in conjunction with a resulting academic publication).</p><p style='text-decoration: underline;'>Participation and Withdrawal:</p><p>Your participation in this study is completely voluntary. You may stop responding to the stimuli or stop answering questions if you so choose and without penalty by exiting the full screen mode, closing this tab of your browser or redirecting it to a different website.</p><p style='text-decoration: underline;'>Contact Info of the Researcher: </p><p>If you have questions about this study, or if you would like to talk to the research team, please contact David Melcher (david.melcher@nyu.edu, md5050@nyu.edu) at the Perception and Active Cognition Laboratory, New York University Abu Dhabi, Computational Research Building, Saadiyat Island, Abu Dhabi, UAE.This research has been reviewed by the New York University Abu Dhabi Institutional Review Board (NYUAD IRB). To contact about your rights in this research, for questions, suggestions, or complaints that are not addressed by the researchers, please email IRBnyuad@nyu.edu, or call the NYUAD IRB at +971 2 628 4313. </p></div>","0","","","","","","","","","","","","","","","","","","","","","","","","","","","","",""
"fullscreen","2","11226","0.0-2.0","5e0e6a63a7fba65b0b863ccf","609006691f6f4e337c17f836","609a6efab0eb9c37d485db36","","","","true","","","","","","","","","","","","","","","","","","","","","","","","","","","",""
"html-keyboard-response","3","22823","0.0-3.0","5e0e6a63a7fba65b0b863ccf","609006691f6f4e337c17f836","609a6efab0eb9c37d485db36","11594","<p>Welcome !</p><p>READ CAREFULLY THE FOLLOWING INDICATIONS:</p><p>From this moment you have ~40 minutes to complete the experiment.</p><p>During the experiment you will be prompted to take several breaks. Each break should not last longer than 2-3 minutes.</p><p>Make sure that your computer is plugged in and it's not running on battery power, even if the battery is already fully charged.</p><p>Turn off your phone and music, make sure that you are in a quiet room and that you will not be distracted for the next hour.</p><p>Failure to comply with the instructions and indications provided during the experiment will most likely result in the rejection of your data.<p>Press the spacebar to start.</p>","","","32","","","","","","","","","","","","","","","","","","","","","","","","","","",""
"survey-html-form","4","29188","0.0-4.0","5e0e6a63a7fba65b0b863ccf","609006691f6f4e337c17f836","609a6efab0eb9c37d485db36","6363","","","","","{""age"":""34"",""sex"":""f""}","true","","","","","","","","","","","","","","","","","","","","","","","","",""
"instructions","5","51690","0.0-5.0","5e0e6a63a7fba65b0b863ccf","609006691f6f4e337c17f836","609a6efab0eb9c37d485db36","22501","","","","","","","[{""page_index"":0,""viewing_time"":16326},{""page_index"":1,""viewing_time"":2903},{""page_index"":2,""viewing_time"":3271}]","","","","","","","","","","","","","","","","","","","","","","","",""
"psychophysics","6","53811","0.0-6.0-0.0","5e0e6a63a7fba65b0b863ccf","609006691f6f4e337c17f836","609a6efab0eb9c37d485db36","1098","","","","37","","","","key","16.79871999999997","683","327","true","-1","180","30","0","-1","","","","","","","","","","","","","",""
"psychophysics","7","55268","0.0-6.0-0.1","5e0e6a63a7fba65b0b863ccf","609006691f6f4e337c17f836","609a6efab0eb9c37d485db36","432","","","","39","","","","key","16.665813953488396","683","327","true","1","180","30","0","-1","-1","","","","","","","","","","","","",""
"psychophysics","8","56317","0.0-6.0-0.2","5e0e6a63a7fba65b0b863ccf","609006691f6f4e337c17f836","609a6efab0eb9c37d485db36","42","","","","37","","","","key","16.665483870967776","683","327","true","-1","150","30","0","-1","-1","","","","","","","","","","","","",""
"psychophysics","9","59445","0.0-6.0-0.3","5e0e6a63a7fba65b0b863ccf","609006691f6f4e337c17f836","609a6efab0eb9c37d485db36","2111","","","","39","","","","key","16.665561497326237","683","327","true","-1","150","24","1","1","-1","","","","","","","","","","","","",""
"psychophysics","10","62753","0.0-6.0-0.4","5e0e6a63a7fba65b0b863ccf","609006691f6f4e337c17f836","609a6efab0eb9c37d485db36","2297","","","","37","","","","key","16.665656565656544","683","327","true","-1","174","24","1","-1","1","","","","","","","","","","","","",""
"psychophysics","11","63962","0.0-6.0-0.5","5e0e6a63a7fba65b0b863ccf","609006691f6f4e337c17f836","609a6efab0eb9c37d485db36","207","","","","37","","","","key","16.66591549295773","683","327","true","-1","174","19.2","2","-1","-1","","","","","","","","","","","","",""
"psychophysics","12","67747","0.0-6.0-0.6","5e0e6a63a7fba65b0b863ccf","609006691f6f4e337c17f836","609a6efab0eb9c37d485db36","2772","","","","39","","","","key","16.66575221238941","683","327","true","1","154.8","19.2","2","-1","-1","","","","","","","","","","","","",""
"psychophysics","13","72662","0.0-6.0-0.7","5e0e6a63a7fba65b0b863ccf","609006691f6f4e337c17f836","609a6efab0eb9c37d485db36","3907","","","","37","","","","key","16.66564625850344","683","327","true","-1","154.8","19.2","2","-1","-1","","","","","","","","","","","","",""
"psychophysics","14","73854","0.0-6.0-0.8","5e0e6a63a7fba65b0b863ccf","609006691f6f4e337c17f836","609a6efab0eb9c37d485db36","177","","","","39","","","","key","16.665633802817034","683","327","true","1","135.60000000000002","19.2","2","-1","-1","","","","","","","","","","","","",""
"psychophysics","15","76162","0.0-6.0-0.9","5e0e6a63a7fba65b0b863ccf","609006691f6f4e337c17f836","609a6efab0eb9c37d485db36","1308","","","","39","","","","key","16.665693430656912","683","327","true","1","135.60000000000002","19.2","2","-1","-1","","","","","","","","","","","","",""
"psychophysics","16","78394","0.0-6.0-0.10","5e0e6a63a7fba65b0b863ccf","609006691f6f4e337c17f836","609a6efab0eb9c37d485db36","1219","","","","39","","","","key","16.665563909774466","683","327","true","1","129","19.2","2","-1","-1","","","","","","","","","","","","",""
"psychophysics","17","80558","0.0-6.0-0.11","5e0e6a63a7fba65b0b863ccf","609006691f6f4e337c17f836","609a6efab0eb9c37d485db36","1143","","","","39","","","","key","16.665736434108563","683","327","true","1","129","19.2","2","-1","-1","","","","","","","","","","","","",""
"psychophysics","18","82397","0.0-6.0-0.12","5e0e6a63a7fba65b0b863ccf","609006691f6f4e337c17f836","609a6efab0eb9c37d485db36","822","","","","39","","","","key","16.665321100917467","683","327","true","1","129","19.2","2","-1","-1","","","","","","","","","","","","",""
"psychophysics","19","84406","0.0-6.0-0.13","5e0e6a63a7fba65b0b863ccf","609006691f6f4e337c17f836","609a6efab0eb9c37d485db36","991","","","","39","","","","key","16.665833333333286","683","327","true","-1","129","15.36","3","1","-1","","","","","","","","","","","","",""
"psychophysics","20","85640","0.0-6.0-0.14","5e0e6a63a7fba65b0b863ccf","609006691f6f4e337c17f836","609a6efab0eb9c37d485db36","225","","","","39","","","","key","16.66602739726041","683","327","true","1","144.36","15.36","3","-1","1","","","","","","","","","","","","",""
"psychophysics","21","86709","0.0-6.0-0.15","5e0e6a63a7fba65b0b863ccf","609006691f6f4e337c17f836","609a6efab0eb9c37d485db36","55","","","","37","","","","key","16.665396825396797","683","327","true","-1","144.36","12.287999999999998","4","-1","-1","","","","","","","","","","","","",""
"psychophysics","22","89709","0.0-6.0-0.16","5e0e6a63a7fba65b0b863ccf","609006691f6f4e337c17f836","609a6efab0eb9c37d485db36","1994","","","","39","","","","key","16.66558659217877","683","327","true","1","132.072","12.287999999999998","4","-1","-1","","","","","","","","","","","","",""
"psychophysics","23","91371","0.0-6.0-0.17","5e0e6a63a7fba65b0b863ccf","609006691f6f4e337c17f836","609a6efab0eb9c37d485db36","656","","","","39","","","","key","16.66585858585857","683","327","true","1","132.072","12.287999999999998","4","-1","-1","","","","","","","","","","","","",""
"psychophysics","24","93062","0.0-6.0-0.18","5e0e6a63a7fba65b0b863ccf","609006691f6f4e337c17f836","609a6efab0eb9c37d485db36","688","","","","39","","","","key","16.665199999999896","683","327","true","1","129","12.287999999999998","4","-1","-1","","","","","","","","","","","","",""
"psychophysics","25","94678","0.0-6.0-0.19","5e0e6a63a7fba65b0b863ccf","609006691f6f4e337c17f836","609a6efab0eb9c37d485db36","604","","","","39","","","","key","16.66604166666669","683","327","true","1","129","12.287999999999998","4","-1","-1","","","","","","","","","","","","",""
"psychophysics","26","96431","0.0-6.0-0.20","5e0e6a63a7fba65b0b863ccf","609006691f6f4e337c17f836","609a6efab0eb9c37d485db36","736","","","","37","","","","key","16.665384615384728","683","327","true","1","129","9.8304","5","1","-1","","","","","","","","","","","","",""
"psychophysics","27","97517","0.0-6.0-0.21","5e0e6a63a7fba65b0b863ccf","609006691f6f4e337c17f836","609a6efab0eb9c37d485db36","71","","","","39","","","","key","16.66562500000009","683","327","true","1","138.8304","9.8304","5","-1","1","","","","","","","","","","","","",""
"psychophysics","28","98528","0.0-6.0-0.22","5e0e6a63a7fba65b0b863ccf","609006691f6f4e337c17f836","609a6efab0eb9c37d485db36","3","","","","37","","","","key","16.665666666666706","683","327","true","-1","138.8304","7.864319999999999","6","-1","-1","","","","","","","","","","","","",""
"psychophysics","29","100741","0.0-6.0-0.23","5e0e6a63a7fba65b0b863ccf","609006691f6f4e337c17f836","609a6efab0eb9c37d485db36","1197","","","","37","","","","key","16.66575757575761","683","327","true","1","130.96608","6.291456","7","1","-1","","","","","","","","","","","","",""
"psychophysics","30","102768","0.0-6.0-0.24","5e0e6a63a7fba65b0b863ccf","609006691f6f4e337c17f836","609a6efab0eb9c37d485db36","1023","","","","39","","","","key","16.66561983471081","683","327","true","1","137.25753600000002","6.291456","7","-1","1","","","","","","","","","","","","",""
"psychophysics","31","104446","0.0-6.0-0.25","5e0e6a63a7fba65b0b863ccf","609006691f6f4e337c17f836","609a6efab0eb9c37d485db36","661","","","","39","","","","key","16.66585858585857","683","327","true","1","137.25753600000002","5.033164800000001","8","-1","-1","","","","","","","","","","","","",""
"psychophysics","32","107375","0.0-6.0-0.26","5e0e6a63a7fba65b0b863ccf","609006691f6f4e337c17f836","609a6efab0eb9c37d485db36","1911","","","","39","","","","key","16.665714285714287","683","327","true","-1","132.2243712","4.0265318400000005","9","1","-1","","","","","","","","","","","","",""
"psychophysics","33","109074","0.0-6.0-0.27","5e0e6a63a7fba65b0b863ccf","609006691f6f4e337c17f836","609a6efab0eb9c37d485db36","679","","","","39","","","","key","16.66574257425748","683","327","true","-1","136.25090304","4.0265318400000005","9","1","1","","","","","","","","","","","","",""
"psychophysics","34","110150","0.0-6.0-0.28","5e0e6a63a7fba65b0b863ccf","609006691f6f4e337c17f836","609a6efab0eb9c37d485db36","74","","","","37","","","","key","16.665937499999927","683","327","true","-1","140.27743488","4.0265318400000005","9","-1","1","","","","","","","","","","","","",""
"psychophysics","35","111176","0.0-6.0-0.29","5e0e6a63a7fba65b0b863ccf","609006691f6f4e337c17f836","609a6efab0eb9c37d485db36","21","","","","37","","","","key","16.665999999999865","683","327","true","-1","140.27743488","3.2212254720000004","10","-1","-1","","","","","","","","","","","","",""
"psychophysics","36","112361","0.0-6.0-0.30","5e0e6a63a7fba65b0b863ccf","609006691f6f4e337c17f836","609a6efab0eb9c37d485db36","167","","","","39","","","","key","16.665428571428595","683","327","true","1","137.05620940799997","3.2212254720000004","10","-1","-1","","","","","","","","","","","","",""
"psychophysics","37","115568","0.0-6.0-0.31","5e0e6a63a7fba65b0b863ccf","609006691f6f4e337c17f836","609a6efab0eb9c37d485db36","2193","","","","37","","","","key","16.665625000000016","683","327","true","-1","137.05620940799997","3.2212254720000004","10","-1","-1","","","","","","","","","","","","",""
"psychophysics","38","117623","0.0-6.0-0.32","5e0e6a63a7fba65b0b863ccf","609006691f6f4e337c17f836","609a6efab0eb9c37d485db36","1048","","","","37","","","","key","16.665901639344305","683","327","true","-1","133.83498393599996","3.2212254720000004","10","-1","-1","","","","","","","","","","","","",""
"psychophysics","39","119420","0.0-6.0-0.33","5e0e6a63a7fba65b0b863ccf","609006691f6f4e337c17f836","609a6efab0eb9c37d485db36","785","","","","37","","","","key","16.665607476635525","683","327","true","1","133.83498393599996","2.5769803776000004","11","1","-1","","","","","","","","","","","","",""
"psychophysics","40","120517","0.0-6.0-0.34","5e0e6a63a7fba65b0b863ccf","609006691f6f4e337c17f836","609a6efab0eb9c37d485db36","82","","","","37","","","","key","16.665538461538606","683","327","true","-1","136.41196431359995","2.5769803776000004","11","-1","1","","","","","","","","","","","","",""
"psychophysics","41","122033","0.0-6.0-0.35","5e0e6a63a7fba65b0b863ccf","609006691f6f4e337c17f836","609a6efab0eb9c37d485db36","499","","","","39","","","","key","16.66577777777776","683","327","true","1","136.41196431359995","2.0615843020800004","12","-1","-1","","","","","","","","","","","","",""
"psychophysics","42","124340","0.0-6.0-0.36","5e0e6a63a7fba65b0b863ccf","609006691f6f4e337c17f836","609a6efab0eb9c37d485db36","1305","","","","39","","","","key","16.66554744525553","683","327","true","-1","134.35038001151995","1.6492674416640005","13","1","-1","","","","","","","","","","","","",""
"psychophysics","43","125982","0.0-6.0-0.37","5e0e6a63a7fba65b0b863ccf","609006691f6f4e337c17f836","609a6efab0eb9c37d485db36","637","","","","39","","","","key","16.66571428571434","683","327","true","-1","135.99964745318394","1.6492674416640005","13","1","1","","","","","","","","","","","","",""
"psychophysics","44","127072","0.0-6.0-0.38","5e0e6a63a7fba65b0b863ccf","609006691f6f4e337c17f836","609a6efab0eb9c37d485db36","87","","","","37","","","","key","16.665312500000027","683","327","true","-1","137.64891489484793","1.6492674416640005","13","-1","1","","","","","","","","","","","","",""
"psychophysics","45","128188","0.0-6.0-0.39","5e0e6a63a7fba65b0b863ccf","609006691f6f4e337c17f836","609a6efab0eb9c37d485db36","104","","","","37","","","","key","16.66545454545452","683","327","true","-1","137.64891489484793","1.3194139533312006","14","-1","-1","","","","","","","","","","","","",""
"html-keyboard-response","46","129976","0.0-7.0","5e0e6a63a7fba65b0b863ccf","609006691f6f4e337c17f836","609a6efab0eb9c37d485db36","1787","<p>Well Done !</p><p>Prepare for a new block.</p><p>DON'T EXIT THE FULL SCREEN MODE</p><p>Press the Spacebar to start.</p>","","","32","","","","","","","","","","","","","","","true","136.43612350463997","","","","","","","","","","",""
"psychophysics","47","131579","0.0-8.0-0.0","5e0e6a63a7fba65b0b863ccf","609006691f6f4e337c17f836","609a6efab0eb9c37d485db36","595","","","","37","","","","key","16.66547368421054","683","327","true","1","180","30","0","1","","","","","","","","","","","","","",""
"psychophysics","48","132589","0.0-8.0-0.1","5e0e6a63a7fba65b0b863ccf","609006691f6f4e337c17f836","609a6efab0eb9c37d485db36","4","","","","37","","","","key","16.665666666666706","683","327","true","-1","210","30","0","-1","1","","","","","","","","","","","","",""
"psychophysics","49","133627","0.0-8.0-0.2","5e0e6a63a7fba65b0b863ccf","609006691f6f4e337c17f836","609a6efab0eb9c37d485db36","23","","","","39","","","","key","16.6655737704919","683","327","true","1","210","24","1","-1","-1","","","","","","","","","","","","",""
"psychophysics","50","135121","0.0-8.0-0.3","5e0e6a63a7fba65b0b863ccf","609006691f6f4e337c17f836","609a6efab0eb9c37d485db36","476","","","","39","","","","key","16.665617977527987","683","327","true","1","186","24","1","-1","-1","","","","","","","","","","","","",""
"psychophysics","51","136515","0.0-8.0-0.4","5e0e6a63a7fba65b0b863ccf","609006691f6f4e337c17f836","609a6efab0eb9c37d485db36","390","","","","37","","","","key","16.665783132530233","683","327","true","-1","186","24","1","-1","-1","","","","","","","","","","","","",""
"psychophysics","52","137557","0.0-8.0-0.5","5e0e6a63a7fba65b0b863ccf","609006691f6f4e337c17f836","609a6efab0eb9c37d485db36","33","","","","37","","","","key","16.6655737704919","683","327","true","-1","162","24","1","-1","-1","","","","","","","","","","","","",""
"psychophysics","53","139121","0.0-8.0-0.6","5e0e6a63a7fba65b0b863ccf","609006691f6f4e337c17f836","609a6efab0eb9c37d485db36","556","","","","37","","","","key","16.66537634408607","683","327","true","-1","162","24","1","-1","-1","","","","","","","","","","","","",""
"psychophysics","54","140344","0.0-8.0-0.7","5e0e6a63a7fba65b0b863ccf","609006691f6f4e337c17f836","609a6efab0eb9c37d485db36","219","","","","39","","","","key","16.66555555555533","683","327","true","1","138","24","1","-1","-1","","","","","","","","","","","","",""
"psychophysics","55","141788","0.0-8.0-0.8","5e0e6a63a7fba65b0b863ccf","609006691f6f4e337c17f836","609a6efab0eb9c37d485db36","444","","","","37","","","","key","16.66581395348848","683","327","true","-1","138","24","1","-1","-1","","","","","","","","","","","","",""
"psychophysics","56","145428","0.0-8.0-0.9","5e0e6a63a7fba65b0b863ccf","609006691f6f4e337c17f836","609a6efab0eb9c37d485db36","2624","","","","39","","","","key","16.665714285714248","683","327","true","1","129","24","1","-1","-1","","","","","","","","","","","","",""
"psychophysics","57","148250","0.0-8.0-0.10","5e0e6a63a7fba65b0b863ccf","609006691f6f4e337c17f836","609a6efab0eb9c37d485db36","1806","","","","39","","","","key","16.665798816567985","683","327","true","-1","129","19.2","2","1","-1","","","","","","","","","","","","",""
"psychophysics","58","149551","0.0-8.0-0.11","5e0e6a63a7fba65b0b863ccf","609006691f6f4e337c17f836","609a6efab0eb9c37d485db36","296","","","","37","","","","key","16.665454545454804","683","327","true","-1","148.2","19.2","2","-1","1","","","","","","","","","","","","",""
"psychophysics","59","150598","0.0-8.0-0.12","5e0e6a63a7fba65b0b863ccf","609006691f6f4e337c17f836","609a6efab0eb9c37d485db36","44","","","","39","","","","key","16.66516129032243","683","327","true","1","148.2","15.36","3","-1","-1","","","","","","","","","","","","",""
"psychophysics","60","153452","0.0-8.0-0.13","5e0e6a63a7fba65b0b863ccf","609006691f6f4e337c17f836","609a6efab0eb9c37d485db36","1838","","","","39","","","","key","16.666000000000007","683","327","true","1","132.83999999999997","15.36","3","-1","-1","","","","","","","","","","","","",""
"psychophysics","61","155387","0.0-8.0-0.14","5e0e6a63a7fba65b0b863ccf","609006691f6f4e337c17f836","609a6efab0eb9c37d485db36","933","","","","39","","","","key","16.665565217391123","683","327","true","-1","132.83999999999997","12.287999999999998","4","1","-1","","","","","","","","","","","","",""
"psychophysics","62","156533","0.0-8.0-0.15","5e0e6a63a7fba65b0b863ccf","609006691f6f4e337c17f836","609a6efab0eb9c37d485db36","139","","","","37","","","","key","16.66588235294116","683","327","true","-1","145.128","12.287999999999998","4","-1","1","","","","","","","","","","","","",""
"psychophysics","63","157916","0.0-8.0-0.16","5e0e6a63a7fba65b0b863ccf","609006691f6f4e337c17f836","609a6efab0eb9c37d485db36","381","","","","39","","","","key","16.665853658536655","683","327","true","1","145.128","9.8304","5","-1","-1","","","","","","","","","","","","",""
"psychophysics","64","158965","0.0-8.0-0.17","5e0e6a63a7fba65b0b863ccf","609006691f6f4e337c17f836","609a6efab0eb9c37d485db36","30","","","","37","","","","key","16.66516129032243","683","327","true","-1","135.2976","9.8304","5","-1","-1","","","","","","","","","","","","",""
"psychophysics","65","160363","0.0-8.0-0.18","5e0e6a63a7fba65b0b863ccf","609006691f6f4e337c17f836","609a6efab0eb9c37d485db36","389","","","","37","","","","key","16.666024096385527","683","327","true","-1","135.2976","9.8304","5","-1","-1","","","","","","","","","","","","",""
"psychophysics","66","162587","0.0-8.0-0.19","5e0e6a63a7fba65b0b863ccf","609006691f6f4e337c17f836","609a6efab0eb9c37d485db36","1212","","","","39","","","","key","16.665606060606176","683","327","true","1","129","9.8304","5","-1","-1","","","","","","","","","","","","",""
"psychophysics","67","165745","0.0-8.0-0.20","5e0e6a63a7fba65b0b863ccf","609006691f6f4e337c17f836","609a6efab0eb9c37d485db36","2151","","","","39","","","","key","16.66553191489359","683","327","true","-1","129","7.864319999999999","6","1","-1","","","","","","","","","","","","",""
"psychophysics","68","166835","0.0-8.0-0.21","5e0e6a63a7fba65b0b863ccf","609006691f6f4e337c17f836","609a6efab0eb9c37d485db36","80","","","","37","","","","key","16.666153846153666","683","327","true","-1","136.86432","7.864319999999999","6","-1","1","","","","","","","","","","","","",""
"psychophysics","69","168186","0.0-8.0-0.22","5e0e6a63a7fba65b0b863ccf","609006691f6f4e337c17f836","609a6efab0eb9c37d485db36","332","","","","37","","","","key","16.665499999999884","683","327","true","-1","136.86432","6.291456","7","-1","-1","","","","","","","","","","","","",""
"psychophysics","70","170036","0.0-8.0-0.23","5e0e6a63a7fba65b0b863ccf","609006691f6f4e337c17f836","609a6efab0eb9c37d485db36","843","","","","37","","","","key","16.66563636363611","683","327","true","-1","130.57286399999998","6.291456","7","-1","-1","","","","","","","","","","","","",""
"psychophysics","71","172923","0.0-8.0-0.24","5e0e6a63a7fba65b0b863ccf","609006691f6f4e337c17f836","609a6efab0eb9c37d485db36","1869","","","","39","","","","key","16.665581395348728","683","327","true","1","130.57286399999998","6.291456","7","-1","-1","","","","","","","","","","","","",""
"psychophysics","72","174538","0.0-8.0-0.25","5e0e6a63a7fba65b0b863ccf","609006691f6f4e337c17f836","609a6efab0eb9c37d485db36","603","","","","39","","","","key","16.665833333333467","683","327","true","1","129","6.291456","7","-1","-1","","","","","","","","","","","","",""
"psychophysics","73","176803","0.0-8.0-0.26","5e0e6a63a7fba65b0b863ccf","609006691f6f4e337c17f836","609a6efab0eb9c37d485db36","1248","","","","39","","","","key","16.665629629629525","683","327","true","-1","129","5.033164800000001","8","1","-1","","","","","","","","","","","","",""
"psychophysics","74","179251","0.0-8.0-0.27","5e0e6a63a7fba65b0b863ccf","609006691f6f4e337c17f836","609a6efab0eb9c37d485db36","1435","","","","39","","","","key","16.665479452054818","683","327","true","-1","134.0331648","5.033164800000001","8","1","1","","","","","","","","","","","","",""
"psychophysics","75","180524","0.0-8.0-0.28","5e0e6a63a7fba65b0b863ccf","609006691f6f4e337c17f836","609a6efab0eb9c37d485db36","268","","","","39","","","","key","16.665866666666698","683","327","true","1","139.06632960000002","5.033164800000001","8","-1","1","","","","","","","","","","","","",""
"psychophysics","76","181834","0.0-8.0-0.29","5e0e6a63a7fba65b0b863ccf","609006691f6f4e337c17f836","609a6efab0eb9c37d485db36","299","","","","39","","","","key","16.665384615384912","683","327","true","1","139.06632960000002","4.0265318400000005","9","-1","-1","","","","","","","","","","","","",""
"psychophysics","77","182866","0.0-8.0-0.30","5e0e6a63a7fba65b0b863ccf","609006691f6f4e337c17f836","609a6efab0eb9c37d485db36","11","","","","39","","","","key","16.665901639344664","683","327","true","1","135.03979776000003","4.0265318400000005","9","-1","-1","","","","","","","","","","","","",""
"psychophysics","78","184237","0.0-8.0-0.31","5e0e6a63a7fba65b0b863ccf","609006691f6f4e337c17f836","609a6efab0eb9c37d485db36","362","","","","39","","","","key","16.665679012345837","683","327","true","1","135.03979776000003","4.0265318400000005","9","-1","-1","","","","","","","","","","","","",""
"psychophysics","79","185846","0.0-8.0-0.32","5e0e6a63a7fba65b0b863ccf","609006691f6f4e337c17f836","609a6efab0eb9c37d485db36","590","","","","37","","","","key","16.665416666666715","683","327","true","1","131.01326592000004","3.2212254720000004","10","1","-1","","","","","","","","","","","","",""
"psychophysics","80","187250","0.0-8.0-0.33","5e0e6a63a7fba65b0b863ccf","609006691f6f4e337c17f836","609a6efab0eb9c37d485db36","396","","","","39","","","","key","16.666024096385527","683","327","true","1","134.23449139200005","3.2212254720000004","10","-1","1","","","","","","","","","","","","",""
"psychophysics","81","193346","0.0-8.0-0.34","5e0e6a63a7fba65b0b863ccf","609006691f6f4e337c17f836","609a6efab0eb9c37d485db36","5091","","","","39","","","","key","16.665698630137015","683","327","true","-1","134.23449139200005","2.5769803776000004","11","1","-1","","","","","","","","","","","","",""
"psychophysics","82","194519","0.0-8.0-0.35","5e0e6a63a7fba65b0b863ccf","609006691f6f4e337c17f836","609a6efab0eb9c37d485db36","164","","","","37","","","","key","16.665507246376997","683","327","true","-1","136.81147176960005","2.5769803776000004","11","-1","1","","","","","","","","","","","","",""
"psychophysics","83","195653","0.0-8.0-0.36","5e0e6a63a7fba65b0b863ccf","609006691f6f4e337c17f836","609a6efab0eb9c37d485db36","118","","","","39","","","","key","16.665671641791132","683","327","true","1","136.81147176960005","2.0615843020800004","12","-1","-1","","","","","","","","","","","","",""
"psychophysics","84","198072","0.0-8.0-0.37","5e0e6a63a7fba65b0b863ccf","609006691f6f4e337c17f836","609a6efab0eb9c37d485db36","1417","","","","39","","","","key","16.66555555555553","683","327","true","1","134.74988746752004","2.0615843020800004","12","-1","-1","","","","","","","","","","","","",""
"psychophysics","85","201000","0.0-8.0-0.38","5e0e6a63a7fba65b0b863ccf","609006691f6f4e337c17f836","609a6efab0eb9c37d485db36","1925","","","","37","","","","key","16.665600000000058","683","327","true","1","134.74988746752004","1.6492674416640005","13","1","-1","","","","","","","","","","","","",""
"psychophysics","86","202532","0.0-8.0-0.39","5e0e6a63a7fba65b0b863ccf","609006691f6f4e337c17f836","609a6efab0eb9c37d485db36","517","","","","37","","","","key","16.665714285714145","683","327","true","-1","136.39915490918403","1.6492674416640005","13","-1","1","","","","","","","","","","","","",""
"html-keyboard-response","87","203737","0.0-9.0","5e0e6a63a7fba65b0b863ccf","609006691f6f4e337c17f836","609a6efab0eb9c37d485db36","1205","<p>Well Done !</p><p>Prepare for a new block.</p><p>DON'T EXIT THE FULL SCREEN MODE</p><p>Press the Spacebar to start.</p>","","","32","","","","","","","","","","","","","","","true","134.61663610716164","","","","","","","","","","",""
"psychophysics","88","206830","0.0-10.0-0.0","5e0e6a63a7fba65b0b863ccf","609006691f6f4e337c17f836","609a6efab0eb9c37d485db36","2075","","","","37","","","","key","16.665297297297386","683","327","true","1","180","30","0","1","","","","","","","","","","","","","",""
"psychophysics","89","207880","0.0-10.0-0.1","5e0e6a63a7fba65b0b863ccf","609006691f6f4e337c17f836","609a6efab0eb9c37d485db36","45","","","","37","","","","key","16.665483870967424","683","327","true","-1","210","30","0","-1","1","","","","","","","","","","","","",""
"psychophysics","90","209273","0.0-10.0-0.2","5e0e6a63a7fba65b0b863ccf","609006691f6f4e337c17f836","609a6efab0eb9c37d485db36","383","","","","39","","","","key","16.665365853658507","683","327","true","1","210","24","1","-1","-1","","","","","","","","","","","","",""
"psychophysics","91","210645","0.0-10.0-0.3","5e0e6a63a7fba65b0b863ccf","609006691f6f4e337c17f836","609a6efab0eb9c37d485db36","354","","","","39","","","","key","16.665853658536303","683","327","true","1","186","24","1","-1","-1","","","","","","","","","","","","",""
"psychophysics","92","212058","0.0-10.0-0.4","5e0e6a63a7fba65b0b863ccf","609006691f6f4e337c17f836","609a6efab0eb9c37d485db36","404","","","","37","","","","key","16.665542168674587","683","327","true","-1","186","24","1","-1","-1","","","","","","","","","","","","",""
"psychophysics","93","213247","0.0-10.0-0.5","5e0e6a63a7fba65b0b863ccf","609006691f6f4e337c17f836","609a6efab0eb9c37d485db36","182","","","","37","","","","key","16.665633802817034","683","327","true","-1","162","24","1","-1","-1","","","","","","","","","","","","",""
"psychophysics","94","214739","0.0-10.0-0.6","5e0e6a63a7fba65b0b863ccf","609006691f6f4e337c17f836","609a6efab0eb9c37d485db36","474","","","","39","","","","key","16.66545454545452","683","327","true","1","162","24","1","-1","-1","","","","","","","","","","","","",""
"psychophysics","95","215904","0.0-10.0-0.7","5e0e6a63a7fba65b0b863ccf","609006691f6f4e337c17f836","609a6efab0eb9c37d485db36","159","","","","37","","","","key","16.665507246376997","683","327","true","-1","138","24","1","-1","-1","","","","","","","","","","","","",""
"psychophysics","96","217091","0.0-10.0-0.8","5e0e6a63a7fba65b0b863ccf","609006691f6f4e337c17f836","609a6efab0eb9c37d485db36","167","","","","39","","","","key","16.66571428571437","683","327","true","1","138","24","1","-1","-1","","","","","","","","","","","","",""
"psychophysics","97","219133","0.0-10.0-0.9","5e0e6a63a7fba65b0b863ccf","609006691f6f4e337c17f836","609a6efab0eb9c37d485db36","1029","","","","37","","","","key","16.665737704918044","683","327","true","-1","129","24","1","-1","-1","","","","","","","","","","","","",""
"psychophysics","98","222278","0.0-10.0-0.10","5e0e6a63a7fba65b0b863ccf","609006691f6f4e337c17f836","609a6efab0eb9c37d485db36","2133","","","","37","","","","key","16.665638297872416","683","327","true","1","129","19.2","2","1","-1","","","","","","","","","","","","",""
"psychophysics","99","223399","0.0-10.0-0.11","5e0e6a63a7fba65b0b863ccf","609006691f6f4e337c17f836","609a6efab0eb9c37d485db36","114","","","","37","","","","key","16.6654545454543","683","327","true","-1","148.2","19.2","2","-1","1","","","","","","","","","","","","",""
"psychophysics","100","224803","0.0-10.0-0.12","5e0e6a63a7fba65b0b863ccf","609006691f6f4e337c17f836","609a6efab0eb9c37d485db36","399","","","","37","","","","key","16.665542168674587","683","327","true","-1","148.2","15.36","3","-1","-1","","","","","","","","","","","","",""
"psychophysics","101","226733","0.0-10.0-0.13","5e0e6a63a7fba65b0b863ccf","609006691f6f4e337c17f836","609a6efab0eb9c37d485db36","928","","","","39","","","","key","16.665565217391375","683","327","true","-1","132.83999999999997","12.287999999999998","4","1","-1","","","","","","","","","","","","",""
"psychophysics","102","228014","0.0-10.0-0.14","5e0e6a63a7fba65b0b863ccf","609006691f6f4e337c17f836","609a6efab0eb9c37d485db36","270","","","","39","","","","key","16.665526315789688","683","327","true","1","145.128","12.287999999999998","4","-1","1","","","","","","","","","","","","",""
"psychophysics","103","230997","0.0-10.0-0.15","5e0e6a63a7fba65b0b863ccf","609006691f6f4e337c17f836","609a6efab0eb9c37d485db36","1972","","","","39","","","","key","16.665617977527987","683","327","true","1","145.128","9.8304","5","-1","-1","","","","","","","","","","","","",""
"psychophysics","104","232099","0.0-10.0-0.16","5e0e6a63a7fba65b0b863ccf","609006691f6f4e337c17f836","609a6efab0eb9c37d485db36","99","","","","39","","","","key","16.66553846153816","683","327","true","1","135.2976","9.8304","5","-1","-1","","","","","","","","","","","","",""
"psychophysics","105","233264","0.0-10.0-0.17","5e0e6a63a7fba65b0b863ccf","609006691f6f4e337c17f836","609a6efab0eb9c37d485db36","150","","","","37","","","","key","16.665217391304264","683","327","true","-1","135.2976","9.8304","5","-1","-1","","","","","","","","","","","","",""
"psychophysics","106","237012","0.0-10.0-0.18","5e0e6a63a7fba65b0b863ccf","609006691f6f4e337c17f836","609a6efab0eb9c37d485db36","2738","","","","39","","","","key","16.665625000000027","683","327","true","-1","129","7.864319999999999","6","1","-1","","","","","","","","","","","","",""
"psychophysics","107","238968","0.0-10.0-0.19","5e0e6a63a7fba65b0b863ccf","609006691f6f4e337c17f836","609a6efab0eb9c37d485db36","933","","","","39","","","","key","16.665862068965687","683","327","true","-1","136.86432","7.864319999999999","6","1","1","","","","","","","","","","","","",""
"psychophysics","108","240290","0.0-10.0-0.20","5e0e6a63a7fba65b0b863ccf","609006691f6f4e337c17f836","609a6efab0eb9c37d485db36","313","","","","39","","","","key","16.665897435897467","683","327","true","1","144.72863999999998","7.864319999999999","6","-1","1","","","","","","","","","","","","",""
"psychophysics","109","241596","0.0-10.0-0.21","5e0e6a63a7fba65b0b863ccf","609006691f6f4e337c17f836","609a6efab0eb9c37d485db36","292","","","","37","","","","key","16.66538461538454","683","327","true","-1","144.72863999999998","6.291456","7","-1","-1","","","","","","","","","","","","",""
"psychophysics","110","242904","0.0-10.0-0.22","5e0e6a63a7fba65b0b863ccf","609006691f6f4e337c17f836","609a6efab0eb9c37d485db36","299","","","","37","","","","key","16.665454545454804","683","327","true","-1","138.43718399999997","6.291456","7","-1","-1","","","","","","","","","","","","",""
"psychophysics","111","244227","0.0-10.0-0.23","5e0e6a63a7fba65b0b863ccf","609006691f6f4e337c17f836","609a6efab0eb9c37d485db36","300","","","","39","","","","key","16.665316455696175","683","327","true","1","138.43718399999997","6.291456","7","-1","-1","","","","","","","","","","","","",""
"psychophysics","112","247348","0.0-10.0-0.24","5e0e6a63a7fba65b0b863ccf","609006691f6f4e337c17f836","609a6efab0eb9c37d485db36","2103","","","","39","","","","key","16.665913978494547","683","327","true","-1","132.14572799999996","5.033164800000001","8","1","-1","","","","","","","","","","","","",""
"psychophysics","113","248392","0.0-10.0-0.25","5e0e6a63a7fba65b0b863ccf","609006691f6f4e337c17f836","609a6efab0eb9c37d485db36","28","","","","39","","","","key","16.665806451612884","683","327","true","1","137.17889279999997","5.033164800000001","8","-1","1","","","","","","","","","","","","",""
"psychophysics","114","249510","0.0-10.0-0.26","5e0e6a63a7fba65b0b863ccf","609006691f6f4e337c17f836","609a6efab0eb9c37d485db36","105","","","","37","","","","key","16.665151515151425","683","327","true","-1","137.17889279999997","4.0265318400000005","9","-1","-1","","","","","","","","","","","","",""
"psychophysics","115","251063","0.0-10.0-0.27","5e0e6a63a7fba65b0b863ccf","609006691f6f4e337c17f836","609a6efab0eb9c37d485db36","538","","","","39","","","","key","16.66586956521749","683","327","true","1","133.15236095999998","4.0265318400000005","9","-1","-1","","","","","","","","","","","","",""
"psychophysics","116","255007","0.0-10.0-0.28","5e0e6a63a7fba65b0b863ccf","609006691f6f4e337c17f836","609a6efab0eb9c37d485db36","2942","","","","39","","","","key","16.665702127659586","683","327","true","1","133.15236095999998","4.0265318400000005","9","-1","-1","","","","","","","","","","","","",""
"psychophysics","117","257179","0.0-10.0-0.29","5e0e6a63a7fba65b0b863ccf","609006691f6f4e337c17f836","609a6efab0eb9c37d485db36","1153","","","","39","","","","key","16.66584615384636","683","327","true","1","129.12582912","4.0265318400000005","9","-1","-1","","","","","","","","","","","","",""
"psychophysics","118","258800","0.0-10.0-0.30","5e0e6a63a7fba65b0b863ccf","609006691f6f4e337c17f836","609a6efab0eb9c37d485db36","615","","","","39","","","","key","16.665416666666715","683","327","true","1","129.12582912","4.0265318400000005","9","-1","-1","","","","","","","","","","","","",""
"psychophysics","119","260398","0.0-10.0-0.31","5e0e6a63a7fba65b0b863ccf","609006691f6f4e337c17f836","609a6efab0eb9c37d485db36","594","","","","39","","","","key","16.66568421052622","683","327","true","1","129","4.0265318400000005","9","-1","-1","","","","","","","","","","","","",""
"psychophysics","120","262007","0.0-10.0-0.32","5e0e6a63a7fba65b0b863ccf","609006691f6f4e337c17f836","609a6efab0eb9c37d485db36","603","","","","39","","","","key","16.66604166666669","683","327","true","1","129","4.0265318400000005","9","-1","-1","","","","","","","","","","","","",""
"psychophysics","121","263617","0.0-10.0-0.33","5e0e6a63a7fba65b0b863ccf","609006691f6f4e337c17f836","609a6efab0eb9c37d485db36","603","","","","39","","","","key","16.66568421052622","683","327","true","-1","129","3.2212254720000004","10","1","-1","","","","","","","","","","","","",""
"psychophysics","122","265639","0.0-10.0-0.34","5e0e6a63a7fba65b0b863ccf","609006691f6f4e337c17f836","609a6efab0eb9c37d485db36","1005","","","","37","","","","key","16.665666666666706","683","327","true","1","132.22122547200001","3.2212254720000004","10","1","1","","","","","","","","","","","","",""
"psychophysics","123","266980","0.0-10.0-0.35","5e0e6a63a7fba65b0b863ccf","609006691f6f4e337c17f836","609a6efab0eb9c37d485db36","326","","","","37","","","","key","16.665749999999388","683","327","true","-1","135.44245094400003","3.2212254720000004","10","-1","1","","","","","","","","","","","","",""
"psychophysics","124","268296","0.0-10.0-0.36","5e0e6a63a7fba65b0b863ccf","609006691f6f4e337c17f836","609a6efab0eb9c37d485db36","302","","","","37","","","","key","16.665641025640817","683","327","true","-1","135.44245094400003","2.5769803776000004","11","-1","-1","","","","","","","","","","","","",""
"psychophysics","125","270729","0.0-10.0-0.37","5e0e6a63a7fba65b0b863ccf","609006691f6f4e337c17f836","609a6efab0eb9c37d485db36","1415","","","","39","","","","key","16.66565517241392","683","327","true","-1","132.86547056640003","2.0615843020800004","12","1","-1","","","","","","","","","","","","",""
"psychophysics","126","273076","0.0-10.0-0.38","5e0e6a63a7fba65b0b863ccf","609006691f6f4e337c17f836","609a6efab0eb9c37d485db36","1342","","","","39","","","","key","16.66557142857138","683","327","true","-1","134.92705486848004","2.0615843020800004","12","1","1","","","","","","","","","","","","",""
"psychophysics","127","274411","0.0-10.0-0.39","5e0e6a63a7fba65b0b863ccf","609006691f6f4e337c17f836","609a6efab0eb9c37d485db36","315","","","","39","","","","key","16.665569620252633","683","327","true","1","136.98863917056005","2.0615843020800004","12","-1","1","","","","","","","","","","","","",""
"html-keyboard-response","128","275623","0.0-11.0","5e0e6a63a7fba65b0b863ccf","609006691f6f4e337c17f836","609a6efab0eb9c37d485db36","1212","<p>Well Done !</p><p>Prepare for a new block.</p><p>DON'T EXIT THE FULL SCREEN MODE</p><p>Press the Spacebar to start.</p>","","","32","","","","","","","","","","","","","","","true","132.920097181696","","","","","","","","","","",""
"psychophysics","129","277116","0.0-12.0-0.0","5e0e6a63a7fba65b0b863ccf","609006691f6f4e337c17f836","609a6efab0eb9c37d485db36","481","","","","37","","","","key","16.66545454545452","683","327","true","-1","180","30","0","-1","","","","","","","","","","","","","",""
"psychophysics","130","278471","0.0-12.0-0.1","5e0e6a63a7fba65b0b863ccf","609006691f6f4e337c17f836","609a6efab0eb9c37d485db36","347","","","","39","","","","key","16.665499999999884","683","327","true","1","180","30","0","-1","-1","","","","","","","","","","","","",""
"psychophysics","131","279713","0.0-12.0-0.2","5e0e6a63a7fba65b0b863ccf","609006691f6f4e337c17f836","609a6efab0eb9c37d485db36","229","","","","39","","","","key","16.66621621621606","683","327","true","1","150","30","0","-1","-1","","","","","","","","","","","","",""
"psychophysics","132","280920","0.0-12.0-0.3","5e0e6a63a7fba65b0b863ccf","609006691f6f4e337c17f836","609a6efab0eb9c37d485db36","196","","","","37","","","","key","16.665352112675926","683","327","true","-1","150","30","0","-1","-1","","","","","","","","","","","","",""
"psychophysics","133","282942","0.0-12.0-0.4","5e0e6a63a7fba65b0b863ccf","609006691f6f4e337c17f836","609a6efab0eb9c37d485db36","1017","","","","37","","","","key","16.665785123966923","683","327","true","-1","129","30","0","-1","-1","","","","","","","","","","","","",""
"psychophysics","134","285061","0.0-12.0-0.5","5e0e6a63a7fba65b0b863ccf","609006691f6f4e337c17f836","609a6efab0eb9c37d485db36","1116","","","","37","","","","key","16.66555555555591","683","327","true","-1","129","30","0","-1","-1","","","","","","","","","","","","",""
"psychophysics","135","286693","0.0-12.0-0.6","5e0e6a63a7fba65b0b863ccf","609006691f6f4e337c17f836","609a6efab0eb9c37d485db36","629","","","","37","","","","key","16.665360824742052","683","327","true","-1","129","30","0","-1","-1","","","","","","","","","","","","",""
"psychophysics","136","288265","0.0-12.0-0.7","5e0e6a63a7fba65b0b863ccf","609006691f6f4e337c17f836","609a6efab0eb9c37d485db36","560","","","","37","","","","key","16.665806451612728","683","327","true","-1","129","30","0","-1","-1","","","","","","","","","","","","",""
"psychophysics","137","290463","0.0-12.0-0.8","5e0e6a63a7fba65b0b863ccf","609006691f6f4e337c17f836","609a6efab0eb9c37d485db36","1189","","","","37","","","","key","16.665496183206052","683","327","true","1","129","24","1","1","-1","","","","","","","","","","","","",""
"psychophysics","138","291533","0.0-12.0-0.9","5e0e6a63a7fba65b0b863ccf","609006691f6f4e337c17f836","609a6efab0eb9c37d485db36","58","","","","37","","","","key","16.66603174603208","683","327","true","-1","153","24","1","-1","1","","","","","","","","","","","","",""
"psychophysics","139","292639","0.0-12.0-0.10","5e0e6a63a7fba65b0b863ccf","609006691f6f4e337c17f836","609a6efab0eb9c37d485db36","104","","","","37","","","","key","16.6654545454543","683","327","true","-1","153","19.2","2","-1","-1","","","","","","","","","","","","",""
"psychophysics","140","293952","0.0-12.0-0.11","5e0e6a63a7fba65b0b863ccf","609006691f6f4e337c17f836","609a6efab0eb9c37d485db36","294","","","","37","","","","key","16.665714285714408","683","327","true","-1","133.8","19.2","2","-1","-1","","","","","","","","","","","","",""
"psychophysics","141","296011","0.0-12.0-0.12","5e0e6a63a7fba65b0b863ccf","609006691f6f4e337c17f836","609a6efab0eb9c37d485db36","1055","","","","37","","","","key","16.665691056910607","683","327","true","-1","133.8","19.2","2","-1","-1","","","","","","","","","","","","",""
"psychophysics","142","297997","0.0-12.0-0.13","5e0e6a63a7fba65b0b863ccf","609006691f6f4e337c17f836","609a6efab0eb9c37d485db36","980","","","","39","","","","key","16.6655932203393","683","327","true","1","129","19.2","2","-1","-1","","","","","","","","","","","","",""
"psychophysics","143","299503","0.0-12.0-0.14","5e0e6a63a7fba65b0b863ccf","609006691f6f4e337c17f836","609a6efab0eb9c37d485db36","488","","","","39","","","","key","16.665617977527987","683","327","true","1","129","19.2","2","-1","-1","","","","","","","","","","","","",""
"psychophysics","144","301073","0.0-12.0-0.15","5e0e6a63a7fba65b0b863ccf","609006691f6f4e337c17f836","609a6efab0eb9c37d485db36","558","","","","39","","","","key","16.66574468085062","683","327","true","-1","129","15.36","3","1","-1","","","","","","","","","","","","",""
"psychophysics","145","302209","0.0-12.0-0.16","5e0e6a63a7fba65b0b863ccf","609006691f6f4e337c17f836","609a6efab0eb9c37d485db36","133","","","","39","","","","key","16.6653731343286","683","327","true","1","144.36","15.36","3","-1","1","","","","","","","","","","","","",""
"psychophysics","146","305086","0.0-12.0-0.17","5e0e6a63a7fba65b0b863ccf","609006691f6f4e337c17f836","609a6efab0eb9c37d485db36","1871","","","","39","","","","key","16.66561403508776","683","327","true","1","144.36","12.287999999999998","4","-1","-1","","","","","","","","","","","","",""
"psychophysics","147","306738","0.0-12.0-0.18","5e0e6a63a7fba65b0b863ccf","609006691f6f4e337c17f836","609a6efab0eb9c37d485db36","644","","","","39","","","","key","16.66585858585842","683","327","true","-1","132.072","9.8304","5","1","-1","","","","","","","","","","","","",""
"psychophysics","148","308723","0.0-12.0-0.19","5e0e6a63a7fba65b0b863ccf","609006691f6f4e337c17f836","609a6efab0eb9c37d485db36","967","","","","39","","","","key","16.6655932203393","683","327","true","1","141.9024","9.8304","5","-1","1","","","","","","","","","","","","",""
"psychophysics","149","310177","0.0-12.0-0.20","5e0e6a63a7fba65b0b863ccf","609006691f6f4e337c17f836","609a6efab0eb9c37d485db36","443","","","","39","","","","key","16.66581395348848","683","327","true","1","141.9024","7.864319999999999","6","-1","-1","","","","","","","","","","","","",""
"psychophysics","150","312138","0.0-12.0-0.21","5e0e6a63a7fba65b0b863ccf","609006691f6f4e337c17f836","609a6efab0eb9c37d485db36","944","","","","39","","","","key","16.665470085469966","683","327","true","1","134.03808","7.864319999999999","6","-1","-1","","","","","","","","","","","","",""
"psychophysics","151","313520","0.0-12.0-0.22","5e0e6a63a7fba65b0b863ccf","609006691f6f4e337c17f836","609a6efab0eb9c37d485db36","366","","","","39","","","","key","16.66543209876572","683","327","true","1","134.03808","7.864319999999999","6","-1","-1","","","","","","","","","","","","",""
"psychophysics","152","315197","0.0-12.0-0.23","5e0e6a63a7fba65b0b863ccf","609006691f6f4e337c17f836","609a6efab0eb9c37d485db36","662","","","","39","","","","key","16.665800000000164","683","327","true","-1","129","6.291456","7","1","-1","","","","","","","","","","","","",""
"psychophysics","153","316610","0.0-12.0-0.24","5e0e6a63a7fba65b0b863ccf","609006691f6f4e337c17f836","609a6efab0eb9c37d485db36","396","","","","39","","","","key","16.66547619047647","683","327","true","1","135.291456","6.291456","7","-1","1","","","","","","","","","","","","",""
"psychophysics","154","318323","0.0-12.0-0.25","5e0e6a63a7fba65b0b863ccf","609006691f6f4e337c17f836","609a6efab0eb9c37d485db36","707","","","","39","","","","key","16.665686274510033","683","327","true","-1","135.291456","5.033164800000001","8","1","-1","","","","","","","","","","","","",""
"psychophysics","155","319777","0.0-12.0-0.26","5e0e6a63a7fba65b0b863ccf","609006691f6f4e337c17f836","609a6efab0eb9c37d485db36","442","","","","37","","","","key","16.665348837209653","683","327","true","-1","140.32462080000002","5.033164800000001","8","-1","1","","","","","","","","","","","","",""
"psychophysics","156","321203","0.0-12.0-0.27","5e0e6a63a7fba65b0b863ccf","609006691f6f4e337c17f836","609a6efab0eb9c37d485db36","409","","","","39","","","","key","16.66611764705877","683","327","true","1","140.32462080000002","4.0265318400000005","9","-1","-1","","","","","","","","","","","","",""
"psychophysics","157","324232","0.0-12.0-0.28","5e0e6a63a7fba65b0b863ccf","609006691f6f4e337c17f836","609a6efab0eb9c37d485db36","2017","","","","39","","","","key","16.665555555555493","683","327","true","-1","136.29808896000003","3.2212254720000004","10","1","-1","","","","","","","","","","","","",""
"psychophysics","158","325635","0.0-12.0-0.29","5e0e6a63a7fba65b0b863ccf","609006691f6f4e337c17f836","609a6efab0eb9c37d485db36","401","","","","37","","","","key","16.665783132530233","683","327","true","-1","139.51931443200004","3.2212254720000004","10","-1","1","","","","","","","","","","","","",""
"psychophysics","159","327126","0.0-12.0-0.30","5e0e6a63a7fba65b0b863ccf","609006691f6f4e337c17f836","609a6efab0eb9c37d485db36","470","","","","39","","","","key","16.665617977527987","683","327","true","1","139.51931443200004","2.5769803776000004","11","-1","-1","","","","","","","","","","","","",""
"psychophysics","160","328302","0.0-12.0-0.31","5e0e6a63a7fba65b0b863ccf","609006691f6f4e337c17f836","609a6efab0eb9c37d485db36","168","","","","39","","","","key","16.66579710144931","683","327","true","1","136.94233405440005","2.5769803776000004","11","-1","-1","","","","","","","","","","","","",""
"psychophysics","161","330761","0.0-12.0-0.32","5e0e6a63a7fba65b0b863ccf","609006691f6f4e337c17f836","609a6efab0eb9c37d485db36","1447","","","","37","","","","key","16.66557823129269","683","327","true","1","136.94233405440005","2.0615843020800004","12","1","-1","","","","","","","","","","","","",""
"psychophysics","162","331888","0.0-12.0-0.33","5e0e6a63a7fba65b0b863ccf","609006691f6f4e337c17f836","609a6efab0eb9c37d485db36","114","","","","39","","","","key","16.665671641791565","683","327","true","1","139.00391835648006","2.0615843020800004","12","-1","1","","","","","","","","","","","","",""
"psychophysics","163","334416","0.0-12.0-0.34","5e0e6a63a7fba65b0b863ccf","609006691f6f4e337c17f836","609a6efab0eb9c37d485db36","1521","","","","39","","","","key","16.665866666666698","683","327","true","1","139.00391835648006","1.6492674416640005","13","-1","-1","","","","","","","","","","","","",""
"psychophysics","164","335747","0.0-12.0-0.35","5e0e6a63a7fba65b0b863ccf","609006691f6f4e337c17f836","609a6efab0eb9c37d485db36","312","","","","39","","","","key","16.665316455696175","683","327","true","1","137.35465091481606","1.6492674416640005","13","-1","-1","","","","","","","","","","","","",""
"psychophysics","165","337534","0.0-12.0-0.36","5e0e6a63a7fba65b0b863ccf","609006691f6f4e337c17f836","609a6efab0eb9c37d485db36","780","","","","37","","","","key","16.66584905660393","683","327","true","-1","137.35465091481606","1.6492674416640005","13","-1","-1","","","","","","","","","","","","",""
"psychophysics","166","339292","0.0-12.0-0.37","5e0e6a63a7fba65b0b863ccf","609006691f6f4e337c17f836","609a6efab0eb9c37d485db36","737","","","","37","","","","key","16.665714285713953","683","327","true","-1","135.70538347315207","1.6492674416640005","13","-1","-1","","","","","","","","","","","","",""
"psychophysics","167","340899","0.0-12.0-0.38","5e0e6a63a7fba65b0b863ccf","609006691f6f4e337c17f836","609a6efab0eb9c37d485db36","604","","","","37","","","","key","16.665473684210234","683","327","true","-1","135.70538347315207","1.6492674416640005","13","-1","-1","","","","","","","","","","","","",""
"psychophysics","168","342432","0.0-12.0-0.39","5e0e6a63a7fba65b0b863ccf","609006691f6f4e337c17f836","609a6efab0eb9c37d485db36","517","","","","39","","","","key","16.66593406593381","683","327","true","1","134.05611603148807","1.6492674416640005","13","-1","-1","","","","","","","","","","","","",""
"html-keyboard-response","169","343433","0.0-13.0","5e0e6a63a7fba65b0b863ccf","609006691f6f4e337c17f836","609a6efab0eb9c37d485db36","1002","<p>Well Done !</p><p>Prepare for a new block.</p><p>DON'T EXIT THE FULL SCREEN MODE</p><p>Press the Spacebar to start.</p>","","","32","","","","","","","","","","","","","","","true","137.55640700354567","","","","","","","","","","",""
"html-keyboard-response","170","343555","0.0-14.0","5e0e6a63a7fba65b0b863ccf","609006691f6f4e337c17f836","609a6efab0eb9c37d485db36","null","","","","null","","","","","","","","","","","","","","","","","135.38231594926083","true","142.76463189852166","","","","","","","",""
"instructions","171","365705","0.0-15.0","5e0e6a63a7fba65b0b863ccf","609006691f6f4e337c17f836","609a6efab0eb9c37d485db36","22148","","","","","","","[{""page_index"":0,""viewing_time"":17163},{""page_index"":1,""viewing_time"":2751},{""page_index"":2,""viewing_time"":2234}]","","","","","","","","","","","","","","","","","","","","","","","",""
"psychophysics","172","368736","0.0-16.0-0.0","5e0e6a63a7fba65b0b863ccf","609006691f6f4e337c17f836","609a6efab0eb9c37d485db36","null","","","","null","","","","key","16.66557377049142","683","327","","","","","","","","","","","","","","","","","","","",""
"psychophysics","173","369255","0.0-16.0-1.0","5e0e6a63a7fba65b0b863ccf","609006691f6f4e337c17f836","609a6efab0eb9c37d485db36","null","","","","null","","","","key","16.665333333332093","683","327","","","","","","","","","","","","","143","1","6","false","","","",""
"psychophysics","174","369731","0.0-16.0-2.0","5e0e6a63a7fba65b0b863ccf","609006691f6f4e337c17f836","609a6efab0eb9c37d485db36","475","","","","77","","","","key","16.665185185183805","683","327","","","","","","","","","","","","","","","","","","","",""
"psychophysics","175","370735","0.0-16.0-0.1","5e0e6a63a7fba65b0b863ccf","609006691f6f4e337c17f836","609a6efab0eb9c37d485db36","null","","","","null","","","","key","16.665666666666706","683","327","","","","","","","","","","","","","","","","","","","",""
"psychophysics","176","371255","0.0-16.0-1.1","5e0e6a63a7fba65b0b863ccf","609006691f6f4e337c17f836","609a6efab0eb9c37d485db36","null","","","","null","","","","key","16.665333333332093","683","327","","","","","","","","","","","","","143","1","3","false","","","",""
"psychophysics","177","371425","0.0-16.0-2.1","5e0e6a63a7fba65b0b863ccf","609006691f6f4e337c17f836","609a6efab0eb9c37d485db36","168","","","","77","","","","key","16.666666666666668","683","327","","","","","","","","","","","","","","","","","","","",""
"psychophysics","178","372435","0.0-16.0-0.2","5e0e6a63a7fba65b0b863ccf","609006691f6f4e337c17f836","609a6efab0eb9c37d485db36","null","","","","null","","","","key","16.665333333333063","683","327","","","","","","","","","","","","","","","","","","","",""
"psychophysics","179","372955","0.0-16.0-1.2","5e0e6a63a7fba65b0b863ccf","609006691f6f4e337c17f836","609a6efab0eb9c37d485db36","null","","","","null","","","","key","16.665333333334033","683","327","","","","","","","","","","","","","143","-1","0","false","","","",""
"psychophysics","180","373004","0.0-16.0-2.2","5e0e6a63a7fba65b0b863ccf","609006691f6f4e337c17f836","609a6efab0eb9c37d485db36","50","","","","90","","","","key","16.670000000012806","683","327","","","","","","","","","","","","","","","","","","","",""
"psychophysics","181","374015","0.0-16.0-0.3","5e0e6a63a7fba65b0b863ccf","609006691f6f4e337c17f836","609a6efab0eb9c37d485db36","null","","","","null","","","","key","16.66576271186488","683","327","","","","","","","","","","","","","","","","","","","",""
"psychophysics","182","374534","0.0-16.0-1.3","5e0e6a63a7fba65b0b863ccf","609006691f6f4e337c17f836","609a6efab0eb9c37d485db36","null","","","","null","","","","key","16.66516129032243","683","327","","","","","","","","","","","","","143","1","4","false","","","",""
"psychophysics","183","374624","0.0-16.0-2.3","5e0e6a63a7fba65b0b863ccf","609006691f6f4e337c17f836","609a6efab0eb9c37d485db36","89","","","","77","","","","key","16.669999999998254","683","327","","","","","","","","","","","","","","","","","","","",""
"psychophysics","184","375634","0.0-16.0-0.4","5e0e6a63a7fba65b0b863ccf","609006691f6f4e337c17f836","609a6efab0eb9c37d485db36","null","","","","null","","","","key","16.665333333333063","683","327","","","","","","","","","","","","","","","","","","","",""
"psychophysics","185","376154","0.0-16.0-1.4","5e0e6a63a7fba65b0b863ccf","609006691f6f4e337c17f836","609a6efab0eb9c37d485db36","null","","","","null","","","","key","16.665333333332093","683","327","","","","","","","","","","","","","143","-1","6","false","","","",""
"psychophysics","186","377118","0.0-16.0-2.4","5e0e6a63a7fba65b0b863ccf","609006691f6f4e337c17f836","609a6efab0eb9c37d485db36","963","","","","90","","","","key","16.66596491228005","683","327","","","","","","","","","","","","","","","","","","","",""
"psychophysics","187","378135","0.0-16.0-0.5","5e0e6a63a7fba65b0b863ccf","609006691f6f4e337c17f836","609a6efab0eb9c37d485db36","null","","","","null","","","","key","16.665666666666706","683","327","","","","","","","","","","","","","","","","","","","",""
"psychophysics","188","378654","0.0-16.0-1.5","5e0e6a63a7fba65b0b863ccf","609006691f6f4e337c17f836","609a6efab0eb9c37d485db36","null","","","","null","","","","key","16.665333333334033","683","327","","","","","","","","","","","","","143","-1","2","false","","","",""
"psychophysics","189","379029","0.0-16.0-2.5","5e0e6a63a7fba65b0b863ccf","609006691f6f4e337c17f836","609a6efab0eb9c37d485db36","374","","","","77","","","","key","16.666666666666668","683","327","","","","","","","","","","","","","","","","","","","",""
"psychophysics","190","380035","0.0-16.0-0.6","5e0e6a63a7fba65b0b863ccf","609006691f6f4e337c17f836","609a6efab0eb9c37d485db36","null","","","","null","","","","key","16.665666666666706","683","327","","","","","","","","","","","","","","","","","","","",""
"psychophysics","191","380554","0.0-16.0-1.6","5e0e6a63a7fba65b0b863ccf","609006691f6f4e337c17f836","609a6efab0eb9c37d485db36","null","","","","null","","","","key","16.665333333332093","683","327","","","","","","","","","","","","","143","1","2","false","","","",""
"psychophysics","192","381309","0.0-16.0-2.6","5e0e6a63a7fba65b0b863ccf","609006691f6f4e337c17f836","609a6efab0eb9c37d485db36","753","","","","90","","","","key","16.666363636363794","683","327","","","","","","","","","","","","","","","","","","","",""
"psychophysics","193","382314","0.0-16.0-0.7","5e0e6a63a7fba65b0b863ccf","609006691f6f4e337c17f836","609a6efab0eb9c37d485db36","null","","","","null","","","","key","16.665084745762552","683","327","","","","","","","","","","","","","","","","","","","",""
"psychophysics","194","382835","0.0-16.0-1.7","5e0e6a63a7fba65b0b863ccf","609006691f6f4e337c17f836","609a6efab0eb9c37d485db36","null","","","","null","","","","key","16.6664516129024","683","327","","","","","","","","","","","","","143","-1","5","false","","","",""
"psychophysics","195","382991","0.0-16.0-2.7","5e0e6a63a7fba65b0b863ccf","609006691f6f4e337c17f836","609a6efab0eb9c37d485db36","155","","","","77","","","","key","16.665000000000873","683","327","","","","","","","","","","","","","","","","","","","",""
"psychophysics","196","383995","0.0-16.0-0.8","5e0e6a63a7fba65b0b863ccf","609006691f6f4e337c17f836","609a6efab0eb9c37d485db36","null","","","","null","","","","key","16.665423728813717","683","327","","","","","","","","","","","","","","","","","","","",""
"psychophysics","197","384515","0.0-16.0-1.8","5e0e6a63a7fba65b0b863ccf","609006691f6f4e337c17f836","609a6efab0eb9c37d485db36","null","","","","null","","","","key","16.665333333332093","683","327","","","","","","","","","","","","","143","-1","3","false","","","",""
"psychophysics","198","384683","0.0-16.0-2.8","5e0e6a63a7fba65b0b863ccf","609006691f6f4e337c17f836","609a6efab0eb9c37d485db36","167","","","","77","","","","key","16.666666666666668","683","327","","","","","","","","","","","","","","","","","","","",""
"psychophysics","199","385695","0.0-16.0-0.9","5e0e6a63a7fba65b0b863ccf","609006691f6f4e337c17f836","609a6efab0eb9c37d485db36","null","","","","null","","","","key","16.665666666666706","683","327","","","","","","","","","","","","","","","","","","","",""
"psychophysics","200","386215","0.0-16.0-1.9","5e0e6a63a7fba65b0b863ccf","609006691f6f4e337c17f836","609a6efab0eb9c37d485db36","null","","","","null","","","","key","16.665333333334033","683","327","","","","","","","","","","","","","143","-1","4","false","","","",""
"psychophysics","201","386294","0.0-16.0-2.9","5e0e6a63a7fba65b0b863ccf","609006691f6f4e337c17f836","609a6efab0eb9c37d485db36","76","","","","77","","","","key","16.66500000000815","683","327","","","","","","","","","","","","","","","","","","","",""
"psychophysics","202","387315","0.0-16.0-0.10","5e0e6a63a7fba65b0b863ccf","609006691f6f4e337c17f836","609a6efab0eb9c37d485db36","null","","","","null","","","","key","16.66600000000035","683","327","","","","","","","","","","","","","","","","","","","",""
"psychophysics","203","387835","0.0-16.0-1.10","5e0e6a63a7fba65b0b863ccf","609006691f6f4e337c17f836","609a6efab0eb9c37d485db36","null","","","","null","","","","key","16.66516129032243","683","327","","","","","","","","","","","","","143","1","5","false","","","",""
"psychophysics","204","388767","0.0-16.0-2.10","5e0e6a63a7fba65b0b863ccf","609006691f6f4e337c17f836","609a6efab0eb9c37d485db36","931","","","","77","","","","key","16.665818181818096","683","327","","","","","","","","","","","","","","","","","","","",""
"psychophysics","205","389775","0.0-16.0-0.11","5e0e6a63a7fba65b0b863ccf","609006691f6f4e337c17f836","609a6efab0eb9c37d485db36","null","","","","null","","","","key","16.665762711863895","683","327","","","","","","","","","","","","","","","","","","","",""
"psychophysics","206","390294","0.0-16.0-1.11","5e0e6a63a7fba65b0b863ccf","609006691f6f4e337c17f836","609a6efab0eb9c37d485db36","null","","","","null","","","","key","16.66599999999938","683","327","","","","","","","","","","","","","143","1","0","false","","","",""
"psychophysics","207","390452","0.0-16.0-2.11","5e0e6a63a7fba65b0b863ccf","609006691f6f4e337c17f836","609a6efab0eb9c37d485db36","156","","","","77","","","","key","16.664444444442374","683","327","","","","","","","","","","","","","","","","","","","",""
"psychophysics","208","391455","0.0-16.0-0.12","5e0e6a63a7fba65b0b863ccf","609006691f6f4e337c17f836","609a6efab0eb9c37d485db36","null","","","","null","","","","key","16.666101694916044","683","327","","","","","","","","","","","","","","","","","","","",""
"psychophysics","209","391975","0.0-16.0-1.12","5e0e6a63a7fba65b0b863ccf","609006691f6f4e337c17f836","609a6efab0eb9c37d485db36","null","","","","null","","","","key","16.66599999999938","683","327","","","","","","","","","","","","","143","1","0","false","","","",""
"psychophysics","210","392126","0.0-16.0-2.12","5e0e6a63a7fba65b0b863ccf","609006691f6f4e337c17f836","609a6efab0eb9c37d485db36","150","","","","77","","","","key","16.665000000000873","683","327","","","","","","","","","","","","","","","","","","","",""
"psychophysics","211","393134","0.0-16.0-0.13","5e0e6a63a7fba65b0b863ccf","609006691f6f4e337c17f836","609a6efab0eb9c37d485db36","null","","","","null","","","","key","16.66600000000035","683","327","","","","","","","","","","","","","","","","","","","",""
"psychophysics","212","393655","0.0-16.0-1.13","5e0e6a63a7fba65b0b863ccf","609006691f6f4e337c17f836","609a6efab0eb9c37d485db36","null","","","","null","","","","key","16.665333333334033","683","327","","","","","","","","","","","","","143","1","4","false","","","",""
"psychophysics","213","399806","0.0-16.0-2.13","5e0e6a63a7fba65b0b863ccf","609006691f6f4e337c17f836","609a6efab0eb9c37d485db36","6152","","","","77","","","","key","16.6656521739131","683","327","","","","","","","","","","","","","","","","","","","",""
"psychophysics","214","400814","0.0-16.0-0.14","5e0e6a63a7fba65b0b863ccf","609006691f6f4e337c17f836","609a6efab0eb9c37d485db36","null","","","","null","","","","key","16.66576271186488","683","327","","","","","","","","","","","","","","","","","","","",""
"psychophysics","215","401334","0.0-16.0-1.14","5e0e6a63a7fba65b0b863ccf","609006691f6f4e337c17f836","609a6efab0eb9c37d485db36","null","","","","null","","","","key","16.665806451613353","683","327","","","","","","","","","","","","","143","-1","6","false","","","",""
"psychophysics","216","401456","0.0-16.0-2.14","5e0e6a63a7fba65b0b863ccf","609006691f6f4e337c17f836","609a6efab0eb9c37d485db36","121","","","","90","","","","key","16.660000000003492","683","327","","","","","","","","","","","","","","","","","","","",""
"psychophysics","217","402475","0.0-16.0-0.15","5e0e6a63a7fba65b0b863ccf","609006691f6f4e337c17f836","609a6efab0eb9c37d485db36","null","","","","null","","","","key","16.66600000000035","683","327","","","","","","","","","","","","","","","","","","","",""
"psychophysics","218","402995","0.0-16.0-1.15","5e0e6a63a7fba65b0b863ccf","609006691f6f4e337c17f836","609a6efab0eb9c37d485db36","null","","","","null","","","","key","16.665333333332093","683","327","","","","","","","","","","","","","143","-1","0","false","","","",""
"psychophysics","219","403137","0.0-16.0-2.15","5e0e6a63a7fba65b0b863ccf","609006691f6f4e337c17f836","609a6efab0eb9c37d485db36","143","","","","90","","","","key","16.667499999995925","683","327","","","","","","","","","","","","","","","","","","","",""
"psychophysics","220","404154","0.0-16.0-0.16","5e0e6a63a7fba65b0b863ccf","609006691f6f4e337c17f836","609a6efab0eb9c37d485db36","null","","","","null","","","","key","16.665666666666706","683","327","","","","","","","","","","","","","","","","","","","",""
"psychophysics","221","404674","0.0-16.0-1.16","5e0e6a63a7fba65b0b863ccf","609006691f6f4e337c17f836","609a6efab0eb9c37d485db36","null","","","","null","","","","key","16.66599999999938","683","327","","","","","","","","","","","","","143","-1","4","false","","","",""
"psychophysics","222","405380","0.0-16.0-2.16","5e0e6a63a7fba65b0b863ccf","609006691f6f4e337c17f836","609a6efab0eb9c37d485db36","704","","","","77","","","","key","16.665365853659218","683","327","","","","","","","","","","","","","","","","","","","",""
"psychophysics","223","406395","0.0-16.0-0.17","5e0e6a63a7fba65b0b863ccf","609006691f6f4e337c17f836","609a6efab0eb9c37d485db36","null","","","","null","","","","key","16.665666666666706","683","327","","","","","","","","","","","","","","","","","","","",""
"psychophysics","224","406918","0.0-16.0-1.17","5e0e6a63a7fba65b0b863ccf","609006691f6f4e337c17f836","609a6efab0eb9c37d485db36","null","","","","null","","","","key","16.66645161290428","683","327","","","","","","","","","","","","","143","1","3","false","","","",""
"psychophysics","225","407150","0.0-16.0-2.17","5e0e6a63a7fba65b0b863ccf","609006691f6f4e337c17f836","609a6efab0eb9c37d485db36","228","","","","77","","","","key","16.66461538461646","683","327","","","","","","","","","","","","","","","","","","","",""
"psychophysics","226","408154","0.0-16.0-0.18","5e0e6a63a7fba65b0b863ccf","609006691f6f4e337c17f836","609a6efab0eb9c37d485db36","null","","","","null","","","","key","16.665084745762552","683","327","","","","","","","","","","","","","","","","","","","",""
"psychophysics","227","408675","0.0-16.0-1.18","5e0e6a63a7fba65b0b863ccf","609006691f6f4e337c17f836","609a6efab0eb9c37d485db36","null","","","","null","","","","key","16.666666666666668","683","327","","","","","","","","","","","","","143","1","2","false","","","",""
"psychophysics","228","409046","0.0-16.0-2.18","5e0e6a63a7fba65b0b863ccf","609006691f6f4e337c17f836","609a6efab0eb9c37d485db36","369","","","","77","","","","key","16.66476190476013","683","327","","","","","","","","","","","","","","","","","","","",""
"psychophysics","229","410055","0.0-16.0-0.19","5e0e6a63a7fba65b0b863ccf","609006691f6f4e337c17f836","609a6efab0eb9c37d485db36","null","","","","null","","","","key","16.665666666666706","683","327","","","","","","","","","","","","","","","","","","","",""
"psychophysics","230","410576","0.0-16.0-1.19","5e0e6a63a7fba65b0b863ccf","609006691f6f4e337c17f836","609a6efab0eb9c37d485db36","null","","","","null","","","","key","16.66600000000132","683","327","","","","","","","","","","","","","143","-1","5","false","","","",""
"psychophysics","231","410953","0.0-16.0-2.19","5e0e6a63a7fba65b0b863ccf","609006691f6f4e337c17f836","609a6efab0eb9c37d485db36","377","","","","77","","","","key","16.664545454545244","683","327","","","","","","","","","","","","","","","","","","","",""
"psychophysics","232","411955","0.0-16.0-0.20","5e0e6a63a7fba65b0b863ccf","609006691f6f4e337c17f836","609a6efab0eb9c37d485db36","null","","","","null","","","","key","16.66576271186488","683","327","","","","","","","","","","","","","","","","","","","",""
"psychophysics","233","412475","0.0-16.0-1.20","5e0e6a63a7fba65b0b863ccf","609006691f6f4e337c17f836","609a6efab0eb9c37d485db36","null","","","","null","","","","key","16.666666666666668","683","327","","","","","","","","","","","","","143","-1","3","false","","","",""
"psychophysics","234","412765","0.0-16.0-2.20","5e0e6a63a7fba65b0b863ccf","609006691f6f4e337c17f836","609a6efab0eb9c37d485db36","291","","","","77","","","","key","16.665882352941587","683","327","","","","","","","","","","","","","","","","","","","",""
"psychophysics","235","413775","0.0-16.0-0.21","5e0e6a63a7fba65b0b863ccf","609006691f6f4e337c17f836","609a6efab0eb9c37d485db36","null","","","","null","","","","key","16.665762711863895","683","327","","","","","","","","","","","","","","","","","","","",""
"psychophysics","236","414295","0.0-16.0-1.21","5e0e6a63a7fba65b0b863ccf","609006691f6f4e337c17f836","609a6efab0eb9c37d485db36","null","","","","null","","","","key","16.665333333334033","683","327","","","","","","","","","","","","","143","1","5","false","","","",""
"psychophysics","237","414571","0.0-16.0-2.21","5e0e6a63a7fba65b0b863ccf","609006691f6f4e337c17f836","609a6efab0eb9c37d485db36","276","","","","77","","","","key","16.667499999999563","683","327","","","","","","","","","","","","","","","","","","","",""
"psychophysics","238","415575","0.0-16.0-0.22","5e0e6a63a7fba65b0b863ccf","609006691f6f4e337c17f836","609a6efab0eb9c37d485db36","null","","","","null","","","","key","16.66542372881273","683","327","","","","","","","","","","","","","","","","","","","",""
"psychophysics","239","416095","0.0-16.0-1.22","5e0e6a63a7fba65b0b863ccf","609006691f6f4e337c17f836","609a6efab0eb9c37d485db36","null","","","","null","","","","key","16.666666666666668","683","327","","","","","","","","","","","","","143","-1","2","false","","","",""
"psychophysics","240","416174","0.0-16.0-2.22","5e0e6a63a7fba65b0b863ccf","609006691f6f4e337c17f836","609a6efab0eb9c37d485db36","78","","","","77","","","","key","16.66500000000815","683","327","","","","","","","","","","","","","","","","","","","",""
"psychophysics","241","417175","0.0-16.0-0.23","5e0e6a63a7fba65b0b863ccf","609006691f6f4e337c17f836","609a6efab0eb9c37d485db36","null","","","","null","","","","key","16.665762711863895","683","327","","","","","","","","","","","","","","","","","","","",""
"psychophysics","242","417694","0.0-16.0-1.23","5e0e6a63a7fba65b0b863ccf","609006691f6f4e337c17f836","609a6efab0eb9c37d485db36","null","","","","null","","","","key","16.665333333332093","683","327","","","","","","","","","","","","","143","1","6","false","","","",""
"psychophysics","243","421437","0.0-16.0-2.23","5e0e6a63a7fba65b0b863ccf","609006691f6f4e337c17f836","609a6efab0eb9c37d485db36","3741","","","","77","","","","key","16.665535714285788","683","327","","","","","","","","","","","","","","","","","","","",""
"html-keyboard-response","244","423167","0.0-17.0","5e0e6a63a7fba65b0b863ccf","609006691f6f4e337c17f836","609a6efab0eb9c37d485db36","1730","<p>Well Done !</p><p>Training Complete. Press the spacebar to start.</p><p>DON'T EXIT THE FULL SCREEN MODE</p>","","","32","","","","","","","","","","","","","","","","","","","","","","","","","","",""
"psychophysics","245","426195","0.0-18.0-0.0","5e0e6a63a7fba65b0b863ccf","609006691f6f4e337c17f836","609a6efab0eb9c37d485db36","null","","","","null","","","","key","16.665333333334033","683","327","","","","","","","","","","","","","","","","","","","",""
"psychophysics","246","426712","0.0-18.0-1.0","5e0e6a63a7fba65b0b863ccf","609006691f6f4e337c17f836","609a6efab0eb9c37d485db36","null","","","","null","","","","key","16.66600000000132","683","327","","","","","","","","","","","","","143","1","5","true","","","",""
"psychophysics","247","426913","0.0-18.0-2.0","5e0e6a63a7fba65b0b863ccf","609006691f6f4e337c17f836","609a6efab0eb9c37d485db36","200","","","","77","","","","key","16.667272727275055","683","327","","","","","","","","","","","","","","","","","","","",""
"psychophysics","248","427934","0.0-18.0-0.1","5e0e6a63a7fba65b0b863ccf","609006691f6f4e337c17f836","609a6efab0eb9c37d485db36","null","","","","null","","","","key","16.66524590163961","683","327","","","","","","","","","","","","","","","","","","","",""
"psychophysics","249","428455","0.0-18.0-1.1","5e0e6a63a7fba65b0b863ccf","609006691f6f4e337c17f836","609a6efab0eb9c37d485db36","null","","","","null","","","","key","16.66599999999938","683","327","","","","","","","","","","","","","143","-1","3","true","","","",""
"psychophysics","250","428619","0.0-18.0-2.1","5e0e6a63a7fba65b0b863ccf","609006691f6f4e337c17f836","609a6efab0eb9c37d485db36","165","","","","77","","","","key","16.666666666666668","683","327","","","","","","","","","","","","","","","","","","","",""
"psychophysics","251","429634","0.0-18.0-0.2","5e0e6a63a7fba65b0b863ccf","609006691f6f4e337c17f836","609a6efab0eb9c37d485db36","null","","","","null","","","","key","16.665666666666706","683","327","","","","","","","","","","","","","","","","","","","",""
"psychophysics","252","430154","0.0-18.0-1.2","5e0e6a63a7fba65b0b863ccf","609006691f6f4e337c17f836","609a6efab0eb9c37d485db36","null","","","","null","","","","key","16.665333333334033","683","327","","","","","","","","","","","","","143","-1","6","true","","","",""
"psychophysics","253","430401","0.0-18.0-2.2","5e0e6a63a7fba65b0b863ccf","609006691f6f4e337c17f836","609a6efab0eb9c37d485db36","247","","","","77","","","","key","16.667142857144686","683","327","","","","","","","","","","","","","","","","","","","",""
"psychophysics","254","431412","0.0-18.0-0.3","5e0e6a63a7fba65b0b863ccf","609006691f6f4e337c17f836","609a6efab0eb9c37d485db36","null","","","","null","","","","key","16.665423728813717","683","327","","","","","","","","","","","","","","","","","","","",""
"psychophysics","255","431935","0.0-18.0-1.3","5e0e6a63a7fba65b0b863ccf","609006691f6f4e337c17f836","609a6efab0eb9c37d485db36","null","","","","null","","","","key","16.66516129032431","683","327","","","","","","","","","","","","","143","-1","4","true","","","",""
"psychophysics","256","432081","0.0-18.0-2.3","5e0e6a63a7fba65b0b863ccf","609006691f6f4e337c17f836","609a6efab0eb9c37d485db36","146","","","","77","","","","key","16.665000000000873","683","327","","","","","","","","","","","","","","","","","","","",""
"psychophysics","257","433095","0.0-18.0-0.4","5e0e6a63a7fba65b0b863ccf","609006691f6f4e337c17f836","609a6efab0eb9c37d485db36","null","","","","null","","","","key","16.66542372881273","683","327","","","","","","","","","","","","","","","","","","","",""
"psychophysics","258","433613","0.0-18.0-1.4","5e0e6a63a7fba65b0b863ccf","609006691f6f4e337c17f836","609a6efab0eb9c37d485db36","null","","","","null","","","","key","16.6664516129024","683","327","","","","","","","","","","","","","143","-1","2","true","","","",""
"psychophysics","259","433628","0.0-18.0-2.4","5e0e6a63a7fba65b0b863ccf","609006691f6f4e337c17f836","609a6efab0eb9c37d485db36","13","","","","77","","","","key","NaN","683","327","","","","","","","","","","","","","","","","","","","",""
"psychophysics","260","434635","0.0-18.0-0.5","5e0e6a63a7fba65b0b863ccf","609006691f6f4e337c17f836","609a6efab0eb9c37d485db36","null","","","","null","","","","key","16.665333333333063","683","327","","","","","","","","","","","","","","","","","","","",""
"psychophysics","261","435154","0.0-18.0-1.5","5e0e6a63a7fba65b0b863ccf","609006691f6f4e337c17f836","609a6efab0eb9c37d485db36","null","","","","null","","","","key","16.66599999999938","683","327","","","","","","","","","","","","","143","1","4","true","","","",""
"psychophysics","262","435279","0.0-18.0-2.5","5e0e6a63a7fba65b0b863ccf","609006691f6f4e337c17f836","609a6efab0eb9c37d485db36","124","","","","77","","","","key","16.66333333333023","683","327","","","","","","","","","","","","","","","","","","","",""
"psychophysics","263","436295","0.0-18.0-0.6","5e0e6a63a7fba65b0b863ccf","609006691f6f4e337c17f836","609a6efab0eb9c37d485db36","null","","","","null","","","","key","16.66599999999938","683","327","","","","","","","","","","","","","","","","","","","",""
"psychophysics","264","436816","0.0-18.0-1.6","5e0e6a63a7fba65b0b863ccf","609006691f6f4e337c17f836","609a6efab0eb9c37d485db36","null","","","","null","","","","key","16.664516129031508","683","327","","","","","","","","","","","","","143","-1","5","true","","","",""
"psychophysics","265","436852","0.0-18.0-2.6","5e0e6a63a7fba65b0b863ccf","609006691f6f4e337c17f836","609a6efab0eb9c37d485db36","34","","","","77","","","","key","16.660000000032596","683","327","","","","","","","","","","","","","","","","","","","",""
"psychophysics","266","437855","0.0-18.0-0.7","5e0e6a63a7fba65b0b863ccf","609006691f6f4e337c17f836","609a6efab0eb9c37d485db36","null","","","","null","","","","key","16.66576271186488","683","327","","","","","","","","","","","","","","","","","","","",""
"psychophysics","267","438375","0.0-18.0-1.7","5e0e6a63a7fba65b0b863ccf","609006691f6f4e337c17f836","609a6efab0eb9c37d485db36","null","","","","null","","","","key","16.666666666666668","683","327","","","","","","","","","","","","","143","1","6","true","","","",""
"psychophysics","268","440598","0.0-18.0-2.7","5e0e6a63a7fba65b0b863ccf","609006691f6f4e337c17f836","609a6efab0eb9c37d485db36","2223","","","","90","","","","key","16.665563909774576","683","327","","","","","","","","","","","","","","","","","","","",""
"psychophysics","269","441615","0.0-18.0-0.8","5e0e6a63a7fba65b0b863ccf","609006691f6f4e337c17f836","609a6efab0eb9c37d485db36","null","","","","null","","","","key","16.665333333334033","683","327","","","","","","","","","","","","","","","","","","","",""
"psychophysics","270","442135","0.0-18.0-1.8","5e0e6a63a7fba65b0b863ccf","609006691f6f4e337c17f836","609a6efab0eb9c37d485db36","null","","","","null","","","","key","16.665333333332093","683","327","","","","","","","","","","","","","143","1","2","true","","","",""
"psychophysics","271","442314","0.0-18.0-2.8","5e0e6a63a7fba65b0b863ccf","609006691f6f4e337c17f836","609a6efab0eb9c37d485db36","179","","","","77","","","","key","16.667999999999303","683","327","","","","","","","","","","","","","","","","","","","",""
"psychophysics","272","443335","0.0-18.0-0.9","5e0e6a63a7fba65b0b863ccf","609006691f6f4e337c17f836","609a6efab0eb9c37d485db36","null","","","","null","","","","key","16.665666666666706","683","327","","","","","","","","","","","","","","","","","","","",""
"psychophysics","273","443854","0.0-18.0-1.9","5e0e6a63a7fba65b0b863ccf","609006691f6f4e337c17f836","609a6efab0eb9c37d485db36","null","","","","null","","","","key","16.665333333332093","683","327","","","","","","","","","","","","","143","-1","0","true","","","",""
"psychophysics","274","443857","0.0-18.0-2.9","5e0e6a63a7fba65b0b863ccf","609006691f6f4e337c17f836","609a6efab0eb9c37d485db36","2","","","","77","","","","key","NaN","683","327","","","","","","","","","","","","","","","","","","","",""
"psychophysics","275","444875","0.0-18.0-0.10","5e0e6a63a7fba65b0b863ccf","609006691f6f4e337c17f836","609a6efab0eb9c37d485db36","null","","","","null","","","","key","16.66599999999938","683","327","","","","","","","","","","","","","","","","","","","",""
"psychophysics","276","445394","0.0-18.0-1.10","5e0e6a63a7fba65b0b863ccf","609006691f6f4e337c17f836","609a6efab0eb9c37d485db36","null","","","","null","","","","key","16.665333333332093","683","327","","","","","","","","","","","","","143","1","0","true","","","",""
"psychophysics","277","448491","0.0-18.0-2.10","5e0e6a63a7fba65b0b863ccf","609006691f6f4e337c17f836","609a6efab0eb9c37d485db36","3096","","","","77","","","","key","16.665621621621696","683","327","","","","","","","","","","","","","","","","","","","",""
"psychophysics","278","449495","0.0-18.0-0.11","5e0e6a63a7fba65b0b863ccf","609006691f6f4e337c17f836","609a6efab0eb9c37d485db36","null","","","","null","","","","key","16.66542372881273","683","327","","","","","","","","","","","","","","","","","","","",""
"psychophysics","279","450014","0.0-18.0-1.11","5e0e6a63a7fba65b0b863ccf","609006691f6f4e337c17f836","609a6efab0eb9c37d485db36","null","","","","null","","","","key","16.667096774193322","683","327","","","","","","","","","","","","","143","1","3","true","","","",""
"psychophysics","280","450343","0.0-18.0-2.11","5e0e6a63a7fba65b0b863ccf","609006691f6f4e337c17f836","609a6efab0eb9c37d485db36","327","","","","90","","","","key","16.665555555557756","683","327","","","","","","","","","","","","","","","","","","","",""
"psychophysics","281","451354","0.0-18.0-0.12","5e0e6a63a7fba65b0b863ccf","609006691f6f4e337c17f836","609a6efab0eb9c37d485db36","null","","","","null","","","","key","16.665333333334033","683","327","","","","","","","","","","","","","","","","","","","",""
"psychophysics","282","451875","0.0-18.0-1.12","5e0e6a63a7fba65b0b863ccf","609006691f6f4e337c17f836","609a6efab0eb9c37d485db36","null","","","","null","","","","key","16.66599999999938","683","327","","","","","","","","","","","","","143","1","5","true","","","",""
"psychophysics","283","452011","0.0-18.0-2.12","5e0e6a63a7fba65b0b863ccf","609006691f6f4e337c17f836","609a6efab0eb9c37d485db36","134","","","","77","","","","key","16.665714285710628","683","327","","","","","","","","","","","","","","","","","","","",""
"psychophysics","284","453015","0.0-18.0-0.13","5e0e6a63a7fba65b0b863ccf","609006691f6f4e337c17f836","609a6efab0eb9c37d485db36","null","","","","null","","","","key","16.665666666666706","683","327","","","","","","","","","","","","","","","","","","","",""
"psychophysics","285","453535","0.0-18.0-1.13","5e0e6a63a7fba65b0b863ccf","609006691f6f4e337c17f836","609a6efab0eb9c37d485db36","null","","","","null","","","","key","16.665333333332093","683","327","","","","","","","","","","","","","143","-1","6","true","","","",""
"psychophysics","286","453704","0.0-18.0-2.13","5e0e6a63a7fba65b0b863ccf","609006691f6f4e337c17f836","609a6efab0eb9c37d485db36","169","","","","77","","","","key","16.666666666666668","683","327","","","","","","","","","","","","","","","","","","","",""
"psychophysics","287","454714","0.0-18.0-0.14","5e0e6a63a7fba65b0b863ccf","609006691f6f4e337c17f836","609a6efab0eb9c37d485db36","null","","","","null","","","","key","16.665666666666706","683","327","","","","","","","","","","","","","","","","","","","",""
"psychophysics","288","455235","0.0-18.0-1.14","5e0e6a63a7fba65b0b863ccf","609006691f6f4e337c17f836","609a6efab0eb9c37d485db36","null","","","","null","","","","key","16.665333333334033","683","327","","","","","","","","","","","","","143","1","3","true","","","",""
"psychophysics","289","455259","0.0-18.0-2.14","5e0e6a63a7fba65b0b863ccf","609006691f6f4e337c17f836","609a6efab0eb9c37d485db36","25","","","","77","","","","key","NaN","683","327","","","","","","","","","","","","","","","","","","","",""
"psychophysics","290","456274","0.0-18.0-0.15","5e0e6a63a7fba65b0b863ccf","609006691f6f4e337c17f836","609a6efab0eb9c37d485db36","null","","","","null","","","","key","16.66633333333302","683","327","","","","","","","","","","","","","","","","","","","",""
"psychophysics","291","456795","0.0-18.0-1.15","5e0e6a63a7fba65b0b863ccf","609006691f6f4e337c17f836","609a6efab0eb9c37d485db36","null","","","","null","","","","key","16.66516129032243","683","327","","","","","","","","","","","","","143","-1","0","true","","","",""
"psychophysics","292","456877","0.0-18.0-2.15","5e0e6a63a7fba65b0b863ccf","609006691f6f4e337c17f836","609a6efab0eb9c37d485db36","80","","","","77","","","","key","16.666666666666668","683","327","","","","","","","","","","","","","","","","","","","",""
"psychophysics","293","457885","0.0-18.0-0.16","5e0e6a63a7fba65b0b863ccf","609006691f6f4e337c17f836","609a6efab0eb9c37d485db36","null","","","","null","","","","key","16.665333333333063","683","327","","","","","","","","","","","","","","","","","","","",""
"psychophysics","294","458404","0.0-18.0-1.16","5e0e6a63a7fba65b0b863ccf","609006691f6f4e337c17f836","609a6efab0eb9c37d485db36","null","","","","null","","","","key","16.665333333332093","683","327","","","","","","","","","","","","","143","1","4","true","","","",""
"psychophysics","295","458469","0.0-18.0-2.16","5e0e6a63a7fba65b0b863ccf","609006691f6f4e337c17f836","609a6efab0eb9c37d485db36","63","","","","77","","","","key","16.666666666666668","683","327","","","","","","","","","","","","","","","","","","","",""
"psychophysics","296","459485","0.0-18.0-0.17","5e0e6a63a7fba65b0b863ccf","609006691f6f4e337c17f836","609a6efab0eb9c37d485db36","null","","","","null","","","","key","16.665333333333063","683","327","","","","","","","","","","","","","","","","","","","",""
"psychophysics","297","460005","0.0-18.0-1.17","5e0e6a63a7fba65b0b863ccf","609006691f6f4e337c17f836","609a6efab0eb9c37d485db36","null","","","","null","","","","key","16.666666666666668","683","327","","","","","","","","","","","","","143","1","6","true","","","",""
"psychophysics","298","460648","0.0-18.0-2.17","5e0e6a63a7fba65b0b863ccf","609006691f6f4e337c17f836","609a6efab0eb9c37d485db36","642","","","","77","","","","key","16.66526315789394","683","327","","","","","","","","","","","","","","","","","","","",""
"psychophysics","299","461665","0.0-18.0-0.18","5e0e6a63a7fba65b0b863ccf","609006691f6f4e337c17f836","609a6efab0eb9c37d485db36","null","","","","null","","","","key","16.665000000000386","683","327","","","","","","","","","","","","","","","","","","","",""
"psychophysics","300","462185","0.0-18.0-1.18","5e0e6a63a7fba65b0b863ccf","609006691f6f4e337c17f836","609a6efab0eb9c37d485db36","null","","","","null","","","","key","16.66600000000132","683","327","","","","","","","","","","","","","143","-1","3","true","","","",""
"psychophysics","301","462601","0.0-18.0-2.18","5e0e6a63a7fba65b0b863ccf","609006691f6f4e337c17f836","609a6efab0eb9c37d485db36","416","","","","77","","","","key","16.665833333332557","683","327","","","","","","","","","","","","","","","","","","","",""
"psychophysics","302","463605","0.0-18.0-0.19","5e0e6a63a7fba65b0b863ccf","609006691f6f4e337c17f836","609a6efab0eb9c37d485db36","null","","","","null","","","","key","16.666101694915056","683","327","","","","","","","","","","","","","","","","","","","",""
"psychophysics","303","464124","0.0-18.0-1.19","5e0e6a63a7fba65b0b863ccf","609006691f6f4e337c17f836","609a6efab0eb9c37d485db36","null","","","","null","","","","key","16.665333333334033","683","327","","","","","","","","","","","","","143","-1","5","true","","","",""
"psychophysics","304","464208","0.0-18.0-2.19","5e0e6a63a7fba65b0b863ccf","609006691f6f4e337c17f836","609a6efab0eb9c37d485db36","82","","","","77","","","","key","16.664999999993597","683","327","","","","","","","","","","","","","","","","","","","",""
"psychophysics","305","465225","0.0-18.0-0.20","5e0e6a63a7fba65b0b863ccf","609006691f6f4e337c17f836","609a6efab0eb9c37d485db36","null","","","","null","","","","key","16.665333333333063","683","327","","","","","","","","","","","","","","","","","","","",""
"psychophysics","306","465745","0.0-18.0-1.20","5e0e6a63a7fba65b0b863ccf","609006691f6f4e337c17f836","609a6efab0eb9c37d485db36","null","","","","null","","","","key","16.665806451611477","683","327","","","","","","","","","","","","","143","-1","4","true","","","",""
"psychophysics","307","465752","0.0-18.0-2.20","5e0e6a63a7fba65b0b863ccf","609006691f6f4e337c17f836","609a6efab0eb9c37d485db36","6","","","","77","","","","key","NaN","683","327","","","","","","","","","","","","","","","","","","","",""
"psychophysics","308","466765","0.0-18.0-0.21","5e0e6a63a7fba65b0b863ccf","609006691f6f4e337c17f836","609a6efab0eb9c37d485db36","null","","","","null","","","","key","16.665666666666706","683","327","","","","","","","","","","","","","","","","","","","",""
"psychophysics","309","467285","0.0-18.0-1.21","5e0e6a63a7fba65b0b863ccf","609006691f6f4e337c17f836","609a6efab0eb9c37d485db36","null","","","","null","","","","key","16.664666666666744","683","327","","","","","","","","","","","","","143","1","2","true","","","",""
"psychophysics","310","467578","0.0-18.0-2.21","5e0e6a63a7fba65b0b863ccf","609006691f6f4e337c17f836","609a6efab0eb9c37d485db36","293","","","","90","","","","key","16.665882352941587","683","327","","","","","","","","","","","","","","","","","","","",""
"psychophysics","311","468585","0.0-18.0-0.22","5e0e6a63a7fba65b0b863ccf","609006691f6f4e337c17f836","609a6efab0eb9c37d485db36","null","","","","null","","","","key","16.665423728813717","683","327","","","","","","","","","","","","","","","","","","","",""
"psychophysics","312","469105","0.0-18.0-1.22","5e0e6a63a7fba65b0b863ccf","609006691f6f4e337c17f836","609a6efab0eb9c37d485db36","null","","","","null","","","","key","16.665333333334033","683","327","","","","","","","","","","","","","143","1","0","true","","","",""
"psychophysics","313","469178","0.0-18.0-2.22","5e0e6a63a7fba65b0b863ccf","609006691f6f4e337c17f836","609a6efab0eb9c37d485db36","73","","","","90","","","","key","16.669999999998254","683","327","","","","","","","","","","","","","","","","","","","",""
"psychophysics","314","470185","0.0-18.0-0.23","5e0e6a63a7fba65b0b863ccf","609006691f6f4e337c17f836","609a6efab0eb9c37d485db36","null","","","","null","","","","key","16.666101694915056","683","327","","","","","","","","","","","","","","","","","","","",""
"psychophysics","315","470705","0.0-18.0-1.23","5e0e6a63a7fba65b0b863ccf","609006691f6f4e337c17f836","609a6efab0eb9c37d485db36","null","","","","null","","","","key","16.665333333334033","683","327","","","","","","","","","","","","","143","-1","2","true","","","",""
"psychophysics","316","470856","0.0-18.0-2.23","5e0e6a63a7fba65b0b863ccf","609006691f6f4e337c17f836","609a6efab0eb9c37d485db36","150","","","","77","","","","key","16.660000000003492","683","327","","","","","","","","","","","","","","","","","","","",""
"psychophysics","317","471865","0.0-18.0-0.24","5e0e6a63a7fba65b0b863ccf","609006691f6f4e337c17f836","609a6efab0eb9c37d485db36","null","","","","null","","","","key","16.665666666666706","683","327","","","","","","","","","","","","","","","","","","","",""
"psychophysics","318","472384","0.0-18.0-1.24","5e0e6a63a7fba65b0b863ccf","609006691f6f4e337c17f836","609a6efab0eb9c37d485db36","null","","","","null","","","","key","16.666666666666668","683","327","","","","","","","","","","","","","143","1","0","true","","","",""
"psychophysics","319","476658","0.0-18.0-2.24","5e0e6a63a7fba65b0b863ccf","609006691f6f4e337c17f836","609a6efab0eb9c37d485db36","4273","","","","77","","","","key","16.665647058823723","683","327","","","","","","","","","","","","","","","","","","","",""
"psychophysics","320","477675","0.0-18.0-0.25","5e0e6a63a7fba65b0b863ccf","609006691f6f4e337c17f836","609a6efab0eb9c37d485db36","null","","","","null","","","","key","16.665666666666706","683","327","","","","","","","","","","","","","","","","","","","",""
"psychophysics","321","478195","0.0-18.0-1.25","5e0e6a63a7fba65b0b863ccf","609006691f6f4e337c17f836","609a6efab0eb9c37d485db36","null","","","","null","","","","key","16.66645161290428","683","327","","","","","","","","","","","","","143","1","4","true","","","",""
"psychophysics","322","478352","0.0-18.0-2.25","5e0e6a63a7fba65b0b863ccf","609006691f6f4e337c17f836","609a6efab0eb9c37d485db36","155","","","","77","","","","key","16.665000000000873","683","327","","","","","","","","","","","","","","","","","","","",""
"psychophysics","323","479354","0.0-18.0-0.26","5e0e6a63a7fba65b0b863ccf","609006691f6f4e337c17f836","609a6efab0eb9c37d485db36","null","","","","null","","","","key","16.665762711863895","683","327","","","","","","","","","","","","","","","","","","","",""
"psychophysics","324","479874","0.0-18.0-1.26","5e0e6a63a7fba65b0b863ccf","609006691f6f4e337c17f836","609a6efab0eb9c37d485db36","null","","","","null","","","","key","16.66599999999938","683","327","","","","","","","","","","","","","143","-1","0","true","","","",""
"psychophysics","325","480251","0.0-18.0-2.26","5e0e6a63a7fba65b0b863ccf","609006691f6f4e337c17f836","609a6efab0eb9c37d485db36","375","","","","90","","","","key","16.667272727272408","683","327","","","","","","","","","","","","","","","","","","","",""
"psychophysics","326","481254","0.0-18.0-0.27","5e0e6a63a7fba65b0b863ccf","609006691f6f4e337c17f836","609a6efab0eb9c37d485db36","null","","","","null","","","","key","16.665084745762552","683","327","","","","","","","","","","","","","","","","","","","",""
"psychophysics","327","481774","0.0-18.0-1.27","5e0e6a63a7fba65b0b863ccf","609006691f6f4e337c17f836","609a6efab0eb9c37d485db36","null","","","","null","","","","key","16.666666666666668","683","327","","","","","","","","","","","","","143","-1","6","true","","","",""
"psychophysics","328","482121","0.0-18.0-2.27","5e0e6a63a7fba65b0b863ccf","609006691f6f4e337c17f836","609a6efab0eb9c37d485db36","345","","","","77","","","","key","16.664999999999417","683","327","","","","","","","","","","","","","","","","","","","",""
"psychophysics","329","483135","0.0-18.0-0.28","5e0e6a63a7fba65b0b863ccf","609006691f6f4e337c17f836","609a6efab0eb9c37d485db36","null","","","","null","","","","key","16.664999999999417","683","327","","","","","","","","","","","","","","","","","","","",""
"psychophysics","330","483654","0.0-18.0-1.28","5e0e6a63a7fba65b0b863ccf","609006691f6f4e337c17f836","609a6efab0eb9c37d485db36","null","","","","null","","","","key","16.666666666666668","683","327","","","","","","","","","","","","","143","1","3","true","","","",""
"psychophysics","331","485578","0.0-18.0-2.28","5e0e6a63a7fba65b0b863ccf","609006691f6f4e337c17f836","609a6efab0eb9c37d485db36","1923","","","","77","","","","key","16.665565217391123","683","327","","","","","","","","","","","","","","","","","","","",""
"psychophysics","332","486595","0.0-18.0-0.29","5e0e6a63a7fba65b0b863ccf","609006691f6f4e337c17f836","609a6efab0eb9c37d485db36","null","","","","null","","","","key","16.665666666666706","683","327","","","","","","","","","","","","","","","","","","","",""
"psychophysics","333","487115","0.0-18.0-1.29","5e0e6a63a7fba65b0b863ccf","609006691f6f4e337c17f836","609a6efab0eb9c37d485db36","null","","","","null","","","","key","16.665333333332093","683","327","","","","","","","","","","","","","143","1","6","true","","","",""
"psychophysics","334","487221","0.0-18.0-2.29","5e0e6a63a7fba65b0b863ccf","609006691f6f4e337c17f836","609a6efab0eb9c37d485db36","103","","","","77","","","","key","16.664000000001398","683","327","","","","","","","","","","","","","","","","","","","",""
"psychophysics","335","488234","0.0-18.0-0.30","5e0e6a63a7fba65b0b863ccf","609006691f6f4e337c17f836","609a6efab0eb9c37d485db36","null","","","","null","","","","key","16.665666666666706","683","327","","","","","","","","","","","","","","","","","","","",""
"psychophysics","336","488755","0.0-18.0-1.30","5e0e6a63a7fba65b0b863ccf","609006691f6f4e337c17f836","609a6efab0eb9c37d485db36","null","","","","null","","","","key","16.664666666666744","683","327","","","","","","","","","","","","","143","-1","3","true","","","",""
"psychophysics","337","488812","0.0-18.0-2.30","5e0e6a63a7fba65b0b863ccf","609006691f6f4e337c17f836","609a6efab0eb9c37d485db36","56","","","","77","","","","key","16.666666666666668","683","327","","","","","","","","","","","","","","","","","","","",""
"psychophysics","338","489814","0.0-18.0-0.31","5e0e6a63a7fba65b0b863ccf","609006691f6f4e337c17f836","609a6efab0eb9c37d485db36","null","","","","null","","","","key","16.666101694915056","683","327","","","","","","","","","","","","","","","","","","","",""
"psychophysics","339","490335","0.0-18.0-1.31","5e0e6a63a7fba65b0b863ccf","609006691f6f4e337c17f836","609a6efab0eb9c37d485db36","null","","","","null","","","","key","16.66599999999938","683","327","","","","","","","","","","","","","143","-1","2","true","","","",""
"psychophysics","340","490500","0.0-18.0-2.31","5e0e6a63a7fba65b0b863ccf","609006691f6f4e337c17f836","609a6efab0eb9c37d485db36","166","","","","77","","","","key","16.664444444442374","683","327","","","","","","","","","","","","","","","","","","","",""
"psychophysics","341","491515","0.0-18.0-0.32","5e0e6a63a7fba65b0b863ccf","609006691f6f4e337c17f836","609a6efab0eb9c37d485db36","null","","","","null","","","","key","16.665666666666706","683","327","","","","","","","","","","","","","","","","","","","",""
"psychophysics","342","492035","0.0-18.0-1.32","5e0e6a63a7fba65b0b863ccf","609006691f6f4e337c17f836","609a6efab0eb9c37d485db36","null","","","","null","","","","key","16.66599999999938","683","327","","","","","","","","","","","","","143","1","2","true","","","",""
"psychophysics","343","494698","0.0-18.0-2.32","5e0e6a63a7fba65b0b863ccf","609006691f6f4e337c17f836","609a6efab0eb9c37d485db36","2662","","","","77","","","","key","16.665660377358286","683","327","","","","","","","","","","","","","","","","","","","",""
