"trial_type","trial_index","time_elapsed","internal_node_id","PROLIFIC_PID","STUDY_ID","SESSION_ID","rt","stimulus","button_pressed","success","key_press","responses","isData","view_history","response_type","avg_frame_time","center_x","center_y","isSC","stim_side","trial_luminance","step_size","nReversal","correct","prev_ans","isThreshold","SC_threshold","final_threshold","isLuminance","FF_luminance","luminance","stimSide","ISInt","isFF","question_order","isSPQ","isCAPS","isAQ"
"pavlovia","0","18","0.0-0.0","6078449140caf31f1912ee83","609006691f6f4e337c17f836","609a612c6a75b284ff8123c0","","","","","","","","","","","","","","","","","","","","","","","","","","","","","","","",""
"html-button-response","1","87890","0.0-1.0","6078449140caf31f1912ee83","609006691f6f4e337c17f836","609a612c6a75b284ff8123c0","87868.53499999415","<div style='background-color: white; width:60%; margin: auto; padding: 50px; text-align: justify; text-justify: inter-word; margin-bottom: 20px;'><h1 style='text-align: center;'>Consent Form</h1><p>Please read this consent form carefully before deciding whether you would like to participate in this study. You have to be 18 years old or older to participate to this study.</p><p style='text-decoration: underline;'>Participation is voluntary:</p><p>It is your choice whether or not to participate in this research. If you choose to participate, you may change your mind and leave the study at any time. Refusal to participate or stopping your participation will involve no penalty or loss of benefits to which you are otherwise entitled.</p><p style='text-decoration: underline;'>Purpose of the Study:</p><p>To understand the mechanisms underlying human perception.</p><p style='text-decoration: underline;'>What you will do in this study:</p><p>You will be presented with a series of visual images and then you will press buttons on the keyboard of your computer to respond to simple questions about the images (e.g. Were one or two images presented?). In addition, you will be asked to complete a questionnaire concerning your beliefs and everyday mental and perceptual experiences.'</p><p style='text-decoration: underline;'> Time Required:</p><p>The study will take 40 minutes to complete. </p><p style='text-decoration: underline;'>Risks:</p><p>There are no anticipated risks associated with participating in this study that are beyond those experienced in everyday life. </p><p style='text-decoration: underline;'>Benefits:</p><p>There are no benefits to you in participating in the study. However, this study may lead to a better understanding of how different kinds of visual information are used.</p><p style='text-decoration: underline;'>Compensation:</p><p>You will be paid US$6.6/hour. </p><p style='text-decoration: underline;'>Privacy and Confidentiality:</p><p>Your participation in this study will be anonymous. No personal information about your name or identity will be asked or recorded. This anonymous data will be stored for several years and may be used for a variety of research purposes. The overall results of the study may be published, or the data files may be shared with other researchers, but your identity will not be revealed in any way. The online services we are using for this study may temporarily store your data, but this data will be downloaded and then promptly deleted from those services.Your data will not be permanently associated with your name, IP address, or any other identifiable information (e.g., your information will only be connected to your payment, not to any of your responses), though they may be temporarily stored together before we download and separate them. Even so, no guarantee of internet survey security can be given because, although unlikely, transmissions can be intercepted and IP addresses can be identified. The anonymous data may be shared publicly (for example, in conjunction with a resulting academic publication).</p><p style='text-decoration: underline;'>Participation and Withdrawal:</p><p>Your participation in this study is completely voluntary. You may stop responding to the stimuli or stop answering questions if you so choose and without penalty by exiting the full screen mode, closing this tab of your browser or redirecting it to a different website.</p><p style='text-decoration: underline;'>Contact Info of the Researcher: </p><p>If you have questions about this study, or if you would like to talk to the research team, please contact David Melcher (david.melcher@nyu.edu, md5050@nyu.edu) at the Perception and Active Cognition Laboratory, New York University Abu Dhabi, Computational Research Building, Saadiyat Island, Abu Dhabi, UAE.This research has been reviewed by the New York University Abu Dhabi Institutional Review Board (NYUAD IRB). To contact about your rights in this research, for questions, suggestions, or complaints that are not addressed by the researchers, please email IRBnyuad@nyu.edu, or call the NYUAD IRB at +971 2 628 4313. </p></div>","0","","","","","","","","","","","","","","","","","","","","","","","","","","","","",""
"fullscreen","2","90079","0.0-2.0","6078449140caf31f1912ee83","609006691f6f4e337c17f836","609a612c6a75b284ff8123c0","","","","true","","","","","","","","","","","","","","","","","","","","","","","","","","","",""
"html-keyboard-response","3","140767","0.0-3.0","6078449140caf31f1912ee83","609006691f6f4e337c17f836","609a612c6a75b284ff8123c0","50685.1949999982","<p>Welcome !</p><p>READ CAREFULLY THE FOLLOWING INDICATIONS:</p><p>From this moment you have ~40 minutes to complete the experiment.</p><p>During the experiment you will be prompted to take several breaks. Each break should not last longer than 2-3 minutes.</p><p>Make sure that your computer is plugged in and it's not running on battery power, even if the battery is already fully charged.</p><p>Turn off your phone and music, make sure that you are in a quiet room and that you will not be distracted for the next hour.</p><p>Failure to comply with the instructions and indications provided during the experiment will most likely result in the rejection of your data.<p>Press the spacebar to start.</p>","","","32","","","","","","","","","","","","","","","","","","","","","","","","","","",""
"survey-html-form","4","154005","0.0-4.0","6078449140caf31f1912ee83","609006691f6f4e337c17f836","609a612c6a75b284ff8123c0","13232.449999995879","","","","","{""age"":""25"",""sex"":""F""}","true","","","","","","","","","","","","","","","","","","","","","","","","",""
"instructions","5","295715","0.0-5.0","6078449140caf31f1912ee83","609006691f6f4e337c17f836","609a612c6a75b284ff8123c0","141707.99999999872","","","","","","","[{""page_index"":0,""viewing_time"":70581.9049999991},{""page_index"":1,""viewing_time"":59215.195000004314},{""page_index"":2,""viewing_time"":11910.304999997607}]","","","","","","","","","","","","","","","","","","","","","","","",""
"psychophysics","6","327287","0.0-6.0-0.0","6078449140caf31f1912ee83","609006691f6f4e337c17f836","609a612c6a75b284ff8123c0","30561.45000000106","","","","39","","","","key","16.789955319148927","683","328.5","true","1","180","30","0","-1","","","","","","","","","","","","","",""
"psychophysics","7","329189","0.0-6.0-0.1","6078449140caf31f1912ee83","609006691f6f4e337c17f836","609a612c6a75b284ff8123c0","897.1999999994296","","","","39","","","","key","16.75542477876117","683","328.5","true","1","180","30","0","-1","-1","","","","","","","","","","","","",""
"psychophysics","8","330374","0.0-6.0-0.2","6078449140caf31f1912ee83","609006691f6f4e337c17f836","609a612c6a75b284ff8123c0","180.9450000000652","","","","39","","","","key","16.754657142857155","683","328.5","true","1","150","30","0","-1","-1","","","","","","","","","","","","",""
"psychophysics","9","332048","0.0-6.0-0.3","6078449140caf31f1912ee83","609006691f6f4e337c17f836","609a612c6a75b284ff8123c0","670.4950000057579","","","","37","","","","key","16.755171717171596","683","328.5","true","-1","150","30","0","-1","-1","","","","","","","","","","","","",""
"psychophysics","10","338288","0.0-6.0-0.4","6078449140caf31f1912ee83","609006691f6f4e337c17f836","609a612c6a75b284ff8123c0","5236.335000001418","","","","39","","","","key","16.755053908355794","683","328.5","true","-1","129","24","1","1","-1","","","","","","","","","","","","",""
"psychophysics","11","340432","0.0-6.0-0.5","6078449140caf31f1912ee83","609006691f6f4e337c17f836","609a612c6a75b284ff8123c0","1140.8549999978277","","","","37","","","","key","16.754724409448635","683","328.5","true","-1","153","24","1","-1","1","","","","","","","","","","","","",""
"psychophysics","12","342034","0.0-6.0-0.6","6078449140caf31f1912ee83","609006691f6f4e337c17f836","609a612c6a75b284ff8123c0","598.599999997532","","","","39","","","","key","16.754368421053023","683","328.5","true","1","153","19.2","2","-1","-1","","","","","","","","","","","","",""
"psychophysics","13","346731","0.0-6.0-0.7","6078449140caf31f1912ee83","609006691f6f4e337c17f836","609a612c6a75b284ff8123c0","3693.4150000015507","","","","37","","","","key","16.755157706093026","683","328.5","true","1","133.8","15.36","3","1","-1","","","","","","","","","","","","",""
"psychophysics","14","347974","0.0-6.0-0.8","6078449140caf31f1912ee83","609006691f6f4e337c17f836","609a612c6a75b284ff8123c0","236.5849999987404","","","","39","","","","key","16.75504109589064","683","328.5","true","1","149.16000000000003","15.36","3","-1","1","","","","","","","","","","","","",""
"psychophysics","15","349162","0.0-6.0-0.9","6078449140caf31f1912ee83","609006691f6f4e337c17f836","609a612c6a75b284ff8123c0","180.4550000015297","","","","39","","","","key","16.755414285714505","683","328.5","true","1","149.16000000000003","12.287999999999998","4","-1","-1","","","","","","","","","","","","",""
"psychophysics","16","350729","0.0-6.0-0.10","6078449140caf31f1912ee83","609006691f6f4e337c17f836","609a612c6a75b284ff8123c0","563.1999999968684","","","","39","","","","key","16.75341935483839","683","328.5","true","1","136.872","12.287999999999998","4","-1","-1","","","","","","","","","","","","",""
"psychophysics","17","352202","0.0-6.0-0.11","6078449140caf31f1912ee83","609006691f6f4e337c17f836","609a612c6a75b284ff8123c0","468.8750000059372","","","","37","","","","key","16.755632183907938","683","328.5","true","-1","136.872","12.287999999999998","4","-1","-1","","","","","","","","","","","","",""
"psychophysics","18","355158","0.0-6.0-0.12","6078449140caf31f1912ee83","609006691f6f4e337c17f836","609a612c6a75b284ff8123c0","1951.0599999994156","","","","37","","","","key","16.754954285714444","683","328.5","true","1","129","9.8304","5","1","-1","","","","","","","","","","","","",""
"psychophysics","19","356431","0.0-6.0-0.13","6078449140caf31f1912ee83","609006691f6f4e337c17f836","609a612c6a75b284ff8123c0","267.21000000543427","","","","37","","","","key","16.755013333333192","683","328.5","true","-1","138.8304","9.8304","5","-1","1","","","","","","","","","","","","",""
"psychophysics","20","357725","0.0-6.0-0.14","6078449140caf31f1912ee83","609006691f6f4e337c17f836","609a612c6a75b284ff8123c0","289.98999999748776","","","","39","","","","key","16.754000000000048","683","328.5","true","1","138.8304","7.864319999999999","6","-1","-1","","","","","","","","","","","","",""
"psychophysics","21","360972","0.0-6.0-0.15","6078449140caf31f1912ee83","609006691f6f4e337c17f836","609a612c6a75b284ff8123c0","2244.104999997944","","","","37","","","","key","16.755072538860063","683","328.5","true","-1","130.96608","7.864319999999999","6","-1","-1","","","","","","","","","","","","",""
"psychophysics","22","363542","0.0-6.0-0.16","6078449140caf31f1912ee83","609006691f6f4e337c17f836","609a612c6a75b284ff8123c0","1566.3799999965704","","","","39","","","","key","16.754572368421098","683","328.5","true","-1","130.96608","6.291456","7","1","-1","","","","","","","","","","","","",""
"psychophysics","23","364963","0.0-6.0-0.17","6078449140caf31f1912ee83","609006691f6f4e337c17f836","609a612c6a75b284ff8123c0","413.35999999864725","","","","37","","","","key","16.753488095238158","683","328.5","true","-1","137.25753600000002","6.291456","7","-1","1","","","","","","","","","","","","",""
"psychophysics","24","366331","0.0-6.0-0.18","6078449140caf31f1912ee83","609006691f6f4e337c17f836","609a612c6a75b284ff8123c0","361.3150000019232","","","","37","","","","key","16.755111111110985","683","328.5","true","-1","137.25753600000002","5.033164800000001","8","-1","-1","","","","","","","","","","","","",""
"psychophysics","25","370285","0.0-6.0-0.19","6078449140caf31f1912ee83","609006691f6f4e337c17f836","609a612c6a75b284ff8123c0","2931.0550000009243","","","","37","","","","key","16.755204255319143","683","328.5","true","1","132.2243712","4.0265318400000005","9","1","-1","","","","","","","","","","","","",""
"psychophysics","26","371376","0.0-6.0-0.20","6078449140caf31f1912ee83","609006691f6f4e337c17f836","609a612c6a75b284ff8123c0","88.58999999938533","","","","39","","","","key","16.755296875000568","683","328.5","true","1","136.25090304","4.0265318400000005","9","-1","1","","","","","","","","","","","","",""
"psychophysics","27","372546","0.0-6.0-0.21","6078449140caf31f1912ee83","609006691f6f4e337c17f836","609a612c6a75b284ff8123c0","165.43500000261702","","","","39","","","","key","16.755014492753908","683","328.5","true","1","136.25090304","3.2212254720000004","10","-1","-1","","","","","","","","","","","","",""
"psychophysics","28","374711","0.0-6.0-0.22","6078449140caf31f1912ee83","609006691f6f4e337c17f836","609a612c6a75b284ff8123c0","1160.729999995965","","","","39","","","","key","16.75540624999985","683","328.5","true","-1","133.029677568","2.5769803776000004","11","1","-1","","","","","","","","","","","","",""
"psychophysics","29","377432","0.0-6.0-0.23","6078449140caf31f1912ee83","609006691f6f4e337c17f836","609a612c6a75b284ff8123c0","1714.7650000042631","","","","37","","","","key","16.754881987577775","683","328.5","true","-1","135.6066579456","2.5769803776000004","11","-1","1","","","","","","","","","","","","",""
"psychophysics","30","378777","0.0-6.0-0.24","6078449140caf31f1912ee83","609006691f6f4e337c17f836","609a612c6a75b284ff8123c0","335.42499999748543","","","","39","","","","key","16.755299999999988","683","328.5","true","1","135.6066579456","2.0615843020800004","12","-1","-1","","","","","","","","","","","","",""
"psychophysics","31","380233","0.0-6.0-0.25","6078449140caf31f1912ee83","609006691f6f4e337c17f836","609a612c6a75b284ff8123c0","452.0399999964866","","","","39","","","","key","16.754546511627947","683","328.5","true","1","133.54507364352","2.0615843020800004","12","-1","-1","","","","","","","","","","","","",""
"psychophysics","32","382845","0.0-6.0-0.26","6078449140caf31f1912ee83","609006691f6f4e337c17f836","609a612c6a75b284ff8123c0","1606.789999998","","","","37","","","","key","16.755331168831145","683","328.5","true","-1","133.54507364352","2.0615843020800004","12","-1","-1","","","","","","","","","","","","",""
"psychophysics","33","385201","0.0-6.0-0.27","6078449140caf31f1912ee83","609006691f6f4e337c17f836","609a612c6a75b284ff8123c0","1342.8800000037882","","","","39","","","","key","16.754964285714337","683","328.5","true","1","131.48348934144","2.0615843020800004","12","-1","-1","","","","","","","","","","","","",""
"psychophysics","34","387248","0.0-6.0-0.28","6078449140caf31f1912ee83","609006691f6f4e337c17f836","609a612c6a75b284ff8123c0","1043.3149999953457","","","","39","","","","key","16.754479338843105","683","328.5","true","-1","131.48348934144","1.6492674416640005","13","1","-1","","","","","","","","","","","","",""
"psychophysics","35","389215","0.0-6.0-0.29","6078449140caf31f1912ee83","609006691f6f4e337c17f836","609a612c6a75b284ff8123c0","965.2399999977206","","","","39","","","","key","16.755344827586168","683","328.5","true","-1","133.13275678310399","1.6492674416640005","13","1","1","","","","","","","","","","","","",""
"psychophysics","36","391578","0.0-6.0-0.30","6078449140caf31f1912ee83","609006691f6f4e337c17f836","609a612c6a75b284ff8123c0","1356.0750000033295","","","","37","","","","key","16.7550780141845","683","328.5","true","-1","134.78202422476798","1.6492674416640005","13","-1","1","","","","","","","","","","","","",""
"psychophysics","37","393136","0.0-6.0-0.31","6078449140caf31f1912ee83","609006691f6f4e337c17f836","609a612c6a75b284ff8123c0","552.2600000040256","","","","37","","","","key","16.75501086956533","683","328.5","true","-1","134.78202422476798","1.3194139533312006","14","-1","-1","","","","","","","","","","","","",""
"psychophysics","38","395287","0.0-6.0-0.32","6078449140caf31f1912ee83","609006691f6f4e337c17f836","609a612c6a75b284ff8123c0","1147.7599999998347","","","","37","","","","key","16.755574803149482","683","328.5","true","1","133.46261027143677","1.0555311626649604","15","1","-1","","","","","","","","","","","","",""
"psychophysics","39","396576","0.0-6.0-0.33","6078449140caf31f1912ee83","609006691f6f4e337c17f836","609a612c6a75b284ff8123c0","286.8799999996554","","","","39","","","","key","16.754657894737505","683","328.5","true","1","134.51814143410172","1.0555311626649604","15","-1","1","","","","","","","","","","","","",""
"psychophysics","40","397843","0.0-6.0-0.34","6078449140caf31f1912ee83","609006691f6f4e337c17f836","609a612c6a75b284ff8123c0","264.8200000039651","","","","39","","","","key","16.754973333332842","683","328.5","true","1","134.51814143410172","1","16","-1","-1","","","","","","","","","","","","",""
"psychophysics","41","399340","0.0-6.0-0.35","6078449140caf31f1912ee83","609006691f6f4e337c17f836","609a612c6a75b284ff8123c0","491.2449999974342","","","","37","","","","key","16.75429545454509","683","328.5","true","-1","133.51814143410172","1","16","-1","-1","","","","","","","","","","","","",""
"psychophysics","42","401184","0.0-6.0-0.36","6078449140caf31f1912ee83","609006691f6f4e337c17f836","609a612c6a75b284ff8123c0","841.870000003837","","","","39","","","","key","16.755504587155748","683","328.5","true","-1","133.51814143410172","1","17","1","-1","","","","","","","","","","","","",""
"psychophysics","43","402457","0.0-6.0-0.37","6078449140caf31f1912ee83","609006691f6f4e337c17f836","609a612c6a75b284ff8123c0","268.99000000412343","","","","37","","","","key","16.754973333332842","683","328.5","true","-1","134.51814143410172","1","17","-1","1","","","","","","","","","","","","",""
"psychophysics","44","403766","0.0-6.0-0.38","6078449140caf31f1912ee83","609006691f6f4e337c17f836","609a612c6a75b284ff8123c0","301.29000000306405","","","","39","","","","key","16.75509090909081","683","328.5","true","1","134.51814143410172","1","18","-1","-1","","","","","","","","","","","","",""
"psychophysics","45","405922","0.0-6.0-0.39","6078449140caf31f1912ee83","609006691f6f4e337c17f836","609a612c6a75b284ff8123c0","1154.709999995248","","","","37","","","","key","16.75489062500037","683","328.5","true","-1","133.51814143410172","1","18","-1","-1","","","","","","","","","","","","",""
"html-keyboard-response","46","412525","0.0-7.0","6078449140caf31f1912ee83","609006691f6f4e337c17f836","609a612c6a75b284ff8123c0","6601.090000003751","<p>Well Done !</p><p>Prepare for a new block.</p><p>DON'T EXIT THE FULL SCREEN MODE</p><p>Press the Spacebar to start.</p>","","","32","","","","","","","","","","","","","","","true","133.65623543418062","","","","","","","","","","",""
"psychophysics","47","413836","0.0-8.0-0.0","6078449140caf31f1912ee83","609006691f6f4e337c17f836","609a612c6a75b284ff8123c0","303.2000000021071","","","","37","","","","key","16.777371794871915","683","328.5","true","-1","180","30","0","-1","","","","","","","","","","","","","",""
"psychophysics","48","414874","0.0-8.0-0.1","6078449140caf31f1912ee83","609006691f6f4e337c17f836","609a612c6a75b284ff8123c0","34.12499999831198","","","","37","","","","key","16.755262295081906","683","328.5","true","-1","180","30","0","-1","-1","","","","","","","","","","","","",""
"psychophysics","49","416057","0.0-8.0-0.2","6078449140caf31f1912ee83","609006691f6f4e337c17f836","609a612c6a75b284ff8123c0","177.3650000031921","","","","39","","","","key","16.755130434783336","683","328.5","true","1","150","30","0","-1","-1","","","","","","","","","","","","",""
"psychophysics","50","419283","0.0-8.0-0.3","6078449140caf31f1912ee83","609006691f6f4e337c17f836","609a612c6a75b284ff8123c0","2220.020000000659","","","","37","","","","key","16.754901041666624","683","328.5","true","-1","150","30","0","-1","-1","","","","","","","","","","","","",""
"psychophysics","51","420805","0.0-8.0-0.4","6078449140caf31f1912ee83","609006691f6f4e337c17f836","609a612c6a75b284ff8123c0","519.6050000013201","","","","39","","","","key","16.755655555555776","683","328.5","true","1","129","30","0","-1","-1","","","","","","","","","","","","",""
"psychophysics","52","422458","0.0-8.0-0.5","6078449140caf31f1912ee83","609006691f6f4e337c17f836","609a612c6a75b284ff8123c0","649.7450000024401","","","","37","","","","key","16.754693877551233","683","328.5","true","1","129","24","1","1","-1","","","","","","","","","","","","",""
"psychophysics","53","423658","0.0-8.0-0.6","6078449140caf31f1912ee83","609006691f6f4e337c17f836","609a612c6a75b284ff8123c0","194.4149999981164","","","","39","","","","key","16.755028571428763","683","328.5","true","1","153","24","1","-1","1","","","","","","","","","","","","",""
"psychophysics","54","424908","0.0-8.0-0.7","6078449140caf31f1912ee83","609006691f6f4e337c17f836","609a612c6a75b284ff8123c0","246.3350000034552","","","","39","","","","key","16.754432432432942","683","328.5","true","1","153","19.2","2","-1","-1","","","","","","","","","","","","",""
"psychophysics","55","426150","0.0-8.0-0.8","6078449140caf31f1912ee83","609006691f6f4e337c17f836","609a612c6a75b284ff8123c0","238.87000000104308","","","","39","","","","key","16.75578082191809","683","328.5","true","1","133.8","19.2","2","-1","-1","","","","","","","","","","","","",""
"psychophysics","56","427736","0.0-8.0-0.9","6078449140caf31f1912ee83","609006691f6f4e337c17f836","609a612c6a75b284ff8123c0","580.6799999991199","","","","39","","","","key","16.754904255319257","683","328.5","true","-1","133.8","15.36","3","1","-1","","","","","","","","","","","","",""
"psychophysics","57","428952","0.0-8.0-0.10","6078449140caf31f1912ee83","609006691f6f4e337c17f836","609a612c6a75b284ff8123c0","209.3899999963469","","","","39","","","","key","16.756309859155394","683","328.5","true","1","149.16000000000003","15.36","3","-1","1","","","","","","","","","","","","",""
"psychophysics","58","430217","0.0-8.0-0.11","6078449140caf31f1912ee83","609006691f6f4e337c17f836","609a612c6a75b284ff8123c0","262.5599999955739","","","","39","","","","key","16.754400000000217","683","328.5","true","1","149.16000000000003","12.287999999999998","4","-1","-1","","","","","","","","","","","","",""
"psychophysics","59","431458","0.0-8.0-0.12","6078449140caf31f1912ee83","609006691f6f4e337c17f836","609a612c6a75b284ff8123c0","236.89000000013039","","","","39","","","","key","16.75499999999987","683","328.5","true","1","136.872","12.287999999999998","4","-1","-1","","","","","","","","","","","","",""
"psychophysics","60","432769","0.0-8.0-0.13","6078449140caf31f1912ee83","609006691f6f4e337c17f836","609a612c6a75b284ff8123c0","307.54000000160886","","","","37","","","","key","16.754506493505854","683","328.5","true","-1","136.872","12.287999999999998","4","-1","-1","","","","","","","","","","","","",""
"psychophysics","61","435179","0.0-8.0-0.14","6078449140caf31f1912ee83","609006691f6f4e337c17f836","609a612c6a75b284ff8123c0","1407.3449999996228","","","","37","","","","key","16.75526573426551","683","328.5","true","1","129","9.8304","5","1","-1","","","","","","","","","","","","",""
"psychophysics","62","436441","0.0-8.0-0.15","6078449140caf31f1912ee83","609006691f6f4e337c17f836","609a612c6a75b284ff8123c0","259.68500000453787","","","","37","","","","key","16.75487837837883","683","328.5","true","-1","138.8304","9.8304","5","-1","1","","","","","","","","","","","","",""
"psychophysics","63","437674","0.0-8.0-0.16","6078449140caf31f1912ee83","609006691f6f4e337c17f836","609a612c6a75b284ff8123c0","226.8049999984214","","","","37","","","","key","16.753808219178758","683","328.5","true","-1","138.8304","7.864319999999999","6","-1","-1","","","","","","","","","","","","",""
"psychophysics","64","439958","0.0-8.0-0.17","6078449140caf31f1912ee83","609006691f6f4e337c17f836","609a612c6a75b284ff8123c0","1281.345000003057","","","","39","","","","key","16.755125925925785","683","328.5","true","1","130.96608","7.864319999999999","6","-1","-1","","","","","","","","","","","","",""
"psychophysics","65","441442","0.0-8.0-0.18","6078449140caf31f1912ee83","609006691f6f4e337c17f836","609a612c6a75b284ff8123c0","480.8649999977206","","","","37","","","","key","16.754670454545703","683","328.5","true","-1","130.96608","7.864319999999999","6","-1","-1","","","","","","","","","","","","",""
"psychophysics","66","443966","0.0-8.0-0.19","6078449140caf31f1912ee83","609006691f6f4e337c17f836","609a612c6a75b284ff8123c0","1521.6550000041025","","","","39","","","","key","16.755107382550325","683","328.5","true","-1","129","6.291456","7","1","-1","","","","","","","","","","","","",""
"psychophysics","67","445167","0.0-8.0-0.20","6078449140caf31f1912ee83","609006691f6f4e337c17f836","609a612c6a75b284ff8123c0","194.08499999553896","","","","39","","","","key","16.754788732394726","683","328.5","true","1","135.291456","6.291456","7","-1","1","","","","","","","","","","","","",""
"psychophysics","68","446608","0.0-8.0-0.21","6078449140caf31f1912ee83","609006691f6f4e337c17f836","609a612c6a75b284ff8123c0","437.21499999810476","","","","39","","","","key","16.75510588235304","683","328.5","true","1","135.291456","5.033164800000001","8","-1","-1","","","","","","","","","","","","",""
"psychophysics","69","448335","0.0-8.0-0.22","6078449140caf31f1912ee83","609006691f6f4e337c17f836","609a612c6a75b284ff8123c0","722.6499999960652","","","","37","","","","key","16.754911764705778","683","328.5","true","1","130.2582912","4.0265318400000005","9","1","-1","","","","","","","","","","","","",""
"psychophysics","70","449469","0.0-8.0-0.23","6078449140caf31f1912ee83","609006691f6f4e337c17f836","609a612c6a75b284ff8123c0","131.16000000445638","","","","39","","","","key","16.755059701493078","683","328.5","true","1","134.28482304","4.0265318400000005","9","-1","1","","","","","","","","","","","","",""
"psychophysics","71","450932","0.0-8.0-0.24","6078449140caf31f1912ee83","609006691f6f4e337c17f836","609a612c6a75b284ff8123c0","459.8349999942002","","","","39","","","","key","16.754116279069674","683","328.5","true","1","134.28482304","3.2212254720000004","10","-1","-1","","","","","","","","","","","","",""
"psychophysics","72","453884","0.0-8.0-0.25","6078449140caf31f1912ee83","609006691f6f4e337c17f836","609a612c6a75b284ff8123c0","1949.9649999997928","","","","37","","","","key","16.75514857142831","683","328.5","true","-1","131.06359756799998","3.2212254720000004","10","-1","-1","","","","","","","","","","","","",""
"psychophysics","73","456141","0.0-8.0-0.26","6078449140caf31f1912ee83","609006691f6f4e337c17f836","609a612c6a75b284ff8123c0","1246.0399999981746","","","","39","","","","key","16.755470149253785","683","328.5","true","-1","131.06359756799998","2.5769803776000004","11","1","-1","","","","","","","","","","","","",""
"psychophysics","74","458039","0.0-8.0-0.27","6078449140caf31f1912ee83","609006691f6f4e337c17f836","609a612c6a75b284ff8123c0","895.5750000022817","","","","37","","","","key","16.754892857142426","683","328.5","true","-1","133.64057794559997","2.5769803776000004","11","-1","1","","","","","","","","","","","","",""
"psychophysics","75","461821","0.0-8.0-0.28","6078449140caf31f1912ee83","609006691f6f4e337c17f836","609a612c6a75b284ff8123c0","2776.75000000454","","","","37","","","","key","16.755013333333448","683","328.5","true","-1","133.64057794559997","2.0615843020800004","12","-1","-1","","","","","","","","","","","","",""
"psychophysics","76","464048","0.0-8.0-0.29","6078449140caf31f1912ee83","609006691f6f4e337c17f836","609a612c6a75b284ff8123c0","1222.6399999999558","","","","39","","","","key","16.75509848484856","683","328.5","true","-1","131.57899364351996","1.6492674416640005","13","1","-1","","","","","","","","","","","","",""
"psychophysics","77","465519","0.0-8.0-0.30","6078449140caf31f1912ee83","609006691f6f4e337c17f836","609a612c6a75b284ff8123c0","467.15499999845633","","","","37","","","","key","16.75456321839077","683","328.5","true","-1","133.22826108518396","1.6492674416640005","13","-1","1","","","","","","","","","","","","",""
"psychophysics","78","467166","0.0-8.0-0.31","6078449140caf31f1912ee83","609006691f6f4e337c17f836","609a612c6a75b284ff8123c0","641.2449999988894","","","","37","","","","key","16.75524742268062","683","328.5","true","1","133.22826108518396","1.3194139533312006","14","1","-1","","","","","","","","","","","","",""
"psychophysics","79","468794","0.0-8.0-0.32","6078449140caf31f1912ee83","609006691f6f4e337c17f836","609a612c6a75b284ff8123c0","624.7250000014901","","","","37","","","","key","16.754572916666195","683","328.5","true","-1","134.54767503851517","1.3194139533312006","14","-1","1","","","","","","","","","","","","",""
"psychophysics","80","470075","0.0-8.0-0.33","6078449140caf31f1912ee83","609006691f6f4e337c17f836","609a612c6a75b284ff8123c0","274.62499999819556","","","","37","","","","key","16.755526315789258","683","328.5","true","-1","134.54767503851517","1.0555311626649604","15","-1","-1","","","","","","","","","","","","",""
"psychophysics","81","472431","0.0-8.0-0.34","6078449140caf31f1912ee83","609006691f6f4e337c17f836","609a612c6a75b284ff8123c0","1351.5899999983958","","","","37","","","","key","16.755604316546624","683","328.5","true","-1","133.49214387585022","1.0555311626649604","15","-1","-1","","","","","","","","","","","","",""
"psychophysics","82","473697","0.0-8.0-0.35","6078449140caf31f1912ee83","609006691f6f4e337c17f836","609a612c6a75b284ff8123c0","262.69000000320375","","","","39","","","","key","16.755280000000106","683","328.5","true","1","133.49214387585022","1.0555311626649604","15","-1","-1","","","","","","","","","","","","",""
"psychophysics","83","475924","0.0-8.0-0.36","6078449140caf31f1912ee83","609006691f6f4e337c17f836","609a612c6a75b284ff8123c0","1223.0749999944237","","","","39","","","","key","16.754954545454837","683","328.5","true","1","132.43661271318527","1.0555311626649604","15","-1","-1","","","","","","","","","","","","",""
"psychophysics","84","478141","0.0-8.0-0.37","6078449140caf31f1912ee83","609006691f6f4e337c17f836","609a612c6a75b284ff8123c0","1214.814999999362","","","","39","","","","key","16.754999999999768","683","328.5","true","1","132.43661271318527","1.0555311626649604","15","-1","-1","","","","","","","","","","","","",""
"psychophysics","85","479534","0.0-8.0-0.38","6078449140caf31f1912ee83","609006691f6f4e337c17f836","609a612c6a75b284ff8123c0","389.9849999943399","","","","37","","","","key","16.755353658536745","683","328.5","true","-1","131.38108155052032","1.0555311626649604","15","-1","-1","","","","","","","","","","","","",""
"psychophysics","86","481442","0.0-8.0-0.39","6078449140caf31f1912ee83","609006691f6f4e337c17f836","609a612c6a75b284ff8123c0","905.4200000027777","","","","39","","","","key","16.754637168141894","683","328.5","true","-1","131.38108155052032","1","16","1","-1","","","","","","","","","","","","",""
"html-keyboard-response","87","484196","0.0-9.0","6078449140caf31f1912ee83","609006691f6f4e337c17f836","609a612c6a75b284ff8123c0","2751.8049999998766","<p>Well Done !</p><p>Prepare for a new block.</p><p>DON'T EXIT THE FULL SCREEN MODE</p><p>Press the Spacebar to start.</p>","","","32","","","","","","","","","","","","","","","true","132.74392621314863","","","","","","","","","","",""
"psychophysics","88","485605","0.0-10.0-0.0","6078449140caf31f1912ee83","609006691f6f4e337c17f836","609a612c6a75b284ff8123c0","403.01500000350643","","","","37","","","","key","16.727535714285857","683","328.5","true","-1","180","30","0","-1","","","","","","","","","","","","","",""
"psychophysics","89","489860","0.0-10.0-0.1","6078449140caf31f1912ee83","609006691f6f4e337c17f836","609a612c6a75b284ff8123c0","3246.820000000298","","","","37","","","","key","16.755051383399174","683","328.5","true","1","180","30","0","1","-1","","","","","","","","","","","","",""
"psychophysics","90","491044","0.0-10.0-0.2","6078449140caf31f1912ee83","609006691f6f4e337c17f836","609a612c6a75b284ff8123c0","178.79499999980908","","","","37","","","","key","16.75504347826084","683","328.5","true","-1","210","30","0","-1","1","","","","","","","","","","","","",""
"psychophysics","91","492639","0.0-10.0-0.3","6078449140caf31f1912ee83","609006691f6f4e337c17f836","609a612c6a75b284ff8123c0","591.9500000018161","","","","37","","","","key","16.755276595745137","683","328.5","true","-1","210","24","1","-1","-1","","","","","","","","","","","","",""
"psychophysics","92","493801","0.0-10.0-0.4","6078449140caf31f1912ee83","609006691f6f4e337c17f836","609a612c6a75b284ff8123c0","158.21000000141794","","","","37","","","","key","16.755260869564548","683","328.5","true","-1","186","24","1","-1","-1","","","","","","","","","","","","",""
"psychophysics","93","495349","0.0-10.0-0.5","6078449140caf31f1912ee83","609006691f6f4e337c17f836","609a612c6a75b284ff8123c0","543.2099999961792","","","","37","","","","key","16.75474725274694","683","328.5","true","-1","186","24","1","-1","-1","","","","","","","","","","","","",""
"psychophysics","94","496694","0.0-10.0-0.6","6078449140caf31f1912ee83","609006691f6f4e337c17f836","609a612c6a75b284ff8123c0","343.0249999946682","","","","39","","","","key","16.755518987341606","683","328.5","true","1","162","24","1","-1","-1","","","","","","","","","","","","",""
"psychophysics","95","497838","0.0-10.0-0.7","6078449140caf31f1912ee83","609006691f6f4e337c17f836","609a612c6a75b284ff8123c0","139.06999999744585","","","","39","","","","key","16.754838235294514","683","328.5","true","1","162","24","1","-1","-1","","","","","","","","","","","","",""
"psychophysics","96","500595","0.0-10.0-0.8","6078449140caf31f1912ee83","609006691f6f4e337c17f836","609a612c6a75b284ff8123c0","1751.66999999783","","","","37","","","","key","16.75497546012262","683","328.5","true","-1","138","24","1","-1","-1","","","","","","","","","","","","",""
"psychophysics","97","501647","0.0-10.0-0.9","6078449140caf31f1912ee83","609006691f6f4e337c17f836","609a612c6a75b284ff8123c0","49.59000000235392","","","","39","","","","key","16.75514516128967","683","328.5","true","1","138","24","1","-1","-1","","","","","","","","","","","","",""
"psychophysics","98","503446","0.0-10.0-0.10","6078449140caf31f1912ee83","609006691f6f4e337c17f836","609a612c6a75b284ff8123c0","795.0550000023213","","","","37","","","","key","16.754490566037965","683","328.5","true","1","129","19.2","2","1","-1","","","","","","","","","","","","",""
"psychophysics","99","504484","0.0-10.0-0.11","6078449140caf31f1912ee83","609006691f6f4e337c17f836","609a612c6a75b284ff8123c0","35.02499999740394","","","","39","","","","key","16.755213114754564","683","328.5","true","1","148.2","19.2","2","-1","1","","","","","","","","","","","","",""
"psychophysics","100","505581","0.0-10.0-0.12","6078449140caf31f1912ee83","609006691f6f4e337c17f836","609a612c6a75b284ff8123c0","92.62499999749707","","","","39","","","","key","16.75466153846176","683","328.5","true","1","148.2","15.36","3","-1","-1","","","","","","","","","","","","",""
"psychophysics","101","506683","0.0-10.0-0.13","6078449140caf31f1912ee83","609006691f6f4e337c17f836","609a612c6a75b284ff8123c0","101.01500000018859","","","","39","","","","key","16.754599999999986","683","328.5","true","1","132.83999999999997","15.36","3","-1","-1","","","","","","","","","","","","",""
"psychophysics","102","508015","0.0-10.0-0.14","6078449140caf31f1912ee83","609006691f6f4e337c17f836","609a612c6a75b284ff8123c0","328.9650000006077","","","","37","","","","key","16.75484615384649","683","328.5","true","-1","132.83999999999997","15.36","3","-1","-1","","","","","","","","","","","","",""
"psychophysics","103","509501","0.0-10.0-0.15","6078449140caf31f1912ee83","609006691f6f4e337c17f836","609a612c6a75b284ff8123c0","482.10000000108266","","","","39","","","","key","16.75528409090938","683","328.5","true","-1","129","12.287999999999998","4","1","-1","","","","","","","","","","","","",""
"psychophysics","104","510795","0.0-10.0-0.16","6078449140caf31f1912ee83","609006691f6f4e337c17f836","609a612c6a75b284ff8123c0","289.8949999944307","","","","37","","","","key","16.755565789473813","683","328.5","true","-1","141.288","12.287999999999998","4","-1","1","","","","","","","","","","","","",""
"psychophysics","105","512015","0.0-10.0-0.17","6078449140caf31f1912ee83","609006691f6f4e337c17f836","609a612c6a75b284ff8123c0","212.93499999592314","","","","39","","","","key","16.754416666666252","683","328.5","true","1","141.288","9.8304","5","-1","-1","","","","","","","","","","","","",""
"psychophysics","106","515063","0.0-10.0-0.18","6078449140caf31f1912ee83","609006691f6f4e337c17f836","609a612c6a75b284ff8123c0","2045.9000000046217","","","","37","","","","key","16.754944751380997","683","328.5","true","1","131.4576","7.864319999999999","6","1","-1","","","","","","","","","","","","",""
"psychophysics","107","516880","0.0-10.0-0.19","6078449140caf31f1912ee83","609006691f6f4e337c17f836","609a612c6a75b284ff8123c0","812.644999998156","","","","39","","","","key","16.755672897195886","683","328.5","true","-1","139.32192","7.864319999999999","6","1","1","","","","","","","","","","","","",""
"psychophysics","108","518199","0.0-10.0-0.20","6078449140caf31f1912ee83","609006691f6f4e337c17f836","609a612c6a75b284ff8123c0","316.61999999778345","","","","37","","","","key","16.75505128205091","683","328.5","true","-1","147.18624","7.864319999999999","6","-1","1","","","","","","","","","","","","",""
"psychophysics","109","519389","0.0-10.0-0.21","6078449140caf31f1912ee83","609006691f6f4e337c17f836","609a612c6a75b284ff8123c0","181.8550000025425","","","","39","","","","key","16.75534285714218","683","328.5","true","1","147.18624","6.291456","7","-1","-1","","","","","","","","","","","","",""
"psychophysics","110","520520","0.0-10.0-0.22","6078449140caf31f1912ee83","609006691f6f4e337c17f836","609a612c6a75b284ff8123c0","126.82000000495464","","","","39","","","","key","16.755712121211797","683","328.5","true","1","140.894784","6.291456","7","-1","-1","","","","","","","","","","","","",""
"psychophysics","111","521708","0.0-10.0-0.23","6078449140caf31f1912ee83","609006691f6f4e337c17f836","609a612c6a75b284ff8123c0","183.57000000099652","","","","37","","","","key","16.755357142857143","683","328.5","true","-1","140.894784","6.291456","7","-1","-1","","","","","","","","","","","","",""
"psychophysics","112","522977","0.0-10.0-0.24","6078449140caf31f1912ee83","609006691f6f4e337c17f836","609a612c6a75b284ff8123c0","261.6600000037579","","","","39","","","","key","16.754746666667053","683","328.5","true","1","134.60332799999998","6.291456","7","-1","-1","","","","","","","","","","","","",""
"psychophysics","113","524211","0.0-10.0-0.25","6078449140caf31f1912ee83","609006691f6f4e337c17f836","609a612c6a75b284ff8123c0","227.42999999900348","","","","39","","","","key","16.75578082191809","683","328.5","true","1","134.60332799999998","6.291456","7","-1","-1","","","","","","","","","","","","",""
"psychophysics","114","525670","0.0-10.0-0.26","6078449140caf31f1912ee83","609006691f6f4e337c17f836","609a612c6a75b284ff8123c0","455.71499999635853","","","","37","","","","key","16.754604651162207","683","328.5","true","1","129","5.033164800000001","8","1","-1","","","","","","","","","","","","",""
"psychophysics","115","527129","0.0-10.0-0.27","6078449140caf31f1912ee83","609006691f6f4e337c17f836","609a612c6a75b284ff8123c0","456.52500000130385","","","","39","","","","key","16.755616279069855","683","328.5","true","-1","134.0331648","5.033164800000001","8","1","1","","","","","","","","","","","","",""
"psychophysics","116","528402","0.0-10.0-0.28","6078449140caf31f1912ee83","609006691f6f4e337c17f836","609a612c6a75b284ff8123c0","271.2200000024168","","","","37","","","","key","16.75558666666659","683","328.5","true","-1","139.06632960000002","5.033164800000001","8","-1","1","","","","","","","","","","","","",""
"psychophysics","117","529642","0.0-10.0-0.29","6078449140caf31f1912ee83","609006691f6f4e337c17f836","609a612c6a75b284ff8123c0","236.19000000320375","","","","37","","","","key","16.755589041095035","683","328.5","true","-1","139.06632960000002","4.0265318400000005","9","-1","-1","","","","","","","","","","","","",""
"psychophysics","118","531102","0.0-10.0-0.30","6078449140caf31f1912ee83","609006691f6f4e337c17f836","609a612c6a75b284ff8123c0","454.1800000006333","","","","39","","","","key","16.754755813953317","683","328.5","true","1","135.03979776000003","4.0265318400000005","9","-1","-1","","","","","","","","","","","","",""
"psychophysics","119","532277","0.0-10.0-0.31","6078449140caf31f1912ee83","609006691f6f4e337c17f836","609a612c6a75b284ff8123c0","168.7549999987241","","","","39","","","","key","16.755057971015155","683","328.5","true","1","135.03979776000003","4.0265318400000005","9","-1","-1","","","","","","","","","","","","",""
"psychophysics","120","534977","0.0-10.0-0.32","6078449140caf31f1912ee83","609006691f6f4e337c17f836","609a612c6a75b284ff8123c0","1696.3699999977835","","","","39","","","","key","16.755249999999798","683","328.5","true","1","131.01326592000004","4.0265318400000005","9","-1","-1","","","","","","","","","","","","",""
"psychophysics","121","536411","0.0-10.0-0.33","6078449140caf31f1912ee83","609006691f6f4e337c17f836","609a612c6a75b284ff8123c0","424.01499999687076","","","","37","","","","key","16.75525882352993","683","328.5","true","1","131.01326592000004","3.2212254720000004","10","1","-1","","","","","","","","","","","","",""
"psychophysics","122","539530","0.0-10.0-0.34","6078449140caf31f1912ee83","609006691f6f4e337c17f836","609a612c6a75b284ff8123c0","2114.224999997532","","","","37","","","","key","16.754675675675625","683","328.5","true","-1","134.23449139200005","3.2212254720000004","10","-1","1","","","","","","","","","","","","",""
"psychophysics","123","541924","0.0-10.0-0.35","6078449140caf31f1912ee83","609006691f6f4e337c17f836","609a612c6a75b284ff8123c0","1389.080000000773","","","","37","","","","key","16.75517605633793","683","328.5","true","-1","134.23449139200005","2.5769803776000004","11","-1","-1","","","","","","","","","","","","",""
"psychophysics","124","543603","0.0-10.0-0.36","6078449140caf31f1912ee83","609006691f6f4e337c17f836","609a612c6a75b284ff8123c0","675.424999993993","","","","39","","","","key","16.75526262626212","683","328.5","true","-1","131.65751101440006","2.0615843020800004","12","1","-1","","","","","","","","","","","","",""
"psychophysics","125","545606","0.0-10.0-0.37","6078449140caf31f1912ee83","609006691f6f4e337c17f836","609a612c6a75b284ff8123c0","1001.3599999947473","","","","37","","","","key","16.75530252100884","683","328.5","true","-1","133.71909531648006","2.0615843020800004","12","-1","1","","","","","","","","","","","","",""
"psychophysics","126","547844","0.0-10.0-0.38","6078449140caf31f1912ee83","609006691f6f4e337c17f836","609a612c6a75b284ff8123c0","1231.5549999985378","","","","39","","","","key","16.75573484848472","683","328.5","true","1","133.71909531648006","1.6492674416640005","13","-1","-1","","","","","","","","","","","","",""
"psychophysics","127","549628","0.0-10.0-0.39","6078449140caf31f1912ee83","609006691f6f4e337c17f836","609a612c6a75b284ff8123c0","781.4800000051036","","","","37","","","","key","16.75447169811254","683","328.5","true","-1","132.06982787481607","1.6492674416640005","13","-1","-1","","","","","","","","","","","","",""
"html-keyboard-response","128","552091","0.0-11.0","6078449140caf31f1912ee83","609006691f6f4e337c17f836","609a612c6a75b284ff8123c0","2460.559999999474","<p>Well Done !</p><p>Prepare for a new block.</p><p>DON'T EXIT THE FULL SCREEN MODE</p><p>Press the Spacebar to start.</p>","","","32","","","","","","","","","","","","","","","true","133.83398611107845","","","","","","","","","","",""
"psychophysics","129","553944","0.0-12.0-0.0","6078449140caf31f1912ee83","609006691f6f4e337c17f836","609a612c6a75b284ff8123c0","847.1050000006799","","","","37","","","","key","16.720163636363576","683","328.5","true","-1","180","30","0","-1","","","","","","","","","","","","","",""
"psychophysics","130","555007","0.0-12.0-0.1","6078449140caf31f1912ee83","609006691f6f4e337c17f836","609a612c6a75b284ff8123c0","58.89500000199769","","","","39","","","","key","16.75558730158659","683","328.5","true","1","180","30","0","-1","-1","","","","","","","","","","","","",""
"psychophysics","131","556054","0.0-12.0-0.2","6078449140caf31f1912ee83","609006691f6f4e337c17f836","609a612c6a75b284ff8123c0","41.34000000345986","","","","39","","","","key","16.75424590163872","683","328.5","true","1","150","30","0","-1","-1","","","","","","","","","","","","",""
"psychophysics","132","557249","0.0-12.0-0.3","6078449140caf31f1912ee83","609006691f6f4e337c17f836","609a612c6a75b284ff8123c0","191.94500000600237","","","","39","","","","key","16.753957746479937","683","328.5","true","1","150","30","0","-1","-1","","","","","","","","","","","","",""
"psychophysics","133","560208","0.0-12.0-0.4","6078449140caf31f1912ee83","609006691f6f4e337c17f836","609a612c6a75b284ff8123c0","1955.7899999999208","","","","37","","","","key","16.75511428571439","683","328.5","true","-1","129","30","0","-1","-1","","","","","","","","","","","","",""
"psychophysics","134","563076","0.0-12.0-0.5","6078449140caf31f1912ee83","609006691f6f4e337c17f836","609a612c6a75b284ff8123c0","1838.3850000028033","","","","39","","","","key","16.754870588235175","683","328.5","true","-1","129","24","1","1","-1","","","","","","","","","","","","",""
"psychophysics","135","564260","0.0-12.0-0.6","6078449140caf31f1912ee83","609006691f6f4e337c17f836","609a612c6a75b284ff8123c0","179.59500000148546","","","","39","","","","key","16.755642857143123","683","328.5","true","1","153","24","1","-1","1","","","","","","","","","","","","",""
"psychophysics","136","565462","0.0-12.0-0.7","6078449140caf31f1912ee83","609006691f6f4e337c17f836","609a612c6a75b284ff8123c0","197.26499999524094","","","","37","","","","key","16.755605633803448","683","328.5","true","-1","153","19.2","2","-1","-1","","","","","","","","","","","","",""
"psychophysics","137","567876","0.0-12.0-0.8","6078449140caf31f1912ee83","609006691f6f4e337c17f836","609a612c6a75b284ff8123c0","1411.8299999972805","","","","39","","","","key","16.75521678321627","683","328.5","true","-1","133.8","15.36","3","1","-1","","","","","","","","","","","","",""
"psychophysics","138","569014","0.0-12.0-0.9","6078449140caf31f1912ee83","609006691f6f4e337c17f836","609a612c6a75b284ff8123c0","134.2999999979511","","","","37","","","","key","16.755507462687525","683","328.5","true","-1","149.16000000000003","15.36","3","-1","1","","","","","","","","","","","","",""
"psychophysics","139","570200","0.0-12.0-0.10","6078449140caf31f1912ee83","609006691f6f4e337c17f836","609a612c6a75b284ff8123c0","184.09999999846332","","","","37","","","","key","17.001720588234843","683","328.5","true","-1","149.16000000000003","12.287999999999998","4","-1","-1","","","","","","","","","","","","",""
"psychophysics","140","571396","0.0-12.0-0.11","6078449140caf31f1912ee83","609006691f6f4e337c17f836","609a612c6a75b284ff8123c0","188.79500000178814","","","","39","","","","key","16.754239436619404","683","328.5","true","1","136.872","12.287999999999998","4","-1","-1","","","","","","","","","","","","",""
"psychophysics","141","572638","0.0-12.0-0.12","6078449140caf31f1912ee83","609006691f6f4e337c17f836","609a612c6a75b284ff8123c0","238.18500000203494","","","","39","","","","key","16.75552054794588","683","328.5","true","1","136.872","12.287999999999998","4","-1","-1","","","","","","","","","","","","",""
"psychophysics","142","574146","0.0-12.0-0.13","6078449140caf31f1912ee83","609006691f6f4e337c17f836","609a612c6a75b284ff8123c0","504.11000000161584","","","","37","","","","key","16.75456179775235","683","328.5","true","-1","129","12.287999999999998","4","-1","-1","","","","","","","","","","","","",""
"psychophysics","143","575651","0.0-12.0-0.14","6078449140caf31f1912ee83","609006691f6f4e337c17f836","609a612c6a75b284ff8123c0","500.22500000335276","","","","39","","","","key","16.75659550561732","683","328.5","true","1","129","12.287999999999998","4","-1","-1","","","","","","","","","","","","",""
"psychophysics","144","577866","0.0-12.0-0.15","6078449140caf31f1912ee83","609006691f6f4e337c17f836","609a612c6a75b284ff8123c0","1212.0599999979604","","","","39","","","","key","16.754885496183313","683","328.5","true","1","129","12.287999999999998","4","-1","-1","","","","","","","","","","","","",""
"psychophysics","145","579623","0.0-12.0-0.16","6078449140caf31f1912ee83","609006691f6f4e337c17f836","609a612c6a75b284ff8123c0","754.7950000007404","","","","37","","","","key","16.75438461538467","683","328.5","true","1","129","9.8304","5","1","-1","","","","","","","","","","","","",""
"psychophysics","146","580976","0.0-12.0-0.17","6078449140caf31f1912ee83","609006691f6f4e337c17f836","609a612c6a75b284ff8123c0","347.43000000168104","","","","39","","","","key","16.754150000000664","683","328.5","true","1","138.8304","9.8304","5","-1","1","","","","","","","","","","","","",""
"psychophysics","147","582324","0.0-12.0-0.18","6078449140caf31f1912ee83","609006691f6f4e337c17f836","609a612c6a75b284ff8123c0","343.18999999947846","","","","39","","","","key","16.75412658227849","683","328.5","true","1","138.8304","7.864319999999999","6","-1","-1","","","","","","","","","","","","",""
"psychophysics","148","584514","0.0-12.0-0.19","6078449140caf31f1912ee83","609006691f6f4e337c17f836","609a612c6a75b284ff8123c0","1186.2150000015972","","","","39","","","","key","16.755053846153896","683","328.5","true","-1","130.96608","6.291456","7","1","-1","","","","","","","","","","","","",""
"psychophysics","149","586110","0.0-12.0-0.20","6078449140caf31f1912ee83","609006691f6f4e337c17f836","609a612c6a75b284ff8123c0","593.4049999995623","","","","39","","","","key","16.755882978722937","683","328.5","true","1","137.25753600000002","6.291456","7","-1","1","","","","","","","","","","","","",""
"psychophysics","150","587789","0.0-12.0-0.21","6078449140caf31f1912ee83","609006691f6f4e337c17f836","609a612c6a75b284ff8123c0","675.6500000047963","","","","37","","","","key","16.753282828283535","683","328.5","true","-1","137.25753600000002","5.033164800000001","8","-1","-1","","","","","","","","","","","","",""
"psychophysics","151","591666","0.0-12.0-0.22","6078449140caf31f1912ee83","609006691f6f4e337c17f836","609a612c6a75b284ff8123c0","2875.025000001304","","","","39","","","","key","16.755424242424354","683","328.5","true","-1","132.2243712","4.0265318400000005","9","1","-1","","","","","","","","","","","","",""
"psychophysics","152","594221","0.0-12.0-0.23","6078449140caf31f1912ee83","609006691f6f4e337c17f836","609a612c6a75b284ff8123c0","1548.609999998007","","","","39","","","","key","16.75497350993409","683","328.5","true","1","136.25090304","4.0265318400000005","9","-1","1","","","","","","","","","","","","",""
"psychophysics","153","596193","0.0-12.0-0.24","6078449140caf31f1912ee83","609006691f6f4e337c17f836","609a612c6a75b284ff8123c0","969.0249999985099","","","","37","","","","key","16.754538461539106","683","328.5","true","-1","136.25090304","3.2212254720000004","10","-1","-1","","","","","","","","","","","","",""
"psychophysics","154","598088","0.0-12.0-0.25","6078449140caf31f1912ee83","609006691f6f4e337c17f836","609a612c6a75b284ff8123c0","893.149999996298","","","","39","","","","key","16.755223214285383","683","328.5","true","-1","133.029677568","2.5769803776000004","11","1","-1","","","","","","","","","","","","",""
"psychophysics","155","599643","0.0-12.0-0.26","6078449140caf31f1912ee83","609006691f6f4e337c17f836","609a612c6a75b284ff8123c0","551.8400000000838","","","","39","","","","key","16.7550217391298","683","328.5","true","1","135.6066579456","2.5769803776000004","11","-1","1","","","","","","","","","","","","",""
"psychophysics","156","601808","0.0-12.0-0.27","6078449140caf31f1912ee83","609006691f6f4e337c17f836","609a612c6a75b284ff8123c0","1161.585000001709","","","","39","","","","key","16.755039062500146","683","328.5","true","-1","135.6066579456","2.0615843020800004","12","1","-1","","","","","","","","","","","","",""
"psychophysics","157","603333","0.0-12.0-0.28","6078449140caf31f1912ee83","609006691f6f4e337c17f836","609a612c6a75b284ff8123c0","521.7350000020815","","","","37","","","","key","16.75467777777877","683","328.5","true","-1","137.66824224768","2.0615843020800004","12","-1","1","","","","","","","","","","","","",""
"psychophysics","158","604672","0.0-12.0-0.29","6078449140caf31f1912ee83","609006691f6f4e337c17f836","609a612c6a75b284ff8123c0","334.13000000291504","","","","39","","","","key","16.755291139239834","683","328.5","true","1","137.66824224768","1.6492674416640005","13","-1","-1","","","","","","","","","","","","",""
"psychophysics","159","606083","0.0-12.0-0.30","6078449140caf31f1912ee83","609006691f6f4e337c17f836","609a612c6a75b284ff8123c0","406.7849999992177","","","","37","","","","key","16.75474698795146","683","328.5","true","-1","136.01897480601602","1.6492674416640005","13","-1","-1","","","","","","","","","","","","",""
"psychophysics","160","607327","0.0-12.0-0.31","6078449140caf31f1912ee83","609006691f6f4e337c17f836","609a612c6a75b284ff8123c0","239.3999999986263","","","","39","","","","key","16.754561643835398","683","328.5","true","1","136.01897480601602","1.6492674416640005","13","-1","-1","","","","","","","","","","","","",""
"psychophysics","161","608894","0.0-12.0-0.32","6078449140caf31f1912ee83","609006691f6f4e337c17f836","609a612c6a75b284ff8123c0","561.2449999972014","","","","37","","","","key","16.755204301074606","683","328.5","true","1","134.36970736435202","1.3194139533312006","14","1","-1","","","","","","","","","","","","",""
"psychophysics","162","610952","0.0-12.0-0.33","6078449140caf31f1912ee83","609006691f6f4e337c17f836","609a612c6a75b284ff8123c0","1054.5899999997346","","","","37","","","","key","16.75461475409808","683","328.5","true","-1","135.68912131768323","1.3194139533312006","14","-1","1","","","","","","","","","","","","",""
"psychophysics","163","612896","0.0-12.0-0.34","6078449140caf31f1912ee83","609006691f6f4e337c17f836","609a612c6a75b284ff8123c0","941.2299999967217","","","","39","","","","key","16.75525217391348","683","328.5","true","-1","135.68912131768323","1.0555311626649604","15","1","-1","","","","","","","","","","","","",""
"psychophysics","164","614442","0.0-12.0-0.35","6078449140caf31f1912ee83","609006691f6f4e337c17f836","609a612c6a75b284ff8123c0","543.390000006184","","","","39","","","","key","16.75484615384606","683","328.5","true","1","136.74465248034818","1.0555311626649604","15","-1","1","","","","","","","","","","","","",""
"psychophysics","165","616094","0.0-12.0-0.36","6078449140caf31f1912ee83","609006691f6f4e337c17f836","609a612c6a75b284ff8123c0","648.8299999983283","","","","39","","","","key","16.754836734694344","683","328.5","true","1","136.74465248034818","1","16","-1","-1","","","","","","","","","","","","",""
"psychophysics","166","618049","0.0-12.0-0.37","6078449140caf31f1912ee83","609006691f6f4e337c17f836","609a612c6a75b284ff8123c0","952.6150000019697","","","","37","","","","key","16.755617391304924","683","328.5","true","-1","135.74465248034818","1","16","-1","-1","","","","","","","","","","","","",""
"psychophysics","167","619368","0.0-12.0-0.38","6078449140caf31f1912ee83","609006691f6f4e337c17f836","609a612c6a75b284ff8123c0","313.4700000009034","","","","39","","","","key","16.75433333333319","683","328.5","true","1","135.74465248034818","1","16","-1","-1","","","","","","","","","","","","",""
"psychophysics","168","621646","0.0-12.0-0.39","6078449140caf31f1912ee83","609006691f6f4e337c17f836","609a612c6a75b284ff8123c0","1276.2499999953434","","","","37","","","","key","16.754940740740857","683","328.5","true","-1","134.74465248034818","1","16","-1","-1","","","","","","","","","","","","",""
"html-keyboard-response","169","623833","0.0-13.0","6078449140caf31f1912ee83","609006691f6f4e337c17f836","609a612c6a75b284ff8123c0","2184.8800000005867","<p>Well Done !</p><p>Prepare for a new block.</p><p>DON'T EXIT THE FULL SCREEN MODE</p><p>Press the Spacebar to start.</p>","","","32","","","","","","","","","","","","","","","true","135.8059093312034","","","","","","","","","","",""
"html-keyboard-response","170","623938","0.0-14.0","6078449140caf31f1912ee83","609006691f6f4e337c17f836","609a612c6a75b284ff8123c0","null","","","","null","","","","","","","","","","","","","","","","","134.01001427240277","true","140.02002854480554","","","","","","","",""
"instructions","171","689713","0.0-15.0","6078449140caf31f1912ee83","609006691f6f4e337c17f836","609a612c6a75b284ff8123c0","65774.54500000027","","","","","","","[{""page_index"":0,""viewing_time"":53250.20999999833},{""page_index"":1,""viewing_time"":3141.6450000033947},{""page_index"":2,""viewing_time"":9382.184999994934}]","","","","","","","","","","","","","","","","","","","","","","","",""
"psychophysics","172","692732","0.0-16.0-0.0","6078449140caf31f1912ee83","609006691f6f4e337c17f836","609a612c6a75b284ff8123c0","null","","","","null","","","","key","16.653245901639313","683","328.5","","","","","","","","","","","","","","","","","","","",""
"psychophysics","173","693237","0.0-16.0-1.0","6078449140caf31f1912ee83","609006691f6f4e337c17f836","609a612c6a75b284ff8123c0","null","","","","null","","","","key","16.75527586207067","683","328.5","","","","","","","","","","","","","140","1","6","false","","","",""
"psychophysics","174","694918","0.0-16.0-2.0","6078449140caf31f1912ee83","609006691f6f4e337c17f836","609a612c6a75b284ff8123c0","1676.659999997355","","","","90","","","","key","16.754818181818905","683","328.5","","","","","","","","","","","","","","","","","","","",""
"psychophysics","175","695921","0.0-16.0-0.1","6078449140caf31f1912ee83","609006691f6f4e337c17f836","609a612c6a75b284ff8123c0","null","","","","null","","","","key","16.75498305084736","683","328.5","","","","","","","","","","","","","","","","","","","",""
"psychophysics","176","696423","0.0-16.0-1.1","6078449140caf31f1912ee83","609006691f6f4e337c17f836","609a612c6a75b284ff8123c0","null","","","","null","","","","key","16.754413793100333","683","328.5","","","","","","","","","","","","","140","-1","5","false","","","",""
"psychophysics","177","696839","0.0-16.0-2.1","6078449140caf31f1912ee83","609006691f6f4e337c17f836","609a612c6a75b284ff8123c0","412.3249999975087","","","","90","","","","key","16.75554166666795","683","328.5","","","","","","","","","","","","","","","","","","","",""
"psychophysics","178","697840","0.0-16.0-0.2","6078449140caf31f1912ee83","609006691f6f4e337c17f836","609a612c6a75b284ff8123c0","null","","","","null","","","","key","16.75538983050797","683","328.5","","","","","","","","","","","","","","","","","","","",""
"psychophysics","179","698344","0.0-16.0-1.2","6078449140caf31f1912ee83","609006691f6f4e337c17f836","609a612c6a75b284ff8123c0","null","","","","null","","","","key","16.75489655172388","683","328.5","","","","","","","","","","","","","140","1","5","false","","","",""
"psychophysics","180","698782","0.0-16.0-2.2","6078449140caf31f1912ee83","609006691f6f4e337c17f836","609a612c6a75b284ff8123c0","433.03999999631196","","","","77","","","","key","16.755120000001043","683","328.5","","","","","","","","","","","","","","","","","","","",""
"psychophysics","181","699785","0.0-16.0-0.3","6078449140caf31f1912ee83","609006691f6f4e337c17f836","609a612c6a75b284ff8123c0","null","","","","null","","","","key","16.75525862068853","683","328.5","","","","","","","","","","","","","","","","","","","",""
"psychophysics","182","700292","0.0-16.0-1.3","6078449140caf31f1912ee83","609006691f6f4e337c17f836","609a612c6a75b284ff8123c0","null","","","","null","","","","key","16.75663333333408","683","328.5","","","","","","","","","","","","","140","1","3","false","","","",""
"psychophysics","183","700660","0.0-16.0-2.3","6078449140caf31f1912ee83","609006691f6f4e337c17f836","609a612c6a75b284ff8123c0","364.2050000053132","","","","90","","","","key","16.752619047621486","683","328.5","","","","","","","","","","","","","","","","","","","",""
"psychophysics","184","701662","0.0-16.0-0.4","6078449140caf31f1912ee83","609006691f6f4e337c17f836","609a612c6a75b284ff8123c0","null","","","","null","","","","key","16.756440677966182","683","328.5","","","","","","","","","","","","","","","","","","","",""
"psychophysics","185","702168","0.0-16.0-1.4","6078449140caf31f1912ee83","609006691f6f4e337c17f836","609a612c6a75b284ff8123c0","null","","","","null","","","","key","16.75396551724106","683","328.5","","","","","","","","","","","","","140","-1","4","false","","","",""
"psychophysics","186","702519","0.0-16.0-2.4","6078449140caf31f1912ee83","609006691f6f4e337c17f836","609a612c6a75b284ff8123c0","349.4150000042282","","","","90","","","","key","16.758699999999955","683","328.5","","","","","","","","","","","","","","","","","","","",""
"psychophysics","187","703522","0.0-16.0-0.5","6078449140caf31f1912ee83","609006691f6f4e337c17f836","609a612c6a75b284ff8123c0","null","","","","null","","","","key","16.756254237289223","683","328.5","","","","","","","","","","","","","","","","","","","",""
"psychophysics","188","704027","0.0-16.0-1.5","6078449140caf31f1912ee83","609006691f6f4e337c17f836","609a612c6a75b284ff8123c0","null","","","","null","","","","key","16.753448275861267","683","328.5","","","","","","","","","","","","","140","-1","0","false","","","",""
"psychophysics","189","711631","0.0-16.0-2.5","6078449140caf31f1912ee83","609006691f6f4e337c17f836","609a612c6a75b284ff8123c0","7601.805000005639","","","","90","","","","key","16.75515452538623","683","328.5","","","","","","","","","","","","","","","","","","","",""
"psychophysics","190","712635","0.0-16.0-0.6","6078449140caf31f1912ee83","609006691f6f4e337c17f836","609a612c6a75b284ff8123c0","null","","","","null","","","","key","16.755305084745178","683","328.5","","","","","","","","","","","","","","","","","","","",""
"psychophysics","191","713140","0.0-16.0-1.6","6078449140caf31f1912ee83","609006691f6f4e337c17f836","609a612c6a75b284ff8123c0","null","","","","null","","","","key","16.75768965517235","683","328.5","","","","","","","","","","","","","140","1","2","false","","","",""
"psychophysics","192","713275","0.0-16.0-2.6","6078449140caf31f1912ee83","609006691f6f4e337c17f836","609a612c6a75b284ff8123c0","129.650000002468","","","","77","","","","key","16.754428571439348","683","328.5","","","","","","","","","","","","","","","","","","","",""
"psychophysics","193","714278","0.0-16.0-0.7","6078449140caf31f1912ee83","609006691f6f4e337c17f836","609a612c6a75b284ff8123c0","null","","","","null","","","","key","16.75400000000057","683","328.5","","","","","","","","","","","","","","","","","","","",""
"psychophysics","194","714784","0.0-16.0-1.7","6078449140caf31f1912ee83","609006691f6f4e337c17f836","609a612c6a75b284ff8123c0","null","","","","null","","","","key","16.756586206896262","683","328.5","","","","","","","","","","","","","140","1","4","false","","","",""
"psychophysics","195","715091","0.0-16.0-2.7","6078449140caf31f1912ee83","609006691f6f4e337c17f836","609a612c6a75b284ff8123c0","302.0399999950314","","","","90","","","","key","16.754411764709992","683","328.5","","","","","","","","","","","","","","","","","","","",""
"psychophysics","196","716095","0.0-16.0-0.8","6078449140caf31f1912ee83","609006691f6f4e337c17f836","609a612c6a75b284ff8123c0","null","","","","null","","","","key","16.754932203389295","683","328.5","","","","","","","","","","","","","","","","","","","",""
"psychophysics","197","716598","0.0-16.0-1.8","6078449140caf31f1912ee83","609006691f6f4e337c17f836","609a612c6a75b284ff8123c0","null","","","","null","","","","key","16.75396551724106","683","328.5","","","","","","","","","","","","","140","-1","2","false","","","",""
"psychophysics","198","716700","0.0-16.0-2.8","6078449140caf31f1912ee83","609006691f6f4e337c17f836","609a612c6a75b284ff8123c0","100.50000000046566","","","","90","","","","key","16.762400000006892","683","328.5","","","","","","","","","","","","","","","","","","","",""
"psychophysics","199","717703","0.0-16.0-0.9","6078449140caf31f1912ee83","609006691f6f4e337c17f836","609a612c6a75b284ff8123c0","null","","","","null","","","","key","17.04431034482871","683","328.5","","","","","","","","","","","","","","","","","","","",""
"psychophysics","200","718210","0.0-16.0-1.9","6078449140caf31f1912ee83","609006691f6f4e337c17f836","609a612c6a75b284ff8123c0","null","","","","null","","","","key","16.752517241382456","683","328.5","","","","","","","","","","","","","140","-1","6","false","","","",""
"psychophysics","201","718773","0.0-16.0-2.9","6078449140caf31f1912ee83","609006691f6f4e337c17f836","609a612c6a75b284ff8123c0","552.7799999981653","","","","90","","","","key","16.756843749997643","683","328.5","","","","","","","","","","","","","","","","","","","",""
"psychophysics","202","719777","0.0-16.0-0.10","6078449140caf31f1912ee83","609006691f6f4e337c17f836","609a612c6a75b284ff8123c0","null","","","","null","","","","key","16.75506666666673","683","328.5","","","","","","","","","","","","","","","","","","","",""
"psychophysics","203","720282","0.0-16.0-1.10","6078449140caf31f1912ee83","609006691f6f4e337c17f836","609a612c6a75b284ff8123c0","null","","","","null","","","","key","16.758034482758877","683","328.5","","","","","","","","","","","","","140","1","0","false","","","",""
"psychophysics","204","720601","0.0-16.0-2.10","6078449140caf31f1912ee83","609006691f6f4e337c17f836","609a612c6a75b284ff8123c0","315.1900000011083","","","","77","","","","key","16.753944444444237","683","328.5","","","","","","","","","","","","","","","","","","","",""
"psychophysics","205","721603","0.0-16.0-0.11","6078449140caf31f1912ee83","609006691f6f4e337c17f836","609a612c6a75b284ff8123c0","null","","","","null","","","","key","16.755118644068222","683","328.5","","","","","","","","","","","","","","","","","","","",""
"psychophysics","206","722105","0.0-16.0-1.11","6078449140caf31f1912ee83","609006691f6f4e337c17f836","609a612c6a75b284ff8123c0","null","","","","null","","","","key","16.755068965517147","683","328.5","","","","","","","","","","","","","140","-1","3","false","","","",""
"psychophysics","207","722289","0.0-16.0-2.11","6078449140caf31f1912ee83","609006691f6f4e337c17f836","609a612c6a75b284ff8123c0","181.9550000000745","","","","90","","","","key","16.758500000007917","683","328.5","","","","","","","","","","","","","","","","","","","",""
"psychophysics","208","723292","0.0-16.0-0.12","6078449140caf31f1912ee83","609006691f6f4e337c17f836","609a612c6a75b284ff8123c0","null","","","","null","","","","key","16.7560862068966","683","328.5","","","","","","","","","","","","","","","","","","","",""
"psychophysics","209","723796","0.0-16.0-1.12","6078449140caf31f1912ee83","609006691f6f4e337c17f836","609a612c6a75b284ff8123c0","null","","","","null","","","","key","16.755100000001644","683","328.5","","","","","","","","","","","","","140","1","6","false","","","",""
"psychophysics","210","724069","0.0-16.0-2.12","6078449140caf31f1912ee83","609006691f6f4e337c17f836","609a612c6a75b284ff8123c0","268.81000000145286","","","","90","","","","key","16.755466666670205","683","328.5","","","","","","","","","","","","","","","","","","","",""
"psychophysics","211","725072","0.0-16.0-0.13","6078449140caf31f1912ee83","609006691f6f4e337c17f836","609a612c6a75b284ff8123c0","null","","","","null","","","","key","16.754898305084573","683","328.5","","","","","","","","","","","","","","","","","","","",""
"psychophysics","212","725576","0.0-16.0-1.13","6078449140caf31f1912ee83","609006691f6f4e337c17f836","609a612c6a75b284ff8123c0","null","","","","null","","","","key","16.755172413793908","683","328.5","","","","","","","","","","","","","140","-1","3","false","","","",""
"psychophysics","213","726147","0.0-16.0-2.13","6078449140caf31f1912ee83","609006691f6f4e337c17f836","609a612c6a75b284ff8123c0","567.3600000009174","","","","90","","","","key","16.756363636362508","683","328.5","","","","","","","","","","","","","","","","","","","",""
"psychophysics","214","727155","0.0-16.0-0.14","6078449140caf31f1912ee83","609006691f6f4e337c17f836","609a612c6a75b284ff8123c0","null","","","","null","","","","key","16.755101694914874","683","328.5","","","","","","","","","","","","","","","","","","","",""
"psychophysics","215","727657","0.0-16.0-1.14","6078449140caf31f1912ee83","609006691f6f4e337c17f836","609a612c6a75b284ff8123c0","null","","","","null","","","","key","16.752172413791914","683","328.5","","","","","","","","","","","","","140","-1","6","false","","","",""
"psychophysics","216","731373","0.0-16.0-2.14","6078449140caf31f1912ee83","609006691f6f4e337c17f836","609a612c6a75b284ff8123c0","3713.354999999865","","","","90","","","","key","16.755085972850992","683","328.5","","","","","","","","","","","","","","","","","","","",""
"psychophysics","217","732376","0.0-16.0-0.15","6078449140caf31f1912ee83","609006691f6f4e337c17f836","609a612c6a75b284ff8123c0","null","","","","null","","","","key","16.754661016949548","683","328.5","","","","","","","","","","","","","","","","","","","",""
"psychophysics","218","732881","0.0-16.0-1.15","6078449140caf31f1912ee83","609006691f6f4e337c17f836","609a612c6a75b284ff8123c0","null","","","","null","","","","key","16.75800000000263","683","328.5","","","","","","","","","","","","","140","-1","5","false","","","",""
"psychophysics","219","733145","0.0-16.0-2.15","6078449140caf31f1912ee83","609006691f6f4e337c17f836","609a612c6a75b284ff8123c0","261.2349999981234","","","","90","","","","key","16.75079999999919","683","328.5","","","","","","","","","","","","","","","","","","","",""
"psychophysics","220","734150","0.0-16.0-0.16","6078449140caf31f1912ee83","609006691f6f4e337c17f836","609a612c6a75b284ff8123c0","null","","","","null","","","","key","16.75552542372883","683","328.5","","","","","","","","","","","","","","","","","","","",""
"psychophysics","221","734654","0.0-16.0-1.16","6078449140caf31f1912ee83","609006691f6f4e337c17f836","609a612c6a75b284ff8123c0","null","","","","null","","","","key","16.753517241381783","683","328.5","","","","","","","","","","","","","140","-1","0","false","","","",""
"psychophysics","222","734944","0.0-16.0-2.16","6078449140caf31f1912ee83","609006691f6f4e337c17f836","609a612c6a75b284ff8123c0","287.490000002319","","","","90","","","","key","16.754124999999476","683","328.5","","","","","","","","","","","","","","","","","","","",""
"psychophysics","223","735946","0.0-16.0-0.17","6078449140caf31f1912ee83","609006691f6f4e337c17f836","609a612c6a75b284ff8123c0","null","","","","null","","","","key","16.75384745762636","683","328.5","","","","","","","","","","","","","","","","","","","",""
"psychophysics","224","736449","0.0-16.0-1.17","6078449140caf31f1912ee83","609006691f6f4e337c17f836","609a612c6a75b284ff8123c0","null","","","","null","","","","key","16.75555172413668","683","328.5","","","","","","","","","","","","","140","-1","2","false","","","",""
"psychophysics","225","736992","0.0-16.0-2.17","6078449140caf31f1912ee83","609006691f6f4e337c17f836","609a612c6a75b284ff8123c0","539.0399999959627","","","","90","","","","key","16.754645161289393","683","328.5","","","","","","","","","","","","","","","","","","","",""
"psychophysics","226","737995","0.0-16.0-0.18","6078449140caf31f1912ee83","609006691f6f4e337c17f836","609a612c6a75b284ff8123c0","null","","","","null","","","","key","16.755661016947716","683","328.5","","","","","","","","","","","","","","","","","","","",""
"psychophysics","227","738497","0.0-16.0-1.18","6078449140caf31f1912ee83","609006691f6f4e337c17f836","609a612c6a75b284ff8123c0","null","","","","null","","","","key","16.7524827586222","683","328.5","","","","","","","","","","","","","140","1","3","false","","","",""
"psychophysics","228","739095","0.0-16.0-2.18","6078449140caf31f1912ee83","609006691f6f4e337c17f836","609a612c6a75b284ff8123c0","594.6699999986449","","","","90","","","","key","16.754800000001808","683","328.5","","","","","","","","","","","","","","","","","","","",""
"psychophysics","229","740098","0.0-16.0-0.19","6078449140caf31f1912ee83","609006691f6f4e337c17f836","609a612c6a75b284ff8123c0","null","","","","null","","","","key","16.75433898304976","683","328.5","","","","","","","","","","","","","","","","","","","",""
"psychophysics","230","740601","0.0-16.0-1.19","6078449140caf31f1912ee83","609006691f6f4e337c17f836","609a612c6a75b284ff8123c0","null","","","","null","","","","key","16.755827586206703","683","328.5","","","","","","","","","","","","","140","1","5","false","","","",""
"psychophysics","231","740924","0.0-16.0-2.19","6078449140caf31f1912ee83","609006691f6f4e337c17f836","609a612c6a75b284ff8123c0","318.7900000049267","","","","90","","","","key","16.756944444444443","683","328.5","","","","","","","","","","","","","","","","","","","",""
"psychophysics","232","741927","0.0-16.0-0.20","6078449140caf31f1912ee83","609006691f6f4e337c17f836","609a612c6a75b284ff8123c0","null","","","","null","","","","key","16.75477966101706","683","328.5","","","","","","","","","","","","","","","","","","","",""
"psychophysics","233","742430","0.0-16.0-1.20","6078449140caf31f1912ee83","609006691f6f4e337c17f836","609a612c6a75b284ff8123c0","null","","","","null","","","","key","16.758103448279396","683","328.5","","","","","","","","","","","","","140","1","2","false","","","",""
"psychophysics","234","743290","0.0-16.0-2.20","6078449140caf31f1912ee83","609006691f6f4e337c17f836","609a612c6a75b284ff8123c0","857.3099999994738","","","","90","","","","key","16.75438000000082","683","328.5","","","","","","","","","","","","","","","","","","","",""
"psychophysics","235","744293","0.0-16.0-0.21","6078449140caf31f1912ee83","609006691f6f4e337c17f836","609a612c6a75b284ff8123c0","null","","","","null","","","","key","16.75454237288006","683","328.5","","","","","","","","","","","","","","","","","","","",""
"psychophysics","236","744797","0.0-16.0-1.21","6078449140caf31f1912ee83","609006691f6f4e337c17f836","609a612c6a75b284ff8123c0","null","","","","null","","","","key","16.753068965518494","683","328.5","","","","","","","","","","","","","140","1","0","false","","","",""
"psychophysics","237","745310","0.0-16.0-2.21","6078449140caf31f1912ee83","609006691f6f4e337c17f836","609a612c6a75b284ff8123c0","511.2799999988638","","","","90","","","","key","16.75586666666592","683","328.5","","","","","","","","","","","","","","","","","","","",""
"psychophysics","238","746313","0.0-16.0-0.22","6078449140caf31f1912ee83","609006691f6f4e337c17f836","609a612c6a75b284ff8123c0","null","","","","null","","","","key","16.754762711865684","683","328.5","","","","","","","","","","","","","","","","","","","",""
"psychophysics","239","746817","0.0-16.0-1.22","6078449140caf31f1912ee83","609006691f6f4e337c17f836","609a612c6a75b284ff8123c0","null","","","","null","","","","key","16.756655172412767","683","328.5","","","","","","","","","","","","","140","1","4","false","","","",""
"psychophysics","240","747030","0.0-16.0-2.22","6078449140caf31f1912ee83","609006691f6f4e337c17f836","609a612c6a75b284ff8123c0","208.47499999939464","","","","77","","","","key","16.750545454539612","683","328.5","","","","","","","","","","","","","","","","","","","",""
"psychophysics","241","748036","0.0-16.0-0.23","6078449140caf31f1912ee83","609006691f6f4e337c17f836","609a612c6a75b284ff8123c0","null","","","","null","","","","key","16.754559322035384","683","328.5","","","","","","","","","","","","","","","","","","","",""
"psychophysics","242","748543","0.0-16.0-1.23","6078449140caf31f1912ee83","609006691f6f4e337c17f836","609a612c6a75b284ff8123c0","null","","","","null","","","","key","16.754433333334358","683","328.5","","","","","","","","","","","","","140","-1","4","false","","","",""
"psychophysics","243","748935","0.0-16.0-2.23","6078449140caf31f1912ee83","609006691f6f4e337c17f836","609a612c6a75b284ff8123c0","388.0299999945564","","","","77","","","","key","16.75459090909201","683","328.5","","","","","","","","","","","","","","","","","","","",""
"html-keyboard-response","244","751805","0.0-17.0","6078449140caf31f1912ee83","609006691f6f4e337c17f836","609a612c6a75b284ff8123c0","2867.6500000001397","<p>Well Done !</p><p>Training Complete. Press the spacebar to start.</p><p>DON'T EXIT THE FULL SCREEN MODE</p>","","","32","","","","","","","","","","","","","","","","","","","","","","","","","","",""
"psychophysics","245","754814","0.0-18.0-0.0","6078449140caf31f1912ee83","609006691f6f4e337c17f836","609a612c6a75b284ff8123c0","null","","","","null","","","","key","16.62516666666682","683","328.5","","","","","","","","","","","","","","","","","","","",""
"psychophysics","246","755317","0.0-18.0-1.0","6078449140caf31f1912ee83","609006691f6f4e337c17f836","609a612c6a75b284ff8123c0","null","","","","null","","","","key","16.75627586206598","683","328.5","","","","","","","","","","","","","140","-1","3","true","","","",""
"psychophysics","247","757870","0.0-18.0-2.0","6078449140caf31f1912ee83","609006691f6f4e337c17f836","609a612c6a75b284ff8123c0","2549.8949999964098","","","","90","","","","key","16.754960264900348","683","328.5","","","","","","","","","","","","","","","","","","","",""
"psychophysics","248","758873","0.0-18.0-0.1","6078449140caf31f1912ee83","609006691f6f4e337c17f836","609a612c6a75b284ff8123c0","null","","","","null","","","","key","16.75469491525427","683","328.5","","","","","","","","","","","","","","","","","","","",""
"psychophysics","249","759377","0.0-18.0-1.1","6078449140caf31f1912ee83","609006691f6f4e337c17f836","609a612c6a75b284ff8123c0","null","","","","null","","","","key","16.756379310346755","683","328.5","","","","","","","","","","","","","140","1","6","true","","","",""
"psychophysics","250","760057","0.0-18.0-2.1","6078449140caf31f1912ee83","609006691f6f4e337c17f836","609a612c6a75b284ff8123c0","673.9049999959534","","","","77","","","","key","16.75562499999942","683","328.5","","","","","","","","","","","","","","","","","","","",""
"psychophysics","251","761058","0.0-18.0-0.2","6078449140caf31f1912ee83","609006691f6f4e337c17f836","609a612c6a75b284ff8123c0","null","","","","null","","","","key","16.754661016949548","683","328.5","","","","","","","","","","","","","","","","","","","",""
"psychophysics","252","761561","0.0-18.0-1.2","6078449140caf31f1912ee83","609006691f6f4e337c17f836","609a612c6a75b284ff8123c0","null","","","","null","","","","key","16.754310344827587","683","328.5","","","","","","","","","","","","","140","-1","4","true","","","",""
"psychophysics","253","762000","0.0-18.0-2.2","6078449140caf31f1912ee83","609006691f6f4e337c17f836","609a612c6a75b284ff8123c0","434.3749999969732","","","","77","","","","key","16.75604000000283","683","328.5","","","","","","","","","","","","","","","","","","","",""
"psychophysics","254","763002","0.0-18.0-0.3","6078449140caf31f1912ee83","609006691f6f4e337c17f836","609a612c6a75b284ff8123c0","null","","","","null","","","","key","16.754932203389295","683","328.5","","","","","","","","","","","","","","","","","","","",""
"psychophysics","255","763505","0.0-18.0-1.3","6078449140caf31f1912ee83","609006691f6f4e337c17f836","609a612c6a75b284ff8123c0","null","","","","null","","","","key","16.75479310344712","683","328.5","","","","","","","","","","","","","140","-1","6","true","","","",""
"psychophysics","256","763714","0.0-18.0-2.3","6078449140caf31f1912ee83","609006691f6f4e337c17f836","609a612c6a75b284ff8123c0","205.4550000029849","","","","77","","","","key","16.754727272718977","683","328.5","","","","","","","","","","","","","","","","","","","",""
"psychophysics","257","764717","0.0-18.0-0.4","6078449140caf31f1912ee83","609006691f6f4e337c17f836","609a612c6a75b284ff8123c0","null","","","","null","","","","key","16.755016949154058","683","328.5","","","","","","","","","","","","","","","","","","","",""
"psychophysics","258","765220","0.0-18.0-1.4","6078449140caf31f1912ee83","609006691f6f4e337c17f836","609a612c6a75b284ff8123c0","null","","","","null","","","","key","16.75396551724106","683","328.5","","","","","","","","","","","","","140","1","2","true","","","",""
"psychophysics","259","765585","0.0-18.0-2.4","6078449140caf31f1912ee83","609006691f6f4e337c17f836","609a612c6a75b284ff8123c0","362.7349999950966","","","","90","","","","key","16.75533333333719","683","328.5","","","","","","","","","","","","","","","","","","","",""
"psychophysics","260","766586","0.0-18.0-0.5","6078449140caf31f1912ee83","609006691f6f4e337c17f836","609a612c6a75b284ff8123c0","null","","","","null","","","","key","16.755016949152086","683","328.5","","","","","","","","","","","","","","","","","","","",""
"psychophysics","261","767089","0.0-18.0-1.5","6078449140caf31f1912ee83","609006691f6f4e337c17f836","609a612c6a75b284ff8123c0","null","","","","null","","","","key","16.75651724137976","683","328.5","","","","","","","","","","","","","140","-1","0","true","","","",""
"psychophysics","262","767435","0.0-18.0-2.5","6078449140caf31f1912ee83","609006691f6f4e337c17f836","609a612c6a75b284ff8123c0","341.96499999961816","","","","77","","","","key","16.754421052633244","683","328.5","","","","","","","","","","","","","","","","","","","",""
"psychophysics","263","768437","0.0-18.0-0.6","6078449140caf31f1912ee83","609006691f6f4e337c17f836","609a612c6a75b284ff8123c0","null","","","","null","","","","key","16.754847457626504","683","328.5","","","","","","","","","","","","","","","","","","","",""
"psychophysics","264","768938","0.0-18.0-1.6","6078449140caf31f1912ee83","609006691f6f4e337c17f836","609a612c6a75b284ff8123c0","null","","","","null","","","","key","16.75406896551782","683","328.5","","","","","","","","","","","","","140","-1","2","true","","","",""
"psychophysics","265","769201","0.0-18.0-2.6","6078449140caf31f1912ee83","609006691f6f4e337c17f836","609a612c6a75b284ff8123c0","259.4200000022538","","","","77","","","","key","16.753714285716082","683","328.5","","","","","","","","","","","","","","","","","","","",""
"psychophysics","266","770205","0.0-18.0-0.7","6078449140caf31f1912ee83","609006691f6f4e337c17f836","609a612c6a75b284ff8123c0","null","","","","null","","","","key","16.754799999999037","683","328.5","","","","","","","","","","","","","","","","","","","",""
"psychophysics","267","770711","0.0-18.0-1.7","6078449140caf31f1912ee83","609006691f6f4e337c17f836","609a612c6a75b284ff8123c0","null","","","","null","","","","key","16.75606896551647","683","328.5","","","","","","","","","","","","","140","1","0","true","","","",""
"psychophysics","268","770988","0.0-18.0-2.7","6078449140caf31f1912ee83","609006691f6f4e337c17f836","609a612c6a75b284ff8123c0","274.5250000007218","","","","77","","","","key","16.754466666661514","683","328.5","","","","","","","","","","","","","","","","","","","",""
"psychophysics","269","771990","0.0-18.0-0.8","6078449140caf31f1912ee83","609006691f6f4e337c17f836","609a612c6a75b284ff8123c0","null","","","","null","","","","key","16.75561016949162","683","328.5","","","","","","","","","","","","","","","","","","","",""
"psychophysics","270","772491","0.0-18.0-1.8","6078449140caf31f1912ee83","609006691f6f4e337c17f836","609a612c6a75b284ff8123c0","null","","","","null","","","","key","16.754000000001316","683","328.5","","","","","","","","","","","","","140","-1","5","true","","","",""
"psychophysics","271","772648","0.0-18.0-2.8","6078449140caf31f1912ee83","609006691f6f4e337c17f836","609a612c6a75b284ff8123c0","154.71499999705702","","","","90","","","","key","16.762375000005704","683","328.5","","","","","","","","","","","","","","","","","","","",""
"psychophysics","272","773651","0.0-18.0-0.9","6078449140caf31f1912ee83","609006691f6f4e337c17f836","609a612c6a75b284ff8123c0","null","","","","null","","","","key","16.754762711863712","683","328.5","","","","","","","","","","","","","","","","","","","",""
"psychophysics","273","774154","0.0-18.0-1.9","6078449140caf31f1912ee83","609006691f6f4e337c17f836","609a612c6a75b284ff8123c0","null","","","","null","","","","key","16.752620689655206","683","328.5","","","","","","","","","","","","","140","1","3","true","","","",""
"psychophysics","274","774498","0.0-18.0-2.9","6078449140caf31f1912ee83","609006691f6f4e337c17f836","609a612c6a75b284ff8123c0","340.635000000475","","","","77","","","","key","16.755750000005357","683","328.5","","","","","","","","","","","","","","","","","","","",""
"psychophysics","275","775499","0.0-18.0-0.10","6078449140caf31f1912ee83","609006691f6f4e337c17f836","609a612c6a75b284ff8123c0","null","","","","null","","","","key","16.755551724138687","683","328.5","","","","","","","","","","","","","","","","","","","",""
"psychophysics","276","776003","0.0-18.0-1.10","6078449140caf31f1912ee83","609006691f6f4e337c17f836","609a612c6a75b284ff8123c0","null","","","","null","","","","key","16.753566666665332","683","328.5","","","","","","","","","","","","","140","1","5","true","","","",""
"psychophysics","277","776361","0.0-18.0-2.10","6078449140caf31f1912ee83","609006691f6f4e337c17f836","609a612c6a75b284ff8123c0","351.5950000002049","","","","77","","","","key","16.755999999999766","683","328.5","","","","","","","","","","","","","","","","","","","",""
"psychophysics","278","777364","0.0-18.0-0.11","6078449140caf31f1912ee83","609006691f6f4e337c17f836","609a612c6a75b284ff8123c0","null","","","","null","","","","key","16.754457627117272","683","328.5","","","","","","","","","","","","","","","","","","","",""
"psychophysics","279","777868","0.0-18.0-1.11","6078449140caf31f1912ee83","609006691f6f4e337c17f836","609a612c6a75b284ff8123c0","null","","","","null","","","","key","16.75613793103699","683","328.5","","","","","","","","","","","","","140","1","4","true","","","",""
"psychophysics","280","778138","0.0-18.0-2.11","6078449140caf31f1912ee83","609006691f6f4e337c17f836","609a612c6a75b284ff8123c0","266.55500000191387","","","","77","","","","key","16.752266666665673","683","328.5","","","","","","","","","","","","","","","","","","","",""
"psychophysics","281","779141","0.0-18.0-0.12","6078449140caf31f1912ee83","609006691f6f4e337c17f836","609a612c6a75b284ff8123c0","null","","","","null","","","","key","16.754525423728687","683","328.5","","","","","","","","","","","","","","","","","","","",""
"psychophysics","282","779643","0.0-18.0-1.12","6078449140caf31f1912ee83","609006691f6f4e337c17f836","609a612c6a75b284ff8123c0","null","","","","null","","","","key","16.75544827586393","683","328.5","","","","","","","","","","","","","140","-1","3","true","","","",""
"psychophysics","283","780515","0.0-18.0-2.12","6078449140caf31f1912ee83","609006691f6f4e337c17f836","609a612c6a75b284ff8123c0","868.5599999952829","","","","77","","","","key","16.754411764707708","683","328.5","","","","","","","","","","","","","","","","","","","",""
"psychophysics","284","781519","0.0-18.0-0.13","6078449140caf31f1912ee83","609006691f6f4e337c17f836","609a612c6a75b284ff8123c0","null","","","","null","","","","key","16.75630508474532","683","328.5","","","","","","","","","","","","","","","","","","","",""
"psychophysics","285","782023","0.0-18.0-1.13","6078449140caf31f1912ee83","609006691f6f4e337c17f836","609a612c6a75b284ff8123c0","null","","","","null","","","","key","16.754103448274062","683","328.5","","","","","","","","","","","","","140","1","2","true","","","",""
"psychophysics","286","782674","0.0-18.0-2.13","6078449140caf31f1912ee83","609006691f6f4e337c17f836","609a612c6a75b284ff8123c0","647.1999999994878","","","","90","","","","key","16.755815789474198","683","328.5","","","","","","","","","","","","","","","","","","","",""
"psychophysics","287","783679","0.0-18.0-0.14","6078449140caf31f1912ee83","609006691f6f4e337c17f836","609a612c6a75b284ff8123c0","null","","","","null","","","","key","16.75516949152432","683","328.5","","","","","","","","","","","","","","","","","","","",""
"psychophysics","288","784184","0.0-18.0-1.14","6078449140caf31f1912ee83","609006691f6f4e337c17f836","609a612c6a75b284ff8123c0","null","","","","null","","","","key","16.753034482758235","683","328.5","","","","","","","","","","","","","140","-1","0","true","","","",""
"psychophysics","289","784574","0.0-18.0-2.14","6078449140caf31f1912ee83","609006691f6f4e337c17f836","609a612c6a75b284ff8123c0","382.68500000424683","","","","90","","","","key","16.751818181814585","683","328.5","","","","","","","","","","","","","","","","","","","",""
"psychophysics","290","785577","0.0-18.0-0.15","6078449140caf31f1912ee83","609006691f6f4e337c17f836","609a612c6a75b284ff8123c0","null","","","","null","","","","key","16.755542372882175","683","328.5","","","","","","","","","","","","","","","","","","","",""
"psychophysics","291","786080","0.0-18.0-1.15","6078449140caf31f1912ee83","609006691f6f4e337c17f836","609a612c6a75b284ff8123c0","null","","","","null","","","","key","16.7539310344808","683","328.5","","","","","","","","","","","","","140","-1","4","true","","","",""
"psychophysics","292","786520","0.0-18.0-2.15","6078449140caf31f1912ee83","609006691f6f4e337c17f836","609a612c6a75b284ff8123c0","436.24000000266824","","","","77","","","","key","16.75363999999594","683","328.5","","","","","","","","","","","","","","","","","","","",""
"psychophysics","293","787523","0.0-18.0-0.16","6078449140caf31f1912ee83","609006691f6f4e337c17f836","609a612c6a75b284ff8123c0","null","","","","null","","","","key","16.75428813559366","683","328.5","","","","","","","","","","","","","","","","","","","",""
"psychophysics","294","788025","0.0-18.0-1.16","6078449140caf31f1912ee83","609006691f6f4e337c17f836","609a612c6a75b284ff8123c0","null","","","","null","","","","key","16.75682758620603","683","328.5","","","","","","","","","","","","","140","-1","5","true","","","",""
"psychophysics","295","788273","0.0-18.0-2.16","6078449140caf31f1912ee83","609006691f6f4e337c17f836","609a612c6a75b284ff8123c0","245.22000000439584","","","","77","","","","key","16.747214285715017","683","328.5","","","","","","","","","","","","","","","","","","","",""
"psychophysics","296","789274","0.0-18.0-0.17","6078449140caf31f1912ee83","609006691f6f4e337c17f836","609a612c6a75b284ff8123c0","null","","","","null","","","","key","16.756644067796483","683","328.5","","","","","","","","","","","","","","","","","","","",""
"psychophysics","297","789780","0.0-18.0-1.17","6078449140caf31f1912ee83","609006691f6f4e337c17f836","609a612c6a75b284ff8123c0","null","","","","null","","","","key","16.75617241379323","683","328.5","","","","","","","","","","","","","140","-1","2","true","","","",""
"psychophysics","298","790151","0.0-18.0-2.17","6078449140caf31f1912ee83","609006691f6f4e337c17f836","609a612c6a75b284ff8123c0","367.1900000043679","","","","90","","","","key","16.755095238093332","683","328.5","","","","","","","","","","","","","","","","","","","",""
"psychophysics","299","791154","0.0-18.0-0.18","6078449140caf31f1912ee83","609006691f6f4e337c17f836","609a612c6a75b284ff8123c0","null","","","","null","","","","key","16.754372881356453","683","328.5","","","","","","","","","","","","","","","","","","","",""
"psychophysics","300","791657","0.0-18.0-1.18","6078449140caf31f1912ee83","609006691f6f4e337c17f836","609a612c6a75b284ff8123c0","null","","","","null","","","","key","16.753482758617512","683","328.5","","","","","","","","","","","","","140","1","6","true","","","",""
"psychophysics","301","791891","0.0-18.0-2.18","6078449140caf31f1912ee83","609006691f6f4e337c17f836","609a612c6a75b284ff8123c0","232.56499999854714","","","","77","","","","key","16.75907692307821","683","328.5","","","","","","","","","","","","","","","","","","","",""
"psychophysics","302","792893","0.0-18.0-0.19","6078449140caf31f1912ee83","609006691f6f4e337c17f836","609a612c6a75b284ff8123c0","null","","","","null","","","","key","16.754406779661174","683","328.5","","","","","","","","","","","","","","","","","","","",""
"psychophysics","303","793399","0.0-18.0-1.19","6078449140caf31f1912ee83","609006691f6f4e337c17f836","609a612c6a75b284ff8123c0","null","","","","null","","","","key","16.756206896549475","683","328.5","","","","","","","","","","","","","140","1","3","true","","","",""
"psychophysics","304","793935","0.0-18.0-2.19","6078449140caf31f1912ee83","609006691f6f4e337c17f836","609a612c6a75b284ff8123c0","532.419999995851","","","","90","","","","key","16.75483870967817","683","328.5","","","","","","","","","","","","","","","","","","","",""
"psychophysics","305","794937","0.0-18.0-0.20","6078449140caf31f1912ee83","609006691f6f4e337c17f836","609a612c6a75b284ff8123c0","null","","","","null","","","","key","16.756118644068366","683","328.5","","","","","","","","","","","","","","","","","","","",""
"psychophysics","306","795441","0.0-18.0-1.20","6078449140caf31f1912ee83","609006691f6f4e337c17f836","609a612c6a75b284ff8123c0","null","","","","null","","","","key","16.753896551724555","683","328.5","","","","","","","","","","","","","140","1","4","true","","","",""
"psychophysics","307","795827","0.0-18.0-2.20","6078449140caf31f1912ee83","609006691f6f4e337c17f836","609a612c6a75b284ff8123c0","381.22999999905005","","","","77","","","","key","16.755772727271754","683","328.5","","","","","","","","","","","","","","","","","","","",""
"psychophysics","308","796832","0.0-18.0-0.21","6078449140caf31f1912ee83","609006691f6f4e337c17f836","609a612c6a75b284ff8123c0","null","","","","null","","","","key","16.755508474575482","683","328.5","","","","","","","","","","","","","","","","","","","",""
"psychophysics","309","797334","0.0-18.0-1.21","6078449140caf31f1912ee83","609006691f6f4e337c17f836","609a612c6a75b284ff8123c0","null","","","","null","","","","key","16.75596551723971","683","328.5","","","","","","","","","","","","","140","1","5","true","","","",""
"psychophysics","310","798507","0.0-18.0-2.21","6078449140caf31f1912ee83","609006691f6f4e337c17f836","609a612c6a75b284ff8123c0","1168.0149999957066","","","","77","","","","key","16.754463768115375","683","328.5","","","","","","","","","","","","","","","","","","","",""
"psychophysics","311","799511","0.0-18.0-0.22","6078449140caf31f1912ee83","609006691f6f4e337c17f836","609a612c6a75b284ff8123c0","null","","","","null","","","","key","16.754525423728687","683","328.5","","","","","","","","","","","","","","","","","","","",""
"psychophysics","312","800017","0.0-18.0-1.22","6078449140caf31f1912ee83","609006691f6f4e337c17f836","609a612c6a75b284ff8123c0","null","","","","null","","","","key","16.755896551723207","683","328.5","","","","","","","","","","","","","140","-1","6","true","","","",""
"psychophysics","313","800581","0.0-18.0-2.22","6078449140caf31f1912ee83","609006691f6f4e337c17f836","609a612c6a75b284ff8123c0","560.8849999989616","","","","77","","","","key","16.757250000002387","683","328.5","","","","","","","","","","","","","","","","","","","",""
"psychophysics","314","801587","0.0-18.0-0.23","6078449140caf31f1912ee83","609006691f6f4e337c17f836","609a612c6a75b284ff8123c0","null","","","","null","","","","key","16.755067796610152","683","328.5","","","","","","","","","","","","","","","","","","","",""
"psychophysics","315","802093","0.0-18.0-1.23","6078449140caf31f1912ee83","609006691f6f4e337c17f836","609a612c6a75b284ff8123c0","null","","","","null","","","","key","16.753733333332153","683","328.5","","","","","","","","","","","","","140","1","0","true","","","",""
"psychophysics","316","802297","0.0-18.0-2.23","6078449140caf31f1912ee83","609006691f6f4e337c17f836","609a612c6a75b284ff8123c0","199.1699999999255","","","","90","","","","key","16.753909090904266","683","328.5","","","","","","","","","","","","","","","","","","","",""
"psychophysics","317","803300","0.0-18.0-0.24","6078449140caf31f1912ee83","609006691f6f4e337c17f836","609a612c6a75b284ff8123c0","null","","","","null","","","","key","16.75618644067781","683","328.5","","","","","","","","","","","","","","","","","","","",""
"psychophysics","318","803804","0.0-18.0-1.24","6078449140caf31f1912ee83","609006691f6f4e337c17f836","609a612c6a75b284ff8123c0","null","","","","null","","","","key","16.75300000000199","683","328.5","","","","","","","","","","","","","140","-1","6","true","","","",""
"psychophysics","319","804421","0.0-18.0-2.24","6078449140caf31f1912ee83","609006691f6f4e337c17f836","609a612c6a75b284ff8123c0","614.2650000038557","","","","77","","","","key","16.754277777777233","683","328.5","","","","","","","","","","","","","","","","","","","",""
"psychophysics","320","805426","0.0-18.0-0.25","6078449140caf31f1912ee83","609006691f6f4e337c17f836","609a612c6a75b284ff8123c0","null","","","","null","","","","key","16.75474576271234","683","328.5","","","","","","","","","","","","","","","","","","","",""
"psychophysics","321","805931","0.0-18.0-1.25","6078449140caf31f1912ee83","609006691f6f4e337c17f836","609a612c6a75b284ff8123c0","null","","","","null","","","","key","16.755517241380435","683","328.5","","","","","","","","","","","","","140","1","3","true","","","",""
"psychophysics","322","808161","0.0-18.0-2.25","6078449140caf31f1912ee83","609006691f6f4e337c17f836","609a612c6a75b284ff8123c0","2225.769999997341","","","","90","","","","key","16.755098484849","683","328.5","","","","","","","","","","","","","","","","","","","",""
"psychophysics","323","809164","0.0-18.0-0.26","6078449140caf31f1912ee83","609006691f6f4e337c17f836","609a612c6a75b284ff8123c0","null","","","","null","","","","key","16.75462711864285","683","328.5","","","","","","","","","","","","","","","","","","","",""
"psychophysics","324","809669","0.0-18.0-1.26","6078449140caf31f1912ee83","609006691f6f4e337c17f836","609a612c6a75b284ff8123c0","null","","","","null","","","","key","16.754758620690875","683","328.5","","","","","","","","","","","","","140","-1","5","true","","","",""
"psychophysics","325","809910","0.0-18.0-2.26","6078449140caf31f1912ee83","609006691f6f4e337c17f836","609a612c6a75b284ff8123c0","238.92999999958556","","","","77","","","","key","16.749923076919423","683","328.5","","","","","","","","","","","","","","","","","","","",""
"psychophysics","326","810911","0.0-18.0-0.27","6078449140caf31f1912ee83","609006691f6f4e337c17f836","609a612c6a75b284ff8123c0","null","","","","null","","","","key","16.755254237287108","683","328.5","","","","","","","","","","","","","","","","","","","",""
"psychophysics","327","811414","0.0-18.0-1.27","6078449140caf31f1912ee83","609006691f6f4e337c17f836","609a612c6a75b284ff8123c0","null","","","","null","","","","key","16.7564827586195","683","328.5","","","","","","","","","","","","","140","1","2","true","","","",""
