"trial_type","trial_index","time_elapsed","internal_node_id","PROLIFIC_PID","STUDY_ID","SESSION_ID","rt","stimulus","button_pressed","success","key_press","responses","isData","view_history","response_type","avg_frame_time","center_x","center_y","isSC","stim_side","trial_luminance","step_size","nReversal","correct","prev_ans","isThreshold","SC_threshold","final_threshold","isLuminance","FF_luminance","luminance","stimSide","ISInt","isFF","question_order","isSPQ","isCAPS","isAQ"
"pavlovia","0","22","0.0-0.0","5fb3e88b11d7710497e82543","609006691f6f4e337c17f836","609a612941de628a5c861c50","","","","","","","","","","","","","","","","","","","","","","","","","","","","","","","",""
"html-button-response","1","75454","0.0-1.0","5fb3e88b11d7710497e82543","609006691f6f4e337c17f836","609a612941de628a5c861c50","75418.55499999996","<div style='background-color: white; width:60%; margin: auto; padding: 50px; text-align: justify; text-justify: inter-word; margin-bottom: 20px;'><h1 style='text-align: center;'>Consent Form</h1><p>Please read this consent form carefully before deciding whether you would like to participate in this study. You have to be 18 years old or older to participate to this study.</p><p style='text-decoration: underline;'>Participation is voluntary:</p><p>It is your choice whether or not to participate in this research. If you choose to participate, you may change your mind and leave the study at any time. Refusal to participate or stopping your participation will involve no penalty or loss of benefits to which you are otherwise entitled.</p><p style='text-decoration: underline;'>Purpose of the Study:</p><p>To understand the mechanisms underlying human perception.</p><p style='text-decoration: underline;'>What you will do in this study:</p><p>You will be presented with a series of visual images and then you will press buttons on the keyboard of your computer to respond to simple questions about the images (e.g. Were one or two images presented?). In addition, you will be asked to complete a questionnaire concerning your beliefs and everyday mental and perceptual experiences.'</p><p style='text-decoration: underline;'> Time Required:</p><p>The study will take 40 minutes to complete. </p><p style='text-decoration: underline;'>Risks:</p><p>There are no anticipated risks associated with participating in this study that are beyond those experienced in everyday life. </p><p style='text-decoration: underline;'>Benefits:</p><p>There are no benefits to you in participating in the study. However, this study may lead to a better understanding of how different kinds of visual information are used.</p><p style='text-decoration: underline;'>Compensation:</p><p>You will be paid US$6.6/hour. </p><p style='text-decoration: underline;'>Privacy and Confidentiality:</p><p>Your participation in this study will be anonymous. No personal information about your name or identity will be asked or recorded. This anonymous data will be stored for several years and may be used for a variety of research purposes. The overall results of the study may be published, or the data files may be shared with other researchers, but your identity will not be revealed in any way. The online services we are using for this study may temporarily store your data, but this data will be downloaded and then promptly deleted from those services.Your data will not be permanently associated with your name, IP address, or any other identifiable information (e.g., your information will only be connected to your payment, not to any of your responses), though they may be temporarily stored together before we download and separate them. Even so, no guarantee of internet survey security can be given because, although unlikely, transmissions can be intercepted and IP addresses can be identified. The anonymous data may be shared publicly (for example, in conjunction with a resulting academic publication).</p><p style='text-decoration: underline;'>Participation and Withdrawal:</p><p>Your participation in this study is completely voluntary. You may stop responding to the stimuli or stop answering questions if you so choose and without penalty by exiting the full screen mode, closing this tab of your browser or redirecting it to a different website.</p><p style='text-decoration: underline;'>Contact Info of the Researcher: </p><p>If you have questions about this study, or if you would like to talk to the research team, please contact David Melcher (david.melcher@nyu.edu, md5050@nyu.edu) at the Perception and Active Cognition Laboratory, New York University Abu Dhabi, Computational Research Building, Saadiyat Island, Abu Dhabi, UAE.This research has been reviewed by the New York University Abu Dhabi Institutional Review Board (NYUAD IRB). To contact about your rights in this research, for questions, suggestions, or complaints that are not addressed by the researchers, please email IRBnyuad@nyu.edu, or call the NYUAD IRB at +971 2 628 4313. </p></div>","0","","","","","","","","","","","","","","","","","","","","","","","","","","","","",""
"fullscreen","2","78820","0.0-2.0","5fb3e88b11d7710497e82543","609006691f6f4e337c17f836","609a612941de628a5c861c50","","","","true","","","","","","","","","","","","","","","","","","","","","","","","","","","",""
"html-keyboard-response","3","183391","0.0-3.0","5fb3e88b11d7710497e82543","609006691f6f4e337c17f836","609a612941de628a5c861c50","104561.69499999998","<p>Welcome !</p><p>READ CAREFULLY THE FOLLOWING INDICATIONS:</p><p>From this moment you have ~40 minutes to complete the experiment.</p><p>During the experiment you will be prompted to take several breaks. Each break should not last longer than 2-3 minutes.</p><p>Make sure that your computer is plugged in and it's not running on battery power, even if the battery is already fully charged.</p><p>Turn off your phone and music, make sure that you are in a quiet room and that you will not be distracted for the next hour.</p><p>Failure to comply with the instructions and indications provided during the experiment will most likely result in the rejection of your data.<p>Press the spacebar to start.</p>","","","32","","","","","","","","","","","","","","","","","","","","","","","","","","",""
"survey-html-form","4","195609","0.0-4.0","5fb3e88b11d7710497e82543","609006691f6f4e337c17f836","609a612941de628a5c861c50","12214.649999999994","","","","","{""age"":""24"",""sex"":""f""}","true","","","","","","","","","","","","","","","","","","","","","","","","",""
"instructions","5","300689","0.0-5.0","5fb3e88b11d7710497e82543","609006691f6f4e337c17f836","609a612941de628a5c861c50","105077.79000000004","","","","","","","[{""page_index"":0,""viewing_time"":41836.50000000012},{""page_index"":1,""viewing_time"":52971.96499999997},{""page_index"":2,""viewing_time"":10267.834999999963}]","","","","","","","","","","","","","","","","","","","","","","","",""
"psychophysics","6","302680","0.0-6.0-0.0","5fb3e88b11d7710497e82543","609006691f6f4e337c17f836","609a612941de628a5c861c50","980.3649999999907","","","","37","","","","key","16.948820512820408","683","328.5","true","-1","180","30","0","-1","","","","","","","","","","","","","",""
"psychophysics","7","303862","0.0-6.0-0.1","5fb3e88b11d7710497e82543","609006691f6f4e337c17f836","609a612941de628a5c861c50","176.1699999999255","","","","37","","","","key","16.66365714285722","683","328.5","true","-1","180","30","0","-1","-1","","","","","","","","","","","","",""
"psychophysics","8","306943","0.0-6.0-0.2","5fb3e88b11d7710497e82543","609006691f6f4e337c17f836","609a612941de628a5c861c50","2076.7799999999697","","","","39","","","","key","16.66414754098355","683","328.5","true","1","150","30","0","-1","-1","","","","","","","","","","","","",""
"psychophysics","9","308240","0.0-6.0-0.3","5fb3e88b11d7710497e82543","609006691f6f4e337c17f836","609a612941de628a5c861c50","285.7950000000419","","","","39","","","","key","16.664584415584542","683","328.5","true","1","150","30","0","-1","-1","","","","","","","","","","","","",""
"psychophysics","10","311643","0.0-6.0-0.4","5fb3e88b11d7710497e82543","609006691f6f4e337c17f836","609a612941de628a5c861c50","2399.194999999949","","","","39","","","","key","16.663906403941105","683","328.5","true","-1","129","24","1","1","-1","","","","","","","","","","","","",""
"psychophysics","11","312827","0.0-6.0-0.5","5fb3e88b11d7710497e82543","609006691f6f4e337c17f836","609a612941de628a5c861c50","179.84999999997672","","","","37","","","","key","16.902214285714685","683","328.5","true","-1","153","24","1","-1","1","","","","","","","","","","","","",""
"psychophysics","12","313928","0.0-6.0-0.6","5fb3e88b11d7710497e82543","609006691f6f4e337c17f836","609a612941de628a5c861c50","96.65000000008149","","","","37","","","","key","16.664030769230045","683","328.5","true","-1","153","19.2","2","-1","-1","","","","","","","","","","","","",""
"psychophysics","13","315938","0.0-6.0-0.7","5fb3e88b11d7710497e82543","609006691f6f4e337c17f836","609a612941de628a5c861c50","1001.2400000001071","","","","39","","","","key","16.664117647058568","683","328.5","true","1","133.8","19.2","2","-1","-1","","","","","","","","","","","","",""
"psychophysics","14","318158","0.0-6.0-0.8","5fb3e88b11d7710497e82543","609006691f6f4e337c17f836","609a612941de628a5c861c50","1212.6599999999744","","","","37","","","","key","16.664022727272382","683","328.5","true","1","133.8","15.36","3","1","-1","","","","","","","","","","","","",""
"psychophysics","15","319190","0.0-6.0-0.9","5fb3e88b11d7710497e82543","609006691f6f4e337c17f836","609a612941de628a5c861c50","26.73000000003958","","","","37","","","","key","16.651475409835914","683","328.5","true","-1","149.16000000000003","15.36","3","-1","1","","","","","","","","","","","","",""
"psychophysics","16","321298","0.0-6.0-0.10","5fb3e88b11d7710497e82543","609006691f6f4e337c17f836","609a612941de628a5c861c50","1102.1300000000047","","","","37","","","","key","16.66405555555534","683","328.5","true","-1","149.16000000000003","12.287999999999998","4","-1","-1","","","","","","","","","","","","",""
"psychophysics","17","323395","0.0-6.0-0.11","5fb3e88b11d7710497e82543","609006691f6f4e337c17f836","609a612941de628a5c861c50","1082.4000000000233","","","","39","","","","key","16.664024000000207","683","328.5","true","1","136.872","12.287999999999998","4","-1","-1","","","","","","","","","","","","",""
"psychophysics","18","324556","0.0-6.0-0.12","5fb3e88b11d7710497e82543","609006691f6f4e337c17f836","609a612941de628a5c861c50","149.07500000006985","","","","37","","","","key","16.664102941176253","683","328.5","true","-1","136.872","12.287999999999998","4","-1","-1","","","","","","","","","","","","",""
"psychophysics","19","327793","0.0-6.0-0.13","5fb3e88b11d7710497e82543","609006691f6f4e337c17f836","609a612941de628a5c861c50","2232.9150000000373","","","","37","","","","key","16.663819587628954","683","328.5","true","-1","129","12.287999999999998","4","-1","-1","","","","","","","","","","","","",""
"psychophysics","20","329805","0.0-6.0-0.14","5fb3e88b11d7710497e82543","609006691f6f4e337c17f836","609a612941de628a5c861c50","1006.390000000014","","","","37","","","","key","16.664168067227074","683","328.5","true","1","129","9.8304","5","1","-1","","","","","","","","","","","","",""
"psychophysics","21","331824","0.0-6.0-0.15","5fb3e88b11d7710497e82543","609006691f6f4e337c17f836","609a612941de628a5c861c50","1014.8099999999977","","","","39","","","","key","16.664338842975283","683","328.5","true","1","138.8304","9.8304","5","-1","1","","","","","","","","","","","","",""
"psychophysics","22","339907","0.0-6.0-0.16","5fb3e88b11d7710497e82543","609006691f6f4e337c17f836","609a612941de628a5c861c50","7079.45000000007","","","","39","","","","key","16.838050104384088","683","328.5","true","1","138.8304","7.864319999999999","6","-1","-1","","","","","","","","","","","","",""
"psychophysics","23","342186","0.0-6.0-0.17","5fb3e88b11d7710497e82543","609006691f6f4e337c17f836","609a612941de628a5c861c50","1272.5049999999464","","","","39","","","","key","16.66371111111086","683","328.5","true","1","130.96608","7.864319999999999","6","-1","-1","","","","","","","","","","","","",""
"psychophysics","24","344333","0.0-6.0-0.18","5fb3e88b11d7710497e82543","609006691f6f4e337c17f836","609a612941de628a5c861c50","1136.445000000007","","","","39","","","","key","16.653703124999993","683","328.5","true","1","130.96608","7.864319999999999","6","-1","-1","","","","","","","","","","","","",""
"psychophysics","25","346274","0.0-6.0-0.19","5fb3e88b11d7710497e82543","609006691f6f4e337c17f836","609a612941de628a5c861c50","934.0800000000163","","","","39","","","","key","16.66407758620686","683","328.5","true","-1","129","6.291456","7","1","-1","","","","","","","","","","","","",""
"psychophysics","26","347671","0.0-6.0-0.20","5fb3e88b11d7710497e82543","609006691f6f4e337c17f836","609a612941de628a5c861c50","393.6149999999907","","","","37","","","","key","16.664012048192916","683","328.5","true","-1","135.291456","6.291456","7","-1","1","","","","","","","","","","","","",""
"psychophysics","27","349505","0.0-6.0-0.21","5fb3e88b11d7710497e82543","609006691f6f4e337c17f836","609a612941de628a5c861c50","828.570000000007","","","","39","","","","key","16.66383486238539","683","328.5","true","1","135.291456","5.033164800000001","8","-1","-1","","","","","","","","","","","","",""
"psychophysics","28","352207","0.0-6.0-0.22","5fb3e88b11d7710497e82543","609006691f6f4e337c17f836","609a612941de628a5c861c50","1697.7799999999697","","","","39","","","","key","16.664192546583838","683","328.5","true","-1","130.2582912","4.0265318400000005","9","1","-1","","","","","","","","","","","","",""
"psychophysics","29","353822","0.0-6.0-0.23","5fb3e88b11d7710497e82543","609006691f6f4e337c17f836","609a612941de628a5c861c50","602.960000000021","","","","39","","","","key","16.6621562499998","683","328.5","true","1","134.28482304","4.0265318400000005","9","-1","1","","","","","","","","","","","","",""
"psychophysics","30","355522","0.0-6.0-0.24","5fb3e88b11d7710497e82543","609006691f6f4e337c17f836","609a612941de628a5c861c50","696.6049999999814","","","","39","","","","key","16.66325742574259","683","328.5","true","-1","134.28482304","3.2212254720000004","10","1","-1","","","","","","","","","","","","",""
"psychophysics","31","357627","0.0-6.0-0.25","5fb3e88b11d7710497e82543","609006691f6f4e337c17f836","609a612941de628a5c861c50","1100.5400000000373","","","","39","","","","key","16.66407200000016","683","328.5","true","1","137.506048512","3.2212254720000004","10","-1","1","","","","","","","","","","","","",""
"psychophysics","32","358723","0.0-6.0-0.26","5fb3e88b11d7710497e82543","609006691f6f4e337c17f836","609a612941de628a5c861c50","86.09499999997206","","","","37","","","","key","16.68267692307709","683","328.5","true","-1","137.506048512","2.5769803776000004","11","-1","-1","","","","","","","","","","","","",""
"psychophysics","33","361019","0.0-6.0-0.27","5fb3e88b11d7710497e82543","609006691f6f4e337c17f836","609a612941de628a5c861c50","1280.4349999999977","","","","39","","","","key","16.65627205882372","683","328.5","true","1","134.9290681344","2.5769803776000004","11","-1","-1","","","","","","","","","","","","",""
"psychophysics","34","362838","0.0-6.0-0.28","5fb3e88b11d7710497e82543","609006691f6f4e337c17f836","609a612941de628a5c861c50","815.8949999999604","","","","39","","","","key","16.670605504586803","683","328.5","true","-1","134.9290681344","2.0615843020800004","12","1","-1","","","","","","","","","","","","",""
"psychophysics","35","364136","0.0-6.0-0.29","5fb3e88b11d7710497e82543","609006691f6f4e337c17f836","609a612941de628a5c861c50","293.8850000000675","","","","37","","","","key","16.664064935064577","683","328.5","true","-1","136.99065243648002","2.0615843020800004","12","-1","1","","","","","","","","","","","","",""
"psychophysics","36","366819","0.0-6.0-0.30","5fb3e88b11d7710497e82543","609006691f6f4e337c17f836","609a612941de628a5c861c50","1678.179999999993","","","","37","","","","key","16.664068749999934","683","328.5","true","1","136.99065243648002","1.6492674416640005","13","1","-1","","","","","","","","","","","","",""
"psychophysics","37","367881","0.0-6.0-0.31","5fb3e88b11d7710497e82543","609006691f6f4e337c17f836","609a612941de628a5c861c50","56.23499999998603","","","","37","","","","key","16.652693548386225","683","328.5","true","-1","138.639919878144","1.6492674416640005","13","-1","1","","","","","","","","","","","","",""
"psychophysics","38","370871","0.0-6.0-0.32","5fb3e88b11d7710497e82543","609006691f6f4e337c17f836","609a612941de628a5c861c50","1985.469999999972","","","","37","","","","key","16.656815642458138","683","328.5","true","1","138.639919878144","1.3194139533312006","14","1","-1","","","","","","","","","","","","",""
"psychophysics","39","372536","0.0-6.0-0.33","5fb3e88b11d7710497e82543","609006691f6f4e337c17f836","609a612941de628a5c861c50","661.6999999999534","","","","37","","","","key","16.664272727272497","683","328.5","true","-1","139.95933383147522","1.3194139533312006","14","-1","1","","","","","","","","","","","","",""
"psychophysics","40","374019","0.0-6.0-0.34","5fb3e88b11d7710497e82543","609006691f6f4e337c17f836","609a612941de628a5c861c50","479.375","","","","37","","","","key","16.659886363636442","683","328.5","true","-1","139.95933383147522","1.0555311626649604","15","-1","-1","","","","","","","","","","","","",""
"psychophysics","41","375752","0.0-6.0-0.35","5fb3e88b11d7710497e82543","609006691f6f4e337c17f836","609a612941de628a5c861c50","728.7050000000163","","","","39","","","","key","16.663631067961088","683","328.5","true","1","138.90380266881027","1.0555311626649604","15","-1","-1","","","","","","","","","","","","",""
"psychophysics","42","377201","0.0-6.0-0.36","5fb3e88b11d7710497e82543","609006691f6f4e337c17f836","609a612941de628a5c861c50","446.4300000000512","","","","39","","","","key","16.66408139534855","683","328.5","true","1","138.90380266881027","1.0555311626649604","15","-1","-1","","","","","","","","","","","","",""
"psychophysics","43","378484","0.0-6.0-0.37","5fb3e88b11d7710497e82543","609006691f6f4e337c17f836","609a612941de628a5c861c50","278.6350000000093","","","","37","","","","key","16.663776315789285","683","328.5","true","-1","137.84827150614532","1.0555311626649604","15","-1","-1","","","","","","","","","","","","",""
"psychophysics","44","380484","0.0-6.0-0.38","5fb3e88b11d7710497e82543","609006691f6f4e337c17f836","609a612941de628a5c861c50","996.2049999998999","","","","39","","","","key","16.66414285714282","683","328.5","true","1","137.84827150614532","1.0555311626649604","15","-1","-1","","","","","","","","","","","","",""
"psychophysics","45","382453","0.0-6.0-0.39","5fb3e88b11d7710497e82543","609006691f6f4e337c17f836","609a612941de628a5c861c50","965.5199999999604","","","","39","","","","key","16.664170940170806","683","328.5","true","1","136.79274034348038","1.0555311626649604","15","-1","-1","","","","","","","","","","","","",""
"html-keyboard-response","46","390844","0.0-7.0","5fb3e88b11d7710497e82543","609006691f6f4e337c17f836","609a612941de628a5c861c50","8387.990000000107","<p>Well Done !</p><p>Prepare for a new block.</p><p>DON'T EXIT THE FULL SCREEN MODE</p><p>Press the Spacebar to start.</p>","","","32","","","","","","","","","","","","","","","true","137.75646228522604","","","","","","","","","","",""
"psychophysics","47","392637","0.0-8.0-0.0","5fb3e88b11d7710497e82543","609006691f6f4e337c17f836","609a612941de628a5c861c50","786.1549999998533","","","","39","","","","key","16.654439252336665","683","328.5","true","1","180","30","0","-1","","","","","","","","","","","","","",""
"psychophysics","48","393707","0.0-8.0-0.1","5fb3e88b11d7710497e82543","609006691f6f4e337c17f836","609a612941de628a5c861c50","62.2599999998929","","","","39","","","","key","16.664142857143094","683","328.5","true","1","180","30","0","-1","-1","","","","","","","","","","","","",""
"psychophysics","49","394830","0.0-8.0-0.2","5fb3e88b11d7710497e82543","609006691f6f4e337c17f836","609a612941de628a5c861c50","116.31500000000233","","","","37","","","","key","16.66332835820938","683","328.5","true","-1","150","30","0","-1","-1","","","","","","","","","","","","",""
"psychophysics","50","395932","0.0-8.0-0.3","5fb3e88b11d7710497e82543","609006691f6f4e337c17f836","609a612941de628a5c861c50","97.56000000005588","","","","37","","","","key","16.663353846154106","683","328.5","true","-1","150","30","0","-1","-1","","","","","","","","","","","","",""
"psychophysics","51","397476","0.0-8.0-0.4","5fb3e88b11d7710497e82543","609006691f6f4e337c17f836","609a612941de628a5c861c50","539.265000000014","","","","39","","","","key","16.663956043955864","683","328.5","true","1","129","30","0","-1","-1","","","","","","","","","","","","",""
"psychophysics","52","399097","0.0-8.0-0.5","5fb3e88b11d7710497e82543","609006691f6f4e337c17f836","609a612941de628a5c861c50","614.2650000000722","","","","39","","","","key","16.664175257731838","683","328.5","true","-1","129","24","1","1","-1","","","","","","","","","","","","",""
"psychophysics","53","400211","0.0-8.0-0.6","5fb3e88b11d7710497e82543","609006691f6f4e337c17f836","609a612941de628a5c861c50","109.45499999989988","","","","37","","","","key","16.66418461538493","683","328.5","true","-1","153","24","1","-1","1","","","","","","","","","","","","",""
"psychophysics","54","401511","0.0-8.0-0.7","5fb3e88b11d7710497e82543","609006691f6f4e337c17f836","609a612941de628a5c861c50","293.7600000000093","","","","37","","","","key","16.664168831168872","683","328.5","true","-1","153","19.2","2","-1","-1","","","","","","","","","","","","",""
"psychophysics","55","402976","0.0-8.0-0.8","5fb3e88b11d7710497e82543","609006691f6f4e337c17f836","609a612941de628a5c861c50","459.6350000000093","","","","39","","","","key","16.6683448275863","683","328.5","true","1","133.8","19.2","2","-1","-1","","","","","","","","","","","","",""
"psychophysics","56","404563","0.0-8.0-0.9","5fb3e88b11d7710497e82543","609006691f6f4e337c17f836","609a612941de628a5c861c50","580.6849999999977","","","","39","","","","key","16.654484210526082","683","328.5","true","-1","133.8","15.36","3","1","-1","","","","","","","","","","","","",""
"psychophysics","57","405763","0.0-8.0-0.10","5fb3e88b11d7710497e82543","609006691f6f4e337c17f836","609a612941de628a5c861c50","197.04999999998836","","","","39","","","","key","16.6631690140848","683","328.5","true","1","149.16000000000003","15.36","3","-1","1","","","","","","","","","","","","",""
"psychophysics","58","406865","0.0-8.0-0.11","5fb3e88b11d7710497e82543","609006691f6f4e337c17f836","609a612941de628a5c861c50","97.0099999999511","","","","37","","","","key","16.663799999999956","683","328.5","true","-1","149.16000000000003","12.287999999999998","4","-1","-1","","","","","","","","","","","","",""
"psychophysics","59","408447","0.0-8.0-0.12","5fb3e88b11d7710497e82543","609006691f6f4e337c17f836","609a612941de628a5c861c50","578.7400000000489","","","","39","","","","key","16.663723404255467","683","328.5","true","1","136.872","12.287999999999998","4","-1","-1","","","","","","","","","","","","",""
"psychophysics","60","409729","0.0-8.0-0.13","5fb3e88b11d7710497e82543","609006691f6f4e337c17f836","609a612941de628a5c861c50","278.2250000000349","","","","39","","","","key","16.663986842105118","683","328.5","true","1","136.872","12.287999999999998","4","-1","-1","","","","","","","","","","","","",""
"psychophysics","61","411265","0.0-8.0-0.14","5fb3e88b11d7710497e82543","609006691f6f4e337c17f836","609a612941de628a5c861c50","531.609999999986","","","","39","","","","key","16.663967032966735","683","328.5","true","-1","129","9.8304","5","1","-1","","","","","","","","","","","","",""
"psychophysics","62","412547","0.0-8.0-0.15","5fb3e88b11d7710497e82543","609006691f6f4e337c17f836","609a612941de628a5c861c50","278.90499999996973","","","","39","","","","key","16.664065789473458","683","328.5","true","1","138.8304","9.8304","5","-1","1","","","","","","","","","","","","",""
"psychophysics","63","414431","0.0-8.0-0.16","5fb3e88b11d7710497e82543","609006691f6f4e337c17f836","609a612941de628a5c861c50","879.6049999999814","","","","39","","","","key","16.664027027026982","683","328.5","true","1","138.8304","7.864319999999999","6","-1","-1","","","","","","","","","","","","",""
"psychophysics","64","416230","0.0-8.0-0.17","5fb3e88b11d7710497e82543","609006691f6f4e337c17f836","609a612941de628a5c861c50","788.945000000007","","","","39","","","","key","16.663944444444496","683","328.5","true","-1","130.96608","6.291456","7","1","-1","","","","","","","","","","","","",""
"psychophysics","65","417789","0.0-8.0-0.18","5fb3e88b11d7710497e82543","609006691f6f4e337c17f836","609a612941de628a5c861c50","553.679999999993","","","","39","","","","key","16.664086956521952","683","328.5","true","1","137.25753600000002","6.291456","7","-1","1","","","","","","","","","","","","",""
"psychophysics","66","418845","0.0-8.0-0.19","5fb3e88b11d7710497e82543","609006691f6f4e337c17f836","609a612941de628a5c861c50","49.73000000009779","","","","37","","","","key","16.647952380952322","683","328.5","true","-1","137.25753600000002","5.033164800000001","8","-1","-1","","","","","","","","","","","","",""
"psychophysics","67","420871","0.0-8.0-0.20","5fb3e88b11d7710497e82543","609006691f6f4e337c17f836","609a612941de628a5c861c50","1020.3850000000093","","","","37","","","","key","16.664033333333403","683","328.5","true","-1","132.2243712","5.033164800000001","8","-1","-1","","","","","","","","","","","","",""
"psychophysics","68","422289","0.0-8.0-0.21","5fb3e88b11d7710497e82543","609006691f6f4e337c17f836","609a612941de628a5c861c50","410.445000000007","","","","39","","","","key","16.663214285714535","683","328.5","true","-1","132.2243712","4.0265318400000005","9","1","-1","","","","","","","","","","","","",""
"psychophysics","69","424161","0.0-8.0-0.22","5fb3e88b11d7710497e82543","609006691f6f4e337c17f836","609a612941de628a5c861c50","866.3700000001118","","","","37","","","","key","16.656848214285542","683","328.5","true","1","136.25090304","4.0265318400000005","9","1","1","","","","","","","","","","","","",""
"psychophysics","70","425894","0.0-8.0-0.23","5fb3e88b11d7710497e82543","609006691f6f4e337c17f836","609a612941de628a5c861c50","727.984999999986","","","","39","","","","key","16.663902912621197","683","328.5","true","1","140.27743488","4.0265318400000005","9","-1","1","","","","","","","","","","","","",""
"psychophysics","71","427109","0.0-8.0-0.24","5fb3e88b11d7710497e82543","609006691f6f4e337c17f836","609a612941de628a5c861c50","209.5800000000745","","","","37","","","","key","16.663986111110717","683","328.5","true","-1","140.27743488","3.2212254720000004","10","-1","-1","","","","","","","","","","","","",""
"psychophysics","72","428272","0.0-8.0-0.25","5fb3e88b11d7710497e82543","609006691f6f4e337c17f836","609a612941de628a5c861c50","159.12499999988358","","","","37","","","","key","16.663426470588412","683","328.5","true","-1","137.05620940799997","3.2212254720000004","10","-1","-1","","","","","","","","","","","","",""
"psychophysics","73","430061","0.0-8.0-0.26","5fb3e88b11d7710497e82543","609006691f6f4e337c17f836","609a612941de628a5c861c50","781.3649999999325","","","","39","","","","key","16.663738317757183","683","328.5","true","-1","137.05620940799997","2.5769803776000004","11","1","-1","","","","","","","","","","","","",""
"psychophysics","74","431474","0.0-8.0-0.27","5fb3e88b11d7710497e82543","609006691f6f4e337c17f836","609a612941de628a5c861c50","409.74499999993714","","","","39","","","","key","16.663321428571916","683","328.5","true","1","139.63318978559997","2.5769803776000004","11","-1","1","","","","","","","","","","","","",""
"psychophysics","75","432578","0.0-8.0-0.28","5fb3e88b11d7710497e82543","609006691f6f4e337c17f836","609a612941de628a5c861c50","100.5800000000745","","","","37","","","","key","16.66332307692277","683","328.5","true","-1","139.63318978559997","2.0615843020800004","12","-1","-1","","","","","","","","","","","","",""
"psychophysics","76","433958","0.0-8.0-0.29","5fb3e88b11d7710497e82543","609006691f6f4e337c17f836","609a612941de628a5c861c50","375.37000000011176","","","","39","","","","key","16.66369512195134","683","328.5","true","1","137.57160548351996","2.0615843020800004","12","-1","-1","","","","","","","","","","","","",""
"psychophysics","77","435430","0.0-8.0-0.30","5fb3e88b11d7710497e82543","609006691f6f4e337c17f836","609a612941de628a5c861c50","469.0199999999604","","","","39","","","","key","16.66404597701146","683","328.5","true","1","137.57160548351996","2.0615843020800004","12","-1","-1","","","","","","","","","","","","",""
"psychophysics","78","436842","0.0-8.0-0.31","5fb3e88b11d7710497e82543","609006691f6f4e337c17f836","609a612941de628a5c861c50","405.11499999987427","","","","39","","","","key","16.664023809523705","683","328.5","true","1","135.51002118143995","2.0615843020800004","12","-1","-1","","","","","","","","","","","","",""
"psychophysics","79","441786","0.0-8.0-0.32","5fb3e88b11d7710497e82543","609006691f6f4e337c17f836","609a612941de628a5c861c50","3938.414999999921","","","","37","","","","key","16.664000000000016","683","328.5","true","-1","135.51002118143995","2.0615843020800004","12","-1","-1","","","","","","","","","","","","",""
"psychophysics","80","443091","0.0-8.0-0.33","5fb3e88b11d7710497e82543","609006691f6f4e337c17f836","609a612941de628a5c861c50","249.97000000008848","","","","39","","","","key","17.102328947368445","683","328.5","true","1","133.44843687935995","2.0615843020800004","12","-1","-1","","","","","","","","","","","","",""
"psychophysics","81","444777","0.0-8.0-0.34","5fb3e88b11d7710497e82543","609006691f6f4e337c17f836","609a612941de628a5c861c50","668.6999999999534","","","","39","","","","key","17.003030612244512","683","328.5","true","1","133.44843687935995","2.0615843020800004","12","-1","-1","","","","","","","","","","","","",""
"psychophysics","82","446257","0.0-8.0-0.35","5fb3e88b11d7710497e82543","609006691f6f4e337c17f836","609a612941de628a5c861c50","470.78999999997905","","","","39","","","","key","16.663863636363452","683","328.5","true","1","131.38685257727994","2.0615843020800004","12","-1","-1","","","","","","","","","","","","",""
"psychophysics","83","447610","0.0-8.0-0.36","5fb3e88b11d7710497e82543","609006691f6f4e337c17f836","609a612941de628a5c861c50","348.61999999999534","","","","39","","","","key","16.663824999999633","683","328.5","true","-1","131.38685257727994","1.6492674416640005","13","1","-1","","","","","","","","","","","","",""
"psychophysics","84","449057","0.0-8.0-0.37","5fb3e88b11d7710497e82543","609006691f6f4e337c17f836","609a612941de628a5c861c50","435.0350000000908","","","","39","","","","key","16.66394186046565","683","328.5","true","-1","133.03612001894393","1.6492674416640005","13","1","1","","","","","","","","","","","","",""
"psychophysics","85","450757","0.0-8.0-0.38","5fb3e88b11d7710497e82543","609006691f6f4e337c17f836","609a612941de628a5c861c50","696.6900000000023","","","","39","","","","key","16.663999999999554","683","328.5","true","1","134.68538746060793","1.6492674416640005","13","-1","1","","","","","","","","","","","","",""
"psychophysics","86","452088","0.0-8.0-0.39","5fb3e88b11d7710497e82543","609006691f6f4e337c17f836","609a612941de628a5c861c50","326.4749999999767","","","","39","","","","key","16.66407594936708","683","328.5","true","-1","134.68538746060793","1.3194139533312006","14","1","-1","","","","","","","","","","","","",""
"html-keyboard-response","87","465592","0.0-9.0","5fb3e88b11d7710497e82543","609006691f6f4e337c17f836","609a612941de628a5c861c50","13500.574999999895","<p>Well Done !</p><p>Prepare for a new block.</p><p>DON'T EXIT THE FULL SCREEN MODE</p><p>Press the Spacebar to start.</p>","","","32","","","","","","","","","","","","","","","true","135.44130170470393","","","","","","","","","","",""
"psychophysics","88","467420","0.0-10.0-0.0","5fb3e88b11d7710497e82543","609006691f6f4e337c17f836","609a612941de628a5c861c50","820.0200000000186","","","","37","","","","key","16.649818181818013","683","328.5","true","-1","180","30","0","-1","","","","","","","","","","","","","",""
"psychophysics","89","469620","0.0-10.0-0.1","5fb3e88b11d7710497e82543","609006691f6f4e337c17f836","609a612941de628a5c861c50","1197.1250000000582","","","","37","","","","key","16.66402290076309","683","328.5","true","-1","180","30","0","-1","-1","","","","","","","","","","","","",""
"psychophysics","90","471136","0.0-10.0-0.2","5fb3e88b11d7710497e82543","609006691f6f4e337c17f836","609a612941de628a5c861c50","510.34500000003027","","","","37","","","","key","16.663844444444273","683","328.5","true","-1","150","30","0","-1","-1","","","","","","","","","","","","",""
"psychophysics","91","472224","0.0-10.0-0.3","5fb3e88b11d7710497e82543","609006691f6f4e337c17f836","609a612941de628a5c861c50","83.64000000007218","","","","39","","","","key","16.664093749999665","683","328.5","true","1","150","30","0","-1","-1","","","","","","","","","","","","",""
"psychophysics","92","474019","0.0-10.0-0.4","5fb3e88b11d7710497e82543","609006691f6f4e337c17f836","609a612941de628a5c861c50","786.4149999999208","","","","39","","","","key","16.663514018691444","683","328.5","true","1","129","30","0","-1","-1","","","","","","","","","","","","",""
"psychophysics","93","475551","0.0-10.0-0.5","5fb3e88b11d7710497e82543","609006691f6f4e337c17f836","609a612941de628a5c861c50","527.304999999993","","","","39","","","","key","16.664076923076728","683","328.5","true","1","129","30","0","-1","-1","","","","","","","","","","","","",""
"psychophysics","94","476918","0.0-10.0-0.6","5fb3e88b11d7710497e82543","609006691f6f4e337c17f836","609a612941de628a5c861c50","364.0799999999581","","","","39","","","","key","16.664123456790055","683","328.5","true","1","129","30","0","-1","-1","","","","","","","","","","","","",""
"psychophysics","95","478498","0.0-10.0-0.7","5fb3e88b11d7710497e82543","609006691f6f4e337c17f836","609a612941de628a5c861c50","574.6600000000326","","","","39","","","","key","16.664172043010556","683","328.5","true","-1","129","24","1","1","-1","","","","","","","","","","","","",""
"psychophysics","96","479929","0.0-10.0-0.8","5fb3e88b11d7710497e82543","609006691f6f4e337c17f836","609a612941de628a5c861c50","426.97999999992317","","","","39","","","","key","16.66447058823576","683","328.5","true","1","153","24","1","-1","1","","","","","","","","","","","","",""
"psychophysics","97","481117","0.0-10.0-0.9","5fb3e88b11d7710497e82543","609006691f6f4e337c17f836","609a612941de628a5c861c50","182.94999999995343","","","","39","","","","key","16.646028169014322","683","328.5","true","1","153","19.2","2","-1","-1","","","","","","","","","","","","",""
"psychophysics","98","482246","0.0-10.0-0.10","5fb3e88b11d7710497e82543","609006691f6f4e337c17f836","609a612941de628a5c861c50","124.17000000004191","","","","39","","","","key","16.663863636363672","683","328.5","true","1","133.8","19.2","2","-1","-1","","","","","","","","","","","","",""
"psychophysics","99","483455","0.0-10.0-0.11","5fb3e88b11d7710497e82543","609006691f6f4e337c17f836","609a612941de628a5c861c50","204.5799999999581","","","","37","","","","key","16.664069444444774","683","328.5","true","-1","133.8","19.2","2","-1","-1","","","","","","","","","","","","",""
"psychophysics","100","485316","0.0-10.0-0.12","5fb3e88b11d7710497e82543","609006691f6f4e337c17f836","609a612941de628a5c861c50","852.4549999999581","","","","37","","","","key","16.66409009009042","683","328.5","true","-1","129","19.2","2","-1","-1","","","","","","","","","","","","",""
"psychophysics","101","487034","0.0-10.0-0.13","5fb3e88b11d7710497e82543","609006691f6f4e337c17f836","609a612941de628a5c861c50","714.0849999999627","","","","39","","","","key","16.66402941176499","683","328.5","true","-1","129","15.36","3","1","-1","","","","","","","","","","","","",""
"psychophysics","102","488201","0.0-10.0-0.14","5fb3e88b11d7710497e82543","609006691f6f4e337c17f836","609a612941de628a5c861c50","163.88500000006752","","","","37","","","","key","16.664188405797493","683","328.5","true","-1","144.36","15.36","3","-1","1","","","","","","","","","","","","",""
"psychophysics","103","489483","0.0-10.0-0.15","5fb3e88b11d7710497e82543","609006691f6f4e337c17f836","609a612941de628a5c861c50","277.8299999999581","","","","37","","","","key","16.664289473683887","683","328.5","true","-1","144.36","12.287999999999998","4","-1","-1","","","","","","","","","","","","",""
"psychophysics","104","491115","0.0-10.0-0.16","5fb3e88b11d7710497e82543","609006691f6f4e337c17f836","609a612941de628a5c861c50","626.1149999999907","","","","39","","","","key","16.664051546391757","683","328.5","true","-1","132.072","9.8304","5","1","-1","","","","","","","","","","","","",""
"psychophysics","105","493744","0.0-10.0-0.17","5fb3e88b11d7710497e82543","609006691f6f4e337c17f836","609a612941de628a5c861c50","1625.5150000000722","","","","37","","","","key","16.664000000000204","683","328.5","true","-1","141.9024","9.8304","5","-1","1","","","","","","","","","","","","",""
"psychophysics","106","494808","0.0-10.0-0.18","5fb3e88b11d7710497e82543","609006691f6f4e337c17f836","609a612941de628a5c861c50","55.25","","","","39","","","","key","16.664253968253938","683","328.5","true","1","141.9024","7.864319999999999","6","-1","-1","","","","","","","","","","","","",""
"psychophysics","107","495884","0.0-10.0-0.19","5fb3e88b11d7710497e82543","609006691f6f4e337c17f836","609a612941de628a5c861c50","68.3650000000489","","","","37","","","","key","16.66496874999939","683","328.5","true","-1","134.03808","7.864319999999999","6","-1","-1","","","","","","","","","","","","",""
"psychophysics","108","497753","0.0-10.0-0.20","5fb3e88b11d7710497e82543","609006691f6f4e337c17f836","609a612941de628a5c861c50","863.820000000007","","","","39","","","","key","16.66408108108098","683","328.5","true","1","134.03808","7.864319999999999","6","-1","-1","","","","","","","","","","","","",""
"psychophysics","109","499199","0.0-10.0-0.21","5fb3e88b11d7710497e82543","609006691f6f4e337c17f836","609a612941de628a5c861c50","437.0250000000815","","","","37","","","","key","16.66409302325608","683","328.5","true","-1","129","7.864319999999999","6","-1","-1","","","","","","","","","","","","",""
"psychophysics","110","501414","0.0-10.0-0.22","5fb3e88b11d7710497e82543","609006691f6f4e337c17f836","609a612941de628a5c861c50","1210.9199999999837","","","","39","","","","key","16.664090909090714","683","328.5","true","-1","129","6.291456","7","1","-1","","","","","","","","","","","","",""
"psychophysics","111","502849","0.0-10.0-0.23","5fb3e88b11d7710497e82543","609006691f6f4e337c17f836","609a612941de628a5c861c50","430.8300000000163","","","","39","","","","key","16.66377647058792","683","328.5","true","1","135.291456","6.291456","7","-1","1","","","","","","","","","","","","",""
"psychophysics","112","504485","0.0-10.0-0.24","5fb3e88b11d7710497e82543","609006691f6f4e337c17f836","609a612941de628a5c861c50","632.6149999999907","","","","39","","","","key","16.664051546391757","683","328.5","true","1","135.291456","5.033164800000001","8","-1","-1","","","","","","","","","","","","",""
"psychophysics","113","505850","0.0-10.0-0.25","5fb3e88b11d7710497e82543","609006691f6f4e337c17f836","609a612941de628a5c861c50","351.69000000006054","","","","39","","","","key","16.664654320987648","683","328.5","true","-1","130.2582912","4.0265318400000005","9","1","-1","","","","","","","","","","","","",""
"psychophysics","114","507065","0.0-10.0-0.26","5fb3e88b11d7710497e82543","609006691f6f4e337c17f836","609a612941de628a5c861c50","211.59499999997206","","","","37","","","","key","16.661291666666834","683","328.5","true","-1","134.28482304","4.0265318400000005","9","-1","1","","","","","","","","","","","","",""
"psychophysics","115","509234","0.0-10.0-0.27","5fb3e88b11d7710497e82543","609006691f6f4e337c17f836","609a612941de628a5c861c50","1163.1499999999069","","","","39","","","","key","16.663906976743963","683","328.5","true","-1","134.28482304","3.2212254720000004","10","1","-1","","","","","","","","","","","","",""
"psychophysics","116","510481","0.0-10.0-0.28","5fb3e88b11d7710497e82543","609006691f6f4e337c17f836","609a612941de628a5c861c50","236.89500000001863","","","","39","","","","key","16.66363513513509","683","328.5","true","1","137.506048512","3.2212254720000004","10","-1","1","","","","","","","","","","","","",""
"psychophysics","117","512741","0.0-10.0-0.29","5fb3e88b11d7710497e82543","609006691f6f4e337c17f836","609a612941de628a5c861c50","1255.7100000001374","","","","37","","","","key","16.664104477611872","683","328.5","true","1","137.506048512","2.5769803776000004","11","1","-1","","","","","","","","","","","","",""
"psychophysics","118","514352","0.0-10.0-0.30","5fb3e88b11d7710497e82543","609006691f6f4e337c17f836","609a612941de628a5c861c50","606.2899999999208","","","","39","","","","key","16.652854166667264","683","328.5","true","1","140.0830288896","2.5769803776000004","11","-1","1","","","","","","","","","","","","",""
"psychophysics","119","515797","0.0-10.0-0.31","5fb3e88b11d7710497e82543","609006691f6f4e337c17f836","609a612941de628a5c861c50","434.78999999997905","","","","39","","","","key","16.66395348837182","683","328.5","true","1","140.0830288896","2.0615843020800004","12","-1","-1","","","","","","","","","","","","",""
"psychophysics","120","517409","0.0-10.0-0.32","5fb3e88b11d7710497e82543","609006691f6f4e337c17f836","609a612941de628a5c861c50","608.3600000001607","","","","39","","","","key","16.66369473684187","683","328.5","true","1","138.02144458752","2.0615843020800004","12","-1","-1","","","","","","","","","","","","",""
"psychophysics","121","519392","0.0-10.0-0.33","5fb3e88b11d7710497e82543","609006691f6f4e337c17f836","609a612941de628a5c861c50","976.3649999999907","","","","39","","","","key","16.66388983050829","683","328.5","true","1","138.02144458752","2.0615843020800004","12","-1","-1","","","","","","","","","","","","",""
"psychophysics","122","520904","0.0-10.0-0.34","5fb3e88b11d7710497e82543","609006691f6f4e337c17f836","609a612941de628a5c861c50","503.8200000000652","","","","39","","","","key","16.627544444445004","683","328.5","true","1","135.95986028544","2.0615843020800004","12","-1","-1","","","","","","","","","","","","",""
"psychophysics","123","522712","0.0-10.0-0.35","5fb3e88b11d7710497e82543","609006691f6f4e337c17f836","609a612941de628a5c861c50","801.5349999997998","","","","39","","","","key","16.669490740740137","683","328.5","true","-1","135.95986028544","1.6492674416640005","13","1","-1","","","","","","","","","","","","",""
"psychophysics","124","523907","0.0-10.0-0.36","5fb3e88b11d7710497e82543","609006691f6f4e337c17f836","609a612941de628a5c861c50","191.0700000001816","","","","37","","","","key","16.664100000001156","683","328.5","true","-1","137.60912772710398","1.6492674416640005","13","-1","1","","","","","","","","","","","","",""
"psychophysics","125","526580","0.0-10.0-0.37","5fb3e88b11d7710497e82543","609006691f6f4e337c17f836","609a612941de628a5c861c50","1668.2149999999674","","","","37","","","","key","16.663824999999633","683","328.5","true","1","137.60912772710398","1.3194139533312006","14","1","-1","","","","","","","","","","","","",""
"psychophysics","126","528027","0.0-10.0-0.38","5fb3e88b11d7710497e82543","609006691f6f4e337c17f836","609a612941de628a5c861c50","444.1700000000419","","","","37","","","","key","16.66408139534923","683","328.5","true","-1","138.9285416804352","1.3194139533312006","14","-1","1","","","","","","","","","","","","",""
"psychophysics","127","529509","0.0-10.0-0.39","5fb3e88b11d7710497e82543","609006691f6f4e337c17f836","609a612941de628a5c861c50","477.05999999993946","","","","39","","","","key","16.664091954022464","683","328.5","true","1","138.9285416804352","1.0555311626649604","15","-1","-1","","","","","","","","","","","","",""
"html-keyboard-response","128","555096","0.0-11.0","5fb3e88b11d7710497e82543","609006691f6f4e337c17f836","609a612941de628a5c861c50","25582.550000000163","<p>Well Done !</p><p>Prepare for a new block.</p><p>DON'T EXIT THE FULL SCREEN MODE</p><p>Press the Spacebar to start.</p>","","","32","","","","","","","","","","","","","","","true","137.00293604294654","","","","","","","","","","",""
"psychophysics","129","556689","0.0-12.0-0.0","5fb3e88b11d7710497e82543","609006691f6f4e337c17f836","609a612941de628a5c861c50","577.7949999999255","","","","37","","","","key","16.80808421052551","683","328.5","true","-1","180","30","0","-1","","","","","","","","","","","","","",""
"psychophysics","130","558637","0.0-12.0-0.1","5fb3e88b11d7710497e82543","609006691f6f4e337c17f836","609a612941de628a5c861c50","944.3850000000093","","","","37","","","","key","16.66414782608677","683","328.5","true","-1","180","30","0","-1","-1","","","","","","","","","","","","",""
"psychophysics","131","560086","0.0-12.0-0.2","5fb3e88b11d7710497e82543","609006691f6f4e337c17f836","609a612941de628a5c861c50","443.23500000021886","","","","37","","","","key","16.66396511627935","683","328.5","true","-1","150","30","0","-1","-1","","","","","","","","","","","","",""
"psychophysics","132","561106","0.0-12.0-0.3","5fb3e88b11d7710497e82543","609006691f6f4e337c17f836","609a612941de628a5c861c50","15.805000000051223","","","","37","","","","key","16.664196721310574","683","328.5","true","-1","150","30","0","-1","-1","","","","","","","","","","","","",""
"psychophysics","133","562836","0.0-12.0-0.4","5fb3e88b11d7710497e82543","609006691f6f4e337c17f836","609a612941de628a5c861c50","725.5050000000047","","","","39","","","","key","16.66407843137288","683","328.5","true","-1","129","24","1","1","-1","","","","","","","","","","","","",""
"psychophysics","134","563959","0.0-12.0-0.5","5fb3e88b11d7710497e82543","609006691f6f4e337c17f836","609a612941de628a5c861c50","119.26500000001397","","","","37","","","","key","16.663940298508283","683","328.5","true","-1","153","24","1","-1","1","","","","","","","","","","","","",""
"psychophysics","135","565205","0.0-12.0-0.6","5fb3e88b11d7710497e82543","609006691f6f4e337c17f836","609a612941de628a5c861c50","237.22500000009313","","","","39","","","","key","16.663486486486462","683","328.5","true","1","153","19.2","2","-1","-1","","","","","","","","","","","","",""
"psychophysics","136","566904","0.0-12.0-0.7","5fb3e88b11d7710497e82543","609006691f6f4e337c17f836","609a612941de628a5c861c50","694.3200000000652","","","","39","","","","key","16.66381999999983","683","328.5","true","1","133.8","19.2","2","-1","-1","","","","","","","","","","","","",""
"psychophysics","137","568054","0.0-12.0-0.8","5fb3e88b11d7710497e82543","609006691f6f4e337c17f836","609a612941de628a5c861c50","146.85000000009313","","","","37","","","","key","16.664101449276686","683","328.5","true","-1","133.8","19.2","2","-1","-1","","","","","","","","","","","","",""
"psychophysics","138","569709","0.0-12.0-0.9","5fb3e88b11d7710497e82543","609006691f6f4e337c17f836","609a612941de628a5c861c50","652.7649999997811","","","","39","","","","key","16.66303061224444","683","328.5","true","1","129","19.2","2","-1","-1","","","","","","","","","","","","",""
"psychophysics","139","571287","0.0-12.0-0.10","5fb3e88b11d7710497e82543","609006691f6f4e337c17f836","609a612941de628a5c861c50","568.7600000000093","","","","39","","","","key","16.662765957446066","683","328.5","true","-1","129","15.36","3","1","-1","","","","","","","","","","","","",""
"psychophysics","140","572837","0.0-12.0-0.11","5fb3e88b11d7710497e82543","609006691f6f4e337c17f836","609a612941de628a5c861c50","546.4599999997299","","","","39","","","","key","16.664054347826017","683","328.5","true","1","144.36","15.36","3","-1","1","","","","","","","","","","","","",""
"psychophysics","141","574336","0.0-12.0-0.12","5fb3e88b11d7710497e82543","609006691f6f4e337c17f836","609a612941de628a5c861c50","497.02499999990687","","","","39","","","","key","16.663707865169272","683","328.5","true","1","144.36","12.287999999999998","4","-1","-1","","","","","","","","","","","","",""
"psychophysics","142","575856","0.0-12.0-0.13","5fb3e88b11d7710497e82543","609006691f6f4e337c17f836","609a612941de628a5c861c50","515.9200000000419","","","","39","","","","key","16.663922222222514","683","328.5","true","1","132.072","12.287999999999998","4","-1","-1","","","","","","","","","","","","",""
"psychophysics","143","577321","0.0-12.0-0.14","5fb3e88b11d7710497e82543","609006691f6f4e337c17f836","609a612941de628a5c861c50","462.5200000000186","","","","39","","","","key","16.66394252873604","683","328.5","true","1","132.072","12.287999999999998","4","-1","-1","","","","","","","","","","","","",""
"psychophysics","144","578808","0.0-12.0-0.15","5fb3e88b11d7710497e82543","609006691f6f4e337c17f836","609a612941de628a5c861c50","481.57500000006985","","","","39","","","","key","16.664113636364082","683","328.5","true","1","129","12.287999999999998","4","-1","-1","","","","","","","","","","","","",""
"psychophysics","145","579885","0.0-12.0-0.16","5fb3e88b11d7710497e82543","609006691f6f4e337c17f836","609a612941de628a5c861c50","68.5899999999674","","","","39","","","","key","16.664063492063654","683","328.5","true","-1","129","9.8304","5","1","-1","","","","","","","","","","","","",""
"psychophysics","146","581036","0.0-12.0-0.17","5fb3e88b11d7710497e82543","609006691f6f4e337c17f836","609a612941de628a5c861c50","147.3649999999907","","","","37","","","","key","16.664073529411862","683","328.5","true","-1","138.8304","9.8304","5","-1","1","","","","","","","","","","","","",""
"psychophysics","147","582252","0.0-12.0-0.18","5fb3e88b11d7710497e82543","609006691f6f4e337c17f836","609a612941de628a5c861c50","200.41500000003725","","","","37","","","","key","16.66423287671155","683","328.5","true","-1","138.8304","7.864319999999999","6","-1","-1","","","","","","","","","","","","",""
"psychophysics","148","584014","0.0-12.0-0.19","5fb3e88b11d7710497e82543","609006691f6f4e337c17f836","609a612941de628a5c861c50","749.0950000002049","","","","39","","","","key","16.664346153845635","683","328.5","true","-1","130.96608","6.291456","7","1","-1","","","","","","","","","","","","",""
"psychophysics","149","585349","0.0-12.0-0.20","5fb3e88b11d7710497e82543","609006691f6f4e337c17f836","609a612941de628a5c861c50","330.26500000001397","","","","39","","","","key","16.87771794871869","683","328.5","true","1","137.25753600000002","6.291456","7","-1","1","","","","","","","","","","","","",""
"psychophysics","150","587000","0.0-12.0-0.21","5fb3e88b11d7710497e82543","609006691f6f4e337c17f836","609a612941de628a5c861c50","645.4350000000559","","","","37","","","","key","16.66354545454537","683","328.5","true","-1","137.25753600000002","5.033164800000001","8","-1","-1","","","","","","","","","","","","",""
"psychophysics","151","588569","0.0-12.0-0.22","5fb3e88b11d7710497e82543","609006691f6f4e337c17f836","609a612941de628a5c861c50","563.9700000002049","","","","39","","","","key","16.66352688172026","683","328.5","true","-1","132.2243712","4.0265318400000005","9","1","-1","","","","","","","","","","","","",""
"psychophysics","152","590295","0.0-12.0-0.23","5fb3e88b11d7710497e82543","609006691f6f4e337c17f836","609a612941de628a5c861c50","721.7750000000233","","","","39","","","","key","16.663676470587735","683","328.5","true","1","136.25090304","4.0265318400000005","9","-1","1","","","","","","","","","","","","",""
"psychophysics","153","591781","0.0-12.0-0.24","5fb3e88b11d7710497e82543","609006691f6f4e337c17f836","609a612941de628a5c861c50","481.61000000010245","","","","39","","","","key","16.67212499999997","683","328.5","true","1","136.25090304","3.2212254720000004","10","-1","-1","","","","","","","","","","","","",""
"psychophysics","154","593184","0.0-12.0-0.25","5fb3e88b11d7710497e82543","609006691f6f4e337c17f836","609a612941de628a5c861c50","399.8900000002468","","","","39","","","","key","16.66442857142898","683","328.5","true","-1","133.029677568","2.5769803776000004","11","1","-1","","","","","","","","","","","","",""
"psychophysics","155","594783","0.0-12.0-0.26","5fb3e88b11d7710497e82543","609006691f6f4e337c17f836","609a612941de628a5c861c50","595.8000000000466","","","","37","","","","key","16.66381052631615","683","328.5","true","1","135.6066579456","2.5769803776000004","11","1","1","","","","","","","","","","","","",""
"psychophysics","156","596533","0.0-12.0-0.27","5fb3e88b11d7710497e82543","609006691f6f4e337c17f836","609a612941de628a5c861c50","745.9349999999395","","","","39","","","","key","16.653096153846352","683","328.5","true","1","138.1836383232","2.5769803776000004","11","-1","1","","","","","","","","","","","","",""
"psychophysics","157","597732","0.0-12.0-0.28","5fb3e88b11d7710497e82543","609006691f6f4e337c17f836","609a612941de628a5c861c50","195.8649999999907","","","","37","","","","key","16.663521126760365","683","328.5","true","-1","138.1836383232","2.0615843020800004","12","-1","-1","","","","","","","","","","","","",""
"psychophysics","158","599921","0.0-12.0-0.29","5fb3e88b11d7710497e82543","609006691f6f4e337c17f836","609a612941de628a5c861c50","1185.5700000000652","","","","39","","","","key","16.663869230768896","683","328.5","true","-1","136.12205402112","1.6492674416640005","13","1","-1","","","","","","","","","","","","",""
"psychophysics","159","600936","0.0-12.0-0.30","5fb3e88b11d7710497e82543","609006691f6f4e337c17f836","609a612941de628a5c861c50","5.869999999878928","","","","39","","","","key","16.664866666666544","683","328.5","true","1","137.771321462784","1.6492674416640005","13","-1","1","","","","","","","","","","","","",""
"psychophysics","160","602312","0.0-12.0-0.31","5fb3e88b11d7710497e82543","609006691f6f4e337c17f836","609a612941de628a5c861c50","366.70999999984633","","","","37","","","","key","16.663567901235417","683","328.5","true","-1","137.771321462784","1.3194139533312006","14","-1","-1","","","","","","","","","","","","",""
"psychophysics","161","603483","0.0-12.0-0.32","5fb3e88b11d7710497e82543","609006691f6f4e337c17f836","609a612941de628a5c861c50","167.4550000000745","","","","37","","","","key","16.6645000000002","683","328.5","true","-1","136.45190750945278","1.3194139533312006","14","-1","-1","","","","","","","","","","","","",""
"psychophysics","162","604704","0.0-12.0-0.33","5fb3e88b11d7710497e82543","609006691f6f4e337c17f836","609a612941de628a5c861c50","217.19000000006054","","","","37","","","","key","16.66383333333296","683","328.5","true","-1","136.45190750945278","1.3194139533312006","14","-1","-1","","","","","","","","","","","","",""
"psychophysics","163","605884","0.0-12.0-0.34","5fb3e88b11d7710497e82543","609006691f6f4e337c17f836","609a612941de628a5c861c50","170.22500000009313","","","","37","","","","key","16.663528571429197","683","328.5","true","1","135.13249355612157","1.0555311626649604","15","1","-1","","","","","","","","","","","","",""
"psychophysics","164","607787","0.0-12.0-0.35","5fb3e88b11d7710497e82543","609006691f6f4e337c17f836","609a612941de628a5c861c50","899.5","","","","37","","","","key","16.66362831858502","683","328.5","true","1","136.18802471878652","1.0555311626649604","15","1","1","","","","","","","","","","","","",""
"psychophysics","165","609094","0.0-12.0-0.36","5fb3e88b11d7710497e82543","609006691f6f4e337c17f836","609a612941de628a5c861c50","297.8199999999488","","","","39","","","","key","16.66383116883105","683","328.5","true","1","137.24355588145147","1.0555311626649604","15","-1","1","","","","","","","","","","","","",""
"psychophysics","166","610651","0.0-12.0-0.37","5fb3e88b11d7710497e82543","609006691f6f4e337c17f836","609a612941de628a5c861c50","553.3800000001211","","","","39","","","","key","16.663774193547447","683","328.5","true","1","137.24355588145147","1","16","-1","-1","","","","","","","","","","","","",""
"psychophysics","167","612281","0.0-12.0-0.38","5fb3e88b11d7710497e82543","609006691f6f4e337c17f836","609a612941de628a5c861c50","619.6800000000512","","","","39","","","","key","16.83625000000029","683","328.5","true","1","136.24355588145147","1","16","-1","-1","","","","","","","","","","","","",""
"psychophysics","168","613877","0.0-12.0-0.39","5fb3e88b11d7710497e82543","609006691f6f4e337c17f836","609a612941de628a5c861c50","591.6999999999534","","","","39","","","","key","16.663702127659953","683","328.5","true","1","136.24355588145147","1","16","-1","-1","","","","","","","","","","","","",""
"html-keyboard-response","169","649406","0.0-13.0","5fb3e88b11d7710497e82543","609006691f6f4e337c17f836","609a612941de628a5c861c50","35525.84999999998","<p>Well Done !</p><p>Prepare for a new block.</p><p>DON'T EXIT THE FULL SCREEN MODE</p><p>Press the Spacebar to start.</p>","","","32","","","","","","","","","","","","","","","true","136.52445772842046","","","","","","","","","","",""
"html-keyboard-response","170","649518","0.0-14.0","5fb3e88b11d7710497e82543","609006691f6f4e337c17f836","609a612941de628a5c861c50","null","","","","null","","","","","","","","","","","","","","","","","136.68128944032424","true","145.36257888064847","","","","","","","",""
"instructions","171","967607","0.0-15.0","5fb3e88b11d7710497e82543","609006691f6f4e337c17f836","609a612941de628a5c861c50","318087.1200000002","","","","","","","[{""page_index"":0,""viewing_time"":296775.53000000014},{""page_index"":1,""viewing_time"":14325.27500000014},{""page_index"":2,""viewing_time"":6984.474999999977}]","","","","","","","","","","","","","","","","","","","","","","","",""
"psychophysics","172","970623","0.0-16.0-0.0","5fb3e88b11d7710497e82543","609006691f6f4e337c17f836","609a612941de628a5c861c50","null","","","","null","","","","key","16.660655737703774","683","328.5","","","","","","","","","","","","","","","","","","","",""
"psychophysics","173","971129","0.0-16.0-1.0","5fb3e88b11d7710497e82543","609006691f6f4e337c17f836","609a612941de628a5c861c50","null","","","","null","","","","key","16.66393103448128","683","328.5","","","","","","","","","","","","","145","-1","2","false","","","",""
"psychophysics","174","972042","0.0-16.0-2.0","5fb3e88b11d7710497e82543","609006691f6f4e337c17f836","609a612941de628a5c861c50","898.2949999999255","","","","90","","","","key","16.660425925924855","683","328.5","","","","","","","","","","","","","","","","","","","",""
"psychophysics","175","973045","0.0-16.0-0.1","5fb3e88b11d7710497e82543","609006691f6f4e337c17f836","609a612941de628a5c861c50","null","","","","null","","","","key","16.663542372880947","683","328.5","","","","","","","","","","","","","","","","","","","",""
"psychophysics","176","973554","0.0-16.0-1.1","5fb3e88b11d7710497e82543","609006691f6f4e337c17f836","609a612941de628a5c861c50","null","","","","null","","","","key","16.662600000000868","683","328.5","","","","","","","","","","","","","145","1","3","false","","","",""
"psychophysics","177","974307","0.0-16.0-2.1","5fb3e88b11d7710497e82543","609006691f6f4e337c17f836","609a612941de628a5c861c50","747.6899999999441","","","","90","","","","key","16.6638333333318","683","328.5","","","","","","","","","","","","","","","","","","","",""
"psychophysics","178","975310","0.0-16.0-0.2","5fb3e88b11d7710497e82543","609006691f6f4e337c17f836","609a612941de628a5c861c50","null","","","","null","","","","key","16.66378688524462","683","328.5","","","","","","","","","","","","","","","","","","","",""
"psychophysics","179","975821","0.0-16.0-1.2","5fb3e88b11d7710497e82543","609006691f6f4e337c17f836","609a612941de628a5c861c50","null","","","","null","","","","key","16.66239999999913","683","328.5","","","","","","","","","","","","","145","-1","3","false","","","",""
"psychophysics","180","976589","0.0-16.0-2.2","5fb3e88b11d7710497e82543","609006691f6f4e337c17f836","609a612941de628a5c861c50","762.8500000000931","","","","90","","","","key","16.662688888888805","683","328.5","","","","","","","","","","","","","","","","","","","",""
"psychophysics","181","977592","0.0-16.0-0.3","5fb3e88b11d7710497e82543","609006691f6f4e337c17f836","609a612941de628a5c861c50","null","","","","null","","","","key","16.66311864406699","683","328.5","","","","","","","","","","","","","","","","","","","",""
"psychophysics","182","978095","0.0-16.0-1.3","5fb3e88b11d7710497e82543","609006691f6f4e337c17f836","609a612941de628a5c861c50","null","","","","null","","","","key","16.66182758620587","683","328.5","","","","","","","","","","","","","145","1","4","false","","","",""
"psychophysics","183","978856","0.0-16.0-2.3","5fb3e88b11d7710497e82543","609006691f6f4e337c17f836","609a612941de628a5c861c50","749.234999999986","","","","77","","","","key","16.66304444444314","683","328.5","","","","","","","","","","","","","","","","","","","",""
"psychophysics","184","979859","0.0-16.0-0.4","5fb3e88b11d7710497e82543","609006691f6f4e337c17f836","609a612941de628a5c861c50","null","","","","null","","","","key","16.664101694913786","683","328.5","","","","","","","","","","","","","","","","","","","",""
"psychophysics","185","980366","0.0-16.0-1.4","5fb3e88b11d7710497e82543","609006691f6f4e337c17f836","609a612941de628a5c861c50","null","","","","null","","","","key","16.663344827589","683","328.5","","","","","","","","","","","","","145","1","6","false","","","",""
"psychophysics","186","982273","0.0-16.0-2.4","5fb3e88b11d7710497e82543","609006691f6f4e337c17f836","609a612941de628a5c861c50","1897.8500000000931","","","","77","","","","key","16.664131578947458","683","328.5","","","","","","","","","","","","","","","","","","","",""
"psychophysics","187","983276","0.0-16.0-0.5","5fb3e88b11d7710497e82543","609006691f6f4e337c17f836","609a612941de628a5c861c50","null","","","","null","","","","key","16.662203389831614","683","328.5","","","","","","","","","","","","","","","","","","","",""
"psychophysics","188","983783","0.0-16.0-1.5","5fb3e88b11d7710497e82543","609006691f6f4e337c17f836","609a612941de628a5c861c50","null","","","","null","","","","key","16.662344827589674","683","328.5","","","","","","","","","","","","","145","-1","4","false","","","",""
"psychophysics","189","984598","0.0-16.0-2.5","5fb3e88b11d7710497e82543","609006691f6f4e337c17f836","609a612941de628a5c861c50","807.1500000000233","","","","90","","","","key","16.67366666666688","683","328.5","","","","","","","","","","","","","","","","","","","",""
"psychophysics","190","985604","0.0-16.0-0.6","5fb3e88b11d7710497e82543","609006691f6f4e337c17f836","609a612941de628a5c861c50","null","","","","null","","","","key","16.661550000001444","683","328.5","","","","","","","","","","","","","","","","","","","",""
"psychophysics","191","986109","0.0-16.0-1.6","5fb3e88b11d7710497e82543","609006691f6f4e337c17f836","609a612941de628a5c861c50","null","","","","null","","","","key","16.662206896552654","683","328.5","","","","","","","","","","","","","145","1","2","false","","","",""
"psychophysics","192","987019","0.0-16.0-2.6","5fb3e88b11d7710497e82543","609006691f6f4e337c17f836","609a612941de628a5c861c50","897.0850000000792","","","","90","","","","key","16.663792452829856","683","328.5","","","","","","","","","","","","","","","","","","","",""
"psychophysics","193","988023","0.0-16.0-0.7","5fb3e88b11d7710497e82543","609006691f6f4e337c17f836","609a612941de628a5c861c50","null","","","","null","","","","key","16.663999999999458","683","328.5","","","","","","","","","","","","","","","","","","","",""
"psychophysics","194","988527","0.0-16.0-1.7","5fb3e88b11d7710497e82543","609006691f6f4e337c17f836","609a612941de628a5c861c50","null","","","","null","","","","key","16.66489655172436","683","328.5","","","","","","","","","","","","","145","-1","5","false","","","",""
"psychophysics","195","989200","0.0-16.0-2.7","5fb3e88b11d7710497e82543","609006691f6f4e337c17f836","609a612941de628a5c861c50","659.2299999999814","","","","90","","","","key","16.663717948718187","683","328.5","","","","","","","","","","","","","","","","","","","",""
"psychophysics","196","990205","0.0-16.0-0.8","5fb3e88b11d7710497e82543","609006691f6f4e337c17f836","609a612941de628a5c861c50","null","","","","null","","","","key","16.64476666666645","683","328.5","","","","","","","","","","","","","","","","","","","",""
"psychophysics","197","990709","0.0-16.0-1.8","5fb3e88b11d7710497e82543","609006691f6f4e337c17f836","609a612941de628a5c861c50","null","","","","null","","","","key","16.664482758621332","683","328.5","","","","","","","","","","","","","145","1","0","false","","","",""
"psychophysics","198","992022","0.0-16.0-2.8","5fb3e88b11d7710497e82543","609006691f6f4e337c17f836","609a612941de628a5c861c50","1300.094999999972","","","","77","","","","key","16.658961538461227","683","328.5","","","","","","","","","","","","","","","","","","","",""
"psychophysics","199","993024","0.0-16.0-0.9","5fb3e88b11d7710497e82543","609006691f6f4e337c17f836","609a612941de628a5c861c50","null","","","","null","","","","key","16.663949152543527","683","328.5","","","","","","","","","","","","","","","","","","","",""
"psychophysics","200","993527","0.0-16.0-1.9","5fb3e88b11d7710497e82543","609006691f6f4e337c17f836","609a612941de628a5c861c50","null","","","","null","","","","key","16.663551724134496","683","328.5","","","","","","","","","","","","","145","-1","0","false","","","",""
"psychophysics","201","994621","0.0-16.0-2.9","5fb3e88b11d7710497e82543","609006691f6f4e337c17f836","609a612941de628a5c861c50","1082.3349999998463","","","","90","","","","key","16.67110769230729","683","328.5","","","","","","","","","","","","","","","","","","","",""
"psychophysics","202","995625","0.0-16.0-0.10","5fb3e88b11d7710497e82543","609006691f6f4e337c17f836","609a612941de628a5c861c50","null","","","","null","","","","key","16.66352542372957","683","328.5","","","","","","","","","","","","","","","","","","","",""
"psychophysics","203","996135","0.0-16.0-1.10","5fb3e88b11d7710497e82543","609006691f6f4e337c17f836","609a612941de628a5c861c50","null","","","","null","","","","key","16.662933333334514","683","328.5","","","","","","","","","","","","","145","1","5","false","","","",""
"psychophysics","204","997564","0.0-16.0-2.10","5fb3e88b11d7710497e82543","609006691f6f4e337c17f836","609a612941de628a5c861c50","1424.3150000000605","","","","90","","","","key","16.663940476191264","683","328.5","","","","","","","","","","","","","","","","","","","",""
"psychophysics","205","998570","0.0-16.0-0.11","5fb3e88b11d7710497e82543","609006691f6f4e337c17f836","609a612941de628a5c861c50","null","","","","null","","","","key","16.656283333332976","683","328.5","","","","","","","","","","","","","","","","","","","",""
"psychophysics","206","999074","0.0-16.0-1.11","5fb3e88b11d7710497e82543","609006691f6f4e337c17f836","609a612941de628a5c861c50","null","","","","null","","","","key","16.663068965518974","683","328.5","","","","","","","","","","","","","145","-1","6","false","","","",""
"psychophysics","207","1000347","0.0-16.0-2.11","5fb3e88b11d7710497e82543","609006691f6f4e337c17f836","609a612941de628a5c861c50","1257.9550000000745","","","","77","","","","key","16.663519999999554","683","328.5","","","","","","","","","","","","","","","","","","","",""
"psychophysics","208","1001352","0.0-16.0-0.12","5fb3e88b11d7710497e82543","609006691f6f4e337c17f836","609a612941de628a5c861c50","null","","","","null","","","","key","16.65819999999949","683","328.5","","","","","","","","","","","","","","","","","","","",""
"psychophysics","209","1001855","0.0-16.0-1.12","5fb3e88b11d7710497e82543","609006691f6f4e337c17f836","609a612941de628a5c861c50","null","","","","null","","","","key","16.663896551721024","683","328.5","","","","","","","","","","","","","145","1","3","false","","","",""
"psychophysics","210","1003956","0.0-16.0-2.12","5fb3e88b11d7710497e82543","609006691f6f4e337c17f836","609a612941de628a5c861c50","2096.7149999999674","","","","90","","","","key","16.66368000000063","683","328.5","","","","","","","","","","","","","","","","","","","",""
"psychophysics","211","1004959","0.0-16.0-0.13","5fb3e88b11d7710497e82543","609006691f6f4e337c17f836","609a612941de628a5c861c50","null","","","","null","","","","key","16.663423728813434","683","328.5","","","","","","","","","","","","","","","","","","","",""
"psychophysics","212","1005469","0.0-16.0-1.13","5fb3e88b11d7710497e82543","609006691f6f4e337c17f836","609a612941de628a5c861c50","null","","","","null","","","","key","16.663066666666417","683","328.5","","","","","","","","","","","","","145","1","5","false","","","",""
"psychophysics","213","1006503","0.0-16.0-2.13","5fb3e88b11d7710497e82543","609006691f6f4e337c17f836","609a612941de628a5c861c50","1029.7250000000931","","","","90","","","","key","16.663770491803128","683","328.5","","","","","","","","","","","","","","","","","","","",""
"psychophysics","214","1007508","0.0-16.0-0.14","5fb3e88b11d7710497e82543","609006691f6f4e337c17f836","609a612941de628a5c861c50","null","","","","null","","","","key","16.66330508474592","683","328.5","","","","","","","","","","","","","","","","","","","",""
"psychophysics","215","1008018","0.0-16.0-1.14","5fb3e88b11d7710497e82543","609006691f6f4e337c17f836","609a612941de628a5c861c50","null","","","","null","","","","key","16.66286666666468","683","328.5","","","","","","","","","","","","","145","-1","0","false","","","",""
"psychophysics","216","1008985","0.0-16.0-2.14","5fb3e88b11d7710497e82543","609006691f6f4e337c17f836","609a612941de628a5c861c50","962.8450000000885","","","","77","","","","key","16.663298245613348","683","328.5","","","","","","","","","","","","","","","","","","","",""
"psychophysics","217","1009987","0.0-16.0-0.15","5fb3e88b11d7710497e82543","609006691f6f4e337c17f836","609a612941de628a5c861c50","null","","","","null","","","","key","16.663322033899266","683","328.5","","","","","","","","","","","","","","","","","","","",""
"psychophysics","218","1010491","0.0-16.0-1.15","5fb3e88b11d7710497e82543","609006691f6f4e337c17f836","609a612941de628a5c861c50","null","","","","null","","","","key","16.662931034481957","683","328.5","","","","","","","","","","","","","145","1","4","false","","","",""
"psychophysics","219","1011520","0.0-16.0-2.15","5fb3e88b11d7710497e82543","609006691f6f4e337c17f836","609a612941de628a5c861c50","1017.8200000000652","","","","90","","","","key","16.663491803278657","683","328.5","","","","","","","","","","","","","","","","","","","",""
"psychophysics","220","1012523","0.0-16.0-0.16","5fb3e88b11d7710497e82543","609006691f6f4e337c17f836","609a612941de628a5c861c50","null","","","","null","","","","key","16.663915254238802","683","328.5","","","","","","","","","","","","","","","","","","","",""
"psychophysics","221","1013031","0.0-16.0-1.16","5fb3e88b11d7710497e82543","609006691f6f4e337c17f836","609a612941de628a5c861c50","null","","","","null","","","","key","16.662433333334047","683","328.5","","","","","","","","","","","","","145","-1","3","false","","","",""
"psychophysics","222","1014296","0.0-16.0-2.16","5fb3e88b11d7710497e82543","609006691f6f4e337c17f836","609a612941de628a5c861c50","1260.645000000135","","","","90","","","","key","16.627959459460012","683","328.5","","","","","","","","","","","","","","","","","","","",""
"psychophysics","223","1015301","0.0-16.0-0.17","5fb3e88b11d7710497e82543","609006691f6f4e337c17f836","609a612941de628a5c861c50","null","","","","null","","","","key","16.66296666666749","683","328.5","","","","","","","","","","","","","","","","","","","",""
"psychophysics","224","1015804","0.0-16.0-1.17","5fb3e88b11d7710497e82543","609006691f6f4e337c17f836","609a612941de628a5c861c50","null","","","","null","","","","key","16.663034482758718","683","328.5","","","","","","","","","","","","","145","1","6","false","","","",""
"psychophysics","225","1016682","0.0-16.0-2.17","5fb3e88b11d7710497e82543","609006691f6f4e337c17f836","609a612941de628a5c861c50","875.2600000000093","","","","77","","","","key","16.641941176469473","683","328.5","","","","","","","","","","","","","","","","","","","",""
"psychophysics","226","1017685","0.0-16.0-0.18","5fb3e88b11d7710497e82543","609006691f6f4e337c17f836","609a612941de628a5c861c50","null","","","","null","","","","key","16.663349999999628","683","328.5","","","","","","","","","","","","","","","","","","","",""
"psychophysics","227","1018190","0.0-16.0-1.18","5fb3e88b11d7710497e82543","609006691f6f4e337c17f836","609a612941de628a5c861c50","null","","","","null","","","","key","16.662965517242213","683","328.5","","","","","","","","","","","","","145","-1","2","false","","","",""
"psychophysics","228","1019234","0.0-16.0-2.18","5fb3e88b11d7710497e82543","609006691f6f4e337c17f836","609a612941de628a5c861c50","1017.1600000000326","","","","90","","","","key","16.664112903226556","683","328.5","","","","","","","","","","","","","","","","","","","",""
"psychophysics","229","1020237","0.0-16.0-0.19","5fb3e88b11d7710497e82543","609006691f6f4e337c17f836","609a612941de628a5c861c50","null","","","","null","","","","key","16.663847457627387","683","328.5","","","","","","","","","","","","","","","","","","","",""
"psychophysics","230","1020740","0.0-16.0-1.19","5fb3e88b11d7710497e82543","609006691f6f4e337c17f836","609a612941de628a5c861c50","null","","","","null","","","","key","16.66275862068869","683","328.5","","","","","","","","","","","","","145","-1","5","false","","","",""
"psychophysics","231","1021617","0.0-16.0-2.19","5fb3e88b11d7710497e82543","609006691f6f4e337c17f836","609a612941de628a5c861c50","865.890000000014","","","","77","","","","key","16.664346153845635","683","328.5","","","","","","","","","","","","","","","","","","","",""
"psychophysics","232","1022619","0.0-16.0-0.20","5fb3e88b11d7710497e82543","609006691f6f4e337c17f836","609a612941de628a5c861c50","null","","","","null","","","","key","16.664033898304343","683","328.5","","","","","","","","","","","","","","","","","","","",""
"psychophysics","233","1023122","0.0-16.0-1.20","5fb3e88b11d7710497e82543","609006691f6f4e337c17f836","609a612941de628a5c861c50","null","","","","null","","","","key","16.662724137932447","683","328.5","","","","","","","","","","","","","145","1","2","false","","","",""
"psychophysics","234","1024372","0.0-16.0-2.20","5fb3e88b11d7710497e82543","609006691f6f4e337c17f836","609a612941de628a5c861c50","1238.0149999998976","","","","90","","","","key","16.663513513513198","683","328.5","","","","","","","","","","","","","","","","","","","",""
"psychophysics","235","1025380","0.0-16.0-0.21","5fb3e88b11d7710497e82543","609006691f6f4e337c17f836","609a612941de628a5c861c50","null","","","","null","","","","key","16.663149999999828","683","328.5","","","","","","","","","","","","","","","","","","","",""
"psychophysics","236","1025884","0.0-16.0-1.21","5fb3e88b11d7710497e82543","609006691f6f4e337c17f836","609a612941de628a5c861c50","null","","","","null","","","","key","16.663482758622006","683","328.5","","","","","","","","","","","","","145","1","0","false","","","",""
"psychophysics","237","1026633","0.0-16.0-2.21","5fb3e88b11d7710497e82543","609006691f6f4e337c17f836","609a612941de628a5c861c50","744.390000000014","","","","90","","","","key","16.66370454545408","683","328.5","","","","","","","","","","","","","","","","","","","",""
"psychophysics","238","1027635","0.0-16.0-0.22","5fb3e88b11d7710497e82543","609006691f6f4e337c17f836","609a612941de628a5c861c50","null","","","","null","","","","key","16.663677966101805","683","328.5","","","","","","","","","","","","","","","","","","","",""
"psychophysics","239","1028138","0.0-16.0-1.22","5fb3e88b11d7710497e82543","609006691f6f4e337c17f836","609a612941de628a5c861c50","null","","","","null","","","","key","16.66258620689944","683","328.5","","","","","","","","","","","","","145","-1","4","false","","","",""
"psychophysics","240","1028934","0.0-16.0-2.22","5fb3e88b11d7710497e82543","609006691f6f4e337c17f836","609a612941de628a5c861c50","784.9150000000373","","","","77","","","","key","16.66323404255363","683","328.5","","","","","","","","","","","","","","","","","","","",""
"psychophysics","241","1029936","0.0-16.0-0.23","5fb3e88b11d7710497e82543","609006691f6f4e337c17f836","609a612941de628a5c861c50","null","","","","null","","","","key","16.662694915253038","683","328.5","","","","","","","","","","","","","","","","","","","",""
"psychophysics","242","1030445","0.0-16.0-1.23","5fb3e88b11d7710497e82543","609006691f6f4e337c17f836","609a612941de628a5c861c50","null","","","","null","","","","key","16.662666666666823","683","328.5","","","","","","","","","","","","","145","-1","6","false","","","",""
"psychophysics","243","1031583","0.0-16.0-2.23","5fb3e88b11d7710497e82543","609006691f6f4e337c17f836","609a612941de628a5c861c50","1133.3199999998324","","","","90","","","","key","16.663835820894857","683","328.5","","","","","","","","","","","","","","","","","","","",""
"html-keyboard-response","244","1051499","0.0-17.0","5fb3e88b11d7710497e82543","609006691f6f4e337c17f836","609a612941de628a5c861c50","19913.765000000014","<p>Well Done !</p><p>Training Complete. Press the spacebar to start.</p><p>DON'T EXIT THE FULL SCREEN MODE</p>","","","32","","","","","","","","","","","","","","","","","","","","","","","","","","",""
"psychophysics","245","1054506","0.0-18.0-0.0","5fb3e88b11d7710497e82543","609006691f6f4e337c17f836","609a612941de628a5c861c50","null","","","","null","","","","key","16.659216666663998","683","328.5","","","","","","","","","","","","","","","","","","","",""
"psychophysics","246","1055014","0.0-18.0-1.0","5fb3e88b11d7710497e82543","609006691f6f4e337c17f836","609a612941de628a5c861c50","null","","","","null","","","","key","16.66244827585841","683","328.5","","","","","","","","","","","","","145","-1","4","true","","","",""
"psychophysics","247","1055978","0.0-18.0-2.0","5fb3e88b11d7710497e82543","609006691f6f4e337c17f836","609a612941de628a5c861c50","959.9199999999255","","","","90","","","","key","16.66387719297863","683","328.5","","","","","","","","","","","","","","","","","","","",""
"psychophysics","248","1056980","0.0-18.0-0.1","5fb3e88b11d7710497e82543","609006691f6f4e337c17f836","609a612941de628a5c861c50","null","","","","null","","","","key","16.663322033901242","683","328.5","","","","","","","","","","","","","","","","","","","",""
"psychophysics","249","1057484","0.0-18.0-1.1","5fb3e88b11d7710497e82543","609006691f6f4e337c17f836","609a612941de628a5c861c50","null","","","","null","","","","key","16.663517241382266","683","328.5","","","","","","","","","","","","","145","1","5","true","","","",""
"psychophysics","250","1058425","0.0-18.0-2.1","5fb3e88b11d7710497e82543","609006691f6f4e337c17f836","609a612941de628a5c861c50","924.6799999999348","","","","90","","","","key","16.663089285712754","683","328.5","","","","","","","","","","","","","","","","","","","",""
"psychophysics","251","1059430","0.0-18.0-0.2","5fb3e88b11d7710497e82543","609006691f6f4e337c17f836","609a612941de628a5c861c50","null","","","","null","","","","key","16.663847457625415","683","328.5","","","","","","","","","","","","","","","","","","","",""
"psychophysics","252","1059934","0.0-18.0-1.2","5fb3e88b11d7710497e82543","609006691f6f4e337c17f836","609a612941de628a5c861c50","null","","","","null","","","","key","16.664517241377578","683","328.5","","","","","","","","","","","","","145","-1","2","true","","","",""
"psychophysics","253","1060721","0.0-18.0-2.2","5fb3e88b11d7710497e82543","609006691f6f4e337c17f836","609a612941de628a5c861c50","776.9750000000931","","","","90","","","","key","16.663347826086227","683","328.5","","","","","","","","","","","","","","","","","","","",""
"psychophysics","254","1061726","0.0-18.0-0.3","5fb3e88b11d7710497e82543","609006691f6f4e337c17f836","609a612941de628a5c861c50","null","","","","null","","","","key","16.65614999999913","683","328.5","","","","","","","","","","","","","","","","","","","",""
"psychophysics","255","1062229","0.0-18.0-1.3","5fb3e88b11d7710497e82543","609006691f6f4e337c17f836","609a612941de628a5c861c50","null","","","","null","","","","key","16.662896551721698","683","328.5","","","","","","","","","","","","","145","1","3","true","","","",""
"psychophysics","256","1062843","0.0-18.0-2.3","5fb3e88b11d7710497e82543","609006691f6f4e337c17f836","609a612941de628a5c861c50","610.8599999998696","","","","90","","","","key","16.662472222220256","683","328.5","","","","","","","","","","","","","","","","","","","",""
"psychophysics","257","1063845","0.0-18.0-0.4","5fb3e88b11d7710497e82543","609006691f6f4e337c17f836","609a612941de628a5c861c50","null","","","","null","","","","key","16.663254237287852","683","328.5","","","","","","","","","","","","","","","","","","","",""
"psychophysics","258","1064349","0.0-18.0-1.4","5fb3e88b11d7710497e82543","609006691f6f4e337c17f836","609a612941de628a5c861c50","null","","","","null","","","","key","16.662344827589674","683","328.5","","","","","","","","","","","","","145","-1","5","true","","","",""
"psychophysics","259","1065068","0.0-18.0-2.4","5fb3e88b11d7710497e82543","609006691f6f4e337c17f836","609a612941de628a5c861c50","706.2599999997765","","","","77","","","","key","16.663738095234812","683","328.5","","","","","","","","","","","","","","","","","","","",""
"psychophysics","260","1066072","0.0-18.0-0.5","5fb3e88b11d7710497e82543","609006691f6f4e337c17f836","609a612941de628a5c861c50","null","","","","null","","","","key","16.664033333332434","683","328.5","","","","","","","","","","","","","","","","","","","",""
"psychophysics","261","1066578","0.0-18.0-1.5","5fb3e88b11d7710497e82543","609006691f6f4e337c17f836","609a612941de628a5c861c50","null","","","","null","","","","key","16.662310344825404","683","328.5","","","","","","","","","","","","","145","1","0","true","","","",""
"psychophysics","262","1067559","0.0-18.0-2.5","5fb3e88b11d7710497e82543","609006691f6f4e337c17f836","609a612941de628a5c861c50","975.9150000000373","","","","90","","","","key","16.663275862068485","683","328.5","","","","","","","","","","","","","","","","","","","",""
"psychophysics","263","1068561","0.0-18.0-0.6","5fb3e88b11d7710497e82543","609006691f6f4e337c17f836","609a612941de628a5c861c50","null","","","","null","","","","key","16.663745762713223","683","328.5","","","","","","","","","","","","","","","","","","","",""
"psychophysics","264","1069065","0.0-18.0-1.6","5fb3e88b11d7710497e82543","609006691f6f4e337c17f836","609a612941de628a5c861c50","null","","","","null","","","","key","16.663241379308225","683","328.5","","","","","","","","","","","","","145","-1","3","true","","","",""
"psychophysics","265","1070310","0.0-18.0-2.6","5fb3e88b11d7710497e82543","609006691f6f4e337c17f836","609a612941de628a5c861c50","1233.7450000001118","","","","90","","","","key","16.663567567568247","683","328.5","","","","","","","","","","","","","","","","","","","",""
"psychophysics","266","1071312","0.0-18.0-0.7","5fb3e88b11d7710497e82543","609006691f6f4e337c17f836","609a612941de628a5c861c50","null","","","","null","","","","key","16.66383050847404","683","328.5","","","","","","","","","","","","","","","","","","","",""
"psychophysics","267","1071822","0.0-18.0-1.7","5fb3e88b11d7710497e82543","609006691f6f4e337c17f836","609a612941de628a5c861c50","null","","","","null","","","","key","16.65240000000534","683","328.5","","","","","","","","","","","","","145","-1","6","true","","","",""
"psychophysics","268","1072841","0.0-18.0-2.7","5fb3e88b11d7710497e82543","609006691f6f4e337c17f836","609a612941de628a5c861c50","1014.3649999999907","","","","90","","","","key","16.664000000001398","683","328.5","","","","","","","","","","","","","","","","","","","",""
"psychophysics","269","1073843","0.0-18.0-0.8","5fb3e88b11d7710497e82543","609006691f6f4e337c17f836","609a612941de628a5c861c50","null","","","","null","","","","key","16.68879661016892","683","328.5","","","","","","","","","","","","","","","","","","","",""
"psychophysics","270","1074347","0.0-18.0-1.8","5fb3e88b11d7710497e82543","609006691f6f4e337c17f836","609a612941de628a5c861c50","null","","","","null","","","","key","16.663586206894752","683","328.5","","","","","","","","","","","","","145","-1","0","true","","","",""
"psychophysics","271","1074778","0.0-18.0-2.8","5fb3e88b11d7710497e82543","609006691f6f4e337c17f836","609a612941de628a5c861c50","420.20999999996275","","","","90","","","","key","16.66388000000268","683","328.5","","","","","","","","","","","","","","","","","","","",""
"psychophysics","272","1075781","0.0-18.0-0.9","5fb3e88b11d7710497e82543","609006691f6f4e337c17f836","609a612941de628a5c861c50","null","","","","null","","","","key","16.662627118643595","683","328.5","","","","","","","","","","","","","","","","","","","",""
"psychophysics","273","1076291","0.0-18.0-1.9","5fb3e88b11d7710497e82543","609006691f6f4e337c17f836","609a612941de628a5c861c50","null","","","","null","","","","key","16.664633333333768","683","328.5","","","","","","","","","","","","","145","1","6","true","","","",""
"psychophysics","274","1077387","0.0-18.0-2.9","5fb3e88b11d7710497e82543","609006691f6f4e337c17f836","609a612941de628a5c861c50","1091.1350000000093","","","","90","","","","key","16.663734374997148","683","328.5","","","","","","","","","","","","","","","","","","","",""
"psychophysics","275","1078391","0.0-18.0-0.10","5fb3e88b11d7710497e82543","609006691f6f4e337c17f836","609a612941de628a5c861c50","null","","","","null","","","","key","16.663999999997518","683","328.5","","","","","","","","","","","","","","","","","","","",""
"psychophysics","276","1078894","0.0-18.0-1.10","5fb3e88b11d7710497e82543","609006691f6f4e337c17f836","609a612941de628a5c861c50","null","","","","null","","","","key","16.662827586209207","683","328.5","","","","","","","","","","","","","145","1","4","true","","","",""
"psychophysics","277","1079580","0.0-18.0-2.10","5fb3e88b11d7710497e82543","609006691f6f4e337c17f836","609a612941de628a5c861c50","682.875","","","","90","","","","key","16.663000000000466","683","328.5","","","","","","","","","","","","","","","","","","","",""
"psychophysics","278","1080588","0.0-18.0-0.11","5fb3e88b11d7710497e82543","609006691f6f4e337c17f836","609a612941de628a5c861c50","null","","","","null","","","","key","16.6635833333324","683","328.5","","","","","","","","","","","","","","","","","","","",""
"psychophysics","279","1081092","0.0-18.0-1.11","5fb3e88b11d7710497e82543","609006691f6f4e337c17f836","609a612941de628a5c861c50","null","","","","null","","","","key","16.662620689655686","683","328.5","","","","","","","","","","","","","145","1","2","true","","","",""
"psychophysics","280","1081591","0.0-18.0-2.11","5fb3e88b11d7710497e82543","609006691f6f4e337c17f836","609a612941de628a5c861c50","495.8900000001304","","","","90","","","","key","16.662931034485972","683","328.5","","","","","","","","","","","","","","","","","","","",""
"psychophysics","281","1082595","0.0-18.0-0.12","5fb3e88b11d7710497e82543","609006691f6f4e337c17f836","609a612941de628a5c861c50","null","","","","null","","","","key","16.667237288137045","683","328.5","","","","","","","","","","","","","","","","","","","",""
"psychophysics","282","1083104","0.0-18.0-1.12","5fb3e88b11d7710497e82543","609006691f6f4e337c17f836","609a612941de628a5c861c50","null","","","","null","","","","key","16.663099999997453","683","328.5","","","","","","","","","","","","","145","-1","0","true","","","",""
"psychophysics","283","1083670","0.0-18.0-2.12","5fb3e88b11d7710497e82543","609006691f6f4e337c17f836","609a612941de628a5c861c50","560.4650000000838","","","","77","","","","key","16.663062500003434","683","328.5","","","","","","","","","","","","","","","","","","","",""
"psychophysics","284","1084675","0.0-18.0-0.13","5fb3e88b11d7710497e82543","609006691f6f4e337c17f836","609a612941de628a5c861c50","null","","","","null","","","","key","16.66406666666735","683","328.5","","","","","","","","","","","","","","","","","","","",""
"psychophysics","285","1085178","0.0-18.0-1.13","5fb3e88b11d7710497e82543","609006691f6f4e337c17f836","609a612941de628a5c861c50","null","","","","null","","","","key","16.663586206894752","683","328.5","","","","","","","","","","","","","145","1","2","true","","","",""
"psychophysics","286","1086087","0.0-18.0-2.13","5fb3e88b11d7710497e82543","609006691f6f4e337c17f836","609a612941de628a5c861c50","897.9799999999814","","","","90","","","","key","16.66343396225997","683","328.5","","","","","","","","","","","","","","","","","","","",""
"psychophysics","287","1087091","0.0-18.0-0.14","5fb3e88b11d7710497e82543","609006691f6f4e337c17f836","609a612941de628a5c861c50","null","","","","null","","","","key","16.663916666669927","683","328.5","","","","","","","","","","","","","","","","","","","",""
"psychophysics","288","1087595","0.0-18.0-1.14","5fb3e88b11d7710497e82543","609006691f6f4e337c17f836","609a612941de628a5c861c50","null","","","","null","","","","key","16.66258620689141","683","328.5","","","","","","","","","","","","","145","-1","5","true","","","",""
"psychophysics","289","1088200","0.0-18.0-2.14","5fb3e88b11d7710497e82543","609006691f6f4e337c17f836","609a612941de628a5c861c50","590.5500000002794","","","","90","","","","key","16.665171428570257","683","328.5","","","","","","","","","","","","","","","","","","","",""
"psychophysics","290","1089206","0.0-18.0-0.15","5fb3e88b11d7710497e82543","609006691f6f4e337c17f836","609a612941de628a5c861c50","null","","","","null","","","","key","16.663400000000063","683","328.5","","","","","","","","","","","","","","","","","","","",""
"psychophysics","291","1089708","0.0-18.0-1.15","5fb3e88b11d7710497e82543","609006691f6f4e337c17f836","609a612941de628a5c861c50","null","","","","null","","","","key","16.665758620682656","683","328.5","","","","","","","","","","","","","145","1","4","true","","","",""
"psychophysics","292","1091189","0.0-18.0-2.15","5fb3e88b11d7710497e82543","609006691f6f4e337c17f836","609a612941de628a5c861c50","1475.7999999998137","","","","90","","","","key","16.663829545453403","683","328.5","","","","","","","","","","","","","","","","","","","",""
"psychophysics","293","1092191","0.0-18.0-0.16","5fb3e88b11d7710497e82543","609006691f6f4e337c17f836","609a612941de628a5c861c50","null","","","","null","","","","key","16.663796610171293","683","328.5","","","","","","","","","","","","","","","","","","","",""
"psychophysics","294","1092699","0.0-18.0-1.16","5fb3e88b11d7710497e82543","609006691f6f4e337c17f836","609a612941de628a5c861c50","null","","","","null","","","","key","16.66244827585841","683","328.5","","","","","","","","","","","","","145","-1","3","true","","","",""
"psychophysics","295","1093111","0.0-18.0-2.16","5fb3e88b11d7710497e82543","609006691f6f4e337c17f836","609a612941de628a5c861c50","393.35499999974854","","","","77","","","","key","16.66204166666527","683","328.5","","","","","","","","","","","","","","","","","","","",""
"psychophysics","296","1094120","0.0-18.0-0.17","5fb3e88b11d7710497e82543","609006691f6f4e337c17f836","609a612941de628a5c861c50","null","","","","null","","","","key","16.673500000002484","683","328.5","","","","","","","","","","","","","","","","","","","",""
"psychophysics","297","1094624","0.0-18.0-1.17","5fb3e88b11d7710497e82543","609006691f6f4e337c17f836","609a612941de628a5c861c50","null","","","","null","","","","key","16.662310344825404","683","328.5","","","","","","","","","","","","","145","1","3","true","","","",""
"psychophysics","298","1095638","0.0-18.0-2.17","5fb3e88b11d7710497e82543","609006691f6f4e337c17f836","609a612941de628a5c861c50","1010.9149999998044","","","","77","","","","key","16.66351666666645","683","328.5","","","","","","","","","","","","","","","","","","","",""
"psychophysics","299","1096641","0.0-18.0-0.18","5fb3e88b11d7710497e82543","609006691f6f4e337c17f836","609a612941de628a5c861c50","null","","","","null","","","","key","16.6634745762715","683","328.5","","","","","","","","","","","","","","","","","","","",""
"psychophysics","300","1097148","0.0-18.0-1.18","5fb3e88b11d7710497e82543","609006691f6f4e337c17f836","609a612941de628a5c861c50","null","","","","null","","","","key","16.663551724138507","683","328.5","","","","","","","","","","","","","145","-1","2","true","","","",""
"psychophysics","301","1098206","0.0-18.0-2.18","5fb3e88b11d7710497e82543","609006691f6f4e337c17f836","609a612941de628a5c861c50","1049.160000000149","","","","90","","","","key","16.663746031747745","683","328.5","","","","","","","","","","","","","","","","","","","",""
"psychophysics","302","1099208","0.0-18.0-0.19","5fb3e88b11d7710497e82543","609006691f6f4e337c17f836","609a612941de628a5c861c50","null","","","","null","","","","key","16.66330508474592","683","328.5","","","","","","","","","","","","","","","","","","","",""
"psychophysics","303","1099717","0.0-18.0-1.19","5fb3e88b11d7710497e82543","609006691f6f4e337c17f836","609a612941de628a5c861c50","null","","","","null","","","","key","16.66689999999944","683","328.5","","","","","","","","","","","","","145","1","5","true","","","",""
"psychophysics","304","1100400","0.0-18.0-2.19","5fb3e88b11d7710497e82543","609006691f6f4e337c17f836","609a612941de628a5c861c50","678.0049999998882","","","","90","","","","key","16.663384615383947","683","328.5","","","","","","","","","","","","","","","","","","","",""
"psychophysics","305","1101404","0.0-18.0-0.20","5fb3e88b11d7710497e82543","609006691f6f4e337c17f836","609a612941de628a5c861c50","null","","","","null","","","","key","16.664033333332434","683","328.5","","","","","","","","","","","","","","","","","","","",""
"psychophysics","306","1101907","0.0-18.0-1.20","5fb3e88b11d7710497e82543","609006691f6f4e337c17f836","609a612941de628a5c861c50","null","","","","null","","","","key","16.66410344827053","683","328.5","","","","","","","","","","","","","145","-1","4","true","","","",""
"psychophysics","307","1102366","0.0-18.0-2.20","5fb3e88b11d7710497e82543","609006691f6f4e337c17f836","609a612941de628a5c861c50","445.7400000002235","","","","90","","","","key","16.66230769230662","683","328.5","","","","","","","","","","","","","","","","","","","",""
"psychophysics","308","1103372","0.0-18.0-0.21","5fb3e88b11d7710497e82543","609006691f6f4e337c17f836","609a612941de628a5c861c50","null","","","","null","","","","key","16.644983333333705","683","328.5","","","","","","","","","","","","","","","","","","","",""
"psychophysics","309","1103876","0.0-18.0-1.21","5fb3e88b11d7710497e82543","609006691f6f4e337c17f836","609a612941de628a5c861c50","null","","","","null","","","","key","16.663068965518974","683","328.5","","","","","","","","","","","","","145","1","0","true","","","",""
"psychophysics","310","1104470","0.0-18.0-2.21","5fb3e88b11d7710497e82543","609006691f6f4e337c17f836","609a612941de628a5c861c50","582.3549999999814","","","","90","","","","key","16.659857142856346","683","328.5","","","","","","","","","","","","","","","","","","","",""
"psychophysics","311","1105473","0.0-18.0-0.22","5fb3e88b11d7710497e82543","609006691f6f4e337c17f836","609a612941de628a5c861c50","null","","","","null","","","","key","16.66313559322034","683","328.5","","","","","","","","","","","","","","","","","","","",""
"psychophysics","312","1105984","0.0-18.0-1.22","5fb3e88b11d7710497e82543","609006691f6f4e337c17f836","609a612941de628a5c861c50","null","","","","null","","","","key","16.663466666662135","683","328.5","","","","","","","","","","","","","145","1","6","true","","","",""
"psychophysics","313","1106804","0.0-18.0-2.22","5fb3e88b11d7710497e82543","609006691f6f4e337c17f836","609a612941de628a5c861c50","817.2349999998696","","","","90","","","","key","16.66664583333477","683","328.5","","","","","","","","","","","","","","","","","","","",""
"psychophysics","314","1107807","0.0-18.0-0.23","5fb3e88b11d7710497e82543","609006691f6f4e337c17f836","609a612941de628a5c861c50","null","","","","null","","","","key","16.641694915255975","683","328.5","","","","","","","","","","","","","","","","","","","",""
"psychophysics","315","1108317","0.0-18.0-1.23","5fb3e88b11d7710497e82543","609006691f6f4e337c17f836","609a612941de628a5c861c50","null","","","","null","","","","key","16.662666666670702","683","328.5","","","","","","","","","","","","","145","-1","6","true","","","",""
"psychophysics","316","1109270","0.0-18.0-2.23","5fb3e88b11d7710497e82543","609006691f6f4e337c17f836","609a612941de628a5c861c50","948.8450000002049","","","","90","","","","key","16.66512727272612","683","328.5","","","","","","","","","","","","","","","","","","","",""
"psychophysics","317","1110273","0.0-18.0-0.24","5fb3e88b11d7710497e82543","609006691f6f4e337c17f836","609a612941de628a5c861c50","null","","","","null","","","","key","16.663850000000092","683","328.5","","","","","","","","","","","","","","","","","","","",""
"psychophysics","318","1110784","0.0-18.0-1.24","5fb3e88b11d7710497e82543","609006691f6f4e337c17f836","609a612941de628a5c861c50","null","","","","null","","","","key","16.662466666668966","683","328.5","","","","","","","","","","","","","145","1","0","true","","","",""
"psychophysics","319","1111258","0.0-18.0-2.24","5fb3e88b11d7710497e82543","609006691f6f4e337c17f836","609a612941de628a5c861c50","468.2950000001583","","","","90","","","","key","16.664037037037176","683","328.5","","","","","","","","","","","","","","","","","","","",""
"psychophysics","320","1112267","0.0-18.0-0.25","5fb3e88b11d7710497e82543","609006691f6f4e337c17f836","609a612941de628a5c861c50","null","","","","null","","","","key","16.662633333335787","683","328.5","","","","","","","","","","","","","","","","","","","",""
"psychophysics","321","1112771","0.0-18.0-1.25","5fb3e88b11d7710497e82543","609006691f6f4e337c17f836","609a612941de628a5c861c50","null","","","","null","","","","key","16.66299999999846","683","328.5","","","","","","","","","","","","","145","-1","6","true","","","",""
"psychophysics","322","1113619","0.0-18.0-2.25","5fb3e88b11d7710497e82543","609006691f6f4e337c17f836","609a612941de628a5c861c50","843.8950000000186","","","","77","","","","key","16.663919999999926","683","328.5","","","","","","","","","","","","","","","","","","","",""
"psychophysics","323","1114622","0.0-18.0-0.26","5fb3e88b11d7710497e82543","609006691f6f4e337c17f836","609a612941de628a5c861c50","null","","","","null","","","","key","16.663915254238802","683","328.5","","","","","","","","","","","","","","","","","","","",""
"psychophysics","324","1115128","0.0-18.0-1.26","5fb3e88b11d7710497e82543","609006691f6f4e337c17f836","609a612941de628a5c861c50","null","","","","null","","","","key","16.664758620687344","683","328.5","","","","","","","","","","","","","145","-1","0","true","","","",""
"psychophysics","325","1116111","0.0-18.0-2.26","5fb3e88b11d7710497e82543","609006691f6f4e337c17f836","609a612941de628a5c861c50","971.7750000001397","","","","90","","","","key","16.66341379310149","683","328.5","","","","","","","","","","","","","","","","","","","",""
"psychophysics","326","1117117","0.0-18.0-0.27","5fb3e88b11d7710497e82543","609006691f6f4e337c17f836","609a612941de628a5c861c50","null","","","","null","","","","key","16.663866666665612","683","328.5","","","","","","","","","","","","","","","","","","","",""
"psychophysics","327","1117622","0.0-18.0-1.27","5fb3e88b11d7710497e82543","609006691f6f4e337c17f836","609a612941de628a5c861c50","null","","","","null","","","","key","16.663689655171513","683","328.5","","","","","","","","","","","","","145","1","6","true","","","",""
