"trial_type","trial_index","time_elapsed","internal_node_id","PROLIFIC_PID","STUDY_ID","SESSION_ID","rt","stimulus","button_pressed","success","key_press","responses","isData","view_history","response_type","avg_frame_time","center_x","center_y","isSC","stim_side","trial_luminance","step_size","nReversal","correct","prev_ans","isThreshold","SC_threshold","final_threshold","isLuminance","FF_luminance","luminance","stimSide","ISInt","isFF","question_order","isSPQ","isCAPS","isAQ"
"pavlovia","0","7","0.0-0.0","60477a7547b1892649a80c24","609006691f6f4e337c17f836","609a612a2180a4927de417d0","","","","","","","","","","","","","","","","","","","","","","","","","","","","","","","",""
"html-button-response","1","4740","0.0-1.0","60477a7547b1892649a80c24","609006691f6f4e337c17f836","609a612a2180a4927de417d0","4730.035000000498","<div style='background-color: white; width:60%; margin: auto; padding: 50px; text-align: justify; text-justify: inter-word; margin-bottom: 20px;'><h1 style='text-align: center;'>Consent Form</h1><p>Please read this consent form carefully before deciding whether you would like to participate in this study. You have to be 18 years old or older to participate to this study.</p><p style='text-decoration: underline;'>Participation is voluntary:</p><p>It is your choice whether or not to participate in this research. If you choose to participate, you may change your mind and leave the study at any time. Refusal to participate or stopping your participation will involve no penalty or loss of benefits to which you are otherwise entitled.</p><p style='text-decoration: underline;'>Purpose of the Study:</p><p>To understand the mechanisms underlying human perception.</p><p style='text-decoration: underline;'>What you will do in this study:</p><p>You will be presented with a series of visual images and then you will press buttons on the keyboard of your computer to respond to simple questions about the images (e.g. Were one or two images presented?). In addition, you will be asked to complete a questionnaire concerning your beliefs and everyday mental and perceptual experiences.'</p><p style='text-decoration: underline;'> Time Required:</p><p>The study will take 40 minutes to complete. </p><p style='text-decoration: underline;'>Risks:</p><p>There are no anticipated risks associated with participating in this study that are beyond those experienced in everyday life. </p><p style='text-decoration: underline;'>Benefits:</p><p>There are no benefits to you in participating in the study. However, this study may lead to a better understanding of how different kinds of visual information are used.</p><p style='text-decoration: underline;'>Compensation:</p><p>You will be paid US$6.6/hour. </p><p style='text-decoration: underline;'>Privacy and Confidentiality:</p><p>Your participation in this study will be anonymous. No personal information about your name or identity will be asked or recorded. This anonymous data will be stored for several years and may be used for a variety of research purposes. The overall results of the study may be published, or the data files may be shared with other researchers, but your identity will not be revealed in any way. The online services we are using for this study may temporarily store your data, but this data will be downloaded and then promptly deleted from those services.Your data will not be permanently associated with your name, IP address, or any other identifiable information (e.g., your information will only be connected to your payment, not to any of your responses), though they may be temporarily stored together before we download and separate them. Even so, no guarantee of internet survey security can be given because, although unlikely, transmissions can be intercepted and IP addresses can be identified. The anonymous data may be shared publicly (for example, in conjunction with a resulting academic publication).</p><p style='text-decoration: underline;'>Participation and Withdrawal:</p><p>Your participation in this study is completely voluntary. You may stop responding to the stimuli or stop answering questions if you so choose and without penalty by exiting the full screen mode, closing this tab of your browser or redirecting it to a different website.</p><p style='text-decoration: underline;'>Contact Info of the Researcher: </p><p>If you have questions about this study, or if you would like to talk to the research team, please contact David Melcher (david.melcher@nyu.edu, md5050@nyu.edu) at the Perception and Active Cognition Laboratory, New York University Abu Dhabi, Computational Research Building, Saadiyat Island, Abu Dhabi, UAE.This research has been reviewed by the New York University Abu Dhabi Institutional Review Board (NYUAD IRB). To contact about your rights in this research, for questions, suggestions, or complaints that are not addressed by the researchers, please email IRBnyuad@nyu.edu, or call the NYUAD IRB at +971 2 628 4313. </p></div>","0","","","","","","","","","","","","","","","","","","","","","","","","","","","","",""
"fullscreen","2","7948","0.0-2.0","60477a7547b1892649a80c24","609006691f6f4e337c17f836","609a612a2180a4927de417d0","","","","true","","","","","","","","","","","","","","","","","","","","","","","","","","","",""
"html-keyboard-response","3","24366","0.0-3.0","60477a7547b1892649a80c24","609006691f6f4e337c17f836","609a612a2180a4927de417d0","16415.435000000798","<p>Welcome !</p><p>READ CAREFULLY THE FOLLOWING INDICATIONS:</p><p>From this moment you have ~40 minutes to complete the experiment.</p><p>During the experiment you will be prompted to take several breaks. Each break should not last longer than 2-3 minutes.</p><p>Make sure that your computer is plugged in and it's not running on battery power, even if the battery is already fully charged.</p><p>Turn off your phone and music, make sure that you are in a quiet room and that you will not be distracted for the next hour.</p><p>Failure to comply with the instructions and indications provided during the experiment will most likely result in the rejection of your data.<p>Press the spacebar to start.</p>","","","32","","","","","","","","","","","","","","","","","","","","","","","","","","",""
"survey-html-form","4","37967","0.0-4.0","60477a7547b1892649a80c24","609006691f6f4e337c17f836","609a612a2180a4927de417d0","13588.575000001583","","","","","{""age"":""25"",""sex"":""M""}","true","","","","","","","","","","","","","","","","","","","","","","","","",""
"instructions","5","97194","0.0-5.0","60477a7547b1892649a80c24","609006691f6f4e337c17f836","609a612a2180a4927de417d0","59225.94499999832","","","","","","","[{""page_index"":0,""viewing_time"":31446.444999999585},{""page_index"":1,""viewing_time"":22698.974999999336},{""page_index"":2,""viewing_time"":5080.009999999675}]","","","","","","","","","","","","","","","","","","","","","","","",""
"psychophysics","6","100735","0.0-6.0-0.0","60477a7547b1892649a80c24","609006691f6f4e337c17f836","609a612a2180a4927de417d0","2530.909999999494","","","","39","","","","key","16.790199052132717","720","410.5","true","1","180","30","0","-1","","","","","","","","","","","","","",""
"psychophysics","7","102240","0.0-6.0-0.1","60477a7547b1892649a80c24","609006691f6f4e337c17f836","609a612a2180a4927de417d0","490.06999999983236","","","","39","","","","key","16.713382022471848","720","410.5","true","1","180","30","0","-1","-1","","","","","","","","","","","","",""
"psychophysics","8","108509","0.0-6.0-0.2","60477a7547b1892649a80c24","609006691f6f4e337c17f836","609a612a2180a4927de417d0","5268.074999999953","","","","39","","","","key","16.710999999999974","720","410.5","true","1","150","30","0","-1","-1","","","","","","","","","","","","",""
"psychophysics","9","109803","0.0-6.0-0.3","60477a7547b1892649a80c24","609006691f6f4e337c17f836","609a612a2180a4927de417d0","290.69499999968684","","","","39","","","","key","16.710999999999906","720","410.5","true","1","150","30","0","-1","-1","","","","","","","","","","","","",""
"psychophysics","10","112905","0.0-6.0-0.4","60477a7547b1892649a80c24","609006691f6f4e337c17f836","609a612a2180a4927de417d0","2099.079999999958","","","","39","","","","key","16.711945945945903","720","410.5","true","-1","129","24","1","1","-1","","","","","","","","","","","","",""
"psychophysics","11","114250","0.0-6.0-0.5","60477a7547b1892649a80c24","609006691f6f4e337c17f836","609a612a2180a4927de417d0","343.1000000000495","","","","37","","","","key","16.711000000000112","720","410.5","true","-1","153","24","1","-1","1","","","","","","","","","","","","",""
"psychophysics","12","115379","0.0-6.0-0.6","60477a7547b1892649a80c24","609006691f6f4e337c17f836","609a612a2180a4927de417d0","127.3750000000291","","","","37","","","","key","16.711000000000038","720","410.5","true","-1","153","19.2","2","-1","-1","","","","","","","","","","","","",""
"psychophysics","13","122582","0.0-6.0-0.7","60477a7547b1892649a80c24","609006691f6f4e337c17f836","609a612a2180a4927de417d0","6180.995000000621","","","","39","","","","key","16.71142558139535","720","410.5","true","1","133.8","19.2","2","-1","-1","","","","","","","","","","","","",""
"psychophysics","14","126204","0.0-6.0-0.8","60477a7547b1892649a80c24","609006691f6f4e337c17f836","609a612a2180a4927de417d0","2619.6100000015576","","","","39","","","","key","16.711000000000006","720","410.5","true","1","133.8","19.2","2","-1","-1","","","","","","","","","","","","",""
"psychophysics","15","127423","0.0-6.0-0.9","60477a7547b1892649a80c24","609006691f6f4e337c17f836","609a612a2180a4927de417d0","216.65500000017346","","","","39","","","","key","16.710999999999938","720","410.5","true","1","129","19.2","2","-1","-1","","","","","","","","","","","","",""
"psychophysics","16","129445","0.0-6.0-0.10","60477a7547b1892649a80c24","609006691f6f4e337c17f836","609a612a2180a4927de417d0","1019.7950000001583","","","","39","","","","key","16.71100000000006","720","410.5","true","1","129","19.2","2","-1","-1","","","","","","","","","","","","",""
"psychophysics","17","130936","0.0-6.0-0.11","60477a7547b1892649a80c24","609006691f6f4e337c17f836","609a612a2180a4927de417d0","489.3250000004482","","","","37","","","","key","16.71099999999999","720","410.5","true","1","129","15.36","3","1","-1","","","","","","","","","","","","",""
"psychophysics","18","132262","0.0-6.0-0.12","60477a7547b1892649a80c24","609006691f6f4e337c17f836","609a612a2180a4927de417d0","322.5349999993341","","","","37","","","","key","16.713333333333512","720","410.5","true","-1","144.36","15.36","3","-1","1","","","","","","","","","","","","",""
"psychophysics","19","136836","0.0-6.0-0.13","60477a7547b1892649a80c24","609006691f6f4e337c17f836","609a612a2180a4927de417d0","3569.6649999990477","","","","37","","","","key","16.71100000000001","720","410.5","true","1","144.36","12.287999999999998","4","1","-1","","","","","","","","","","","","",""
"psychophysics","20","137851","0.0-6.0-0.14","60477a7547b1892649a80c24","609006691f6f4e337c17f836","609a612a2180a4927de417d0","13.175000000046566","","","","39","","","","key","16.71100000000006","720","410.5","true","1","156.64800000000002","12.287999999999998","4","-1","1","","","","","","","","","","","","",""
"psychophysics","21","140121","0.0-6.0-0.15","60477a7547b1892649a80c24","609006691f6f4e337c17f836","609a612a2180a4927de417d0","1268.420000000333","","","","37","","","","key","16.711000000000112","720","410.5","true","-1","156.64800000000002","9.8304","5","-1","-1","","","","","","","","","","","","",""
"psychophysics","22","141126","0.0-6.0-0.16","60477a7547b1892649a80c24","609006691f6f4e337c17f836","609a612a2180a4927de417d0","2.710000000661239","","","","37","","","","key","16.710999999999885","720","410.5","true","-1","146.81760000000003","9.8304","5","-1","-1","","","","","","","","","","","","",""
"psychophysics","23","142205","0.0-6.0-0.17","60477a7547b1892649a80c24","609006691f6f4e337c17f836","609a612a2180a4927de417d0","76.735000000539","","","","37","","","","key","16.713857142857574","720","410.5","true","-1","146.81760000000003","9.8304","5","-1","-1","","","","","","","","","","","","",""
"psychophysics","24","143346","0.0-6.0-0.18","60477a7547b1892649a80c24","609006691f6f4e337c17f836","609a612a2180a4927de417d0","138.18499999976484","","","","37","","","","key","16.710999999999974","720","410.5","true","-1","136.98720000000003","9.8304","5","-1","-1","","","","","","","","","","","","",""
"psychophysics","25","145675","0.0-6.0-0.19","60477a7547b1892649a80c24","609006691f6f4e337c17f836","609a612a2180a4927de417d0","1326.7699999996694","","","","37","","","","key","16.71099999999991","720","410.5","true","-1","136.98720000000003","9.8304","5","-1","-1","","","","","","","","","","","","",""
"psychophysics","26","147442","0.0-6.0-0.20","60477a7547b1892649a80c24","609006691f6f4e337c17f836","609a612a2180a4927de417d0","765.1999999998079","","","","39","","","","key","16.710999999999988","720","410.5","true","1","129","9.8304","5","-1","-1","","","","","","","","","","","","",""
"psychophysics","27","151457","0.0-6.0-0.21","60477a7547b1892649a80c24","609006691f6f4e337c17f836","609a612a2180a4927de417d0","3013.025000000198","","","","37","","","","key","16.711000000000016","720","410.5","true","1","129","7.864319999999999","6","1","-1","","","","","","","","","","","","",""
"psychophysics","28","152610","0.0-6.0-0.22","60477a7547b1892649a80c24","609006691f6f4e337c17f836","609a612a2180a4927de417d0","150.60000000084983","","","","37","","","","key","16.713632352941204","720","410.5","true","-1","136.86432","7.864319999999999","6","-1","1","","","","","","","","","","","","",""
"psychophysics","29","162225","0.0-6.0-0.23","60477a7547b1892649a80c24","609006691f6f4e337c17f836","609a612a2180a4927de417d0","8613.145000001183","","","","37","","","","key","16.711315331010425","720","410.5","true","-1","136.86432","6.291456","7","-1","-1","","","","","","","","","","","","",""
"psychophysics","30","163260","0.0-6.0-0.24","60477a7547b1892649a80c24","609006691f6f4e337c17f836","609a612a2180a4927de417d0","24.445000000909204","","","","37","","","","key","16.711000000000226","720","410.5","true","-1","130.57286399999998","6.291456","7","-1","-1","","","","","","","","","","","","",""
"psychophysics","31","164282","0.0-6.0-0.25","60477a7547b1892649a80c24","609006691f6f4e337c17f836","609a612a2180a4927de417d0","20.624999999214197","","","","37","","","","key","16.71100000000006","720","410.5","true","1","130.57286399999998","5.033164800000001","8","1","-1","","","","","","","","","","","","",""
"psychophysics","32","165383","0.0-6.0-0.26","60477a7547b1892649a80c24","609006691f6f4e337c17f836","609a612a2180a4927de417d0","97.69500000038533","","","","37","","","","key","16.710999999999945","720","410.5","true","1","135.6060288","5.033164800000001","8","1","1","","","","","","","","","","","","",""
"psychophysics","33","166797","0.0-6.0-0.27","60477a7547b1892649a80c24","609006691f6f4e337c17f836","609a612a2180a4927de417d0","403.2950000000419","","","","39","","","","key","16.711000000000197","720","410.5","true","1","140.6391936","5.033164800000001","8","-1","1","","","","","","","","","","","","",""
"psychophysics","34","167823","0.0-6.0-0.28","60477a7547b1892649a80c24","609006691f6f4e337c17f836","609a612a2180a4927de417d0","24.02000000071712","","","","37","","","","key","16.710999999999572","720","410.5","true","1","140.6391936","4.0265318400000005","9","1","-1","","","","","","","","","","","","",""
"psychophysics","35","170474","0.0-6.0-0.29","60477a7547b1892649a80c24","609006691f6f4e337c17f836","609a612a2180a4927de417d0","1649.570000001404","","","","39","","","","key","16.71099999999993","720","410.5","true","-1","144.66572544","4.0265318400000005","9","1","1","","","","","","","","","","","","",""
"psychophysics","36","171661","0.0-6.0-0.30","60477a7547b1892649a80c24","609006691f6f4e337c17f836","609a612a2180a4927de417d0","184.01999999879627","","","","37","","","","key","16.71099999999985","720","410.5","true","-1","148.69225727999998","4.0265318400000005","9","-1","1","","","","","","","","","","","","",""
"psychophysics","37","178900","0.0-6.0-0.31","60477a7547b1892649a80c24","609006691f6f4e337c17f836","609a612a2180a4927de417d0","6237.5150000007125","","","","37","","","","key","16.71141898148151","720","410.5","true","-1","148.69225727999998","3.2212254720000004","10","-1","-1","","","","","","","","","","","","",""
"psychophysics","38","180003","0.0-6.0-0.32","60477a7547b1892649a80c24","609006691f6f4e337c17f836","609a612a2180a4927de417d0","101.37000000031549","","","","37","","","","key","16.710999999999945","720","410.5","true","-1","145.47103180799996","3.2212254720000004","10","-1","-1","","","","","","","","","","","","",""
"psychophysics","39","181091","0.0-6.0-0.33","60477a7547b1892649a80c24","609006691f6f4e337c17f836","609a612a2180a4927de417d0","85.76499999981024","","","","37","","","","key","16.71100000000024","720","410.5","true","1","145.47103180799996","2.5769803776000004","11","1","-1","","","","","","","","","","","","",""
"psychophysics","40","182194","0.0-6.0-0.34","60477a7547b1892649a80c24","609006691f6f4e337c17f836","609a612a2180a4927de417d0","101.20999999891501","","","","37","","","","key","16.713815384615625","720","410.5","true","-1","148.04801218559996","2.5769803776000004","11","-1","1","","","","","","","","","","","","",""
"psychophysics","41","185199","0.0-6.0-0.35","60477a7547b1892649a80c24","609006691f6f4e337c17f836","609a612a2180a4927de417d0","2003.0299999998533","","","","37","","","","key","16.711000000000002","720","410.5","true","1","148.04801218559996","2.0615843020800004","12","1","-1","","","","","","","","","","","","",""
"psychophysics","42","188918","0.0-6.0-0.36","60477a7547b1892649a80c24","609006691f6f4e337c17f836","609a612a2180a4927de417d0","2717.324999999604","","","","37","","","","key","16.71100000000002","720","410.5","true","-1","150.10959648767997","2.0615843020800004","12","-1","1","","","","","","","","","","","","",""
"psychophysics","43","190115","0.0-6.0-0.37","60477a7547b1892649a80c24","609006691f6f4e337c17f836","609a612a2180a4927de417d0","193.11999999990803","","","","37","","","","key","16.711000000000265","720","410.5","true","-1","150.10959648767997","1.6492674416640005","13","-1","-1","","","","","","","","","","","","",""
"psychophysics","44","191294","0.0-6.0-0.38","60477a7547b1892649a80c24","609006691f6f4e337c17f836","609a612a2180a4927de417d0","177.13000000003376","","","","37","","","","key","16.711000000000265","720","410.5","true","-1","148.46032904601597","1.6492674416640005","13","-1","-1","","","","","","","","","","","","",""
"psychophysics","45","192427","0.0-6.0-0.39","60477a7547b1892649a80c24","609006691f6f4e337c17f836","609a612a2180a4927de417d0","130.95500000054017","","","","39","","","","key","16.71349253731349","720","410.5","true","1","148.46032904601597","1.6492674416640005","13","-1","-1","","","","","","","","","","","","",""
"html-keyboard-response","46","197200","0.0-7.0","60477a7547b1892649a80c24","609006691f6f4e337c17f836","609a612a2180a4927de417d0","4762.914999999339","<p>Well Done !</p><p>Prepare for a new block.</p><p>DON'T EXIT THE FULL SCREEN MODE</p><p>Press the Spacebar to start.</p>","","","32","","","","","","","","","","","","","","","true","144.91236393697275","","","","","","","","","","",""
"psychophysics","47","199689","0.0-8.0-0.0","60477a7547b1892649a80c24","609006691f6f4e337c17f836","609a612a2180a4927de417d0","1486.5549999994691","","","","37","","","","key","16.711000000000087","720","410.5","true","1","180","30","0","1","","","","","","","","","","","","","",""
"psychophysics","48","202844","0.0-8.0-0.1","60477a7547b1892649a80c24","609006691f6f4e337c17f836","609a612a2180a4927de417d0","2152.815000001283","","","","37","","","","key","16.711984042553205","720","410.5","true","-1","210","30","0","-1","1","","","","","","","","","","","","",""
"psychophysics","49","203937","0.0-8.0-0.2","60477a7547b1892649a80c24","609006691f6f4e337c17f836","609a612a2180a4927de417d0","90.83999999891967","","","","37","","","","key","16.710999999999785","720","410.5","true","1","210","24","1","1","-1","","","","","","","","","","","","",""
"psychophysics","50","205167","0.0-8.0-0.3","60477a7547b1892649a80c24","609006691f6f4e337c17f836","609a612a2180a4927de417d0","227.4649999999092","","","","37","","","","key","16.710999999999878","720","410.5","true","1","234","24","1","1","1","","","","","","","","","","","","",""
"psychophysics","51","206186","0.0-8.0-0.4","60477a7547b1892649a80c24","609006691f6f4e337c17f836","609a612a2180a4927de417d0","17.185000000608852","","","","37","","","","key","16.71100000000006","720","410.5","true","1","255","24","1","1","1","","","","","","","","","","","","",""
"psychophysics","52","215186","0.0-8.0-0.5","60477a7547b1892649a80c24","609006691f6f4e337c17f836","609a612a2180a4927de417d0","7998.074999999517","","","","37","","","","key","16.711355679702088","720","410.5","true","-1","255","24","1","-1","1","","","","","","","","","","","","",""
"psychophysics","53","217376","0.0-8.0-0.6","60477a7547b1892649a80c24","609006691f6f4e337c17f836","609a612a2180a4927de417d0","1187.155000001454","","","","37","","","","key","16.711000000000023","720","410.5","true","1","231","19.2","2","1","-1","","","","","","","","","","","","",""
"psychophysics","54","219089","0.0-8.0-0.7","60477a7547b1892649a80c24","609006691f6f4e337c17f836","609a612a2180a4927de417d0","710.0750000008557","","","","37","","","","key","16.71099999999987","720","410.5","true","1","250.2","19.2","2","1","1","","","","","","","","","","","","",""
"psychophysics","55","222697","0.0-8.0-0.8","60477a7547b1892649a80c24","609006691f6f4e337c17f836","609a612a2180a4927de417d0","2605.880000000994","","","","39","","","","key","16.71183255813951","720","410.5","true","-1","255","19.2","2","1","1","","","","","","","","","","","","",""
"psychophysics","56","227307","0.0-8.0-0.9","60477a7547b1892649a80c24","609006691f6f4e337c17f836","609a612a2180a4927de417d0","3607.7349999995786","","","","39","","","","key","16.710999999999977","720","410.5","true","-1","255","19.2","2","1","1","","","","","","","","","","","","",""
"psychophysics","57","230218","0.0-8.0-0.10","60477a7547b1892649a80c24","609006691f6f4e337c17f836","609a612a2180a4927de417d0","1908.2799999996787","","","","37","","","","key","16.71099999999998","720","410.5","true","1","255","19.2","2","1","1","","","","","","","","","","","","",""
"psychophysics","58","231437","0.0-8.0-0.11","60477a7547b1892649a80c24","609006691f6f4e337c17f836","609a612a2180a4927de417d0","217.6499999986845","","","","39","","","","key","16.71100000000014","720","410.5","true","1","255","19.2","2","-1","1","","","","","","","","","","","","",""
"psychophysics","59","236704","0.0-8.0-0.12","60477a7547b1892649a80c24","609006691f6f4e337c17f836","609a612a2180a4927de417d0","4264.520000000601","","","","37","","","","key","16.71156050955412","720","410.5","true","-1","235.8","15.36","3","-1","-1","","","","","","","","","","","","",""
"psychophysics","60","238591","0.0-8.0-0.13","60477a7547b1892649a80c24","609006691f6f4e337c17f836","609a612a2180a4927de417d0","884.8249999991676","","","","37","","","","key","16.71099999999985","720","410.5","true","-1","235.8","15.36","3","-1","-1","","","","","","","","","","","","",""
"psychophysics","61","247147","0.0-8.0-0.14","60477a7547b1892649a80c24","609006691f6f4e337c17f836","609a612a2180a4927de417d0","7553.925000000163","","","","37","","","","key","16.711350293542075","720","410.5","true","-1","220.44","15.36","3","-1","-1","","","","","","","","","","","","",""
"psychophysics","62","249021","0.0-8.0-0.15","60477a7547b1892649a80c24","609006691f6f4e337c17f836","609a612a2180a4927de417d0","871.4800000016112","","","","39","","","","key","16.71100000000002","720","410.5","true","1","220.44","15.36","3","-1","-1","","","","","","","","","","","","",""
"psychophysics","63","250089","0.0-8.0-0.16","60477a7547b1892649a80c24","609006691f6f4e337c17f836","609a612a2180a4927de417d0","66.59000000034575","","","","39","","","","key","16.71100000000008","720","410.5","true","1","205.07999999999998","15.36","3","-1","-1","","","","","","","","","","","","",""
"psychophysics","64","252451","0.0-8.0-0.17","60477a7547b1892649a80c24","609006691f6f4e337c17f836","609a612a2180a4927de417d0","1360.0700000006473","","","","37","","","","key","16.71227142857159","720","410.5","true","1","205.07999999999998","12.287999999999998","4","1","-1","","","","","","","","","","","","",""
"psychophysics","65","255860","0.0-8.0-0.18","60477a7547b1892649a80c24","609006691f6f4e337c17f836","609a612a2180a4927de417d0","2406.5000000009895","","","","39","","","","key","16.711000000000066","720","410.5","true","1","217.368","12.287999999999998","4","-1","1","","","","","","","","","","","","",""
"psychophysics","66","257967","0.0-8.0-0.19","60477a7547b1892649a80c24","609006691f6f4e337c17f836","609a612a2180a4927de417d0","1101.9450000003271","","","","37","","","","key","16.71099999999985","720","410.5","true","-1","217.368","9.8304","5","-1","-1","","","","","","","","","","","","",""
"psychophysics","67","265040","0.0-8.0-0.20","60477a7547b1892649a80c24","609006691f6f4e337c17f836","609a612a2180a4927de417d0","6070.435000001453","","","","39","","","","key","16.711436018957265","720","410.5","true","1","207.5376","9.8304","5","-1","-1","","","","","","","","","","","","",""
"psychophysics","68","269568","0.0-8.0-0.21","60477a7547b1892649a80c24","609006691f6f4e337c17f836","609a612a2180a4927de417d0","3524.874999999127","","","","37","","","","key","16.711000000000112","720","410.5","true","-1","207.5376","9.8304","5","-1","-1","","","","","","","","","","","","",""
"psychophysics","69","270713","0.0-8.0-0.22","60477a7547b1892649a80c24","609006691f6f4e337c17f836","609a612a2180a4927de417d0","143.05000000062864","","","","37","","","","key","16.71099999999982","720","410.5","true","-1","197.7072","9.8304","5","-1","-1","","","","","","","","","","","","",""
"psychophysics","70","272299","0.0-8.0-0.23","60477a7547b1892649a80c24","609006691f6f4e337c17f836","609a612a2180a4927de417d0","584.0449999996345","","","","37","","","","key","16.712904255318907","720","410.5","true","1","197.7072","7.864319999999999","6","1","-1","","","","","","","","","","","","",""
"psychophysics","71","277902","0.0-8.0-0.24","60477a7547b1892649a80c24","609006691f6f4e337c17f836","609a612a2180a4927de417d0","4601.119999999355","","","","39","","","","key","16.710999999999963","720","410.5","true","1","205.57152","7.864319999999999","6","-1","1","","","","","","","","","","","","",""
"psychophysics","72","278933","0.0-8.0-0.25","60477a7547b1892649a80c24","609006691f6f4e337c17f836","609a612a2180a4927de417d0","28.844999998924322","","","","39","","","","key","16.71099999999975","720","410.5","true","1","205.57152","6.291456","7","-1","-1","","","","","","","","","","","","",""
"psychophysics","73","280050","0.0-8.0-0.26","60477a7547b1892649a80c24","609006691f6f4e337c17f836","609a612a2180a4927de417d0","113.7799999996787","","","","37","","","","key","16.71099999999966","720","410.5","true","-1","199.28006399999998","6.291456","7","-1","-1","","","","","","","","","","","","",""
"psychophysics","74","289492","0.0-8.0-0.27","60477a7547b1892649a80c24","609006691f6f4e337c17f836","609a612a2180a4927de417d0","8440.280000000726","","","","37","","","","key","16.711320921985813","720","410.5","true","1","199.28006399999998","5.033164800000001","8","1","-1","","","","","","","","","","","","",""
"psychophysics","75","291163","0.0-8.0-0.28","60477a7547b1892649a80c24","609006691f6f4e337c17f836","609a612a2180a4927de417d0","668.1849999986589","","","","39","","","","key","16.71100000000025","720","410.5","true","-1","204.3132288","5.033164800000001","8","1","1","","","","","","","","","","","","",""
"psychophysics","76","292667","0.0-8.0-0.29","60477a7547b1892649a80c24","609006691f6f4e337c17f836","609a612a2180a4927de417d0","502.4849999990547","","","","37","","","","key","16.71246067415779","720","410.5","true","-1","209.3463936","5.033164800000001","8","-1","1","","","","","","","","","","","","",""
"psychophysics","77","295190","0.0-8.0-0.30","60477a7547b1892649a80c24","609006691f6f4e337c17f836","609a612a2180a4927de417d0","1520.9150000009686","","","","37","","","","key","16.710999999999768","720","410.5","true","1","209.3463936","4.0265318400000005","9","1","-1","","","","","","","","","","","","",""
"psychophysics","78","296215","0.0-8.0-0.31","60477a7547b1892649a80c24","609006691f6f4e337c17f836","609a612a2180a4927de417d0","22.865000000805594","","","","37","","","","key","16.710999999999572","720","410.5","true","-1","213.37292544","4.0265318400000005","9","-1","1","","","","","","","","","","","","",""
"psychophysics","79","297555","0.0-8.0-0.32","60477a7547b1892649a80c24","609006691f6f4e337c17f836","609a612a2180a4927de417d0","337.83000000042375","","","","37","","","","key","16.71099999999993","720","410.5","true","-1","213.37292544","3.2212254720000004","10","-1","-1","","","","","","","","","","","","",""
"psychophysics","80","298782","0.0-8.0-0.33","60477a7547b1892649a80c24","609006691f6f4e337c17f836","609a612a2180a4927de417d0","223.08999999950174","","","","37","","","","key","16.710999999999878","720","410.5","true","-1","210.151699968","3.2212254720000004","10","-1","-1","","","","","","","","","","","","",""
"psychophysics","81","300037","0.0-8.0-0.34","60477a7547b1892649a80c24","609006691f6f4e337c17f836","609a612a2180a4927de417d0","252.54000000131782","","","","39","","","","key","16.71100000000002","720","410.5","true","1","210.151699968","3.2212254720000004","10","-1","-1","","","","","","","","","","","","",""
"psychophysics","82","301642","0.0-8.0-0.35","60477a7547b1892649a80c24","609006691f6f4e337c17f836","609a612a2180a4927de417d0","602.6599999986356","","","","37","","","","key","16.710999999999828","720","410.5","true","-1","206.930474496","3.2212254720000004","10","-1","-1","","","","","","","","","","","","",""
"psychophysics","83","302760","0.0-8.0-0.36","60477a7547b1892649a80c24","609006691f6f4e337c17f836","609a612a2180a4927de417d0","117.42000000044936","","","","37","","","","key","16.714590909090916","720","410.5","true","-1","206.930474496","3.2212254720000004","10","-1","-1","","","","","","","","","","","","",""
"psychophysics","84","303767","0.0-8.0-0.37","60477a7547b1892649a80c24","609006691f6f4e337c17f836","609a612a2180a4927de417d0","5.1300000014016405","","","","37","","","","key","16.71099999999939","720","410.5","true","-1","203.70924902399997","3.2212254720000004","10","-1","-1","","","","","","","","","","","","",""
"psychophysics","85","305093","0.0-8.0-0.38","60477a7547b1892649a80c24","609006691f6f4e337c17f836","609a612a2180a4927de417d0","323.7050000007148","","","","39","","","","key","16.71099999999993","720","410.5","true","1","203.70924902399997","3.2212254720000004","10","-1","-1","","","","","","","","","","","","",""
"psychophysics","86","306316","0.0-8.0-0.39","60477a7547b1892649a80c24","609006691f6f4e337c17f836","609a612a2180a4927de417d0","220.37499999895226","","","","37","","","","key","16.711000000000542","720","410.5","true","-1","200.48802355199996","3.2212254720000004","10","-1","-1","","","","","","","","","","","","",""
"html-keyboard-response","87","308633","0.0-9.0","60477a7547b1892649a80c24","609006691f6f4e337c17f836","609a612a2180a4927de417d0","2315.4500000000116","<p>Well Done !</p><p>Prepare for a new block.</p><p>DON'T EXIT THE FULL SCREEN MODE</p><p>Press the Spacebar to start.</p>","","","32","","","","","","","","","","","","","","","true","206.39695902720004","","","","","","","","","","",""
"psychophysics","88","310630","0.0-10.0-0.0","60477a7547b1892649a80c24","609006691f6f4e337c17f836","609a612a2180a4927de417d0","994.9699999997392","","","","37","","","","key","16.710999999999974","720","410.5","true","-1","180","30","0","-1","","","","","","","","","","","","","",""
"psychophysics","89","311650","0.0-10.0-0.1","60477a7547b1892649a80c24","609006691f6f4e337c17f836","609a612a2180a4927de417d0","18.415000000502914","","","","39","","","","key","16.710999999999572","720","410.5","true","1","180","30","0","-1","-1","","","","","","","","","","","","",""
"psychophysics","90","312711","0.0-10.0-0.2","60477a7547b1892649a80c24","609006691f6f4e337c17f836","609a612a2180a4927de417d0","58.184999999881256","","","","39","","","","key","16.713870967742086","720","410.5","true","1","150","30","0","-1","-1","","","","","","","","","","","","",""
"psychophysics","91","313841","0.0-10.0-0.3","60477a7547b1892649a80c24","609006691f6f4e337c17f836","609a612a2180a4927de417d0","128.04000000143424","","","","39","","","","key","16.71099999999982","720","410.5","true","1","150","30","0","-1","-1","","","","","","","","","","","","",""
"psychophysics","92","315517","0.0-10.0-0.4","60477a7547b1892649a80c24","609006691f6f4e337c17f836","609a612a2180a4927de417d0","674.4599999983911","","","","39","","","","key","16.71099999999966","720","410.5","true","-1","129","24","1","1","-1","","","","","","","","","","","","",""
"psychophysics","93","318280","0.0-10.0-0.5","60477a7547b1892649a80c24","609006691f6f4e337c17f836","609a612a2180a4927de417d0","1761.0700000004726","","","","39","","","","key","16.711000000000013","720","410.5","true","1","153","24","1","-1","1","","","","","","","","","","","","",""
"psychophysics","94","319513","0.0-10.0-0.6","60477a7547b1892649a80c24","609006691f6f4e337c17f836","609a612a2180a4927de417d0","229.97500000015134","","","","37","","","","key","16.710999999999736","720","410.5","true","-1","153","19.2","2","-1","-1","","","","","","","","","","","","",""
"psychophysics","95","320680","0.0-10.0-0.7","60477a7547b1892649a80c24","609006691f6f4e337c17f836","609a612a2180a4927de417d0","165.4650000000256","","","","37","","","","key","16.711000000000123","720","410.5","true","-1","133.8","19.2","2","-1","-1","","","","","","","","","","","","",""
"psychophysics","96","321797","0.0-10.0-0.8","60477a7547b1892649a80c24","609006691f6f4e337c17f836","609a612a2180a4927de417d0","114.25500000041211","","","","37","","","","key","16.71099999999966","720","410.5","true","-1","133.8","19.2","2","-1","-1","","","","","","","","","","","","",""
"psychophysics","97","325253","0.0-10.0-0.9","60477a7547b1892649a80c24","609006691f6f4e337c17f836","609a612a2180a4927de417d0","2454.380000000994","","","","39","","","","key","16.711873786407807","720","410.5","true","-1","129","15.36","3","1","-1","","","","","","","","","","","","",""
"psychophysics","98","329369","0.0-10.0-0.10","60477a7547b1892649a80c24","609006691f6f4e337c17f836","609a612a2180a4927de417d0","3114.699999998207","","","","39","","","","key","16.711000000000027","720","410.5","true","-1","144.36","15.36","3","1","1","","","","","","","","","","","","",""
"psychophysics","99","331074","0.0-10.0-0.11","60477a7547b1892649a80c24","609006691f6f4e337c17f836","609a612a2180a4927de417d0","700.154999998631","","","","39","","","","key","16.71099999999987","720","410.5","true","-1","159.72000000000003","15.36","3","1","1","","","","","","","","","","","","",""
"psychophysics","100","332275","0.0-10.0-0.12","60477a7547b1892649a80c24","609006691f6f4e337c17f836","609a612a2180a4927de417d0","198.86500000033993","","","","37","","","","key","16.710999999999586","720","410.5","true","-1","175.08000000000004","15.36","3","-1","1","","","","","","","","","","","","",""
"psychophysics","101","333514","0.0-10.0-0.13","60477a7547b1892649a80c24","609006691f6f4e337c17f836","609a612a2180a4927de417d0","237.45500000042375","","","","37","","","","key","16.713410958903683","720","410.5","true","-1","175.08000000000004","12.287999999999998","4","-1","-1","","","","","","","","","","","","",""
"psychophysics","102","334642","0.0-10.0-0.14","60477a7547b1892649a80c24","609006691f6f4e337c17f836","609a612a2180a4927de417d0","126.40499999909662","","","","39","","","","key","16.71099999999982","720","410.5","true","1","162.79200000000003","12.287999999999998","4","-1","-1","","","","","","","","","","","","",""
"psychophysics","103","335727","0.0-10.0-0.15","60477a7547b1892649a80c24","609006691f6f4e337c17f836","609a612a2180a4927de417d0","83.1600000000908","","","","39","","","","key","16.71100000000024","720","410.5","true","1","162.79200000000003","12.287999999999998","4","-1","-1","","","","","","","","","","","","",""
"psychophysics","104","348201","0.0-10.0-0.16","60477a7547b1892649a80c24","609006691f6f4e337c17f836","609a612a2180a4927de417d0","11471.584999999322","","","","37","","","","key","16.71124026845639","720","410.5","true","-1","150.50400000000002","12.287999999999998","4","-1","-1","","","","","","","","","","","","",""
"psychophysics","105","351273","0.0-10.0-0.17","60477a7547b1892649a80c24","609006691f6f4e337c17f836","609a612a2180a4927de417d0","2070.8899999990244","","","","37","","","","key","16.711000000000066","720","410.5","true","1","150.50400000000002","9.8304","5","1","-1","","","","","","","","","","","","",""
"psychophysics","106","352360","0.0-10.0-0.18","60477a7547b1892649a80c24","609006691f6f4e337c17f836","609a612a2180a4927de417d0","85.40499999979511","","","","37","","","","key","16.71100000000024","720","410.5","true","-1","160.33440000000002","9.8304","5","-1","1","","","","","","","","","","","","",""
"psychophysics","107","355789","0.0-10.0-0.19","60477a7547b1892649a80c24","609006691f6f4e337c17f836","609a612a2180a4927de417d0","2427.090000001015","","","","37","","","","key","16.711637254901955","720","410.5","true","1","160.33440000000002","7.864319999999999","6","1","-1","","","","","","","","","","","","",""
"psychophysics","108","361819","0.0-10.0-0.20","60477a7547b1892649a80c24","609006691f6f4e337c17f836","609a612a2180a4927de417d0","5027.964999999327","","","","37","","","","key","16.710999999999895","720","410.5","true","1","168.19872","7.864319999999999","6","1","1","","","","","","","","","","","","",""
"psychophysics","109","362825","0.0-10.0-0.21","60477a7547b1892649a80c24","609006691f6f4e337c17f836","609a612a2180a4927de417d0","4.600000000209548","","","","37","","","","key","16.71489830508481","720","410.5","true","-1","176.06304","7.864319999999999","6","-1","1","","","","","","","","","","","","",""
"psychophysics","110","368997","0.0-10.0-0.22","60477a7547b1892649a80c24","609006691f6f4e337c17f836","609a612a2180a4927de417d0","5169.4900000002235","","","","37","","","","key","16.710999999999963","720","410.5","true","1","176.06304","6.291456","7","1","-1","","","","","","","","","","","","",""
"psychophysics","111","370490","0.0-10.0-0.23","60477a7547b1892649a80c24","609006691f6f4e337c17f836","609a612a2180a4927de417d0","488.25000000034925","","","","39","","","","key","16.710999999999782","720","410.5","true","1","182.354496","6.291456","7","-1","1","","","","","","","","","","","","",""
"psychophysics","112","371928","0.0-10.0-0.24","60477a7547b1892649a80c24","609006691f6f4e337c17f836","609a612a2180a4927de417d0","435.9499999991385","","","","39","","","","key","16.710999999999974","720","410.5","true","1","182.354496","5.033164800000001","8","-1","-1","","","","","","","","","","","","",""
"psychophysics","113","373047","0.0-10.0-0.25","60477a7547b1892649a80c24","609006691f6f4e337c17f836","609a612a2180a4927de417d0","116.64500000001863","","","","39","","","","key","16.713712121211838","720","410.5","true","1","177.3213312","5.033164800000001","8","-1","-1","","","","","","","","","","","","",""
"psychophysics","114","374244","0.0-10.0-0.26","60477a7547b1892649a80c24","609006691f6f4e337c17f836","609a612a2180a4927de417d0","194.98500000010245","","","","37","","","","key","16.710999999999586","720","410.5","true","-1","177.3213312","5.033164800000001","8","-1","-1","","","","","","","","","","","","",""
"psychophysics","115","375286","0.0-10.0-0.27","60477a7547b1892649a80c24","609006691f6f4e337c17f836","609a612a2180a4927de417d0","40.16500000032829","","","","37","","","","key","16.711000000000702","720","410.5","true","-1","172.2881664","5.033164800000001","8","-1","-1","","","","","","","","","","","","",""
"psychophysics","116","376793","0.0-10.0-0.28","60477a7547b1892649a80c24","609006691f6f4e337c17f836","609a612a2180a4927de417d0","504.82500000001164","","","","37","","","","key","16.711000000000436","720","410.5","true","1","172.2881664","4.0265318400000005","9","1","-1","","","","","","","","","","","","",""
"psychophysics","117","378534","0.0-10.0-0.29","60477a7547b1892649a80c24","609006691f6f4e337c17f836","609a612a2180a4927de417d0","739.4800000002142","","","","37","","","","key","16.71099999999951","720","410.5","true","-1","176.31469823999998","4.0265318400000005","9","-1","1","","","","","","","","","","","","",""
"psychophysics","118","381177","0.0-10.0-0.30","60477a7547b1892649a80c24","609006691f6f4e337c17f836","609a612a2180a4927de417d0","1641.6499999996158","","","","37","","","","key","16.711000000000233","720","410.5","true","1","176.31469823999998","3.2212254720000004","10","1","-1","","","","","","","","","","","","",""
"psychophysics","119","382992","0.0-10.0-0.31","60477a7547b1892649a80c24","609006691f6f4e337c17f836","609a612a2180a4927de417d0","810.1999999998952","","","","37","","","","key","16.712675925926305","720","410.5","true","1","179.535923712","3.2212254720000004","10","1","1","","","","","","","","","","","","",""
"psychophysics","120","384060","0.0-10.0-0.32","60477a7547b1892649a80c24","609006691f6f4e337c17f836","609a612a2180a4927de417d0","65.98999999917578","","","","37","","","","key","16.710999999999157","720","410.5","true","-1","182.757149184","3.2212254720000004","10","-1","1","","","","","","","","","","","","",""
"psychophysics","121","385398","0.0-10.0-0.33","60477a7547b1892649a80c24","609006691f6f4e337c17f836","609a612a2180a4927de417d0","337.03000000061","","","","37","","","","key","16.71099999999993","720","410.5","true","1","182.757149184","2.5769803776000004","11","1","-1","","","","","","","","","","","","",""
"psychophysics","122","387131","0.0-10.0-0.34","60477a7547b1892649a80c24","609006691f6f4e337c17f836","609a612a2180a4927de417d0","731.3249999987893","","","","39","","","","key","16.711000000000073","720","410.5","true","1","185.3341295616","2.5769803776000004","11","-1","1","","","","","","","","","","","","",""
"psychophysics","123","388772","0.0-10.0-0.35","60477a7547b1892649a80c24","609006691f6f4e337c17f836","609a612a2180a4927de417d0","639.5449999999837","","","","39","","","","key","16.711000000000045","720","410.5","true","-1","185.3341295616","2.0615843020800004","12","1","-1","","","","","","","","","","","","",""
"psychophysics","124","390290","0.0-10.0-0.36","60477a7547b1892649a80c24","609006691f6f4e337c17f836","609a612a2180a4927de417d0","515.8249999986147","","","","37","","","","key","16.710999999999895","720","410.5","true","-1","187.39571386368002","2.0615843020800004","12","-1","1","","","","","","","","","","","","",""
"psychophysics","125","393699","0.0-10.0-0.37","60477a7547b1892649a80c24","609006691f6f4e337c17f836","609a612a2180a4927de417d0","2407.309999998717","","","","37","","","","key","16.711926108374136","720","410.5","true","1","187.39571386368002","1.6492674416640005","13","1","-1","","","","","","","","","","","","",""
"psychophysics","126","394813","0.0-10.0-0.38","60477a7547b1892649a80c24","609006691f6f4e337c17f836","609a612a2180a4927de417d0","112.3099999986589","","","","37","","","","key","16.711000000000393","720","410.5","true","-1","189.044981305344","1.6492674416640005","13","-1","1","","","","","","","","","","","","",""
"psychophysics","127","395908","0.0-10.0-0.39","60477a7547b1892649a80c24","609006691f6f4e337c17f836","609a612a2180a4927de417d0","92.21500000054948","","","","39","","","","key","16.710999999999498","720","410.5","true","1","189.044981305344","1.3194139533312006","14","-1","-1","","","","","","","","","","","","",""
"html-keyboard-response","128","397930","0.0-11.0","60477a7547b1892649a80c24","609006691f6f4e337c17f836","609a612a2180a4927de417d0","2020.509999998496","<p>Well Done !</p><p>Prepare for a new block.</p><p>DON'T EXIT THE FULL SCREEN MODE</p><p>Press the Spacebar to start.</p>","","","32","","","","","","","","","","","","","","","true","181.36321754808327","","","","","","","","","","",""
"psychophysics","129","398933","0.0-12.0-0.0","60477a7547b1892649a80c24","609006691f6f4e337c17f836","609a612a2180a4927de417d0","0.8299999990849756","","","","39","","","","key","16.710999999999572","720","410.5","true","1","180","30","0","-1","","","","","","","","","","","","","",""
"psychophysics","130","405637","0.0-12.0-0.1","60477a7547b1892649a80c24","609006691f6f4e337c17f836","609a612a2180a4927de417d0","5701.9999999993015","","","","39","","","","key","16.711427499999992","720","410.5","true","1","180","30","0","-1","-1","","","","","","","","","","","","",""
"psychophysics","131","418492","0.0-12.0-0.2","60477a7547b1892649a80c24","609006691f6f4e337c17f836","609a612a2180a4927de417d0","11852.869999998831","","","","39","","","","key","16.711213541666666","720","410.5","true","-1","150","24","1","1","-1","","","","","","","","","","","","",""
"psychophysics","132","419636","0.0-12.0-0.3","60477a7547b1892649a80c24","609006691f6f4e337c17f836","609a612a2180a4927de417d0","141.34000000014203","","","","37","","","","key","16.710999999999974","720","410.5","true","-1","174","24","1","-1","1","","","","","","","","","","","","",""
"psychophysics","133","420925","0.0-12.0-0.4","60477a7547b1892649a80c24","609006691f6f4e337c17f836","609a612a2180a4927de417d0","287.2100000004284","","","","37","","","","key","16.710999999999522","720","410.5","true","-1","174","19.2","2","-1","-1","","","","","","","","","","","","",""
"psychophysics","134","422434","0.0-12.0-0.5","60477a7547b1892649a80c24","609006691f6f4e337c17f836","609a612a2180a4927de417d0","507.09999999887077","","","","37","","","","key","16.711000000000436","720","410.5","true","1","154.8","15.36","3","1","-1","","","","","","","","","","","","",""
"psychophysics","135","423550","0.0-12.0-0.6","60477a7547b1892649a80c24","609006691f6f4e337c17f836","609a612a2180a4927de417d0","106.26000000047497","","","","39","","","","key","16.713227272727774","720","410.5","true","1","170.16000000000003","15.36","3","-1","1","","","","","","","","","","","","",""
"psychophysics","136","424626","0.0-12.0-0.7","60477a7547b1892649a80c24","609006691f6f4e337c17f836","609a612a2180a4927de417d0","74.86500000051456","","","","37","","","","key","16.71100000000008","720","410.5","true","-1","170.16000000000003","12.287999999999998","4","-1","-1","","","","","","","","","","","","",""
"psychophysics","137","425776","0.0-12.0-0.8","60477a7547b1892649a80c24","609006691f6f4e337c17f836","609a612a2180a4927de417d0","146.88999999995576","","","","37","","","","key","16.710999999999974","720","410.5","true","1","157.872","9.8304","5","1","-1","","","","","","","","","","","","",""
"psychophysics","138","426876","0.0-12.0-0.9","60477a7547b1892649a80c24","609006691f6f4e337c17f836","609a612a2180a4927de417d0","97.36499999964144","","","","39","","","","key","16.711000000000393","720","410.5","true","1","167.7024","9.8304","5","-1","1","","","","","","","","","","","","",""
"psychophysics","139","428429","0.0-12.0-0.10","60477a7547b1892649a80c24","609006691f6f4e337c17f836","609a612a2180a4927de417d0","552.305000001099","","","","39","","","","key","16.71099999999949","720","410.5","true","1","167.7024","7.864319999999999","6","-1","-1","","","","","","","","","","","","",""
"psychophysics","140","430504","0.0-12.0-0.11","60477a7547b1892649a80c24","609006691f6f4e337c17f836","609a612a2180a4927de417d0","1072.7350000014994","","","","39","","","","key","16.711000000000308","720","410.5","true","1","159.83808000000002","7.864319999999999","6","-1","-1","","","","","","","","","","","","",""
"psychophysics","141","434374","0.0-12.0-0.12","60477a7547b1892649a80c24","609006691f6f4e337c17f836","609a612a2180a4927de417d0","2866","","","","39","","","","key","16.712008658008855","720","410.5","true","-1","159.83808000000002","6.291456","7","1","-1","","","","","","","","","","","","",""
"psychophysics","142","435446","0.0-12.0-0.13","60477a7547b1892649a80c24","609006691f6f4e337c17f836","609a612a2180a4927de417d0","69.41499999992084","","","","39","","","","key","16.71100000000008","720","410.5","true","1","166.12953600000003","6.291456","7","-1","1","","","","","","","","","","","","",""
"psychophysics","143","436587","0.0-12.0-0.14","60477a7547b1892649a80c24","609006691f6f4e337c17f836","609a612a2180a4927de417d0","139.02500000037253","","","","37","","","","key","16.71099999999982","720","410.5","true","-1","166.12953600000003","5.033164800000001","8","-1","-1","","","","","","","","","","","","",""
"psychophysics","144","445372","0.0-12.0-0.15","60477a7547b1892649a80c24","609006691f6f4e337c17f836","609a612a2180a4927de417d0","7783.369999999239","","","","37","","","","key","16.711257142857203","720","410.5","true","-1","161.09637120000002","5.033164800000001","8","-1","-1","","","","","","","","","","","","",""
"psychophysics","145","447059","0.0-12.0-0.16","60477a7547b1892649a80c24","609006691f6f4e337c17f836","609a612a2180a4927de417d0","684.1500000009546","","","","39","","","","key","16.710999999999768","720","410.5","true","1","161.09637120000002","5.033164800000001","8","-1","-1","","","","","","","","","","","","",""
"psychophysics","146","451557","0.0-12.0-0.17","60477a7547b1892649a80c24","609006691f6f4e337c17f836","609a612a2180a4927de417d0","3496.3800000005285","","","","39","","","","key","16.711000000000038","720","410.5","true","1","156.0632064","5.033164800000001","8","-1","-1","","","","","","","","","","","","",""
"psychophysics","147","453700","0.0-12.0-0.18","60477a7547b1892649a80c24","609006691f6f4e337c17f836","609a612a2180a4927de417d0","1139.9700000001467","","","","39","","","","key","16.712771653543285","720","410.5","true","-1","156.0632064","4.0265318400000005","9","1","-1","","","","","","","","","","","","",""
"psychophysics","148","454815","0.0-12.0-0.19","60477a7547b1892649a80c24","609006691f6f4e337c17f836","609a612a2180a4927de417d0","113.92499999963911","","","","37","","","","key","16.711000000000542","720","410.5","true","-1","160.08973824","4.0265318400000005","9","-1","1","","","","","","","","","","","","",""
"psychophysics","149","456068","0.0-12.0-0.20","60477a7547b1892649a80c24","609006691f6f4e337c17f836","609a612a2180a4927de417d0","250.78000000026077","","","","39","","","","key","16.71100000000002","720","410.5","true","1","160.08973824","3.2212254720000004","10","-1","-1","","","","","","","","","","","","",""
"psychophysics","150","457273","0.0-12.0-0.21","60477a7547b1892649a80c24","609006691f6f4e337c17f836","609a612a2180a4927de417d0","203.37999999901513","","","","37","","","","key","16.711000000000407","720","410.5","true","-1","156.86851276800002","3.2212254720000004","10","-1","-1","","","","","","","","","","","","",""
"psychophysics","151","460995","0.0-12.0-0.22","60477a7547b1892649a80c24","609006691f6f4e337c17f836","609a612a2180a4927de417d0","2719.7450000003446","","","","39","","","","key","16.71100000000002","720","410.5","true","-1","156.86851276800002","2.5769803776000004","11","1","-1","","","","","","","","","","","","",""
"psychophysics","152","462465","0.0-12.0-0.23","60477a7547b1892649a80c24","609006691f6f4e337c17f836","609a612a2180a4927de417d0","468.53000000008615","","","","37","","","","key","16.711000000000208","720","410.5","true","-1","159.4454931456","2.5769803776000004","11","-1","1","","","","","","","","","","","","",""
"psychophysics","153","463698","0.0-12.0-0.24","60477a7547b1892649a80c24","609006691f6f4e337c17f836","609a612a2180a4927de417d0","230.87500000116415","","","","39","","","","key","16.71347222222216","720","410.5","true","1","159.4454931456","2.0615843020800004","12","-1","-1","","","","","","","","","","","","",""
"psychophysics","154","488548","0.0-12.0-0.25","60477a7547b1892649a80c24","609006691f6f4e337c17f836","609a612a2180a4927de417d0","23846.245000000636","","","","37","","","","key","16.71124293405115","720","410.5","true","-1","157.38390884352","2.0615843020800004","12","-1","-1","","","","","","","","","","","","",""
"psychophysics","155","489648","0.0-12.0-0.26","60477a7547b1892649a80c24","609006691f6f4e337c17f836","609a612a2180a4927de417d0","97.01000000134809","","","","39","","","","key","16.711000000000393","720","410.5","true","1","157.38390884352","2.0615843020800004","12","-1","-1","","","","","","","","","","","","",""
"psychophysics","156","490699","0.0-12.0-0.27","60477a7547b1892649a80c24","609006691f6f4e337c17f836","609a612a2180a4927de417d0","46.84499999892432","","","","37","","","","key","16.710999999999917","720","410.5","true","-1","155.32232454144","2.0615843020800004","12","-1","-1","","","","","","","","","","","","",""
"psychophysics","157","491904","0.0-12.0-0.28","60477a7547b1892649a80c24","609006691f6f4e337c17f836","609a612a2180a4927de417d0","203.28500000137137","","","","37","","","","key","16.710999999999586","720","410.5","true","-1","155.32232454144","2.0615843020800004","12","-1","-1","","","","","","","","","","","","",""
"psychophysics","158","492952","0.0-12.0-0.29","60477a7547b1892649a80c24","609006691f6f4e337c17f836","609a612a2180a4927de417d0","44.15500000142492","","","","39","","","","key","16.713145161290736","720","410.5","true","1","153.26074023936","2.0615843020800004","12","-1","-1","","","","","","","","","","","","",""
"psychophysics","159","494041","0.0-12.0-0.30","60477a7547b1892649a80c24","609006691f6f4e337c17f836","609a612a2180a4927de417d0","86.06000000145286","","","","39","","","","key","16.71099999999933","720","410.5","true","1","153.26074023936","2.0615843020800004","12","-1","-1","","","","","","","","","","","","",""
"psychophysics","160","495061","0.0-12.0-0.31","60477a7547b1892649a80c24","609006691f6f4e337c17f836","609a612a2180a4927de417d0","17.859999999927823","","","","37","","","","key","16.711000000000542","720","410.5","true","-1","151.19915593727998","2.0615843020800004","12","-1","-1","","","","","","","","","","","","",""
"psychophysics","161","496204","0.0-12.0-0.32","60477a7547b1892649a80c24","609006691f6f4e337c17f836","609a612a2180a4927de417d0","140.17500000051223","","","","37","","","","key","16.710999999999974","720","410.5","true","-1","151.19915593727998","2.0615843020800004","12","-1","-1","","","","","","","","","","","","",""
"psychophysics","162","501474","0.0-12.0-0.33","60477a7547b1892649a80c24","609006691f6f4e337c17f836","609a612a2180a4927de417d0","4268.654999999853","","","","39","","","","key","16.71100000000005","720","410.5","true","1","149.13757163519998","2.0615843020800004","12","-1","-1","","","","","","","","","","","","",""
"psychophysics","163","502615","0.0-12.0-0.34","60477a7547b1892649a80c24","609006691f6f4e337c17f836","609a612a2180a4927de417d0","138.3800000002957","","","","37","","","","key","16.71099999999982","720","410.5","true","-1","149.13757163519998","2.0615843020800004","12","-1","-1","","","","","","","","","","","","",""
"psychophysics","164","503675","0.0-12.0-0.35","60477a7547b1892649a80c24","609006691f6f4e337c17f836","609a612a2180a4927de417d0","57.53999999980442","","","","37","","","","key","16.714634920634875","720","410.5","true","-1","147.07598733311997","2.0615843020800004","12","-1","-1","","","","","","","","","","","","",""
"psychophysics","165","504681","0.0-12.0-0.36","60477a7547b1892649a80c24","609006691f6f4e337c17f836","609a612a2180a4927de417d0","3.7750000010128133","","","","39","","","","key","16.71099999999939","720","410.5","true","1","147.07598733311997","2.0615843020800004","12","-1","-1","","","","","","","","","","","","",""
"psychophysics","166","506753","0.0-12.0-0.37","60477a7547b1892649a80c24","609006691f6f4e337c17f836","609a612a2180a4927de417d0","1071.1900000005844","","","","37","","","","key","16.710999999999835","720","410.5","true","1","145.01440303103996","1.6492674416640005","13","1","-1","","","","","","","","","","","","",""
"psychophysics","167","507788","0.0-12.0-0.38","60477a7547b1892649a80c24","609006691f6f4e337c17f836","609a612a2180a4927de417d0","32.47999999980675","","","","37","","","","key","16.711000000000702","720","410.5","true","-1","146.66367047270396","1.6492674416640005","13","-1","1","","","","","","","","","","","","",""
"psychophysics","168","508863","0.0-12.0-0.39","60477a7547b1892649a80c24","609006691f6f4e337c17f836","609a612a2180a4927de417d0","72.39999999909196","","","","39","","","","key","16.71100000000008","720","410.5","true","1","146.66367047270396","1.3194139533312006","14","-1","-1","","","","","","","","","","","","",""
"html-keyboard-response","169","511879","0.0-13.0","60477a7547b1892649a80c24","609006691f6f4e337c17f836","609a612a2180a4927de417d0","3015.7899999995134","<p>Well Done !</p><p>Prepare for a new block.</p><p>DON'T EXIT THE FULL SCREEN MODE</p><p>Press the Spacebar to start.</p>","","","32","","","","","","","","","","","","","","","true","151.00674140241918","","","","","","","","","","",""
"html-keyboard-response","170","511982","0.0-14.0","60477a7547b1892649a80c24","609006691f6f4e337c17f836","609a612a2180a4927de417d0","null","","","","null","","","","","","","","","","","","","","","","","170.9198204786688","true","213.83964095733762","","","","","","","",""
"instructions","171","557978","0.0-15.0","60477a7547b1892649a80c24","609006691f6f4e337c17f836","609a612a2180a4927de417d0","45995.150000000605","","","","","","","[{""page_index"":0,""viewing_time"":31650.970000000554},{""page_index"":1,""viewing_time"":10671.694999999134},{""page_index"":2,""viewing_time"":3672.045000001206}]","","","","","","","","","","","","","","","","","","","","","","","",""
"psychophysics","172","560981","0.0-16.0-0.0","60477a7547b1892649a80c24","609006691f6f4e337c17f836","609a612a2180a4927de417d0","null","","","","null","","","","key","16.710999999998602","720","410.5","","","","","","","","","","","","","","","","","","","",""
"psychophysics","173","561484","0.0-16.0-1.0","60477a7547b1892649a80c24","609006691f6f4e337c17f836","609a612a2180a4927de417d0","null","","","","null","","","","key","16.711000000002215","720","410.5","","","","","","","","","","","","","214","1","3","false","","","",""
"psychophysics","174","561535","0.0-16.0-2.0","60477a7547b1892649a80c24","609006691f6f4e337c17f836","609a612a2180a4927de417d0","48.7049999992596","","","","77","","","","key","16.710999999952037","720","410.5","","","","","","","","","","","","","","","","","","","",""
"psychophysics","175","562538","0.0-16.0-0.1","60477a7547b1892649a80c24","609006691f6f4e337c17f836","609a612a2180a4927de417d0","null","","","","null","","","","key","16.71100000000038","720","410.5","","","","","","","","","","","","","","","","","","","",""
"psychophysics","176","563040","0.0-16.0-1.1","60477a7547b1892649a80c24","609006691f6f4e337c17f836","609a612a2180a4927de417d0","null","","","","null","","","","key","16.711000000002215","720","410.5","","","","","","","","","","","","","214","1","4","false","","","",""
"psychophysics","177","563110","0.0-16.0-2.1","60477a7547b1892649a80c24","609006691f6f4e337c17f836","609a612a2180a4927de417d0","67.46999999997206","","","","77","","","","key","16.711000000010245","720","410.5","","","","","","","","","","","","","","","","","","","",""
"psychophysics","178","564114","0.0-16.0-0.2","60477a7547b1892649a80c24","609006691f6f4e337c17f836","609a612a2180a4927de417d0","null","","","","null","","","","key","16.713932203389387","720","410.5","","","","","","","","","","","","","","","","","","","",""
"psychophysics","179","564616","0.0-16.0-1.2","60477a7547b1892649a80c24","609006691f6f4e337c17f836","609a612a2180a4927de417d0","null","","","","null","","","","key","16.711000000002215","720","410.5","","","","","","","","","","","","","214","-1","4","false","","","",""
"psychophysics","180","566085","0.0-16.0-2.2","60477a7547b1892649a80c24","609006691f6f4e337c17f836","609a612a2180a4927de417d0","1465.0250000013039","","","","90","","","","key","16.71099999999954","720","410.5","","","","","","","","","","","","","","","","","","","",""
"psychophysics","181","567088","0.0-16.0-0.3","60477a7547b1892649a80c24","609006691f6f4e337c17f836","609a612a2180a4927de417d0","null","","","","null","","","","key","16.71100000000038","720","410.5","","","","","","","","","","","","","","","","","","","",""
"psychophysics","182","567590","0.0-16.0-1.3","60477a7547b1892649a80c24","609006691f6f4e337c17f836","609a612a2180a4927de417d0","null","","","","null","","","","key","16.7109999999982","720","410.5","","","","","","","","","","","","","214","-1","6","false","","","",""
"psychophysics","183","567883","0.0-16.0-2.3","60477a7547b1892649a80c24","609006691f6f4e337c17f836","609a612a2180a4927de417d0","289.464999999851","","","","90","","","","key","16.71099999999655","720","410.5","","","","","","","","","","","","","","","","","","","",""
"psychophysics","184","568884","0.0-16.0-0.4","60477a7547b1892649a80c24","609006691f6f4e337c17f836","609a612a2180a4927de417d0","null","","","","null","","","","key","16.71100000000038","720","410.5","","","","","","","","","","","","","","","","","","","",""
"psychophysics","185","569386","0.0-16.0-1.4","60477a7547b1892649a80c24","609006691f6f4e337c17f836","609a612a2180a4927de417d0","null","","","","null","","","","key","16.711000000002215","720","410.5","","","","","","","","","","","","","214","-1","3","false","","","",""
"psychophysics","186","569467","0.0-16.0-2.4","60477a7547b1892649a80c24","609006691f6f4e337c17f836","609a612a2180a4927de417d0","78.13500000152271","","","","90","","","","key","16.711000000010245","720","410.5","","","","","","","","","","","","","","","","","","","",""
"psychophysics","187","570469","0.0-16.0-0.5","60477a7547b1892649a80c24","609006691f6f4e337c17f836","609a612a2180a4927de417d0","null","","","","null","","","","key","16.71100000000038","720","410.5","","","","","","","","","","","","","","","","","","","",""
"psychophysics","188","570971","0.0-16.0-1.5","60477a7547b1892649a80c24","609006691f6f4e337c17f836","609a612a2180a4927de417d0","null","","","","null","","","","key","16.7109999999982","720","410.5","","","","","","","","","","","","","214","1","2","false","","","",""
"psychophysics","189","573738","0.0-16.0-2.5","60477a7547b1892649a80c24","609006691f6f4e337c17f836","609a612a2180a4927de417d0","2765.4750000002095","","","","77","","","","key","16.711000000000308","720","410.5","","","","","","","","","","","","","","","","","","","",""
"psychophysics","190","574740","0.0-16.0-0.6","60477a7547b1892649a80c24","609006691f6f4e337c17f836","609a612a2180a4927de417d0","null","","","","null","","","","key","16.71100000000038","720","410.5","","","","","","","","","","","","","","","","","","","",""
"psychophysics","191","575244","0.0-16.0-1.6","60477a7547b1892649a80c24","609006691f6f4e337c17f836","609a612a2180a4927de417d0","null","","","","null","","","","key","16.7109999999982","720","410.5","","","","","","","","","","","","","214","1","6","false","","","",""
"psychophysics","192","575327","0.0-16.0-2.6","60477a7547b1892649a80c24","609006691f6f4e337c17f836","609a612a2180a4927de417d0","79.2549999988405","","","","77","","","","key","16.711000000010245","720","410.5","","","","","","","","","","","","","","","","","","","",""
"psychophysics","193","576330","0.0-16.0-0.7","60477a7547b1892649a80c24","609006691f6f4e337c17f836","609a612a2180a4927de417d0","null","","","","null","","","","key","16.71100000000038","720","410.5","","","","","","","","","","","","","","","","","","","",""
"psychophysics","194","576832","0.0-16.0-1.7","60477a7547b1892649a80c24","609006691f6f4e337c17f836","609a612a2180a4927de417d0","null","","","","null","","","","key","16.711000000002482","720","410.5","","","","","","","","","","","","","214","-1","2","false","","","",""
"psychophysics","195","582553","0.0-16.0-2.7","60477a7547b1892649a80c24","609006691f6f4e337c17f836","609a612a2180a4927de417d0","5718.165000000154","","","","77","","","","key","16.711000000000002","720","410.5","","","","","","","","","","","","","","","","","","","",""
"psychophysics","196","583555","0.0-16.0-0.8","60477a7547b1892649a80c24","609006691f6f4e337c17f836","609a612a2180a4927de417d0","null","","","","null","","","","key","16.710999999998407","720","410.5","","","","","","","","","","","","","","","","","","","",""
"psychophysics","197","584057","0.0-16.0-1.8","60477a7547b1892649a80c24","609006691f6f4e337c17f836","609a612a2180a4927de417d0","null","","","","null","","","","key","16.71717241379545","720","410.5","","","","","","","","","","","","","214","1","0","false","","","",""
"psychophysics","198","589538","0.0-16.0-2.8","60477a7547b1892649a80c24","609006691f6f4e337c17f836","609a612a2180a4927de417d0","5478.844999999623","","","","77","","","","key","16.71099999999992","720","410.5","","","","","","","","","","","","","","","","","","","",""
"psychophysics","199","590540","0.0-16.0-0.9","60477a7547b1892649a80c24","609006691f6f4e337c17f836","609a612a2180a4927de417d0","null","","","","null","","","","key","16.71100000000038","720","410.5","","","","","","","","","","","","","","","","","","","",""
"psychophysics","200","591043","0.0-16.0-1.9","60477a7547b1892649a80c24","609006691f6f4e337c17f836","609a612a2180a4927de417d0","null","","","","null","","","","key","16.7109999999982","720","410.5","","","","","","","","","","","","","214","-1","5","false","","","",""
"psychophysics","201","594561","0.0-16.0-2.9","60477a7547b1892649a80c24","609006691f6f4e337c17f836","609a612a2180a4927de417d0","3515.559999999823","","","","77","","","","key","16.71192344497615","720","410.5","","","","","","","","","","","","","","","","","","","",""
"psychophysics","202","595564","0.0-16.0-0.10","60477a7547b1892649a80c24","609006691f6f4e337c17f836","609a612a2180a4927de417d0","null","","","","null","","","","key","16.71100000000038","720","410.5","","","","","","","","","","","","","","","","","","","",""
"psychophysics","203","596067","0.0-16.0-1.10","60477a7547b1892649a80c24","609006691f6f4e337c17f836","609a612a2180a4927de417d0","null","","","","null","","","","key","16.711000000002482","720","410.5","","","","","","","","","","","","","214","1","5","false","","","",""
"psychophysics","204","596473","0.0-16.0-2.10","60477a7547b1892649a80c24","609006691f6f4e337c17f836","609a612a2180a4927de417d0","403.6500000001397","","","","77","","","","key","16.711000000000123","720","410.5","","","","","","","","","","","","","","","","","","","",""
"psychophysics","205","597475","0.0-16.0-0.11","60477a7547b1892649a80c24","609006691f6f4e337c17f836","609a612a2180a4927de417d0","null","","","","null","","","","key","16.710999999998407","720","410.5","","","","","","","","","","","","","","","","","","","",""
"psychophysics","206","597977","0.0-16.0-1.11","60477a7547b1892649a80c24","609006691f6f4e337c17f836","609a612a2180a4927de417d0","null","","","","null","","","","key","16.711000000002215","720","410.5","","","","","","","","","","","","","214","-1","0","false","","","",""
"psychophysics","207","600236","0.0-16.0-2.11","60477a7547b1892649a80c24","609006691f6f4e337c17f836","609a612a2180a4927de417d0","2257.2650000001304","","","","90","","","","key","16.71099999999982","720","410.5","","","","","","","","","","","","","","","","","","","",""
"psychophysics","208","601238","0.0-16.0-0.12","60477a7547b1892649a80c24","609006691f6f4e337c17f836","609a612a2180a4927de417d0","null","","","","null","","","","key","16.71100000000038","720","410.5","","","","","","","","","","","","","","","","","","","",""
"psychophysics","209","601740","0.0-16.0-1.12","60477a7547b1892649a80c24","609006691f6f4e337c17f836","609a612a2180a4927de417d0","null","","","","null","","","","key","16.7109999999982","720","410.5","","","","","","","","","","","","","214","1","2","false","","","",""
"psychophysics","210","603842","0.0-16.0-2.12","60477a7547b1892649a80c24","609006691f6f4e337c17f836","609a612a2180a4927de417d0","2100.225000000093","","","","90","","","","key","16.71231199999992","720","410.5","","","","","","","","","","","","","","","","","","","",""
"psychophysics","211","604844","0.0-16.0-0.13","60477a7547b1892649a80c24","609006691f6f4e337c17f836","609a612a2180a4927de417d0","null","","","","null","","","","key","16.71100000000038","720","410.5","","","","","","","","","","","","","","","","","","","",""
"psychophysics","212","605346","0.0-16.0-1.13","60477a7547b1892649a80c24","609006691f6f4e337c17f836","609a612a2180a4927de417d0","null","","","","null","","","","key","16.7109999999982","720","410.5","","","","","","","","","","","","","214","1","5","false","","","",""
"psychophysics","213","605886","0.0-16.0-2.13","60477a7547b1892649a80c24","609006691f6f4e337c17f836","609a612a2180a4927de417d0","537.8799999998882","","","","77","","","","key","16.71099999999898","720","410.5","","","","","","","","","","","","","","","","","","","",""
"psychophysics","214","606889","0.0-16.0-0.14","60477a7547b1892649a80c24","609006691f6f4e337c17f836","609a612a2180a4927de417d0","null","","","","null","","","","key","16.71100000000038","720","410.5","","","","","","","","","","","","","","","","","","","",""
"psychophysics","215","607392","0.0-16.0-1.14","60477a7547b1892649a80c24","609006691f6f4e337c17f836","609a612a2180a4927de417d0","null","","","","null","","","","key","16.7109999999982","720","410.5","","","","","","","","","","","","","214","-1","5","false","","","",""
"psychophysics","216","607455","0.0-16.0-2.14","60477a7547b1892649a80c24","609006691f6f4e337c17f836","609a612a2180a4927de417d0","60.165000000735745","","","","90","","","","key","16.711000000010245","720","410.5","","","","","","","","","","","","","","","","","","","",""
"psychophysics","217","608456","0.0-16.0-0.15","60477a7547b1892649a80c24","609006691f6f4e337c17f836","609a612a2180a4927de417d0","null","","","","null","","","","key","16.71100000000038","720","410.5","","","","","","","","","","","","","","","","","","","",""
"psychophysics","218","608959","0.0-16.0-1.15","60477a7547b1892649a80c24","609006691f6f4e337c17f836","609a612a2180a4927de417d0","null","","","","null","","","","key","16.7109999999982","720","410.5","","","","","","","","","","","","","214","1","4","false","","","",""
"psychophysics","219","609196","0.0-16.0-2.15","60477a7547b1892649a80c24","609006691f6f4e337c17f836","609a612a2180a4927de417d0","234.82500000135042","","","","77","","","","key","16.711000000001288","720","410.5","","","","","","","","","","","","","","","","","","","",""
"psychophysics","220","610198","0.0-16.0-0.16","60477a7547b1892649a80c24","609006691f6f4e337c17f836","609a612a2180a4927de417d0","null","","","","null","","","","key","16.71100000000038","720","410.5","","","","","","","","","","","","","","","","","","","",""
"psychophysics","221","610700","0.0-16.0-1.16","60477a7547b1892649a80c24","609006691f6f4e337c17f836","609a612a2180a4927de417d0","null","","","","null","","","","key","16.711000000002215","720","410.5","","","","","","","","","","","","","214","-1","6","false","","","",""
"psychophysics","222","615093","0.0-16.0-2.16","60477a7547b1892649a80c24","609006691f6f4e337c17f836","609a612a2180a4927de417d0","4390.86999999918","","","","77","","","","key","16.71172900763358","720","410.5","","","","","","","","","","","","","","","","","","","",""
"psychophysics","223","616094","0.0-16.0-0.17","60477a7547b1892649a80c24","609006691f6f4e337c17f836","609a612a2180a4927de417d0","null","","","","null","","","","key","16.71100000000038","720","410.5","","","","","","","","","","","","","","","","","","","",""
"psychophysics","224","616596","0.0-16.0-1.17","60477a7547b1892649a80c24","609006691f6f4e337c17f836","609a612a2180a4927de417d0","null","","","","null","","","","key","16.711000000002215","720","410.5","","","","","","","","","","","","","214","-1","3","false","","","",""
"psychophysics","225","616683","0.0-16.0-2.17","60477a7547b1892649a80c24","609006691f6f4e337c17f836","609a612a2180a4927de417d0","84.71500000089873","","","","77","","","","key","16.71099999998114","720","410.5","","","","","","","","","","","","","","","","","","","",""
"psychophysics","226","617686","0.0-16.0-0.18","60477a7547b1892649a80c24","609006691f6f4e337c17f836","609a612a2180a4927de417d0","null","","","","null","","","","key","16.71100000000038","720","410.5","","","","","","","","","","","","","","","","","","","",""
"psychophysics","227","618190","0.0-16.0-1.18","60477a7547b1892649a80c24","609006691f6f4e337c17f836","609a612a2180a4927de417d0","null","","","","null","","","","key","16.711000000002215","720","410.5","","","","","","","","","","","","","214","1","3","false","","","",""
"psychophysics","228","618308","0.0-16.0-2.18","60477a7547b1892649a80c24","609006691f6f4e337c17f836","609a612a2180a4927de417d0","113.65999999910127","","","","77","","","","key","16.711000000010245","720","410.5","","","","","","","","","","","","","","","","","","","",""
"psychophysics","229","619311","0.0-16.0-0.19","60477a7547b1892649a80c24","609006691f6f4e337c17f836","609a612a2180a4927de417d0","null","","","","null","","","","key","16.71100000000038","720","410.5","","","","","","","","","","","","","","","","","","","",""
"psychophysics","230","619814","0.0-16.0-1.19","60477a7547b1892649a80c24","609006691f6f4e337c17f836","609a612a2180a4927de417d0","null","","","","null","","","","key","16.710999999998602","720","410.5","","","","","","","","","","","","","214","1","6","false","","","",""
"psychophysics","231","622567","0.0-16.0-2.19","60477a7547b1892649a80c24","609006691f6f4e337c17f836","609a612a2180a4927de417d0","2750.2949999999255","","","","77","","","","key","16.710999999999533","720","410.5","","","","","","","","","","","","","","","","","","","",""
"psychophysics","232","623568","0.0-16.0-0.20","60477a7547b1892649a80c24","609006691f6f4e337c17f836","609a612a2180a4927de417d0","null","","","","null","","","","key","16.71100000000038","720","410.5","","","","","","","","","","","","","","","","","","","",""
"psychophysics","233","624072","0.0-16.0-1.20","60477a7547b1892649a80c24","609006691f6f4e337c17f836","609a612a2180a4927de417d0","null","","","","null","","","","key","16.716620689655397","720","410.5","","","","","","","","","","","","","214","1","0","false","","","",""
"psychophysics","234","627866","0.0-16.0-2.20","60477a7547b1892649a80c24","609006691f6f4e337c17f836","609a612a2180a4927de417d0","3792.1749999986496","","","","77","","","","key","16.71099999999994","720","410.5","","","","","","","","","","","","","","","","","","","",""
"psychophysics","235","628868","0.0-16.0-0.21","60477a7547b1892649a80c24","609006691f6f4e337c17f836","609a612a2180a4927de417d0","null","","","","null","","","","key","16.71100000000038","720","410.5","","","","","","","","","","","","","","","","","","","",""
"psychophysics","236","629371","0.0-16.0-1.21","60477a7547b1892649a80c24","609006691f6f4e337c17f836","609a612a2180a4927de417d0","null","","","","null","","","","key","16.7109999999982","720","410.5","","","","","","","","","","","","","214","-1","2","false","","","",""
"psychophysics","237","629672","0.0-16.0-2.21","60477a7547b1892649a80c24","609006691f6f4e337c17f836","609a612a2180a4927de417d0","298.6599999985192","","","","77","","","","key","16.711000000003395","720","410.5","","","","","","","","","","","","","","","","","","","",""
"psychophysics","238","630675","0.0-16.0-0.22","60477a7547b1892649a80c24","609006691f6f4e337c17f836","609a612a2180a4927de417d0","null","","","","null","","","","key","16.71100000000038","720","410.5","","","","","","","","","","","","","","","","","","","",""
"psychophysics","239","631178","0.0-16.0-1.22","60477a7547b1892649a80c24","609006691f6f4e337c17f836","609a612a2180a4927de417d0","null","","","","null","","","","key","16.711000000002482","720","410.5","","","","","","","","","","","","","214","-1","0","false","","","",""
"psychophysics","240","631382","0.0-16.0-2.22","60477a7547b1892649a80c24","609006691f6f4e337c17f836","609a612a2180a4927de417d0","201.6500000009546","","","","77","","","","key","16.711000000010245","720","410.5","","","","","","","","","","","","","","","","","","","",""
"psychophysics","241","632383","0.0-16.0-0.23","60477a7547b1892649a80c24","609006691f6f4e337c17f836","609a612a2180a4927de417d0","null","","","","null","","","","key","16.71100000000038","720","410.5","","","","","","","","","","","","","","","","","","","",""
"psychophysics","242","632886","0.0-16.0-1.23","60477a7547b1892649a80c24","609006691f6f4e337c17f836","609a612a2180a4927de417d0","null","","","","null","","","","key","16.711000000002215","720","410.5","","","","","","","","","","","","","214","-1","4","false","","","",""
"psychophysics","243","633040","0.0-16.0-2.23","60477a7547b1892649a80c24","609006691f6f4e337c17f836","609a612a2180a4927de417d0","152.38999999931548","","","","77","","","","key","16.711000000010245","720","410.5","","","","","","","","","","","","","","","","","","","",""
"html-keyboard-response","244","639862","0.0-17.0","60477a7547b1892649a80c24","609006691f6f4e337c17f836","609a612a2180a4927de417d0","6821.254999998957","<p>Well Done !</p><p>Training Complete. Press the spacebar to start.</p><p>DON'T EXIT THE FULL SCREEN MODE</p>","","","32","","","","","","","","","","","","","","","","","","","","","","","","","","",""
"psychophysics","245","642865","0.0-18.0-0.0","60477a7547b1892649a80c24","609006691f6f4e337c17f836","609a612a2180a4927de417d0","null","","","","null","","","","key","16.716116666667705","720","410.5","","","","","","","","","","","","","","","","","","","",""
"psychophysics","246","643368","0.0-18.0-1.0","60477a7547b1892649a80c24","609006691f6f4e337c17f836","609a612a2180a4927de417d0","null","","","","null","","","","key","16.7109999999982","720","410.5","","","","","","","","","","","","","214","1","5","true","","","",""
"psychophysics","247","645073","0.0-18.0-2.0","60477a7547b1892649a80c24","609006691f6f4e337c17f836","609a612a2180a4927de417d0","1702.4450000007637","","","","77","","","","key","16.71099999999987","720","410.5","","","","","","","","","","","","","","","","","","","",""
"psychophysics","248","646074","0.0-18.0-0.1","60477a7547b1892649a80c24","609006691f6f4e337c17f836","609a612a2180a4927de417d0","null","","","","null","","","","key","16.71100000000038","720","410.5","","","","","","","","","","","","","","","","","","","",""
"psychophysics","249","646577","0.0-18.0-1.1","60477a7547b1892649a80c24","609006691f6f4e337c17f836","609a612a2180a4927de417d0","null","","","","null","","","","key","16.7109999999982","720","410.5","","","","","","","","","","","","","214","-1","2","true","","","",""
"psychophysics","250","647127","0.0-18.0-2.1","60477a7547b1892649a80c24","609006691f6f4e337c17f836","609a612a2180a4927de417d0","530.6000000000931","","","","77","","","","key","16.71099999999933","720","410.5","","","","","","","","","","","","","","","","","","","",""
"psychophysics","251","648128","0.0-18.0-0.2","60477a7547b1892649a80c24","609006691f6f4e337c17f836","609a612a2180a4927de417d0","null","","","","null","","","","key","16.71100000000038","720","410.5","","","","","","","","","","","","","","","","","","","",""
"psychophysics","252","648630","0.0-18.0-1.2","60477a7547b1892649a80c24","609006691f6f4e337c17f836","609a612a2180a4927de417d0","null","","","","null","","","","key","16.7109999999982","720","410.5","","","","","","","","","","","","","214","-1","0","true","","","",""
"psychophysics","253","648837","0.0-18.0-2.2","60477a7547b1892649a80c24","609006691f6f4e337c17f836","609a612a2180a4927de417d0","205.4150000003865","","","","77","","","","key","16.71099999999966","720","410.5","","","","","","","","","","","","","","","","","","","",""
"psychophysics","254","649841","0.0-18.0-0.3","60477a7547b1892649a80c24","609006691f6f4e337c17f836","609a612a2180a4927de417d0","null","","","","null","","","","key","16.71100000000038","720","410.5","","","","","","","","","","","","","","","","","","","",""
"psychophysics","255","650344","0.0-18.0-1.3","60477a7547b1892649a80c24","609006691f6f4e337c17f836","609a612a2180a4927de417d0","null","","","","null","","","","key","16.715758620689076","720","410.5","","","","","","","","","","","","","214","1","0","true","","","",""
"psychophysics","256","650832","0.0-18.0-2.3","60477a7547b1892649a80c24","609006691f6f4e337c17f836","609a612a2180a4927de417d0","485.2850000006147","","","","90","","","","key","16.711000000001928","720","410.5","","","","","","","","","","","","","","","","","","","",""
"psychophysics","257","651836","0.0-18.0-0.4","60477a7547b1892649a80c24","609006691f6f4e337c17f836","609a612a2180a4927de417d0","null","","","","null","","","","key","16.710999999998602","720","410.5","","","","","","","","","","","","","","","","","","","",""
"psychophysics","258","652338","0.0-18.0-1.4","60477a7547b1892649a80c24","609006691f6f4e337c17f836","609a612a2180a4927de417d0","null","","","","null","","","","key","16.711000000002215","720","410.5","","","","","","","","","","","","","214","-1","4","true","","","",""
"psychophysics","259","652565","0.0-18.0-2.4","60477a7547b1892649a80c24","609006691f6f4e337c17f836","609a612a2180a4927de417d0","225.21999999845866","","","","77","","","","key","16.710999999990843","720","410.5","","","","","","","","","","","","","","","","","","","",""
"psychophysics","260","653569","0.0-18.0-0.5","60477a7547b1892649a80c24","609006691f6f4e337c17f836","609a612a2180a4927de417d0","null","","","","null","","","","key","16.71100000000038","720","410.5","","","","","","","","","","","","","","","","","","","",""
"psychophysics","261","654071","0.0-18.0-1.5","60477a7547b1892649a80c24","609006691f6f4e337c17f836","609a612a2180a4927de417d0","null","","","","null","","","","key","16.711000000002215","720","410.5","","","","","","","","","","","","","214","1","6","true","","","",""
"psychophysics","262","654101","0.0-18.0-2.5","60477a7547b1892649a80c24","609006691f6f4e337c17f836","609a612a2180a4927de417d0","24.56499999971129","","","","77","","","","key","16.711000000010245","720","410.5","","","","","","","","","","","","","","","","","","","",""
"psychophysics","263","655103","0.0-18.0-0.6","60477a7547b1892649a80c24","609006691f6f4e337c17f836","609a612a2180a4927de417d0","null","","","","null","","","","key","16.71100000000038","720","410.5","","","","","","","","","","","","","","","","","","","",""
"psychophysics","264","655607","0.0-18.0-1.6","60477a7547b1892649a80c24","609006691f6f4e337c17f836","609a612a2180a4927de417d0","null","","","","null","","","","key","16.7109999999982","720","410.5","","","","","","","","","","","","","214","1","2","true","","","",""
"psychophysics","265","657229","0.0-18.0-2.6","60477a7547b1892649a80c24","609006691f6f4e337c17f836","609a612a2180a4927de417d0","1617.0399999992223","","","","77","","","","key","16.711000000000542","720","410.5","","","","","","","","","","","","","","","","","","","",""
"psychophysics","266","658231","0.0-18.0-0.7","60477a7547b1892649a80c24","609006691f6f4e337c17f836","609a612a2180a4927de417d0","null","","","","null","","","","key","16.71100000000038","720","410.5","","","","","","","","","","","","","","","","","","","",""
"psychophysics","267","658735","0.0-18.0-1.7","60477a7547b1892649a80c24","609006691f6f4e337c17f836","609a612a2180a4927de417d0","null","","","","null","","","","key","16.710999999998602","720","410.5","","","","","","","","","","","","","214","1","3","true","","","",""
"psychophysics","268","658826","0.0-18.0-2.7","60477a7547b1892649a80c24","609006691f6f4e337c17f836","609a612a2180a4927de417d0","87.78499999968335","","","","77","","","","key","16.71099999998114","720","410.5","","","","","","","","","","","","","","","","","","","",""
"psychophysics","269","659828","0.0-18.0-0.8","60477a7547b1892649a80c24","609006691f6f4e337c17f836","609a612a2180a4927de417d0","null","","","","null","","","","key","16.71100000000038","720","410.5","","","","","","","","","","","","","","","","","","","",""
"psychophysics","270","660331","0.0-18.0-1.8","60477a7547b1892649a80c24","609006691f6f4e337c17f836","609a612a2180a4927de417d0","null","","","","null","","","","key","16.716655172415656","720","410.5","","","","","","","","","","","","","214","-1","5","true","","","",""
"psychophysics","271","660682","0.0-18.0-2.8","60477a7547b1892649a80c24","609006691f6f4e337c17f836","609a612a2180a4927de417d0","348.81499999936204","","","","77","","","","key","16.710999999998602","720","410.5","","","","","","","","","","","","","","","","","","","",""
"psychophysics","272","661683","0.0-18.0-0.9","60477a7547b1892649a80c24","609006691f6f4e337c17f836","609a612a2180a4927de417d0","null","","","","null","","","","key","16.710999999998407","720","410.5","","","","","","","","","","","","","","","","","","","",""
"psychophysics","273","662186","0.0-18.0-1.9","60477a7547b1892649a80c24","609006691f6f4e337c17f836","609a612a2180a4927de417d0","null","","","","null","","","","key","16.711000000002215","720","410.5","","","","","","","","","","","","","214","1","4","true","","","",""
"psychophysics","274","665177","0.0-18.0-2.9","60477a7547b1892649a80c24","609006691f6f4e337c17f836","609a612a2180a4927de417d0","2988.5300000004936","","","","77","","","","key","16.710999999999782","720","410.5","","","","","","","","","","","","","","","","","","","",""
"psychophysics","275","666178","0.0-18.0-0.10","60477a7547b1892649a80c24","609006691f6f4e337c17f836","609a612a2180a4927de417d0","null","","","","null","","","","key","16.71100000000038","720","410.5","","","","","","","","","","","","","","","","","","","",""
"psychophysics","276","666681","0.0-18.0-1.10","60477a7547b1892649a80c24","609006691f6f4e337c17f836","609a612a2180a4927de417d0","null","","","","null","","","","key","16.7109999999982","720","410.5","","","","","","","","","","","","","214","-1","6","true","","","",""
"psychophysics","277","667599","0.0-18.0-2.10","60477a7547b1892649a80c24","609006691f6f4e337c17f836","609a612a2180a4927de417d0","915.7900000008522","","","","77","","","","key","16.710999999999466","720","410.5","","","","","","","","","","","","","","","","","","","",""
"psychophysics","278","668600","0.0-18.0-0.11","60477a7547b1892649a80c24","609006691f6f4e337c17f836","609a612a2180a4927de417d0","null","","","","null","","","","key","16.71100000000038","720","410.5","","","","","","","","","","","","","","","","","","","",""
"psychophysics","279","669103","0.0-18.0-1.11","60477a7547b1892649a80c24","609006691f6f4e337c17f836","609a612a2180a4927de417d0","null","","","","null","","","","key","16.7109999999982","720","410.5","","","","","","","","","","","","","214","-1","3","true","","","",""
"psychophysics","280","669320","0.0-18.0-2.11","60477a7547b1892649a80c24","609006691f6f4e337c17f836","609a612a2180a4927de417d0","215.2249999998603","","","","77","","","","key","16.711000000000542","720","410.5","","","","","","","","","","","","","","","","","","","",""
"psychophysics","281","670322","0.0-18.0-0.12","60477a7547b1892649a80c24","609006691f6f4e337c17f836","609a612a2180a4927de417d0","null","","","","null","","","","key","16.71489830508481","720","410.5","","","","","","","","","","","","","","","","","","","",""
"psychophysics","282","670824","0.0-18.0-1.12","60477a7547b1892649a80c24","609006691f6f4e337c17f836","609a612a2180a4927de417d0","null","","","","null","","","","key","16.711000000002215","720","410.5","","","","","","","","","","","","","214","-1","5","true","","","",""
"psychophysics","283","670972","0.0-18.0-2.12","60477a7547b1892649a80c24","609006691f6f4e337c17f836","609a612a2180a4927de417d0","145.27499999885913","","","","77","","","","key","16.711000000010245","720","410.5","","","","","","","","","","","","","","","","","","","",""
"psychophysics","284","671973","0.0-18.0-0.13","60477a7547b1892649a80c24","609006691f6f4e337c17f836","609a612a2180a4927de417d0","null","","","","null","","","","key","16.710999999998407","720","410.5","","","","","","","","","","","","","","","","","","","",""
"psychophysics","285","672475","0.0-18.0-1.13","60477a7547b1892649a80c24","609006691f6f4e337c17f836","609a612a2180a4927de417d0","null","","","","null","","","","key","16.711000000002215","720","410.5","","","","","","","","","","","","","214","-1","0","true","","","",""
"psychophysics","286","672785","0.0-18.0-2.13","60477a7547b1892649a80c24","609006691f6f4e337c17f836","609a612a2180a4927de417d0","308.0599999993574","","","","90","","","","key","16.71099999999655","720","410.5","","","","","","","","","","","","","","","","","","","",""
"psychophysics","287","673790","0.0-18.0-0.14","60477a7547b1892649a80c24","609006691f6f4e337c17f836","609a612a2180a4927de417d0","null","","","","null","","","","key","16.71100000000038","720","410.5","","","","","","","","","","","","","","","","","","","",""
"psychophysics","288","674294","0.0-18.0-1.14","60477a7547b1892649a80c24","609006691f6f4e337c17f836","609a612a2180a4927de417d0","null","","","","null","","","","key","16.710999999998602","720","410.5","","","","","","","","","","","","","214","-1","6","true","","","",""
"psychophysics","289","675082","0.0-18.0-2.14","60477a7547b1892649a80c24","609006691f6f4e337c17f836","609a612a2180a4927de417d0","783.8949999986216","","","","77","","","","key","16.711000000000123","720","410.5","","","","","","","","","","","","","","","","","","","",""
"psychophysics","290","676084","0.0-18.0-0.15","60477a7547b1892649a80c24","609006691f6f4e337c17f836","609a612a2180a4927de417d0","null","","","","null","","","","key","16.71100000000038","720","410.5","","","","","","","","","","","","","","","","","","","",""
"psychophysics","291","676587","0.0-18.0-1.15","60477a7547b1892649a80c24","609006691f6f4e337c17f836","609a612a2180a4927de417d0","null","","","","null","","","","key","16.7109999999982","720","410.5","","","","","","","","","","","","","214","-1","4","true","","","",""
"psychophysics","292","676713","0.0-18.0-2.15","60477a7547b1892649a80c24","609006691f6f4e337c17f836","609a612a2180a4927de417d0","123.20000000006985","","","","77","","","","key","16.711000000010245","720","410.5","","","","","","","","","","","","","","","","","","","",""
"psychophysics","293","677717","0.0-18.0-0.16","60477a7547b1892649a80c24","609006691f6f4e337c17f836","609a612a2180a4927de417d0","null","","","","null","","","","key","16.71100000000038","720","410.5","","","","","","","","","","","","","","","","","","","",""
"psychophysics","294","678220","0.0-18.0-1.16","60477a7547b1892649a80c24","609006691f6f4e337c17f836","609a612a2180a4927de417d0","null","","","","null","","","","key","16.711000000002482","720","410.5","","","","","","","","","","","","","214","-1","2","true","","","",""
"psychophysics","295","678596","0.0-18.0-2.16","60477a7547b1892649a80c24","609006691f6f4e337c17f836","609a612a2180a4927de417d0","372.4099999999162","","","","90","","","","key","16.711000000004702","720","410.5","","","","","","","","","","","","","","","","","","","",""
"psychophysics","296","679598","0.0-18.0-0.17","60477a7547b1892649a80c24","609006691f6f4e337c17f836","609a612a2180a4927de417d0","null","","","","null","","","","key","16.710999999998407","720","410.5","","","","","","","","","","","","","","","","","","","",""
"psychophysics","297","680101","0.0-18.0-1.17","60477a7547b1892649a80c24","609006691f6f4e337c17f836","609a612a2180a4927de417d0","null","","","","null","","","","key","16.717379310344956","720","410.5","","","","","","","","","","","","","214","1","3","true","","","",""
"psychophysics","298","680149","0.0-18.0-2.17","60477a7547b1892649a80c24","609006691f6f4e337c17f836","609a612a2180a4927de417d0","45.7700000006007","","","","77","","","","key","16.711000000010245","720","410.5","","","","","","","","","","","","","","","","","","","",""
"psychophysics","299","681150","0.0-18.0-0.18","60477a7547b1892649a80c24","609006691f6f4e337c17f836","609a612a2180a4927de417d0","null","","","","null","","","","key","16.71100000000038","720","410.5","","","","","","","","","","","","","","","","","","","",""
"psychophysics","300","681653","0.0-18.0-1.18","60477a7547b1892649a80c24","609006691f6f4e337c17f836","609a612a2180a4927de417d0","null","","","","null","","","","key","16.7109999999982","720","410.5","","","","","","","","","","","","","214","1","5","true","","","",""
"psychophysics","301","681803","0.0-18.0-2.18","60477a7547b1892649a80c24","609006691f6f4e337c17f836","609a612a2180a4927de417d0","148.45499999867752","","","","77","","","","key","16.710999999995693","720","410.5","","","","","","","","","","","","","","","","","","","",""
"psychophysics","302","682806","0.0-18.0-0.19","60477a7547b1892649a80c24","609006691f6f4e337c17f836","609a612a2180a4927de417d0","null","","","","null","","","","key","16.71100000000038","720","410.5","","","","","","","","","","","","","","","","","","","",""
"psychophysics","303","683307","0.0-18.0-1.19","60477a7547b1892649a80c24","609006691f6f4e337c17f836","609a612a2180a4927de417d0","null","","","","null","","","","key","16.7109999999982","720","410.5","","","","","","","","","","","","","214","1","4","true","","","",""
"psychophysics","304","683431","0.0-18.0-2.19","60477a7547b1892649a80c24","609006691f6f4e337c17f836","609a612a2180a4927de417d0","121.9000000001397","","","","77","","","","key","16.711000000010245","720","410.5","","","","","","","","","","","","","","","","","","","",""
"psychophysics","305","684435","0.0-18.0-0.20","60477a7547b1892649a80c24","609006691f6f4e337c17f836","609a612a2180a4927de417d0","null","","","","null","","","","key","16.710999999998407","720","410.5","","","","","","","","","","","","","","","","","","","",""
"psychophysics","306","684938","0.0-18.0-1.20","60477a7547b1892649a80c24","609006691f6f4e337c17f836","609a612a2180a4927de417d0","null","","","","null","","","","key","16.711000000002482","720","410.5","","","","","","","","","","","","","214","1","6","true","","","",""
"psychophysics","307","685961","0.0-18.0-2.20","60477a7547b1892649a80c24","609006691f6f4e337c17f836","609a612a2180a4927de417d0","1020.8399999992689","","","","77","","","","key","16.710999999998602","720","410.5","","","","","","","","","","","","","","","","","","","",""
"psychophysics","308","686963","0.0-18.0-0.21","60477a7547b1892649a80c24","609006691f6f4e337c17f836","609a612a2180a4927de417d0","null","","","","null","","","","key","16.71100000000038","720","410.5","","","","","","","","","","","","","","","","","","","",""
"psychophysics","309","687465","0.0-18.0-1.21","60477a7547b1892649a80c24","609006691f6f4e337c17f836","609a612a2180a4927de417d0","null","","","","null","","","","key","16.7109999999982","720","410.5","","","","","","","","","","","","","214","-1","3","true","","","",""
"psychophysics","310","695380","0.0-18.0-2.21","60477a7547b1892649a80c24","609006691f6f4e337c17f836","609a612a2180a4927de417d0","7913.285000000615","","","","77","","","","key","16.711370762711848","720","410.5","","","","","","","","","","","","","","","","","","","",""
"psychophysics","311","696383","0.0-18.0-0.22","60477a7547b1892649a80c24","609006691f6f4e337c17f836","609a612a2180a4927de417d0","null","","","","null","","","","key","16.71100000000038","720","410.5","","","","","","","","","","","","","","","","","","","",""
"psychophysics","312","696886","0.0-18.0-1.22","60477a7547b1892649a80c24","609006691f6f4e337c17f836","609a612a2180a4927de417d0","null","","","","null","","","","key","16.710999999998602","720","410.5","","","","","","","","","","","","","214","1","2","true","","","",""
"psychophysics","313","696974","0.0-18.0-2.22","60477a7547b1892649a80c24","609006691f6f4e337c17f836","609a612a2180a4927de417d0","85.4299999991199","","","","77","","","","key","16.711000000010245","720","410.5","","","","","","","","","","","","","","","","","","","",""
"psychophysics","314","697976","0.0-18.0-0.23","60477a7547b1892649a80c24","609006691f6f4e337c17f836","609a612a2180a4927de417d0","null","","","","null","","","","key","16.71100000000038","720","410.5","","","","","","","","","","","","","","","","","","","",""
"psychophysics","315","698479","0.0-18.0-1.23","60477a7547b1892649a80c24","609006691f6f4e337c17f836","609a612a2180a4927de417d0","null","","","","null","","","","key","16.7109999999982","720","410.5","","","","","","","","","","","","","214","1","0","true","","","",""
"psychophysics","316","699084","0.0-18.0-2.23","60477a7547b1892649a80c24","609006691f6f4e337c17f836","609a612a2180a4927de417d0","602.3099999984261","","","","90","","","","key","16.711000000000265","720","410.5","","","","","","","","","","","","","","","","","","","",""
"psychophysics","317","700085","0.0-18.0-0.24","60477a7547b1892649a80c24","609006691f6f4e337c17f836","609a612a2180a4927de417d0","null","","","","null","","","","key","16.71100000000038","720","410.5","","","","","","","","","","","","","","","","","","","",""
"psychophysics","318","700586","0.0-18.0-1.24","60477a7547b1892649a80c24","609006691f6f4e337c17f836","609a612a2180a4927de417d0","null","","","","null","","","","key","16.7109999999982","720","410.5","","","","","","","","","","","","","214","1","3","true","","","",""
"psychophysics","319","700988","0.0-18.0-2.24","60477a7547b1892649a80c24","609006691f6f4e337c17f836","609a612a2180a4927de417d0","399.71999999939","","","","90","","","","key","16.711000000000123","720","410.5","","","","","","","","","","","","","","","","","","","",""
"psychophysics","320","701990","0.0-18.0-0.25","60477a7547b1892649a80c24","609006691f6f4e337c17f836","609a612a2180a4927de417d0","null","","","","null","","","","key","16.71100000000038","720","410.5","","","","","","","","","","","","","","","","","","","",""
"psychophysics","321","702493","0.0-18.0-1.25","60477a7547b1892649a80c24","609006691f6f4e337c17f836","609a612a2180a4927de417d0","null","","","","null","","","","key","16.7109999999982","720","410.5","","","","","","","","","","","","","214","1","0","true","","","",""
"psychophysics","322","702710","0.0-18.0-2.25","60477a7547b1892649a80c24","609006691f6f4e337c17f836","609a612a2180a4927de417d0","214.7249999997439","","","","90","","","","key","16.711000000000542","720","410.5","","","","","","","","","","","","","","","","","","","",""
"psychophysics","323","703711","0.0-18.0-0.26","60477a7547b1892649a80c24","609006691f6f4e337c17f836","609a612a2180a4927de417d0","null","","","","null","","","","key","16.71100000000038","720","410.5","","","","","","","","","","","","","","","","","","","",""
"psychophysics","324","704215","0.0-18.0-1.26","60477a7547b1892649a80c24","609006691f6f4e337c17f836","609a612a2180a4927de417d0","null","","","","null","","","","key","16.7109999999982","720","410.5","","","","","","","","","","","","","214","-1","5","true","","","",""
"psychophysics","325","704354","0.0-18.0-2.26","60477a7547b1892649a80c24","609006691f6f4e337c17f836","609a612a2180a4927de417d0","137.5499999994645","","","","77","","","","key","16.711000000010245","720","410.5","","","","","","","","","","","","","","","","","","","",""
"psychophysics","326","705357","0.0-18.0-0.27","60477a7547b1892649a80c24","609006691f6f4e337c17f836","609a612a2180a4927de417d0","null","","","","null","","","","key","16.710999999998407","720","410.5","","","","","","","","","","","","","","","","","","","",""
"psychophysics","327","705859","0.0-18.0-1.27","60477a7547b1892649a80c24","609006691f6f4e337c17f836","609a612a2180a4927de417d0","null","","","","null","","","","key","16.711000000002482","720","410.5","","","","","","","","","","","","","214","-1","3","true","","","",""
