"trial_type","trial_index","time_elapsed","internal_node_id","rt","stimulus","button_pressed","success","key_press","responses","isData","view_history","response_type","avg_frame_time","center_x","center_y","isSC","stim_side","trial_luminance","step_size","nReversal","correct","prev_ans","isThreshold","SC_threshold","final_threshold","isLuminance","FF_luminance","luminance","stimSide","ISInt","isFF","question_order","isSPQ","isCAPS","isAQ"
"pavlovia","0","9","0.0-0.0","","","","","","","","","","","","","","","","","","","","","","","","","","","","","","","",""
"html-button-response","1","9800","0.0-1.0","9788.25999999981","<div style='background-color: white; width:60%; margin: auto; padding: 50px; text-align: justify; text-justify: inter-word; margin-bottom: 20px;'><h1 style='text-align: center;'>Consent Form</h1><p>Please read this consent form carefully before deciding whether you would like to participate in this study. You have to be 18 years old or older to participate to this study.</p><p style='text-decoration: underline;'>Participation is voluntary:</p><p>It is your choice whether or not to participate in this research. If you choose to participate, you may change your mind and leave the study at any time. Refusal to participate or stopping your participation will involve no penalty or loss of benefits to which you are otherwise entitled.</p><p style='text-decoration: underline;'>Purpose of the Study:</p><p>To understand the mechanisms underlying human perception.</p><p style='text-decoration: underline;'>What you will do in this study:</p><p>You will be presented with a series of visual images and then you will press buttons on the keyboard of your computer to respond to simple questions about the images (e.g. Were one or two images presented?). In addition, you will be asked to complete a questionnaire concerning your beliefs and everyday mental and perceptual experiences.'</p><p style='text-decoration: underline;'> Time Required:</p><p>The study will take 40 minutes to complete. </p><p style='text-decoration: underline;'>Risks:</p><p>There are no anticipated risks associated with participating in this study that are beyond those experienced in everyday life. </p><p style='text-decoration: underline;'>Benefits:</p><p>There are no benefits to you in participating in the study. However, this study may lead to a better understanding of how different kinds of visual information are used.</p><p style='text-decoration: underline;'>Compensation:</p><p>You will be paid US$6.6/hour. </p><p style='text-decoration: underline;'>Privacy and Confidentiality:</p><p>Your participation in this study will be anonymous. No personal information about your name or identity will be asked or recorded. This anonymous data will be stored for several years and may be used for a variety of research purposes. The overall results of the study may be published, or the data files may be shared with other researchers, but your identity will not be revealed in any way. The online services we are using for this study may temporarily store your data, but this data will be downloaded and then promptly deleted from those services.Your data will not be permanently associated with your name, IP address, or any other identifiable information (e.g., your information will only be connected to your payment, not to any of your responses), though they may be temporarily stored together before we download and separate them. Even so, no guarantee of internet survey security can be given because, although unlikely, transmissions can be intercepted and IP addresses can be identified. The anonymous data may be shared publicly (for example, in conjunction with a resulting academic publication).</p><p style='text-decoration: underline;'>Participation and Withdrawal:</p><p>Your participation in this study is completely voluntary. You may stop responding to the stimuli or stop answering questions if you so choose and without penalty by exiting the full screen mode, closing this tab of your browser or redirecting it to a different website.</p><p style='text-decoration: underline;'>Contact Info of the Researcher: </p><p>If you have questions about this study, or if you would like to talk to the research team, please contact David Melcher (david.melcher@nyu.edu, md5050@nyu.edu) at the Perception and Active Cognition Laboratory, New York University Abu Dhabi, Computational Research Building, Saadiyat Island, Abu Dhabi, UAE.This research has been reviewed by the New York University Abu Dhabi Institutional Review Board (NYUAD IRB). To contact about your rights in this research, for questions, suggestions, or complaints that are not addressed by the researchers, please email IRBnyuad@nyu.edu, or call the NYUAD IRB at +971 2 628 4313. </p></div>","0","","","","","","","","","","","","","","","","","","","","","","","","","","","","",""
"fullscreen","2","14632","0.0-2.0","","","","true","","","","","","","","","","","","","","","","","","","","","","","","","","","",""
"html-keyboard-response","3","20399","0.0-3.0","5764.619999999923","<p>Welcome !</p><p>READ CAREFULLY THE FOLLOWING INDICATIONS:</p><p>From this moment you have ~40 minutes to complete the experiment.</p><p>During the experiment you will be prompted to take several breaks. Each break should not last longer than 2-3 minutes.</p><p>Make sure that your computer is plugged in and it's not running on battery power, even if the battery is already fully charged.</p><p>Turn off your phone and music, make sure that you are in a quiet room and that you will not be distracted for the next hour.</p><p>Failure to comply with the instructions and indications provided during the experiment will most likely result in the rejection of your data.<p>Press the spacebar to start.</p>","","","32","","","","","","","","","","","","","","","","","","","","","","","","","","",""
"survey-html-form","4","30016","0.0-4.0","9614.349999999831","","","","","{""age"":""23"",""sex"":""M""}","true","","","","","","","","","","","","","","","","","","","","","","","","",""
"instructions","5","48769","0.0-5.0","18752.254999999877","","","","","","","[{""page_index"":0,""viewing_time"":13463.505000000168},{""page_index"":1,""viewing_time"":2439.9499999999534},{""page_index"":2,""viewing_time"":2848.3649999998306}]","","","","","","","","","","","","","","","","","","","","","","","",""
"psychophysics","6","51441","0.0-6.0-0.0","1645.4800000001414","","","","39","","","","key","16.96157324840767","683","312.5","true","-1","180","30","0","1","","","","","","","","","","","","","",""
"psychophysics","7","56351","0.0-6.0-0.1","3899.924999999712","","","","39","","","","key","16.73334470989762","683","312.5","true","-1","210","30","0","1","1","","","","","","","","","","","","",""
"psychophysics","8","57414","0.0-6.0-0.2","48.20999999992637","","","","39","","","","key","16.732500000000012","683","312.5","true","1","240","30","0","-1","1","","","","","","","","","","","","",""
"psychophysics","9","58495","0.0-6.0-0.3","71.05499999988388","","","","39","","","","key","16.732109374999936","683","312.5","true","1","240","24","1","-1","-1","","","","","","","","","","","","",""
"psychophysics","10","61772","0.0-6.0-0.4","2263.495000000148","","","","39","","","","key","16.733548717948686","683","312.5","true","-1","216","19.2","2","1","-1","","","","","","","","","","","","",""
"psychophysics","11","64271","0.0-6.0-0.5","1483.5050000001502","","","","37","","","","key","16.732648648648652","683","312.5","true","-1","235.2","19.2","2","-1","1","","","","","","","","","","","","",""
"psychophysics","12","67914","0.0-6.0-0.6","2632.2049999999","","","","37","","","","key","16.733497695852577","683","312.5","true","-1","235.2","15.36","3","-1","-1","","","","","","","","","","","","",""
"psychophysics","13","71012","0.0-6.0-0.7","2083.150000000387","","","","37","","","","key","16.7332771739131","683","312.5","true","1","219.83999999999997","12.287999999999998","4","1","-1","","","","","","","","","","","","",""
"psychophysics","14","72564","0.0-6.0-0.8","547.1299999999319","","","","37","","","","key","16.733358695652147","683","312.5","true","-1","232.128","12.287999999999998","4","-1","1","","","","","","","","","","","","",""
"psychophysics","15","73772","0.0-6.0-0.9","192.20499999982712","","","","37","","","","key","16.733352112676048","683","312.5","true","-1","232.128","9.8304","5","-1","-1","","","","","","","","","","","","",""
"psychophysics","16","75047","0.0-6.0-0.10","269.9200000001729","","","","37","","","","key","16.733799999999853","683","312.5","true","-1","222.2976","9.8304","5","-1","-1","","","","","","","","","","","","",""
"psychophysics","17","76245","0.0-6.0-0.11","187.26500000002852","","","","37","","","","key","16.733971830986032","683","312.5","true","-1","222.2976","9.8304","5","-1","-1","","","","","","","","","","","","",""
"psychophysics","18","77334","0.0-6.0-0.12","73.71000000012282","","","","39","","","","key","16.733843750000005","683","312.5","true","1","212.4672","9.8304","5","-1","-1","","","","","","","","","","","","",""
"psychophysics","19","79668","0.0-6.0-0.13","1323.08999999988","","","","39","","","","key","16.733637681159514","683","312.5","true","1","212.4672","9.8304","5","-1","-1","","","","","","","","","","","","",""
"psychophysics","20","80713","0.0-6.0-0.14","37.53000000005704","","","","37","","","","key","16.73279032258072","683","312.5","true","-1","202.6368","9.8304","5","-1","-1","","","","","","","","","","","","",""
"psychophysics","21","81818","0.0-6.0-0.15","91.41000000000349","","","","37","","","","key","16.732799999999965","683","312.5","true","-1","202.6368","9.8304","5","-1","-1","","","","","","","","","","","","",""
"psychophysics","22","83067","0.0-6.0-0.16","240.23500000021886","","","","39","","","","key","16.733054794520434","683","312.5","true","1","192.8064","9.8304","5","-1","-1","","","","","","","","","","","","",""
"psychophysics","23","86816","0.0-6.0-0.17","2742.3550000003015","","","","39","","","","key","16.733201793721978","683","312.5","true","-1","192.8064","7.864319999999999","6","1","-1","","","","","","","","","","","","",""
"psychophysics","24","89787","0.0-6.0-0.18","1962.9899999999907","","","","39","","","","key","16.73275141242938","683","312.5","true","1","200.67072","7.864319999999999","6","-1","1","","","","","","","","","","","","",""
"psychophysics","25","92825","0.0-6.0-0.19","2024.8299999998271","","","","39","","","","key","16.733916666666726","683","312.5","true","1","200.67072","6.291456","7","-1","-1","","","","","","","","","","","","",""
"psychophysics","26","94493","0.0-6.0-0.20","661.9900000000634","","","","39","","","","key","16.73329292929298","683","312.5","true","1","194.37926399999998","6.291456","7","-1","-1","","","","","","","","","","","","",""
"psychophysics","27","96513","0.0-6.0-0.21","1012.4099999998143","","","","39","","","","key","16.733899999999995","683","312.5","true","1","194.37926399999998","6.291456","7","-1","-1","","","","","","","","","","","","",""
"psychophysics","28","98000","0.0-6.0-0.22","474.27500000003783","","","","37","","","","key","16.73327272727279","683","312.5","true","-1","188.08780799999997","6.291456","7","-1","-1","","","","","","","","","","","","",""
"psychophysics","29","99940","0.0-6.0-0.23","931.355000000156","","","","37","","","","key","16.733130434782588","683","312.5","true","-1","188.08780799999997","6.291456","7","-1","-1","","","","","","","","","","","","",""
"psychophysics","30","101815","0.0-6.0-0.24","869.0400000000373","","","","39","","","","key","16.732990990991066","683","312.5","true","1","181.79635199999996","6.291456","7","-1","-1","","","","","","","","","","","","",""
"psychophysics","31","103536","0.0-6.0-0.25","706.4199999999837","","","","37","","","","key","16.73315686274502","683","312.5","true","-1","181.79635199999996","6.291456","7","-1","-1","","","","","","","","","","","","",""
"psychophysics","32","105314","0.0-6.0-0.26","772.3949999999604","","","","39","","","","key","16.733380952380998","683","312.5","true","1","175.50489599999995","6.291456","7","-1","-1","","","","","","","","","","","","",""
"psychophysics","33","106952","0.0-6.0-0.27","626.8300000001473","","","","37","","","","key","16.734422680412386","683","312.5","true","-1","175.50489599999995","6.291456","7","-1","-1","","","","","","","","","","","","",""
"psychophysics","34","108627","0.0-6.0-0.28","665.2250000001804","","","","37","","","","key","16.733363636363663","683","312.5","true","-1","169.21343999999993","6.291456","7","-1","-1","","","","","","","","","","","","",""
"psychophysics","35","110140","0.0-6.0-0.29","499.4350000001723","","","","39","","","","key","16.733853932584374","683","312.5","true","1","169.21343999999993","6.291456","7","-1","-1","","","","","","","","","","","","",""
"psychophysics","36","112119","0.0-6.0-0.30","971.0249999998341","","","","39","","","","key","16.87774137931034","683","312.5","true","1","162.92198399999992","6.291456","7","-1","-1","","","","","","","","","","","","",""
"psychophysics","37","113807","0.0-6.0-0.31","682.4000000001397","","","","37","","","","key","16.733199999999925","683","312.5","true","-1","162.92198399999992","6.291456","7","-1","-1","","","","","","","","","","","","",""
"psychophysics","38","115455","0.0-6.0-0.32","631.1900000000605","","","","39","","","","key","16.73333673469386","683","312.5","true","1","156.6305279999999","6.291456","7","-1","-1","","","","","","","","","","","","",""
"psychophysics","39","117160","0.0-6.0-0.33","691.1499999996449","","","","39","","","","key","16.73411881188112","683","312.5","true","1","156.6305279999999","6.291456","7","-1","-1","","","","","","","","","","","","",""
"psychophysics","40","119032","0.0-6.0-0.34","857.4800000001269","","","","39","","","","key","16.733207207207194","683","312.5","true","1","150.3390719999999","6.291456","7","-1","-1","","","","","","","","","","","","",""
"psychophysics","41","120508","0.0-6.0-0.35","459.73999999978696","","","","37","","","","key","16.73378160919532","683","312.5","true","-1","150.3390719999999","6.291456","7","-1","-1","","","","","","","","","","","","",""
"psychophysics","42","122003","0.0-6.0-0.36","482.17499999965366","","","","39","","","","key","16.925965517241476","683","312.5","true","1","144.0476159999999","6.291456","7","-1","-1","","","","","","","","","","","","",""
"psychophysics","43","123492","0.0-6.0-0.37","482.1049999995885","","","","39","","","","key","16.733886363636305","683","312.5","true","1","144.0476159999999","6.291456","7","-1","-1","","","","","","","","","","","","",""
"psychophysics","44","125148","0.0-6.0-0.38","651.3200000003853","","","","39","","","","key","16.73351020408154","683","312.5","true","1","137.75615999999988","6.291456","7","-1","-1","","","","","","","","","","","","",""
"psychophysics","45","127719","0.0-6.0-0.39","1562.6350000002276","","","","37","","","","key","16.7335163398693","683","312.5","true","-1","137.75615999999988","6.291456","7","-1","-1","","","","","","","","","","","","",""
"html-keyboard-response","46","131722","0.0-7.0","4000.4900000003545","<p>Well Done !</p><p>Prepare for a new block.</p><p>DON'T EXIT THE FULL SCREEN MODE</p><p>Press the Spacebar to start.</p>","","","32","","","","","","","","","","","","","","","true","158.3082495999999","","","","","","","","","","",""
"psychophysics","47","134448","0.0-8.0-0.0","1718.1800000003132","","","","39","","","","key","16.72149079754603","683","312.5","true","1","180","30","0","-1","","","","","","","","","","","","","",""
"psychophysics","48","136069","0.0-8.0-0.1","608.3349999999045","","","","39","","","","key","16.733781249999993","683","312.5","true","1","180","30","0","-1","-1","","","","","","","","","","","","",""
"psychophysics","49","137432","0.0-8.0-0.2","349.4700000001176","","","","37","","","","key","16.733712500000184","683","312.5","true","-1","150","30","0","-1","-1","","","","","","","","","","","","",""
"psychophysics","50","138910","0.0-8.0-0.3","471.63000000000466","","","","39","","","","key","16.732704545454578","683","312.5","true","1","150","30","0","-1","-1","","","","","","","","","","","","",""
"psychophysics","51","141294","0.0-8.0-0.4","1379.920000000333","","","","39","","","","key","16.734475177304873","683","312.5","true","-1","129","24","1","1","-1","","","","","","","","","","","","",""
"psychophysics","52","142680","0.0-8.0-0.5","376.27000000019325","","","","39","","","","key","16.733024390243994","683","312.5","true","1","153","24","1","-1","1","","","","","","","","","","","","",""
"psychophysics","53","144220","0.0-8.0-0.6","527.0250000003143","","","","39","","","","key","16.733538461538547","683","312.5","true","1","153","19.2","2","-1","-1","","","","","","","","","","","","",""
"psychophysics","54","146442","0.0-8.0-0.7","1211.3100000001432","","","","39","","","","key","16.733772727272562","683","312.5","true","1","133.8","19.2","2","-1","-1","","","","","","","","","","","","",""
"psychophysics","55","147936","0.0-8.0-0.8","480.130000000383","","","","39","","","","key","16.733534090909167","683","312.5","true","1","133.8","19.2","2","-1","-1","","","","","","","","","","","","",""
"psychophysics","56","149895","0.0-8.0-0.9","948.0149999999558","","","","37","","","","key","16.73342241379302","683","312.5","true","-1","129","19.2","2","-1","-1","","","","","","","","","","","","",""
"psychophysics","57","151579","0.0-8.0-0.10","673.2399999996414","","","","37","","","","key","16.733150000000023","683","312.5","true","-1","129","19.2","2","-1","-1","","","","","","","","","","","","",""
"psychophysics","58","153376","0.0-8.0-0.11","780.8599999998405","","","","39","","","","key","16.73385849056594","683","312.5","true","-1","129","15.36","3","1","-1","","","","","","","","","","","","",""
"psychophysics","59","154815","0.0-8.0-0.12","433.51499999972293","","","","39","","","","key","16.733635294117608","683","312.5","true","1","144.36","15.36","3","-1","1","","","","","","","","","","","","",""
"psychophysics","60","155999","0.0-8.0-0.13","174.1600000000326","","","","37","","","","key","16.73292857142847","683","312.5","true","-1","144.36","12.287999999999998","4","-1","-1","","","","","","","","","","","","",""
"psychophysics","61","157321","0.0-8.0-0.14","306.7949999999546","","","","39","","","","key","16.734794871794666","683","312.5","true","1","132.072","12.287999999999998","4","-1","-1","","","","","","","","","","","","",""
"psychophysics","62","158593","0.0-8.0-0.15","257.63000000006286","","","","37","","","","key","16.733906666666734","683","312.5","true","-1","132.072","12.287999999999998","4","-1","-1","","","","","","","","","","","","",""
"psychophysics","63","160096","0.0-8.0-0.16","498.05999999991036","","","","39","","","","key","16.733370786517064","683","312.5","true","1","129","12.287999999999998","4","-1","-1","","","","","","","","","","","","",""
"psychophysics","64","161408","0.0-8.0-0.17","295.1699999998673","","","","37","","","","key","16.733077922078113","683","312.5","true","1","129","9.8304","5","1","-1","","","","","","","","","","","","",""
"psychophysics","65","162642","0.0-8.0-0.18","224.6999999997497","","","","39","","","","key","16.733780821918092","683","312.5","true","1","138.8304","9.8304","5","-1","1","","","","","","","","","","","","",""
"psychophysics","66","163764","0.0-8.0-0.19","115.32500000021537","","","","39","","","","key","16.733318181818255","683","312.5","true","1","138.8304","7.864319999999999","6","-1","-1","","","","","","","","","","","","",""
"psychophysics","67","165276","0.0-8.0-0.20","498.5299999998242","","","","39","","","","key","16.733348314606864","683","312.5","true","-1","130.96608","6.291456","7","1","-1","","","","","","","","","","","","",""
"psychophysics","68","166505","0.0-8.0-0.21","221.79999999981374","","","","37","","","","key","16.73338356164359","683","312.5","true","-1","137.25753600000002","6.291456","7","-1","1","","","","","","","","","","","","",""
"psychophysics","69","167619","0.0-8.0-0.22","108.24999999976717","","","","39","","","","key","16.73139999999996","683","312.5","true","1","137.25753600000002","5.033164800000001","8","-1","-1","","","","","","","","","","","","",""
"psychophysics","70","169283","0.0-8.0-0.23","656.3700000001409","","","","39","","","","key","16.732878787879013","683","312.5","true","-1","132.2243712","4.0265318400000005","9","1","-1","","","","","","","","","","","","",""
"psychophysics","71","170672","0.0-8.0-0.24","372.64999999979045","","","","39","","","","key","16.73526829268312","683","312.5","true","1","136.25090304","4.0265318400000005","9","-1","1","","","","","","","","","","","","",""
"psychophysics","72","171798","0.0-8.0-0.25","109.45500000027823","","","","37","","","","key","16.732606060605825","683","312.5","true","-1","136.25090304","3.2212254720000004","10","-1","-1","","","","","","","","","","","","",""
"psychophysics","73","173281","0.0-8.0-0.26","472.70499999969616","","","","37","","","","key","16.733056818182046","683","312.5","true","-1","133.029677568","3.2212254720000004","10","-1","-1","","","","","","","","","","","","",""
"psychophysics","74","174798","0.0-8.0-0.27","513.4949999996752","","","","39","","","","key","16.733910112359542","683","312.5","true","1","133.029677568","3.2212254720000004","10","-1","-1","","","","","","","","","","","","",""
"psychophysics","75","176620","0.0-8.0-0.28","819.3650000003108","","","","39","","","","key","16.732999999999905","683","312.5","true","-1","129.808452096","2.5769803776000004","11","1","-1","","","","","","","","","","","","",""
"psychophysics","76","178576","0.0-8.0-0.29","947.4749999999476","","","","37","","","","key","16.7333448275862","683","312.5","true","-1","132.3854324736","2.5769803776000004","11","-1","1","","","","","","","","","","","","",""
"psychophysics","77","180645","0.0-8.0-0.30","1058.660000000149","","","","37","","","","key","16.732227642276527","683","312.5","true","1","132.3854324736","2.0615843020800004","12","1","-1","","","","","","","","","","","","",""
"psychophysics","78","182115","0.0-8.0-0.31","465.314999999915","","","","37","","","","key","16.732720930232507","683","312.5","true","-1","134.44701677568","2.0615843020800004","12","-1","1","","","","","","","","","","","","",""
"psychophysics","79","183645","0.0-8.0-0.32","525.3950000001059","","","","37","","","","key","16.733626373626475","683","312.5","true","-1","134.44701677568","1.6492674416640005","13","-1","-1","","","","","","","","","","","","",""
"psychophysics","80","185013","0.0-8.0-0.33","351.9900000001071","","","","37","","","","key","16.733308641975142","683","312.5","true","-1","132.797749334016","1.6492674416640005","13","-1","-1","","","","","","","","","","","","",""
"psychophysics","81","186602","0.0-8.0-0.34","573.2199999997392","","","","39","","","","key","16.733010638297777","683","312.5","true","1","132.797749334016","1.6492674416640005","13","-1","-1","","","","","","","","","","","","",""
"psychophysics","82","188167","0.0-8.0-0.35","562.0249999997031","","","","39","","","","key","16.733597826087056","683","312.5","true","-1","131.148481892352","1.3194139533312006","14","1","-1","","","","","","","","","","","","",""
"psychophysics","83","189552","0.0-8.0-0.36","376.9150000002701","","","","39","","","","key","16.733817073170496","683","312.5","true","1","132.46789584568322","1.3194139533312006","14","-1","1","","","","","","","","","","","","",""
"psychophysics","84","190774","0.0-8.0-0.37","210.89499999969848","","","","39","","","","key","16.73322222222244","683","312.5","true","-1","132.46789584568322","1.0555311626649604","15","1","-1","","","","","","","","","","","","",""
"psychophysics","85","192181","0.0-8.0-0.38","396.47999999989406","","","","37","","","","key","16.733771084337242","683","312.5","true","-1","133.52342700834816","1.0555311626649604","15","-1","1","","","","","","","","","","","","",""
"psychophysics","86","193319","0.0-8.0-0.39","128.14999999999418","","","","39","","","","key","16.734820895522066","683","312.5","true","1","133.52342700834816","1","16","-1","-1","","","","","","","","","","","","",""
"html-keyboard-response","87","195238","0.0-9.0","1930.5549999999348","<p>Well Done !</p><p>Prepare for a new block.</p><p>DON'T EXIT THE FULL SCREEN MODE</p><p>Press the Spacebar to start.</p>","","","32","","","","","","","","","","","","","","","true","132.96734900260046","","","","","","","","","","",""
"psychophysics","88","198037","0.0-10.0-0.0","1785.9699999999139","","","","39","","","","key","16.775083832335234","683","312.5","true","1","180","30","0","-1","","","","","","","","","","","","","",""
"psychophysics","89","199422","0.0-10.0-0.1","381.28000000005704","","","","37","","","","key","16.733146341463264","683","312.5","true","-1","180","30","0","-1","-1","","","","","","","","","","","","",""
"psychophysics","90","200898","0.0-10.0-0.2","470.9049999996496","","","","37","","","","key","16.73241379310346","683","312.5","true","-1","150","30","0","-1","-1","","","","","","","","","","","","",""
"psychophysics","91","202527","0.0-10.0-0.3","618.0799999997544","","","","37","","","","key","16.73284375000003","683","312.5","true","-1","150","30","0","-1","-1","","","","","","","","","","","","",""
"psychophysics","92","204211","0.0-10.0-0.4","676.9949999998207","","","","39","","","","key","16.734400000000022","683","312.5","true","1","129","30","0","-1","-1","","","","","","","","","","","","",""
"psychophysics","93","205787","0.0-10.0-0.5","569.5350000000908","","","","37","","","","key","16.73277419354824","683","312.5","true","-1","129","30","0","-1","-1","","","","","","","","","","","","",""
"psychophysics","94","207480","0.0-10.0-0.6","684.6850000001723","","","","39","","","","key","16.73435999999987","683","312.5","true","1","129","30","0","-1","-1","","","","","","","","","","","","",""
"psychophysics","95","208949","0.0-10.0-0.7","461.6599999999453","","","","37","","","","key","16.73332183908045","683","312.5","true","-1","129","30","0","-1","-1","","","","","","","","","","","","",""
"psychophysics","96","210770","0.0-10.0-0.8","810.474999999773","","","","39","","","","key","16.733324074074282","683","312.5","true","1","129","30","0","-1","-1","","","","","","","","","","","","",""
"psychophysics","97","212954","0.0-10.0-0.9","1178.4950000001118","","","","39","","","","key","16.7332093023256","683","312.5","true","-1","129","24","1","1","-1","","","","","","","","","","","","",""
"psychophysics","98","214628","0.0-10.0-0.10","667.9300000000803","","","","39","","","","key","16.73324242424228","683","312.5","true","1","153","24","1","-1","1","","","","","","","","","","","","",""
"psychophysics","99","216116","0.0-10.0-0.11","483.5050000001502","","","","37","","","","key","16.73386363636349","683","312.5","true","-1","153","19.2","2","-1","-1","","","","","","","","","","","","",""
"psychophysics","100","217384","0.0-10.0-0.12","261.0199999999022","","","","37","","","","key","16.7320133333335","683","312.5","true","-1","133.8","19.2","2","-1","-1","","","","","","","","","","","","",""
"psychophysics","101","218872","0.0-10.0-0.13","478.26499999975204","","","","39","","","","key","16.733204545454512","683","312.5","true","1","133.8","19.2","2","-1","-1","","","","","","","","","","","","",""
"psychophysics","102","220766","0.0-10.0-0.14","883.9299999999639","","","","39","","","","key","16.73338392857139","683","312.5","true","-1","129","15.36","3","1","-1","","","","","","","","","","","","",""
"psychophysics","103","222327","0.0-10.0-0.15","552.5299999999406","","","","37","","","","key","16.734402173912752","683","312.5","true","-1","144.36","15.36","3","-1","1","","","","","","","","","","","","",""
"psychophysics","104","223804","0.0-10.0-0.16","471.3849999998347","","","","39","","","","key","16.732897727272675","683","312.5","true","1","144.36","12.287999999999998","4","-1","-1","","","","","","","","","","","","",""
"psychophysics","105","225629","0.0-10.0-0.17","815.2399999998743","","","","39","","","","key","16.733157407407514","683","312.5","true","-1","132.072","9.8304","5","1","-1","","","","","","","","","","","","",""
"psychophysics","106","227137","0.0-10.0-0.18","505.41500000009546","","","","39","","","","key","16.733921348314805","683","312.5","true","1","141.9024","9.8304","5","-1","1","","","","","","","","","","","","",""
"psychophysics","107","228676","0.0-10.0-0.19","526.2399999996996","","","","39","","","","key","16.733802197802337","683","312.5","true","1","141.9024","7.864319999999999","6","-1","-1","","","","","","","","","","","","",""
"psychophysics","108","230117","0.0-10.0-0.20","428.58000000024913","","","","39","","","","key","16.733611764705753","683","312.5","true","1","134.03808","7.864319999999999","6","-1","-1","","","","","","","","","","","","",""
"psychophysics","109","231576","0.0-10.0-0.21","454.8249999998079","","","","39","","","","key","16.733732558139817","683","312.5","true","1","134.03808","7.864319999999999","6","-1","-1","","","","","","","","","","","","",""
"psychophysics","110","233080","0.0-10.0-0.22","496.21499999964726","","","","39","","","","key","16.73352808988747","683","312.5","true","-1","129","6.291456","7","1","-1","","","","","","","","","","","","",""
"psychophysics","111","234603","0.0-10.0-0.23","513.1699999997218","","","","37","","","","key","16.73342222222224","683","312.5","true","-1","135.291456","6.291456","7","-1","1","","","","","","","","","","","","",""
"psychophysics","112","235813","0.0-10.0-0.24","205.1449999999022","","","","39","","","","key","16.733225352112793","683","312.5","true","1","135.291456","5.033164800000001","8","-1","-1","","","","","","","","","","","","",""
"psychophysics","113","237463","0.0-10.0-0.25","641.2550000000047","","","","39","","","","key","16.73373469387743","683","312.5","true","-1","130.2582912","4.0265318400000005","9","1","-1","","","","","","","","","","","","",""
"psychophysics","114","238735","0.0-10.0-0.26","264.795000000071","","","","37","","","","key","16.73433333333349","683","312.5","true","-1","134.28482304","4.0265318400000005","9","-1","1","","","","","","","","","","","","",""
"psychophysics","115","240210","0.0-10.0-0.27","465.1200000003155","","","","39","","","","key","16.733655172413894","683","312.5","true","1","134.28482304","3.2212254720000004","10","-1","-1","","","","","","","","","","","","",""
"psychophysics","116","242194","0.0-10.0-0.28","975.3850000001839","","","","39","","","","key","16.73346610169491","683","312.5","true","-1","131.06359756799998","2.5769803776000004","11","1","-1","","","","","","","","","","","","",""
"psychophysics","117","243721","0.0-10.0-0.29","512.2850000002363","","","","39","","","","key","16.733266666666733","683","312.5","true","1","133.64057794559997","2.5769803776000004","11","-1","1","","","","","","","","","","","","",""
"psychophysics","118","245256","0.0-10.0-0.30","523.1850000000268","","","","37","","","","key","16.733087912087704","683","312.5","true","-1","133.64057794559997","2.0615843020800004","12","-1","-1","","","","","","","","","","","","",""
"psychophysics","119","246509","0.0-10.0-0.31","242.66999999963446","","","","39","","","","key","16.733109589040993","683","312.5","true","1","131.57899364351996","2.0615843020800004","12","-1","-1","","","","","","","","","","","","",""
"psychophysics","120","247906","0.0-10.0-0.32","391.56999999977415","","","","37","","","","key","16.733132530120553","683","312.5","true","-1","131.57899364351996","2.0615843020800004","12","-1","-1","","","","","","","","","","","","",""
"psychophysics","121","249058","0.0-10.0-0.33","148.20000000006985","","","","39","","","","key","16.73326470588226","683","312.5","true","1","129.51740934143996","2.0615843020800004","12","-1","-1","","","","","","","","","","","","",""
"psychophysics","122","250744","0.0-10.0-0.34","674.3000000001339","","","","37","","","","key","16.733619999999938","683","312.5","true","-1","129.51740934143996","2.0615843020800004","12","-1","-1","","","","","","","","","","","","",""
"psychophysics","123","252255","0.0-10.0-0.35","497.75","","","","39","","","","key","16.73414606741581","683","312.5","true","1","129","2.0615843020800004","12","-1","-1","","","","","","","","","","","","",""
"psychophysics","124","253890","0.0-10.0-0.36","623.9049999999406","","","","39","","","","key","16.7339896907215","683","312.5","true","1","129","2.0615843020800004","12","-1","-1","","","","","","","","","","","","",""
"psychophysics","125","255571","0.0-10.0-0.37","651.6200000001118","","","","37","","","","key","16.733704081632858","683","312.5","true","1","129","1.6492674416640005","13","1","-1","","","","","","","","","","","","",""
"psychophysics","126","257345","0.0-10.0-0.38","768.3199999996868","","","","39","","","","key","16.73368571428582","683","312.5","true","1","130.649267441664","1.6492674416640005","13","-1","1","","","","","","","","","","","","",""
"psychophysics","127","259511","0.0-10.0-0.39","1160.6349999997183","","","","39","","","","key","16.86449218749999","683","312.5","true","-1","130.649267441664","1.3194139533312006","14","1","-1","","","","","","","","","","","","",""
"html-keyboard-response","128","260963","0.0-11.0","1448.1749999999593","<p>Well Done !</p><p>Prepare for a new block.</p><p>DON'T EXIT THE FULL SCREEN MODE</p><p>Press the Spacebar to start.</p>","","","32","","","","","","","","","","","","","","","true","131.1776021061632","","","","","","","","","","",""
"psychophysics","129","262293","0.0-12.0-0.0","323.3399999999092","","","","37","","","","key","16.79689873417742","683","312.5","true","-1","180","30","0","-1","","","","","","","","","","","","","",""
"psychophysics","130","263328","0.0-12.0-0.1","31.699999999953434","","","","39","","","","key","16.733196721312048","683","312.5","true","1","180","30","0","-1","-1","","","","","","","","","","","","",""
"psychophysics","131","264398","0.0-12.0-0.2","66.8800000002957","","","","39","","","","key","16.73401587301614","683","312.5","true","1","150","30","0","-1","-1","","","","","","","","","","","","",""
"psychophysics","132","265569","0.0-12.0-0.3","167.58000000030734","","","","39","","","","key","16.733913043478463","683","312.5","true","1","150","30","0","-1","-1","","","","","","","","","","","","",""
"psychophysics","133","266951","0.0-12.0-0.4","377.55999999988126","","","","39","","","","key","16.734185185184973","683","312.5","true","-1","129","24","1","1","-1","","","","","","","","","","","","",""
"psychophysics","134","268157","0.0-12.0-0.5","200.30999999970663","","","","39","","","","key","16.73300000000007","683","312.5","true","1","153","24","1","-1","1","","","","","","","","","","","","",""
"psychophysics","135","269260","0.0-12.0-0.6","94.18500000040513","","","","39","","","","key","16.734876923076808","683","312.5","true","1","153","19.2","2","-1","-1","","","","","","","","","","","","",""
"psychophysics","136","270519","0.0-12.0-0.7","253.00500000000466","","","","37","","","","key","16.732546666666554","683","312.5","true","-1","133.8","19.2","2","-1","-1","","","","","","","","","","","","",""
"psychophysics","137","272029","0.0-12.0-0.8","504.09499999973923","","","","37","","","","key","16.734483146067483","683","312.5","true","-1","133.8","19.2","2","-1","-1","","","","","","","","","","","","",""
"psychophysics","138","274711","0.0-12.0-0.9","1678.7850000000326","","","","37","","","","key","16.733276729559844","683","312.5","true","-1","129","19.2","2","-1","-1","","","","","","","","","","","","",""
"psychophysics","139","276708","0.0-12.0-0.10","992.6350000000675","","","","37","","","","key","16.73332203389836","683","312.5","true","-1","129","19.2","2","-1","-1","","","","","","","","","","","","",""
"psychophysics","140","278188","0.0-12.0-0.11","471.70000000006985","","","","39","","","","key","16.733681818181307","683","312.5","true","1","129","19.2","2","-1","-1","","","","","","","","","","","","",""
"psychophysics","141","279818","0.0-12.0-0.12","626.0099999999511","","","","37","","","","key","16.7342083333333","683","312.5","true","1","129","15.36","3","1","-1","","","","","","","","","","","","",""
"psychophysics","142","281123","0.0-12.0-0.13","300.94000000006054","","","","39","","","","key","16.73332467532487","683","312.5","true","1","144.36","15.36","3","-1","1","","","","","","","","","","","","",""
"psychophysics","143","282318","0.0-12.0-0.14","192.18499999988126","","","","39","","","","key","16.73423943661963","683","312.5","true","1","144.36","12.287999999999998","4","-1","-1","","","","","","","","","","","","",""
"psychophysics","144","283702","0.0-12.0-0.15","379.8400000000838","","","","39","","","","key","16.732197530864433","683","312.5","true","1","132.072","12.287999999999998","4","-1","-1","","","","","","","","","","","","",""
"psychophysics","145","284853","0.0-12.0-0.16","142.76000000018394","","","","37","","","","key","16.73295588235316","683","312.5","true","-1","132.072","12.287999999999998","4","-1","-1","","","","","","","","","","","","",""
"psychophysics","146","286023","0.0-12.0-0.17","166.6150000000489","","","","39","","","","key","16.733594202898793","683","312.5","true","1","129","12.287999999999998","4","-1","-1","","","","","","","","","","","","",""
"psychophysics","147","287374","0.0-12.0-0.18","347.54499999957625","","","","37","","","","key","16.73449999999939","683","312.5","true","-1","129","12.287999999999998","4","-1","-1","","","","","","","","","","","","",""
"psychophysics","148","292351","0.0-12.0-0.19","3973.9249999997555","","","","39","","","","key","16.733374999999896","683","312.5","true","-1","129","9.8304","5","1","-1","","","","","","","","","","","","",""
"psychophysics","149","293582","0.0-12.0-0.20","222.70999999996275","","","","37","","","","key","16.965250000000296","683","312.5","true","-1","138.8304","9.8304","5","-1","1","","","","","","","","","","","","",""
"psychophysics","150","294602","0.0-12.0-0.21","16.11499999987427","","","","39","","","","key","16.73216666666655","683","312.5","true","1","138.8304","7.864319999999999","6","-1","-1","","","","","","","","","","","","",""
"psychophysics","151","296141","0.0-12.0-0.22","532.1350000003586","","","","39","","","","key","16.7327912087913","683","312.5","true","-1","130.96608","6.291456","7","1","-1","","","","","","","","","","","","",""
"psychophysics","152","297452","0.0-12.0-0.23","307.1900000000023","","","","39","","","","key","16.733155844156332","683","312.5","true","1","137.25753600000002","6.291456","7","-1","1","","","","","","","","","","","","",""
"psychophysics","153","298961","0.0-12.0-0.24","504.9950000002282","","","","37","","","","key","16.73269662921372","683","312.5","true","-1","137.25753600000002","5.033164800000001","8","-1","-1","","","","","","","","","","","","",""
"psychophysics","154","300158","0.0-12.0-0.25","192.20499999984168","","","","39","","","","key","16.7334788732393","683","312.5","true","1","132.2243712","5.033164800000001","8","-1","-1","","","","","","","","","","","","",""
"psychophysics","155","301815","0.0-12.0-0.26","655.5149999998976","","","","37","","","","key","16.733571428571572","683","312.5","true","1","132.2243712","4.0265318400000005","9","1","-1","","","","","","","","","","","","",""
"psychophysics","156","303173","0.0-12.0-0.27","352.87000000011176","","","","37","","","","key","16.733337500000196","683","312.5","true","-1","136.25090304","4.0265318400000005","9","-1","1","","","","","","","","","","","","",""
"psychophysics","157","304379","0.0-12.0-0.28","202.8949999999022","","","","39","","","","key","16.733774647887298","683","312.5","true","1","136.25090304","3.2212254720000004","10","-1","-1","","","","","","","","","","","","",""
"psychophysics","158","306019","0.0-12.0-0.29","636.6450000000186","","","","39","","","","key","16.733711340206018","683","312.5","true","-1","133.029677568","2.5769803776000004","11","1","-1","","","","","","","","","","","","",""
"psychophysics","159","307854","0.0-12.0-0.30","831.2300000002142","","","","37","","","","key","16.733697247706406","683","312.5","true","-1","135.6066579456","2.5769803776000004","11","-1","1","","","","","","","","","","","","",""
"psychophysics","160","309619","0.0-12.0-0.31","761.8750000001164","","","","39","","","","key","16.734365384615487","683","312.5","true","-1","135.6066579456","2.0615843020800004","12","1","-1","","","","","","","","","","","","",""
"psychophysics","161","310868","0.0-12.0-0.32","245.15500000008615","","","","37","","","","key","16.73322972973","683","312.5","true","-1","137.66824224768","2.0615843020800004","12","-1","1","","","","","","","","","","","","",""
"psychophysics","162","312512","0.0-12.0-0.33","641.1899999998277","","","","39","","","","key","16.733680412371296","683","312.5","true","1","137.66824224768","1.6492674416640005","13","-1","-1","","","","","","","","","","","","",""
"psychophysics","163","313947","0.0-12.0-0.34","431.20000000001164","","","","39","","","","key","16.732294117647005","683","312.5","true","-1","136.01897480601602","1.3194139533312006","14","1","-1","","","","","","","","","","","","",""
"psychophysics","164","315651","0.0-12.0-0.35","701.2749999999069","","","","39","","","","key","16.733277227722642","683","312.5","true","1","137.33838875934723","1.3194139533312006","14","-1","1","","","","","","","","","","","","",""
"psychophysics","165","319460","0.0-12.0-0.36","2805.434999999765","","","","37","","","","key","16.733225663716695","683","312.5","true","1","137.33838875934723","1.0555311626649604","15","1","-1","","","","","","","","","","","","",""
"psychophysics","166","321150","0.0-12.0-0.37","681.254999999539","","","","37","","","","key","16.732999999999883","683","312.5","true","-1","138.39391992201217","1.0555311626649604","15","-1","1","","","","","","","","","","","","",""
"psychophysics","167","322830","0.0-12.0-0.38","674.6350000003004","","","","37","","","","key","16.73316999999981","683","312.5","true","-1","138.39391992201217","1","16","-1","-1","","","","","","","","","","","","",""
"psychophysics","168","324159","0.0-12.0-0.39","326.4300000000512","","","","39","","","","key","16.733653846153548","683","312.5","true","1","137.39391992201217","1","16","-1","-1","","","","","","","","","","","","",""
"html-keyboard-response","169","325901","0.0-13.0","1739.3700000002282","<p>Well Done !</p><p>Prepare for a new block.</p><p>DON'T EXIT THE FULL SCREEN MODE</p><p>Press the Spacebar to start.</p>","","","32","","","","","","","","","","","","","","","true","136.09383590168713","","","","","","","","","","",""
"html-keyboard-response","170","326010","0.0-14.0","null","","","","null","","","","","","","","","","","","","","","","","139.63675915261265","true","151.2735183052253","","","","","","","",""
"instructions","171","340736","0.0-15.0","14724.295000000042","","","","","","","[{""page_index"":0,""viewing_time"":7188.4949999994715},{""page_index"":1,""viewing_time"":2318.1800000001676},{""page_index"":2,""viewing_time"":5217.190000000352}]","","","","","","","","","","","","","","","","","","","","","","","",""
"psychophysics","172","343744","0.0-16.0-0.0","null","","","","null","","","","key","16.866483333333356","683","312.5","","","","","","","","","","","","","","","","","","","",""
"psychophysics","173","344249","0.0-16.0-1.0","null","","","","null","","","","key","16.734931034483576","683","312.5","","","","","","","","","","","","","151","-1","4","false","","","",""
"psychophysics","174","344716","0.0-16.0-2.0","462.84499999997206","","","","77","","","","key","16.7333333333329","683","312.5","","","","","","","","","","","","","","","","","","","",""
"psychophysics","175","345719","0.0-16.0-0.1","null","","","","null","","","","key","16.73332203389836","683","312.5","","","","","","","","","","","","","","","","","","","",""
"psychophysics","176","346223","0.0-16.0-1.1","null","","","","null","","","","key","16.733896551723994","683","312.5","","","","","","","","","","","","","151","1","2","false","","","",""
"psychophysics","177","346398","0.0-16.0-2.1","172.39499999961117","","","","90","","","","key","16.736666666667183","683","312.5","","","","","","","","","","","","","","","","","","","",""
"psychophysics","178","347400","0.0-16.0-0.2","null","","","","null","","","","key","16.733474576270595","683","312.5","","","","","","","","","","","","","","","","","","","",""
"psychophysics","179","347904","0.0-16.0-1.2","null","","","","null","","","","key","16.734000000000755","683","312.5","","","","","","","","","","","","","151","1","6","false","","","",""
"psychophysics","180","348067","0.0-16.0-2.2","154.8250000005355","","","","77","","","","key","16.744222222219427","683","312.5","","","","","","","","","","","","","","","","","","","",""
"psychophysics","181","349070","0.0-16.0-0.3","null","","","","null","","","","key","16.732661016949383","683","312.5","","","","","","","","","","","","","","","","","","","",""
"psychophysics","182","349573","0.0-16.0-1.3","null","","","","null","","","","key","16.73103448275902","683","312.5","","","","","","","","","","","","","151","-1","2","false","","","",""
"psychophysics","183","349671","0.0-16.0-2.3","95.84499999985565","","","","90","","","","key","16.750799999991433","683","312.5","","","","","","","","","","","","","","","","","","","",""
"psychophysics","184","350685","0.0-16.0-0.4","null","","","","null","","","","key","16.73413559322056","683","312.5","","","","","","","","","","","","","","","","","","","",""
"psychophysics","185","351192","0.0-16.0-1.4","null","","","","null","","","","key","16.732966666666712","683","312.5","","","","","","","","","","","","","151","1","4","false","","","",""
"psychophysics","186","351329","0.0-16.0-2.4","133.98500000039348","","","","77","","","","key","16.733428571431432","683","312.5","","","","","","","","","","","","","","","","","","","",""
"psychophysics","187","352342","0.0-16.0-0.5","null","","","","null","","","","key","16.73408474576249","683","312.5","","","","","","","","","","","","","","","","","","","",""
"psychophysics","188","352850","0.0-16.0-1.5","null","","","","null","","","","key","16.733233333334404","683","312.5","","","","","","","","","","","","","151","1","0","false","","","",""
"psychophysics","189","353185","0.0-16.0-2.5","331.9949999995297","","","","90","","","","key","16.73226315789476","683","312.5","","","","","","","","","","","","","","","","","","","",""
"psychophysics","190","354190","0.0-16.0-0.6","null","","","","null","","","","key","16.733203389830848","683","312.5","","","","","","","","","","","","","","","","","","","",""
"psychophysics","191","354700","0.0-16.0-1.6","null","","","","null","","","","key","16.7314137931038","683","312.5","","","","","","","","","","","","","151","-1","0","false","","","",""
"psychophysics","192","354792","0.0-16.0-2.6","82.73000000009779","","","","90","","","","key","16.71339999999618","683","312.5","","","","","","","","","","","","","","","","","","","",""
"psychophysics","193","355799","0.0-16.0-0.7","null","","","","null","","","","key","16.732033898305126","683","312.5","","","","","","","","","","","","","","","","","","","",""
"psychophysics","194","356307","0.0-16.0-1.7","null","","","","null","","","","key","16.733620689655975","683","312.5","","","","","","","","","","","","","151","-1","6","false","","","",""
"psychophysics","195","356564","0.0-16.0-2.7","247.6850000002887","","","","77","","","","key","16.73739999999913","683","312.5","","","","","","","","","","","","","","","","","","","",""
"psychophysics","196","357579","0.0-16.0-0.8","null","","","","null","","","","key","16.733745762711326","683","312.5","","","","","","","","","","","","","","","","","","","",""
"psychophysics","197","358099","0.0-16.0-1.8","null","","","","null","","","","key","16.733066666665643","683","312.5","","","","","","","","","","","","","151","-1","5","false","","","",""
"psychophysics","198","358221","0.0-16.0-2.8","113.41499999980442","","","","77","","","","key","16.737857142862463","683","312.5","","","","","","","","","","","","","","","","","","","",""
"psychophysics","199","359233","0.0-16.0-0.9","null","","","","null","","","","key","16.73477966101718","683","312.5","","","","","","","","","","","","","","","","","","","",""
"psychophysics","200","359739","0.0-16.0-1.9","null","","","","null","","","","key","16.731466666667256","683","312.5","","","","","","","","","","","","","151","1","5","false","","","",""
"psychophysics","201","359936","0.0-16.0-2.9","195.12000000028638","","","","77","","","","key","16.743899999995485","683","312.5","","","","","","","","","","","","","","","","","","","",""
"psychophysics","202","360943","0.0-16.0-0.10","null","","","","null","","","","key","16.732254237288775","683","312.5","","","","","","","","","","","","","","","","","","","",""
"psychophysics","203","361447","0.0-16.0-1.10","null","","","","null","","","","key","16.732766666666915","683","312.5","","","","","","","","","","","","","151","-1","3","false","","","",""
"psychophysics","204","361560","0.0-16.0-2.10","107.629999999539","","","","77","","","","key","16.73619999999646","683","312.5","","","","","","","","","","","","","","","","","","","",""
"psychophysics","205","362582","0.0-16.0-0.11","null","","","","null","","","","key","16.733166666666513","683","312.5","","","","","","","","","","","","","","","","","","","",""
"psychophysics","206","363087","0.0-16.0-1.11","null","","","","null","","","","key","16.732200000000496","683","312.5","","","","","","","","","","","","","151","1","3","false","","","",""
"psychophysics","207","363241","0.0-16.0-2.11","148.38500000041677","","","","77","","","","key","16.7300000000032","683","312.5","","","","","","","","","","","","","","","","","","","",""
"psychophysics","208","364250","0.0-16.0-0.12","null","","","","null","","","","key","16.73474576271147","683","312.5","","","","","","","","","","","","","","","","","","","",""
"psychophysics","209","364757","0.0-16.0-1.12","null","","","","null","","","","key","16.73296551724117","683","312.5","","","","","","","","","","","","","151","-1","6","false","","","",""
"psychophysics","210","364920","0.0-16.0-2.12","154.7049999999581","","","","77","","","","key","16.73411111110666","683","312.5","","","","","","","","","","","","","","","","","","","",""
"psychophysics","211","365928","0.0-16.0-0.13","null","","","","null","","","","key","16.732779661016895","683","312.5","","","","","","","","","","","","","","","","","","","",""
"psychophysics","212","366434","0.0-16.0-1.13","null","","","","null","","","","key","16.732466666666248","683","312.5","","","","","","","","","","","","","151","-1","4","false","","","",""
"psychophysics","213","366563","0.0-16.0-2.13","123.65500000031898","","","","77","","","","key","16.729833333326194","683","312.5","","","","","","","","","","","","","","","","","","","",""
"psychophysics","214","367575","0.0-16.0-0.14","null","","","","null","","","","key","16.73354999999962","683","312.5","","","","","","","","","","","","","","","","","","","",""
"psychophysics","215","368087","0.0-16.0-1.14","null","","","","null","","","","key","16.7333793103442","683","312.5","","","","","","","","","","","","","151","1","5","false","","","",""
"psychophysics","216","368242","0.0-16.0-2.14","146.4200000000419","","","","77","","","","key","16.737499999995634","683","312.5","","","","","","","","","","","","","","","","","","","",""
"psychophysics","217","369256","0.0-16.0-0.15","null","","","","null","","","","key","16.734300000000317","683","312.5","","","","","","","","","","","","","","","","","","","",""
"psychophysics","218","369760","0.0-16.0-1.15","null","","","","null","","","","key","16.73172413793208","683","312.5","","","","","","","","","","","","","151","1","6","false","","","",""
"psychophysics","219","369826","0.0-16.0-2.15","41.07999999995809","","","","77","","","","key","16.720000000010867","683","312.5","","","","","","","","","","","","","","","","","","","",""
"psychophysics","220","370831","0.0-16.0-0.16","null","","","","null","","","","key","17.02381034482748","683","312.5","","","","","","","","","","","","","","","","","","","",""
"psychophysics","221","371337","0.0-16.0-1.16","null","","","","null","","","","key","16.73353333333507","683","312.5","","","","","","","","","","","","","151","1","2","false","","","",""
"psychophysics","222","371557","0.0-16.0-2.16","215.3649999999907","","","","90","","","","key","16.72874999999961","683","312.5","","","","","","","","","","","","","","","","","","","",""
"psychophysics","223","372572","0.0-16.0-0.17","null","","","","null","","","","key","16.734271186440434","683","312.5","","","","","","","","","","","","","","","","","","","",""
"psychophysics","224","373077","0.0-16.0-1.17","null","","","","null","","","","key","16.734900000000682","683","312.5","","","","","","","","","","","","","151","-1","0","false","","","",""
"psychophysics","225","373482","0.0-16.0-2.17","400.0299999997951","","","","90","","","","key","16.73452173912918","683","312.5","","","","","","","","","","","","","","","","","","","",""
"psychophysics","226","374490","0.0-16.0-0.18","null","","","","null","","","","key","16.73328813559364","683","312.5","","","","","","","","","","","","","","","","","","","",""
"psychophysics","227","374995","0.0-16.0-1.18","null","","","","null","","","","key","16.73044827586072","683","312.5","","","","","","","","","","","","","151","-1","5","false","","","",""
"psychophysics","228","375120","0.0-16.0-2.18","121.51999999972759","","","","77","","","","key","16.73399999999674","683","312.5","","","","","","","","","","","","","","","","","","","",""
"psychophysics","229","376123","0.0-16.0-0.19","null","","","","null","","","","key","16.734389830507947","683","312.5","","","","","","","","","","","","","","","","","","","",""
"psychophysics","230","376630","0.0-16.0-1.19","null","","","","null","","","","key","16.732172413791353","683","312.5","","","","","","","","","","","","","151","1","3","false","","","",""
"psychophysics","231","376740","0.0-16.0-2.19","106.7999999995809","","","","77","","","","key","16.723599999991713","683","312.5","","","","","","","","","","","","","","","","","","","",""
"psychophysics","232","377745","0.0-16.0-0.20","null","","","","null","","","","key","17.016237288135326","683","312.5","","","","","","","","","","","","","","","","","","","",""
"psychophysics","233","378248","0.0-16.0-1.20","null","","","","null","","","","key","16.733103448276182","683","312.5","","","","","","","","","","","","","151","1","4","false","","","",""
"psychophysics","234","378350","0.0-16.0-2.20","97.22499999951106","","","","77","","","","key","16.721199999994134","683","312.5","","","","","","","","","","","","","","","","","","","",""
"psychophysics","235","379366","0.0-16.0-0.21","null","","","","null","","","","key","16.734559322034514","683","312.5","","","","","","","","","","","","","","","","","","","",""
"psychophysics","236","379871","0.0-16.0-1.21","null","","","","null","","","","key","16.73346666666718","683","312.5","","","","","","","","","","","","","151","1","0","false","","","",""
"psychophysics","237","379957","0.0-16.0-2.21","81.53000000037719","","","","77","","","","key","16.728750000009313","683","312.5","","","","","","","","","","","","","","","","","","","",""
"psychophysics","238","380972","0.0-16.0-0.22","null","","","","null","","","","key","16.733728813558965","683","312.5","","","","","","","","","","","","","","","","","","","",""
"psychophysics","239","381477","0.0-16.0-1.22","null","","","","null","","","","key","16.731700000000032","683","312.5","","","","","","","","","","","","","151","-1","3","false","","","",""
"psychophysics","240","381605","0.0-16.0-2.22","123.63000000006286","","","","77","","","","key","16.725666666665347","683","312.5","","","","","","","","","","","","","","","","","","","",""
"psychophysics","241","382612","0.0-16.0-0.23","null","","","","null","","","","key","16.732762711864535","683","312.5","","","","","","","","","","","","","","","","","","","",""
"psychophysics","242","383117","0.0-16.0-1.23","null","","","","null","","","","key","16.73456666666704","683","312.5","","","","","","","","","","","","","151","-1","2","false","","","",""
"psychophysics","243","383221","0.0-16.0-2.23","100.11000000033528","","","","77","","","","key","16.73299999999581","683","312.5","","","","","","","","","","","","","","","","","","","",""
"html-keyboard-response","244","385434","0.0-17.0","2210.190000000701","<p>Well Done !</p><p>Training Complete. Press the spacebar to start.</p><p>DON'T EXIT THE FULL SCREEN MODE</p>","","","32","","","","","","","","","","","","","","","","","","","","","","","","","","",""
"psychophysics","245","388453","0.0-18.0-0.0","null","","","","null","","","","key","16.714583333333334","683","312.5","","","","","","","","","","","","","","","","","","","",""
"psychophysics","246","388971","0.0-18.0-1.0","null","","","","null","","","","key","17.333321428570862","683","312.5","","","","","","","","","","","","","151","-1","3","true","","","",""
"psychophysics","247","389240","0.0-18.0-2.0","258.7950000006822","","","","77","","","","key","16.734599999998075","683","312.5","","","","","","","","","","","","","","","","","","","",""
"psychophysics","248","390245","0.0-18.0-0.1","null","","","","null","","","","key","16.73289999999979","683","312.5","","","","","","","","","","","","","","","","","","","",""
"psychophysics","249","390750","0.0-18.0-1.1","null","","","","null","","","","key","16.734655172413554","683","312.5","","","","","","","","","","","","","151","1","6","true","","","",""
"psychophysics","250","390970","0.0-18.0-2.1","216.26500000001397","","","","77","","","","key","16.73216666666849","683","312.5","","","","","","","","","","","","","","","","","","","",""
"psychophysics","251","391974","0.0-18.0-0.2","null","","","","null","","","","key","16.733423728813513","683","312.5","","","","","","","","","","","","","","","","","","","",""
"psychophysics","252","392484","0.0-18.0-1.2","null","","","","null","","","","key","16.734448275862036","683","312.5","","","","","","","","","","","","","151","1","3","true","","","",""
"psychophysics","253","392713","0.0-18.0-2.2","219.29000000003725","","","","77","","","","key","16.73623076923048","683","312.5","","","","","","","","","","","","","","","","","","","",""
"psychophysics","254","393723","0.0-18.0-0.3","null","","","","null","","","","key","16.73355932203437","683","312.5","","","","","","","","","","","","","","","","","","","",""
"psychophysics","255","394228","0.0-18.0-1.3","null","","","","null","","","","key","16.732700000000964","683","312.5","","","","","","","","","","","","","151","1","2","true","","","",""
"psychophysics","256","398522","0.0-18.0-2.3","4288.425000000629","","","","90","","","","key","16.732984313725577","683","312.5","","","","","","","","","","","","","","","","","","","",""
"psychophysics","257","399530","0.0-18.0-0.4","null","","","","null","","","","key","16.73316949152514","683","312.5","","","","","","","","","","","","","","","","","","","",""
"psychophysics","258","400039","0.0-18.0-1.4","null","","","","null","","","","key","16.734499999999148","683","312.5","","","","","","","","","","","","","151","1","5","true","","","",""
"psychophysics","259","400925","0.0-18.0-2.4","882.1550000002608","","","","77","","","","key","16.732750000000053","683","312.5","","","","","","","","","","","","","","","","","","","",""
"psychophysics","260","401929","0.0-18.0-0.5","null","","","","null","","","","key","16.73477966101718","683","312.5","","","","","","","","","","","","","","","","","","","",""
"psychophysics","261","402441","0.0-18.0-1.5","null","","","","null","","","","key","16.735586206898382","683","312.5","","","","","","","","","","","","","151","-1","2","true","","","",""
"psychophysics","262","402801","0.0-18.0-2.5","351.72499999956926","","","","90","","","","key","16.732190476192738","683","312.5","","","","","","","","","","","","","","","","","","","",""
"psychophysics","263","403814","0.0-18.0-0.6","null","","","","null","","","","key","16.73271186440745","683","312.5","","","","","","","","","","","","","","","","","","","",""
"psychophysics","264","404318","0.0-18.0-1.6","null","","","","null","","","","key","16.73393333333273","683","312.5","","","","","","","","","","","","","151","1","0","true","","","",""
"psychophysics","265","404651","0.0-18.0-2.6","327.57000000035623","","","","77","","","","key","16.73433333333297","683","312.5","","","","","","","","","","","","","","","","","","","",""
"psychophysics","266","405657","0.0-18.0-0.7","null","","","","null","","","","key","16.734216666666907","683","312.5","","","","","","","","","","","","","","","","","","","",""
"psychophysics","267","406172","0.0-18.0-1.7","null","","","","null","","","","key","16.73196551723984","683","312.5","","","","","","","","","","","","","151","-1","4","true","","","",""
"psychophysics","268","406634","0.0-18.0-2.7","453.0150000000722","","","","77","","","","key","16.733148148147546","683","312.5","","","","","","","","","","","","","","","","","","","",""
"psychophysics","269","407645","0.0-18.0-0.8","null","","","","null","","","","key","16.73515254237306","683","312.5","","","","","","","","","","","","","","","","","","","",""
"psychophysics","270","408150","0.0-18.0-1.8","null","","","","null","","","","key","16.731666666667056","683","312.5","","","","","","","","","","","","","151","-1","0","true","","","",""
"psychophysics","271","408287","0.0-18.0-2.8","132.1349999998347","","","","90","","","","key","16.726857142855547","683","312.5","","","","","","","","","","","","","","","","","","","",""
"psychophysics","272","409302","0.0-18.0-0.9","null","","","","null","","","","key","16.734457627118374","683","312.5","","","","","","","","","","","","","","","","","","","",""
"psychophysics","273","409807","0.0-18.0-1.9","null","","","","null","","","","key","16.73456666666704","683","312.5","","","","","","","","","","","","","151","-1","6","true","","","",""
"psychophysics","274","410018","0.0-18.0-2.9","187.07999999966705","","","","77","","","","key","16.733545454547063","683","312.5","","","","","","","","","","","","","","","","","","","",""
"psychophysics","275","411025","0.0-18.0-0.10","null","","","","null","","","","key","16.73410169491584","683","312.5","","","","","","","","","","","","","","","","","","","",""
"psychophysics","276","411544","0.0-18.0-1.10","null","","","","null","","","","key","16.731866666666853","683","312.5","","","","","","","","","","","","","151","-1","5","true","","","",""
"psychophysics","277","411651","0.0-18.0-2.10","98.44000000070082","","","","77","","","","key","16.731833333333878","683","312.5","","","","","","","","","","","","","","","","","","","",""
"psychophysics","278","412665","0.0-18.0-0.11","null","","","","null","","","","key","16.733474576270595","683","312.5","","","","","","","","","","","","","","","","","","","",""
"psychophysics","279","413170","0.0-18.0-1.11","null","","","","null","","","","key","16.732566666665175","683","312.5","","","","","","","","","","","","","151","1","4","true","","","",""
"psychophysics","280","413357","0.0-18.0-2.11","182.5500000003958","","","","77","","","","key","16.72989999999991","683","312.5","","","","","","","","","","","","","","","","","","","",""
"psychophysics","281","414362","0.0-18.0-0.12","null","","","","null","","","","key","16.73250847457616","683","312.5","","","","","","","","","","","","","","","","","","","",""
"psychophysics","282","414866","0.0-18.0-1.12","null","","","","null","","","","key","16.733999999998748","683","312.5","","","","","","","","","","","","","151","-1","3","true","","","",""
"psychophysics","283","415088","0.0-18.0-2.12","218.54499999975087","","","","77","","","","key","16.72858333333473","683","312.5","","","","","","","","","","","","","","","","","","","",""
"psychophysics","284","416096","0.0-18.0-0.13","null","","","","null","","","","key","16.732728813558825","683","312.5","","","","","","","","","","","","","","","","","","","",""
"psychophysics","285","416601","0.0-18.0-1.13","null","","","","null","","","","key","16.731200000001504","683","312.5","","","","","","","","","","","","","151","1","6","true","","","",""
"psychophysics","286","416813","0.0-18.0-2.13","207.09499999973923","","","","77","","","","key","16.734545454541646","683","312.5","","","","","","","","","","","","","","","","","","","",""
"psychophysics","287","417818","0.0-18.0-0.14","null","","","","null","","","","key","16.734305084745156","683","312.5","","","","","","","","","","","","","","","","","","","",""
"psychophysics","288","418324","0.0-18.0-1.14","null","","","","null","","","","key","17.310137931034692","683","312.5","","","","","","","","","","","","","151","1","0","true","","","",""
"psychophysics","289","418463","0.0-18.0-2.14","129.94499999965774","","","","77","","","","key","16.730857142854283","683","312.5","","","","","","","","","","","","","","","","","","","",""
"psychophysics","290","419477","0.0-18.0-0.15","null","","","","null","","","","key","16.73164406779688","683","312.5","","","","","","","","","","","","","","","","","","","",""
"psychophysics","291","419982","0.0-18.0-1.15","null","","","","null","","","","key","16.73326666666544","683","312.5","","","","","","","","","","","","","151","-1","2","true","","","",""
"psychophysics","292","420052","0.0-18.0-2.15","68.33499999996275","","","","90","","","","key","16.739000000001397","683","312.5","","","","","","","","","","","","","","","","","","","",""
"psychophysics","293","421061","0.0-18.0-0.16","null","","","","null","","","","key","16.733542372881026","683","312.5","","","","","","","","","","","","","","","","","","","",""
"psychophysics","294","421564","0.0-18.0-1.16","null","","","","null","","","","key","16.73620689655092","683","312.5","","","","","","","","","","","","","151","1","2","true","","","",""
"psychophysics","295","421679","0.0-18.0-2.16","89.68000000005122","","","","77","","","","key","16.719166666667054","683","312.5","","","","","","","","","","","","","","","","","","","",""
"psychophysics","296","422690","0.0-18.0-0.17","null","","","","null","","","","key","16.73477966101718","683","312.5","","","","","","","","","","","","","","","","","","","",""
"psychophysics","297","423208","0.0-18.0-1.17","null","","","","null","","","","key","16.73216666666558","683","312.5","","","","","","","","","","","","","151","-1","5","true","","","",""
"psychophysics","298","423324","0.0-18.0-2.17","107.960000000312","","","","77","","","","key","16.73916666666628","683","312.5","","","","","","","","","","","","","","","","","","","",""
"psychophysics","299","424330","0.0-18.0-0.18","null","","","","null","","","","key","16.73256666666615","683","312.5","","","","","","","","","","","","","","","","","","","",""
"psychophysics","300","424832","0.0-18.0-1.18","null","","","","null","","","","key","16.732310344828374","683","312.5","","","","","","","","","","","","","151","1","3","true","","","",""
"psychophysics","301","425030","0.0-18.0-2.18","195.17999999970198","","","","77","","","","key","16.733500000002095","683","312.5","","","","","","","","","","","","","","","","","","","",""
"psychophysics","302","426035","0.0-18.0-0.19","null","","","","null","","","","key","16.735237288135853","683","312.5","","","","","","","","","","","","","","","","","","","",""
"psychophysics","303","426552","0.0-18.0-1.19","null","","","","null","","","","key","16.731199999999564","683","312.5","","","","","","","","","","","","","151","1","5","true","","","",""
"psychophysics","304","426643","0.0-18.0-2.19","84.75999999971827","","","","77","","","","key","16.74880000000121","683","312.5","","","","","","","","","","","","","","","","","","","",""
"psychophysics","305","427644","0.0-18.0-0.20","null","","","","null","","","","key","16.733000000000544","683","312.5","","","","","","","","","","","","","","","","","","","",""
"psychophysics","306","428159","0.0-18.0-1.20","null","","","","null","","","","key","16.732482758621636","683","312.5","","","","","","","","","","","","","151","-1","4","true","","","",""
"psychophysics","307","428270","0.0-18.0-2.20","105.88999999978114","","","","77","","","","key","16.730999999999767","683","312.5","","","","","","","","","","","","","","","","","","","",""
"psychophysics","308","429272","0.0-18.0-0.21","null","","","","null","","","","key","16.73486440677997","683","312.5","","","","","","","","","","","","","","","","","","","",""
"psychophysics","309","429784","0.0-18.0-1.21","null","","","","null","","","","key","16.735931034482903","683","312.5","","","","","","","","","","","","","151","1","4","true","","","",""
"psychophysics","310","429938","0.0-18.0-2.21","147.97999999974854","","","","77","","","","key","16.74344444444351","683","312.5","","","","","","","","","","","","","","","","","","","",""
"psychophysics","311","430940","0.0-18.0-0.22","null","","","","null","","","","key","16.734389830507947","683","312.5","","","","","","","","","","","","","","","","","","","",""
"psychophysics","312","431443","0.0-18.0-1.22","null","","","","null","","","","key","16.73410344827551","683","312.5","","","","","","","","","","","","","151","-1","6","true","","","",""
"psychophysics","313","431616","0.0-18.0-2.22","167.95499999989988","","","","77","","","","key","16.736444444447343","683","312.5","","","","","","","","","","","","","","","","","","","",""
"psychophysics","314","432621","0.0-18.0-0.23","null","","","","null","","","","key","16.732661016949383","683","312.5","","","","","","","","","","","","","","","","","","","",""
"psychophysics","315","433124","0.0-18.0-1.23","null","","","","null","","","","key","16.73058620689774","683","312.5","","","","","","","","","","","","","151","-1","0","true","","","",""
"psychophysics","316","433321","0.0-18.0-2.23","193.94000000011874","","","","90","","","","key","16.732000000002287","683","312.5","","","","","","","","","","","","","","","","","","","",""
"psychophysics","317","434335","0.0-18.0-0.24","null","","","","null","","","","key","16.734576271185887","683","312.5","","","","","","","","","","","","","","","","","","","",""
"psychophysics","318","434840","0.0-18.0-1.24","null","","","","null","","","","key","16.734066666666575","683","312.5","","","","","","","","","","","","","151","-1","2","true","","","",""
"psychophysics","319","434968","0.0-18.0-2.24","124.06000000005588","","","","90","","","","key","16.73483333334055","683","312.5","","","","","","","","","","","","","","","","","","","",""
"psychophysics","320","435974","0.0-18.0-0.25","null","","","","null","","","","key","16.734169491525282","683","312.5","","","","","","","","","","","","","","","","","","","",""
"psychophysics","321","436480","0.0-18.0-1.25","null","","","","null","","","","key","16.735066666665563","683","312.5","","","","","","","","","","","","","151","-1","5","true","","","",""
"psychophysics","322","436668","0.0-18.0-2.25","160.87000000063563","","","","77","","","","key","16.733500000002095","683","312.5","","","","","","","","","","","","","","","","","","","",""
"psychophysics","323","437683","0.0-18.0-0.26","null","","","","null","","","","key","16.73484745762662","683","312.5","","","","","","","","","","","","","","","","","","","",""
"psychophysics","324","438190","0.0-18.0-1.26","null","","","","null","","","","key","16.73086666666592","683","312.5","","","","","","","","","","","","","151","1","6","true","","","",""
"psychophysics","325","438366","0.0-18.0-2.26","172.5649999998859","","","","77","","","","key","16.724333333330126","683","312.5","","","","","","","","","","","","","","","","","","","",""
"psychophysics","326","439370","0.0-18.0-0.27","null","","","","null","","","","key","16.73333898305072","683","312.5","","","","","","","","","","","","","","","","","","","",""
"psychophysics","327","439873","0.0-18.0-1.27","null","","","","null","","","","key","16.730413793102468","683","312.5","","","","","","","","","","","","","151","1","4","true","","","",""
"psychophysics","328","440032","0.0-18.0-2.27","152.03999999997905","","","","77","","","","key","16.73077777777669","683","312.5","","","","","","","","","","","","","","","","","","","",""
"psychophysics","329","441035","0.0-18.0-0.28","null","","","","null","","","","key","16.733898305084548","683","312.5","","","","","","","","","","","","","","","","","","","",""
"psychophysics","330","441549","0.0-18.0-1.28","null","","","","null","","","","key","16.732724137931402","683","312.5","","","","","","","","","","","","","151","-1","0","true","","","",""
"psychophysics","331","441642","0.0-18.0-2.28","84.41499999939697","","","","77","","","","key","16.72160000000149","683","312.5","","","","","","","","","","","","","","","","","","","",""
"psychophysics","332","442652","0.0-18.0-0.29","null","","","","null","","","","key","16.73484745762761","683","312.5","","","","","","","","","","","","","","","","","","","",""
"psychophysics","333","443157","0.0-18.0-1.29","null","","","","null","","","","key","16.733633333334","683","312.5","","","","","","","","","","","","","151","1","5","true","","","",""
"psychophysics","334","443335","0.0-18.0-2.29","173.94999999942956","","","","77","","","","key","16.738888888891477","683","312.5","","","","","","","","","","","","","","","","","","","",""
"psychophysics","335","444342","0.0-18.0-0.30","null","","","","null","","","","key","17.020931034483386","683","312.5","","","","","","","","","","","","","","","","","","","",""
"psychophysics","336","444851","0.0-18.0-1.30","null","","","","null","","","","key","16.73540000000115","683","312.5","","","","","","","","","","","","","151","-1","3","true","","","",""
"psychophysics","337","444967","0.0-18.0-2.30","111.49999999994179","","","","77","","","","key","16.73483333333085","683","312.5","","","","","","","","","","","","","","","","","","","",""
"psychophysics","338","445982","0.0-18.0-0.31","null","","","","null","","","","key","16.73252542372852","683","312.5","","","","","","","","","","","","","","","","","","","",""
"psychophysics","339","446487","0.0-18.0-1.31","null","","","","null","","","","key","16.735033333332588","683","312.5","","","","","","","","","","","","","151","-1","6","true","","","",""
"psychophysics","340","446642","0.0-18.0-2.31","150.9200000000419","","","","77","","","","key","16.735374999996566","683","312.5","","","","","","","","","","","","","","","","","","","",""
"psychophysics","341","447668","0.0-18.0-0.32","null","","","","null","","","","key","16.731933333333775","683","312.5","","","","","","","","","","","","","","","","","","","",""
"psychophysics","342","448174","0.0-18.0-1.32","null","","","","null","","","","key","16.73124137931054","683","312.5","","","","","","","","","","","","","151","1","2","true","","","",""
"psychophysics","343","448456","0.0-18.0-2.32","273.40999999979977","","","","77","","","","key","16.73187500000131","683","312.5","","","","","","","","","","","","","","","","","","","",""
"psychophysics","344","449460","0.0-18.0-0.33","null","","","","null","","","","key","16.732779661016895","683","312.5","","","","","","","","","","","","","","","","","","","",""
"psychophysics","345","449964","0.0-18.0-1.33","null","","","","null","","","","key","16.734724137932062","683","312.5","","","","","","","","","","","","","151","1","3","true","","","",""
"psychophysics","346","450522","0.0-18.0-2.33","548.9749999996857","","","","90","","","","key","16.732909090908695","683","312.5","","","","","","","","","","","","","","","","","","","",""
"psychophysics","347","451538","0.0-18.0-0.34","null","","","","null","","","","key","16.7326101694923","683","312.5","","","","","","","","","","","","","","","","","","","",""
"psychophysics","348","452043","0.0-18.0-1.34","null","","","","null","","","","key","16.73153333333321","683","312.5","","","","","","","","","","","","","151","1","0","true","","","",""
"psychophysics","349","452311","0.0-18.0-2.34","264.13500000035856","","","","77","","","","key","16.730466666666324","683","312.5","","","","","","","","","","","","","","","","","","","",""
"psychophysics","350","453327","0.0-18.0-0.35","null","","","","null","","","","key","16.732084745763192","683","312.5","","","","","","","","","","","","","","","","","","","",""
"psychophysics","351","453833","0.0-18.0-1.35","null","","","","null","","","","key","16.73063333333315","683","312.5","","","","","","","","","","","","","151","-1","4","true","","","",""
"psychophysics","352","454020","0.0-18.0-2.35","182.26000000053318","","","","77","","","","key","16.732600000000094","683","312.5","","","","","","","","","","","","","","","","","","","",""
"psychophysics","353","455028","0.0-18.0-0.36","null","","","","null","","","","key","16.73393220338927","683","312.5","","","","","","","","","","","","","","","","","","","",""
"psychophysics","354","455531","0.0-18.0-1.36","null","","","","null","","","","key","16.734448275862036","683","312.5","","","","","","","","","","","","","151","-1","0","true","","","",""
"psychophysics","355","455751","0.0-18.0-2.36","216.48000000003958","","","","77","","","","key","16.732833333332866","683","312.5","","","","","","","","","","","","","","","","","","","",""
"psychophysics","356","456758","0.0-18.0-0.37","null","","","","null","","","","key","16.732932203390114","683","312.5","","","","","","","","","","","","","","","","","","","",""
"psychophysics","357","457271","0.0-18.0-1.37","null","","","","null","","","","key","16.728866666666","683","312.5","","","","","","","","","","","","","151","-1","5","true","","","",""
"psychophysics","358","457727","0.0-18.0-2.37","452.4949999995879","","","","77","","","","key","16.73269230769186","683","312.5","","","","","","","","","","","","","","","","","","","",""
"psychophysics","359","458733","0.0-18.0-0.38","null","","","","null","","","","key","16.7323728813553","683","312.5","","","","","","","","","","","","","","","","","","","",""
"psychophysics","360","459238","0.0-18.0-1.38","null","","","","null","","","","key","16.734766666666836","683","312.5","","","","","","","","","","","","","151","-1","3","true","","","",""
"psychophysics","361","459349","0.0-18.0-2.38","106.72499999962747","","","","77","","","","key","16.738399999996183","683","312.5","","","","","","","","","","","","","","","","","","","",""
"psychophysics","362","460372","0.0-18.0-0.39","null","","","","null","","","","key","16.733083333333102","683","312.5","","","","","","","","","","","","","","","","","","","",""
"psychophysics","363","460878","0.0-18.0-1.39","null","","","","null","","","","key","16.736533333333984","683","312.5","","","","","","","","","","","","","151","1","5","true","","","",""
"psychophysics","364","461100","0.0-18.0-2.39","217.41500000009546","","","","77","","","","key","16.73591666666228","683","312.5","","","","","","","","","","","","","","","","","","","",""
"psychophysics","365","462112","0.0-18.0-0.40","null","","","","null","","","","key","16.7339999999997","683","312.5","","","","","","","","","","","","","","","","","","","",""
"psychophysics","366","462618","0.0-18.0-1.40","null","","","","null","","","","key","16.73256666666712","683","312.5","","","","","","","","","","","","","151","1","6","true","","","",""
"psychophysics","367","462702","0.0-18.0-2.40","80.46000000013737","","","","77","","","","key","16.716749999992317","683","312.5","","","","","","","","","","","","","","","","","","","",""
"psychophysics","368","463706","0.0-18.0-0.41","null","","","","null","","","","key","16.734576271185887","683","312.5","","","","","","","","","","","","","","","","","","","",""
"psychophysics","369","464220","0.0-18.0-1.41","null","","","","null","","","","key","16.73489655172332","683","312.5","","","","","","","","","","","","","151","1","3","true","","","",""
"psychophysics","370","464280","0.0-18.0-2.41","55.22500000009313","","","","77","","","","key","16.763999999985874","683","312.5","","","","","","","","","","","","","","","","","","","",""
"psychophysics","371","465292","0.0-18.0-0.42","null","","","","null","","","","key","16.732627118643673","683","312.5","","","","","","","","","","","","","","","","","","","",""
"psychophysics","372","465797","0.0-18.0-1.42","null","","","","null","","","","key","16.734799999999815","683","312.5","","","","","","","","","","","","","151","-1","4","true","","","",""
"psychophysics","373","466052","0.0-18.0-2.42","250.30499999952735","","","","90","","","","key","16.725714285712456","683","312.5","","","","","","","","","","","","","","","","","","","",""
"psychophysics","374","467062","0.0-18.0-0.43","null","","","","null","","","","key","16.731389830508505","683","312.5","","","","","","","","","","","","","","","","","","","",""
"psychophysics","375","467566","0.0-18.0-1.43","null","","","","null","","","","key","16.73131034482704","683","312.5","","","","","","","","","","","","","151","-1","2","true","","","",""
"psychophysics","376","469534","0.0-18.0-2.43","1959.2650000004214","","","","77","","","","key","16.733128205128313","683","312.5","","","","","","","","","","","","","","","","","","","",""
"psychophysics","377","470548","0.0-18.0-0.44","null","","","","null","","","","key","16.732169491525","683","312.5","","","","","","","","","","","","","","","","","","","",""
"psychophysics","378","471065","0.0-18.0-1.44","null","","","","null","","","","key","16.73373333333487","683","312.5","","","","","","","","","","","","","151","1","2","true","","","",""
"psychophysics","379","473484","0.0-18.0-2.44","2410.7400000002817","","","","77","","","","key","16.733590277777694","683","312.5","","","","","","","","","","","","","","","","","","","",""
"psychophysics","380","474492","0.0-18.0-0.45","null","","","","null","","","","key","16.7339999999997","683","312.5","","","","","","","","","","","","","","","","","","","",""
"psychophysics","381","475000","0.0-18.0-1.45","null","","","","null","","","","key","16.735266666667304","683","312.5","","","","","","","","","","","","","151","-1","6","true","","","",""
"psychophysics","382","476267","0.0-18.0-2.45","1261.9899999999907","","","","90","","","","key","16.732932432431955","683","312.5","","","","","","","","","","","","","","","","","","","",""
"psychophysics","383","477273","0.0-18.0-0.46","null","","","","null","","","","key","16.734271186440434","683","312.5","","","","","","","","","","","","","","","","","","","",""
"psychophysics","384","477779","0.0-18.0-1.46","null","","","","null","","","","key","16.733666666666977","683","312.5","","","","","","","","","","","","","151","1","0","true","","","",""
"psychophysics","385","480065","0.0-18.0-2.46","2282.7999999999884","","","","77","","","","key","16.732770370370364","683","312.5","","","","","","","","","","","","","","","","","","","",""
"psychophysics","386","481074","0.0-18.0-0.47","null","","","","null","","","","key","16.73325423728793","683","312.5","","","","","","","","","","","","","","","","","","","",""
"psychophysics","387","481590","0.0-18.0-1.47","null","","","","null","","","","key","16.734600000000015","683","312.5","","","","","","","","","","","","","151","1","4","true","","","",""
"psychophysics","388","481916","0.0-18.0-2.47","317.25499999994645","","","","77","","","","key","16.737894736843085","683","312.5","","","","","","","","","","","","","","","","","","","",""
"psychophysics","389","482926","0.0-18.0-0.48","null","","","","null","","","","key","16.733627118643817","683","312.5","","","","","","","","","","","","","","","","","","","",""
"psychophysics","390","483430","0.0-18.0-1.48","null","","","","null","","","","key","16.73627586206943","683","312.5","","","","","","","","","","","","","151","-1","4","true","","","",""
"psychophysics","391","484076","0.0-18.0-2.48","638.1200000005192","","","","90","","","","key","16.73392105263223","683","312.5","","","","","","","","","","","","","","","","","","","",""
"psychophysics","392","485082","0.0-18.0-0.49","null","","","","null","","","","key","16.732745762711186","683","312.5","","","","","","","","","","","","","","","","","","","",""
"psychophysics","393","485586","0.0-18.0-1.49","null","","","","null","","","","key","16.73175862069033","683","312.5","","","","","","","","","","","","","151","1","0","true","","","",""
"psychophysics","394","486029","0.0-18.0-2.49","433.46999999991385","","","","90","","","","key","16.733576923075955","683","312.5","","","","","","","","","","","","","","","","","","","",""
"psychophysics","395","487032","0.0-18.0-0.50","null","","","","null","","","","key","16.732135593220274","683","312.5","","","","","","","","","","","","","","","","","","","",""
"psychophysics","396","487548","0.0-18.0-1.50","null","","","","null","","","","key","16.733448275860702","683","312.5","","","","","","","","","","","","","151","-1","5","true","","","",""
"psychophysics","397","488073","0.0-18.0-2.50","516.6999999992549","","","","90","","","","key","16.732161290322114","683","312.5","","","","","","","","","","","","","","","","","","","",""
"psychophysics","398","489086","0.0-18.0-0.51","null","","","","null","","","","key","16.734016949153048","683","312.5","","","","","","","","","","","","","","","","","","","",""
"psychophysics","399","489591","0.0-18.0-1.51","null","","","","null","","","","key","16.730833333332946","683","312.5","","","","","","","","","","","","","151","1","5","true","","","",""
"psychophysics","400","493315","0.0-18.0-2.51","3722.244999999879","","","","77","","","","key","16.733402714932105","683","312.5","","","","","","","","","","","","","","","","","","","",""
"psychophysics","401","494322","0.0-18.0-0.52","null","","","","null","","","","key","16.73262711864466","683","312.5","","","","","","","","","","","","","","","","","","","",""
"psychophysics","402","494830","0.0-18.0-1.52","null","","","","null","","","","key","16.734600000000015","683","312.5","","","","","","","","","","","","","151","-1","2","true","","","",""
"psychophysics","403","495042","0.0-18.0-2.52","208.09000000008382","","","","90","","","","key","16.737545454541262","683","312.5","","","","","","","","","","","","","","","","","","","",""
"psychophysics","404","496047","0.0-18.0-0.53","null","","","","null","","","","key","16.733101694915696","683","312.5","","","","","","","","","","","","","","","","","","","",""
"psychophysics","405","496552","0.0-18.0-1.53","null","","","","null","","","","key","16.734600000000015","683","312.5","","","","","","","","","","","","","151","-1","6","true","","","",""
"psychophysics","406","497161","0.0-18.0-2.53","604.2600000001257","","","","90","","","","key","16.733885714285343","683","312.5","","","","","","","","","","","","","","","","","","","",""
"psychophysics","407","498169","0.0-18.0-0.54","null","","","","null","","","","key","17.0212068965514","683","312.5","","","","","","","","","","","","","","","","","","","",""
"psychophysics","408","498674","0.0-18.0-1.54","null","","","","null","","","","key","16.73458620689705","683","312.5","","","","","","","","","","","","","151","1","3","true","","","",""
"psychophysics","409","500363","0.0-18.0-2.54","1684.499999999418","","","","77","","","","key","16.73435999999987","683","312.5","","","","","","","","","","","","","","","","","","","",""
"psychophysics","410","501370","0.0-18.0-0.55","null","","","","null","","","","key","16.73240677966101","683","312.5","","","","","","","","","","","","","","","","","","","",""
"psychophysics","411","501883","0.0-18.0-1.55","null","","","","null","","","","key","16.73179999999896","683","312.5","","","","","","","","","","","","","151","1","2","true","","","",""
"psychophysics","412","502624","0.0-18.0-2.55","737.530000000319","","","","77","","","","key","16.732976744185624","683","312.5","","","","","","","","","","","","","","","","","","","",""
"psychophysics","413","503630","0.0-18.0-0.56","null","","","","null","","","","key","16.731700000000032","683","312.5","","","","","","","","","","","","","","","","","","","",""
"psychophysics","414","504139","0.0-18.0-1.56","null","","","","null","","","","key","16.734379310343527","683","312.5","","","","","","","","","","","","","151","1","4","true","","","",""
"psychophysics","415","504539","0.0-18.0-2.56","396.5950000001467","","","","77","","","","key","16.732434782607015","683","312.5","","","","","","","","","","","","","","","","","","","",""
"psychophysics","416","505552","0.0-18.0-0.57","null","","","","null","","","","key","16.73245762711809","683","312.5","","","","","","","","","","","","","","","","","","","",""
"psychophysics","417","506058","0.0-18.0-1.57","null","","","","null","","","","key","16.733233333334404","683","312.5","","","","","","","","","","","","","151","-1","0","true","","","",""
"psychophysics","418","506276","0.0-18.0-2.57","215.2450000003446","","","","90","","","","key","16.73141666666682","683","312.5","","","","","","","","","","","","","","","","","","","",""
"psychophysics","419","507281","0.0-18.0-0.58","null","","","","null","","","","key","16.73496610169512","683","312.5","","","","","","","","","","","","","","","","","","","",""
"psychophysics","420","507794","0.0-18.0-1.58","null","","","","null","","","","key","17.331607142858307","683","312.5","","","","","","","","","","","","","151","-1","3","true","","","",""
"psychophysics","421","508040","0.0-18.0-2.58","237.60000000038417","","","","90","","","","key","16.734142857142224","683","312.5","","","","","","","","","","","","","","","","","","","",""
"psychophysics","422","509044","0.0-18.0-0.59","null","","","","null","","","","key","16.733932203390257","683","312.5","","","","","","","","","","","","","","","","","","","",""
"psychophysics","423","509551","0.0-18.0-1.59","null","","","","null","","","","key","16.732448275863387","683","312.5","","","","","","","","","","","","","151","1","6","true","","","",""
"psychophysics","424","510134","0.0-18.0-2.59","574.945000000298","","","","77","","","","key","16.736205882351737","683","312.5","","","","","","","","","","","","","","","","","","","",""
"html-keyboard-response","425","519054","0.0-19.0","8916.534999999334","<p>Well Done !</p><p>Take a minute to rest and then press the spacebar to start the next block.</p><p>DON'T EXIT THE FULL SCREEN MODE</p>","","","32","","","","","","","","","","","","","","","","","","","","","","","","","","",""
"psychophysics","426","522060","0.0-20.0-0.0","null","","","","null","","","","key","16.863067796609712","683","312.5","","","","","","","","","","","","","","","","","","","",""
"psychophysics","427","522566","0.0-20.0-1.0","null","","","","null","","","","key","16.7321379310331","683","312.5","","","","","","","","","","","","","151","-1","0","true","","","",""
"psychophysics","428","522879","0.0-20.0-2.0","308.9950000003446","","","","77","","","","key","16.734166666664855","683","312.5","","","","","","","","","","","","","","","","","","","",""
"psychophysics","429","523881","0.0-20.0-0.1","null","","","","null","","","","key","16.73418644067863","683","312.5","","","","","","","","","","","","","","","","","","","",""
"psychophysics","430","524384","0.0-20.0-1.1","null","","","","null","","","","key","16.73048275862098","683","312.5","","","","","","","","","","","","","151","1","0","true","","","",""
"psychophysics","431","524537","0.0-20.0-2.1","150.1699999999255","","","","77","","","","key","16.73887499999546","683","312.5","","","","","","","","","","","","","","","","","","","",""
"psychophysics","432","525548","0.0-20.0-0.2","null","","","","null","","","","key","16.7339999999997","683","312.5","","","","","","","","","","","","","","","","","","","",""
"psychophysics","433","526054","0.0-20.0-1.2","null","","","","null","","","","key","16.732666666666045","683","312.5","","","","","","","","","","","","","151","1","5","true","","","",""
"psychophysics","434","526238","0.0-20.0-2.2","179.84500000067055","","","","77","","","","key","16.745399999991058","683","312.5","","","","","","","","","","","","","","","","","","","",""
"psychophysics","435","527252","0.0-20.0-0.3","null","","","","null","","","","key","16.73298305084621","683","312.5","","","","","","","","","","","","","","","","","","","",""
"psychophysics","436","527757","0.0-20.0-1.3","null","","","","null","","","","key","16.73665517241421","683","312.5","","","","","","","","","","","","","151","-1","6","true","","","",""
"psychophysics","437","527952","0.0-20.0-2.3","186.63000000012107","","","","77","","","","key","16.727090909092855","683","312.5","","","","","","","","","","","","","","","","","","","",""
"psychophysics","438","528964","0.0-20.0-0.4","null","","","","null","","","","key","16.733116666666078","683","312.5","","","","","","","","","","","","","","","","","","","",""
"psychophysics","439","529470","0.0-20.0-1.4","null","","","","null","","","","key","16.737241379310504","683","312.5","","","","","","","","","","","","","151","-1","2","true","","","",""
"psychophysics","440","529761","0.0-20.0-2.4","287.7449999996461","","","","90","","","","key","16.72981250000157","683","312.5","","","","","","","","","","","","","","","","","","","",""
"psychophysics","441","530770","0.0-20.0-0.5","null","","","","null","","","","key","16.731847457627183","683","312.5","","","","","","","","","","","","","","","","","","","",""
"psychophysics","442","531287","0.0-20.0-1.5","null","","","","null","","","","key","16.7380666666703","683","312.5","","","","","","","","","","","","","151","1","6","true","","","",""
"psychophysics","443","531387","0.0-20.0-2.5","90.95499999960884","","","","77","","","","key","16.72839999999851","683","312.5","","","","","","","","","","","","","","","","","","","",""
"psychophysics","444","532390","0.0-20.0-0.6","null","","","","null","","","","key","16.73288135593402","683","312.5","","","","","","","","","","","","","","","","","","","",""
"psychophysics","445","532894","0.0-20.0-1.6","null","","","","null","","","","key","16.733862068965742","683","312.5","","","","","","","","","","","","","151","1","4","true","","","",""
"psychophysics","446","533000","0.0-20.0-2.6","94.36499999999069","","","","77","","","","key","16.750666666659527","683","312.5","","","","","","","","","","","","","","","","","","","",""
"psychophysics","447","534011","0.0-20.0-0.7","null","","","","null","","","","key","16.732491525422812","683","312.5","","","","","","","","","","","","","","","","","","","",""
"psychophysics","448","534518","0.0-20.0-1.7","null","","","","null","","","","key","16.732689655173154","683","312.5","","","","","","","","","","","","","151","-1","3","true","","","",""
"psychophysics","449","534741","0.0-20.0-2.7","214.17000000015832","","","","77","","","","key","16.73207692307635","683","312.5","","","","","","","","","","","","","","","","","","","",""
"psychophysics","450","535756","0.0-20.0-0.8","null","","","","null","","","","key","16.734898305083703","683","312.5","","","","","","","","","","","","","","","","","","","",""
"psychophysics","451","536261","0.0-20.0-1.8","null","","","","null","","","","key","16.735899999997734","683","312.5","","","","","","","","","","","","","151","1","3","true","","","",""
"psychophysics","452","536340","0.0-20.0-2.8","74.53499999979977","","","","77","","","","key","16.73199999999876","683","312.5","","","","","","","","","","","","","","","","","","","",""
"psychophysics","453","537345","0.0-20.0-0.9","null","","","","null","","","","key","16.734372881355586","683","312.5","","","","","","","","","","","","","","","","","","","",""
"psychophysics","454","537865","0.0-20.0-1.9","null","","","","null","","","","key","16.73143333333622","683","312.5","","","","","","","","","","","","","151","-1","4","true","","","",""
"psychophysics","455","538223","0.0-20.0-2.9","349.76499999989755","","","","77","","","","key","16.73300000000191","683","312.5","","","","","","","","","","","","","","","","","","","",""
"psychophysics","456","539234","0.0-20.0-0.10","null","","","","null","","","","key","16.734288135592795","683","312.5","","","","","","","","","","","","","","","","","","","",""
"psychophysics","457","539738","0.0-20.0-1.10","null","","","","null","","","","key","16.733862068965742","683","312.5","","","","","","","","","","","","","151","1","2","true","","","",""
"psychophysics","458","539999","0.0-20.0-2.10","252.3049999999348","","","","77","","","","key","16.73279999999795","683","312.5","","","","","","","","","","","","","","","","","","","",""
"psychophysics","459","541009","0.0-20.0-0.11","null","","","","null","","","","key","16.733440677964886","683","312.5","","","","","","","","","","","","","","","","","","","",""
"psychophysics","460","541515","0.0-20.0-1.11","null","","","","null","","","","key","16.735133333333458","683","312.5","","","","","","","","","","","","","151","-1","5","true","","","",""
"psychophysics","461","542025","0.0-20.0-2.11","505.63499999954365","","","","77","","","","key","16.734137931035768","683","312.5","","","","","","","","","","","","","","","","","","","",""
"psychophysics","462","543036","0.0-20.0-0.12","null","","","","null","","","","key","16.73242372881337","683","312.5","","","","","","","","","","","","","","","","","","","",""
"psychophysics","463","543553","0.0-20.0-1.12","null","","","","null","","","","key","16.73519999999941","683","312.5","","","","","","","","","","","","","151","1","4","true","","","",""
"psychophysics","464","543857","0.0-20.0-2.12","296.4700000002049","","","","77","","","","key","16.733055555559176","683","312.5","","","","","","","","","","","","","","","","","","","",""
"psychophysics","465","544862","0.0-20.0-0.13","null","","","","null","","","","key","16.735084745762634","683","312.5","","","","","","","","","","","","","","","","","","","",""
"psychophysics","466","545375","0.0-20.0-1.13","null","","","","null","","","","key","16.732241379309862","683","312.5","","","","","","","","","","","","","151","1","0","true","","","",""
"psychophysics","467","545458","0.0-20.0-2.13","73.05999999970663","","","","77","","","","key","16.73324999999022","683","312.5","","","","","","","","","","","","","","","","","","","",""
"psychophysics","468","546465","0.0-20.0-0.14","null","","","","null","","","","key","16.734237288136697","683","312.5","","","","","","","","","","","","","","","","","","","",""
"psychophysics","469","546970","0.0-20.0-1.14","null","","","","null","","","","key","16.732400000002237","683","312.5","","","","","","","","","","","","","151","-1","6","true","","","",""
"psychophysics","470","547277","0.0-20.0-2.14","302.00999999942724","","","","77","","","","key","16.7330000000006","683","312.5","","","","","","","","","","","","","","","","","","","",""
"psychophysics","471","548283","0.0-20.0-0.15","null","","","","null","","","","key","16.733830508474117","683","312.5","","","","","","","","","","","","","","","","","","","",""
