"trial_type","trial_index","time_elapsed","internal_node_id","PROLIFIC_PID","STUDY_ID","SESSION_ID","rt","stimulus","button_pressed","success","key_press","responses","isData","view_history","response_type","avg_frame_time","center_x","center_y","isSC","stim_side","trial_luminance","step_size","nReversal","correct","prev_ans","isThreshold","SC_threshold","final_threshold","isLuminance","FF_luminance","luminance","stimSide","ISInt","isFF","question_order","isSPQ","isCAPS","isAQ"
"pavlovia","0","18","0.0-0.0","6097bc419da1d74a8bb14d52","609006691f6f4e337c17f836","609d4b2b113933f8ed7b0bda","","","","","","","","","","","","","","","","","","","","","","","","","","","","","","","",""
"html-button-response","1","20567","0.0-1.0","6097bc419da1d74a8bb14d52","609006691f6f4e337c17f836","609d4b2b113933f8ed7b0bda","20543.000000000575","<div style='background-color: white; width:60%; margin: auto; padding: 50px; text-align: justify; text-justify: inter-word; margin-bottom: 20px;'><h1 style='text-align: center;'>Consent Form</h1><p>Please read this consent form carefully before deciding whether you would like to participate in this study. You have to be 18 years old or older to participate to this study.</p><p style='text-decoration: underline;'>Participation is voluntary:</p><p>It is your choice whether or not to participate in this research. If you choose to participate, you may change your mind and leave the study at any time. Refusal to participate or stopping your participation will involve no penalty or loss of benefits to which you are otherwise entitled.</p><p style='text-decoration: underline;'>Purpose of the Study:</p><p>To understand the mechanisms underlying human perception.</p><p style='text-decoration: underline;'>What you will do in this study:</p><p>You will be presented with a series of visual images and then you will press buttons on the keyboard of your computer to respond to simple questions about the images (e.g. Were one or two images presented?). In addition, you will be asked to complete a questionnaire concerning your beliefs and everyday mental and perceptual experiences.'</p><p style='text-decoration: underline;'> Time Required:</p><p>The study will take 40 minutes to complete. </p><p style='text-decoration: underline;'>Risks:</p><p>There are no anticipated risks associated with participating in this study that are beyond those experienced in everyday life. </p><p style='text-decoration: underline;'>Benefits:</p><p>There are no benefits to you in participating in the study. However, this study may lead to a better understanding of how different kinds of visual information are used.</p><p style='text-decoration: underline;'>Compensation:</p><p>You will be paid US$6.6/hour. </p><p style='text-decoration: underline;'>Privacy and Confidentiality:</p><p>Your participation in this study will be anonymous. No personal information about your name or identity will be asked or recorded. This anonymous data will be stored for several years and may be used for a variety of research purposes. The overall results of the study may be published, or the data files may be shared with other researchers, but your identity will not be revealed in any way. The online services we are using for this study may temporarily store your data, but this data will be downloaded and then promptly deleted from those services.Your data will not be permanently associated with your name, IP address, or any other identifiable information (e.g., your information will only be connected to your payment, not to any of your responses), though they may be temporarily stored together before we download and separate them. Even so, no guarantee of internet survey security can be given because, although unlikely, transmissions can be intercepted and IP addresses can be identified. The anonymous data may be shared publicly (for example, in conjunction with a resulting academic publication).</p><p style='text-decoration: underline;'>Participation and Withdrawal:</p><p>Your participation in this study is completely voluntary. You may stop responding to the stimuli or stop answering questions if you so choose and without penalty by exiting the full screen mode, closing this tab of your browser or redirecting it to a different website.</p><p style='text-decoration: underline;'>Contact Info of the Researcher: </p><p>If you have questions about this study, or if you would like to talk to the research team, please contact David Melcher (david.melcher@nyu.edu, md5050@nyu.edu) at the Perception and Active Cognition Laboratory, New York University Abu Dhabi, Computational Research Building, Saadiyat Island, Abu Dhabi, UAE.This research has been reviewed by the New York University Abu Dhabi Institutional Review Board (NYUAD IRB). To contact about your rights in this research, for questions, suggestions, or complaints that are not addressed by the researchers, please email IRBnyuad@nyu.edu, or call the NYUAD IRB at +971 2 628 4313. </p></div>","0","","","","","","","","","","","","","","","","","","","","","","","","","","","","",""
"fullscreen","2","30184","0.0-2.0","6097bc419da1d74a8bb14d52","609006691f6f4e337c17f836","609d4b2b113933f8ed7b0bda","","","","true","","","","","","","","","","","","","","","","","","","","","","","","","","","",""
"html-keyboard-response","3","34743","0.0-3.0","6097bc419da1d74a8bb14d52","609006691f6f4e337c17f836","609d4b2b113933f8ed7b0bda","4551.99999999968","<p>Welcome !</p><p>READ CAREFULLY THE FOLLOWING INDICATIONS:</p><p>From this moment you have ~40 minutes to complete the experiment.</p><p>During the experiment you will be prompted to take several breaks. Each break should not last longer than 2-3 minutes.</p><p>Make sure that your computer is plugged in and it's not running on battery power, even if the battery is already fully charged.</p><p>Turn off your phone and music, make sure that you are in a quiet room and that you will not be distracted for the next hour.</p><p>Failure to comply with the instructions and indications provided during the experiment will most likely result in the rejection of your data.<p>Press the spacebar to start.</p>","","","32","","","","","","","","","","","","","","","","","","","","","","","","","","",""
"survey-html-form","4","41964","0.0-4.0","6097bc419da1d74a8bb14d52","609006691f6f4e337c17f836","609d4b2b113933f8ed7b0bda","7218.000000000757","","","","","{""age"":""27"",""sex"":""M""}","true","","","","","","","","","","","","","","","","","","","","","","","","",""
"instructions","5","104241","0.0-5.0","6097bc419da1d74a8bb14d52","609006691f6f4e337c17f836","609d4b2b113933f8ed7b0bda","62275.99999999985","","","","","","","[{""page_index"":0,""viewing_time"":44989.99999999979},{""page_index"":1,""viewing_time"":10582.00000000032},{""page_index"":2,""viewing_time"":6702.999999999534}]","","","","","","","","","","","","","","","","","","","","","","","",""
"psychophysics","6","105775","0.0-6.0-0.0","6097bc419da1d74a8bb14d52","609006691f6f4e337c17f836","609d4b2b113933f8ed7b0bda","524.0000000003492","","","","37","","","","key","17.227775280898847","707.5","406","true","-1","180","30","0","-1","","","","","","","","","","","","","",""
"psychophysics","7","106817","0.0-6.0-0.1","6097bc419da1d74a8bb14d52","609006691f6f4e337c17f836","609d4b2b113933f8ed7b0bda","37.99999999954889","","","","39","","","","key","16.666000000000064","707.5","406","true","1","180","30","0","-1","-1","","","","","","","","","","","","",""
"psychophysics","8","112160","0.0-6.0-0.2","6097bc419da1d74a8bb14d52","609006691f6f4e337c17f836","609d4b2b113933f8ed7b0bda","4337.999999999738","","","","39","","","","key","16.666000000000032","707.5","406","true","-1","150","24","1","1","-1","","","","","","","","","","","","",""
"psychophysics","9","118573","0.0-6.0-0.3","6097bc419da1d74a8bb14d52","609006691f6f4e337c17f836","609d4b2b113933f8ed7b0bda","5408.000000000349","","","","39","","","","key","16.709628272251294","707.5","406","true","1","174","24","1","-1","1","","","","","","","","","","","","",""
"psychophysics","10","120097","0.0-6.0-0.4","6097bc419da1d74a8bb14d52","609006691f6f4e337c17f836","609d4b2b113933f8ed7b0bda","519.9999999995343","","","","37","","","","key","16.665999999999997","707.5","406","true","-1","174","19.2","2","-1","-1","","","","","","","","","","","","",""
"psychophysics","11","123367","0.0-6.0-0.5","6097bc419da1d74a8bb14d52","609006691f6f4e337c17f836","609d4b2b113933f8ed7b0bda","2266.000000000524","","","","39","","","","key","16.6659999999999","707.5","406","true","1","154.8","19.2","2","-1","-1","","","","","","","","","","","","",""
"psychophysics","12","124683","0.0-6.0-0.6","6097bc419da1d74a8bb14d52","609006691f6f4e337c17f836","609d4b2b113933f8ed7b0bda","309.0000000002037","","","","39","","","","key","16.665999999999677","707.5","406","true","1","154.8","19.2","2","-1","-1","","","","","","","","","","","","",""
"psychophysics","13","125796","0.0-6.0-0.7","6097bc419da1d74a8bb14d52","609006691f6f4e337c17f836","609d4b2b113933f8ed7b0bda","106.9999999999709","","","","37","","","","key","16.665999999999645","707.5","406","true","-1","135.60000000000002","19.2","2","-1","-1","","","","","","","","","","","","",""
"psychophysics","14","127159","0.0-6.0-0.8","6097bc419da1d74a8bb14d52","609006691f6f4e337c17f836","609d4b2b113933f8ed7b0bda","359.99999999967986","","","","39","","","","key","16.666000000000313","707.5","406","true","1","135.60000000000002","19.2","2","-1","-1","","","","","","","","","","","","",""
"psychophysics","15","129006","0.0-6.0-0.9","6097bc419da1d74a8bb14d52","609006691f6f4e337c17f836","609d4b2b113933f8ed7b0bda","844.0000000000582","","","","39","","","","key","16.818899082568628","707.5","406","true","-1","129","15.36","3","1","-1","","","","","","","","","","","","",""
"psychophysics","16","130065","0.0-6.0-0.10","6097bc419da1d74a8bb14d52","609006691f6f4e337c17f836","609d4b2b113933f8ed7b0bda","57.00000000069849","","","","37","","","","key","16.666000000000256","707.5","406","true","-1","144.36","15.36","3","-1","1","","","","","","","","","","","","",""
"psychophysics","17","132655","0.0-6.0-0.11","6097bc419da1d74a8bb14d52","609006691f6f4e337c17f836","609d4b2b113933f8ed7b0bda","1587.0000000004366","","","","39","","","","key","16.666000000000086","707.5","406","true","1","144.36","12.287999999999998","4","-1","-1","","","","","","","","","","","","",""
"psychophysics","18","135032","0.0-6.0-0.12","6097bc419da1d74a8bb14d52","609006691f6f4e337c17f836","609d4b2b113933f8ed7b0bda","1371.9999999993597","","","","39","","","","key","16.665999999999897","707.5","406","true","-1","132.072","9.8304","5","1","-1","","","","","","","","","","","","",""
"psychophysics","19","137357","0.0-6.0-0.13","6097bc419da1d74a8bb14d52","609006691f6f4e337c17f836","609d4b2b113933f8ed7b0bda","1322.0000000001164","","","","37","","","","key","16.66599999999995","707.5","406","true","1","141.9024","9.8304","5","1","1","","","","","","","","","","","","",""
"psychophysics","20","138403","0.0-6.0-0.14","6097bc419da1d74a8bb14d52","609006691f6f4e337c17f836","609d4b2b113933f8ed7b0bda","42.99999999967986","","","","37","","","","key","16.666000000000302","707.5","406","true","-1","151.7328","9.8304","5","-1","1","","","","","","","","","","","","",""
"psychophysics","21","140172","0.0-6.0-0.15","6097bc419da1d74a8bb14d52","609006691f6f4e337c17f836","609d4b2b113933f8ed7b0bda","766.000000000553","","","","37","","","","key","16.66599999999991","707.5","406","true","-1","151.7328","7.864319999999999","6","-1","-1","","","","","","","","","","","","",""
"psychophysics","22","141659","0.0-6.0-0.16","6097bc419da1d74a8bb14d52","609006691f6f4e337c17f836","609d4b2b113933f8ed7b0bda","484.99999999967986","","","","39","","","","key","16.666000000000086","707.5","406","true","1","143.86848","7.864319999999999","6","-1","-1","","","","","","","","","","","","",""
"psychophysics","23","144800","0.0-6.0-0.17","6097bc419da1d74a8bb14d52","609006691f6f4e337c17f836","609d4b2b113933f8ed7b0bda","2136.999999999738","","","","39","","","","key","16.666000000000086","707.5","406","true","1","143.86848","7.864319999999999","6","-1","-1","","","","","","","","","","","","",""
"psychophysics","24","146106","0.0-6.0-0.18","6097bc419da1d74a8bb14d52","609006691f6f4e337c17f836","609d4b2b113933f8ed7b0bda","300.0000000002037","","","","37","","","","key","16.66600000000005","707.5","406","true","-1","136.00416","7.864319999999999","6","-1","-1","","","","","","","","","","","","",""
"psychophysics","25","147354","0.0-6.0-0.19","6097bc419da1d74a8bb14d52","609006691f6f4e337c17f836","609d4b2b113933f8ed7b0bda","243.99999999970896","","","","37","","","","key","16.665999999999798","707.5","406","true","-1","136.00416","7.864319999999999","6","-1","-1","","","","","","","","","","","","",""
"psychophysics","26","148711","0.0-6.0-0.20","6097bc419da1d74a8bb14d52","609006691f6f4e337c17f836","609d4b2b113933f8ed7b0bda","355.00000000049477","","","","39","","","","key","16.665999999999986","707.5","406","true","1","129","7.864319999999999","6","-1","-1","","","","","","","","","","","","",""
"psychophysics","27","151306","0.0-6.0-0.21","6097bc419da1d74a8bb14d52","609006691f6f4e337c17f836","609d4b2b113933f8ed7b0bda","1593.0000000007567","","","","39","","","","key","16.666000000000068","707.5","406","true","1","129","7.864319999999999","6","-1","-1","","","","","","","","","","","","",""
"psychophysics","28","153032","0.0-6.0-0.22","6097bc419da1d74a8bb14d52","609006691f6f4e337c17f836","609d4b2b113933f8ed7b0bda","721.9999999997381","","","","37","","","","key","16.666000000000007","707.5","406","true","-1","129","7.864319999999999","6","-1","-1","","","","","","","","","","","","",""
"psychophysics","29","155951","0.0-6.0-0.23","6097bc419da1d74a8bb14d52","609006691f6f4e337c17f836","609d4b2b113933f8ed7b0bda","1913.0000000004657","","","","39","","","","key","16.666000000000114","707.5","406","true","-1","129","6.291456","7","1","-1","","","","","","","","","","","","",""
"psychophysics","30","157145","0.0-6.0-0.24","6097bc419da1d74a8bb14d52","609006691f6f4e337c17f836","609d4b2b113933f8ed7b0bda","189.99999999869033","","","","39","","","","key","16.665999999999897","707.5","406","true","-1","135.291456","6.291456","7","1","1","","","","","","","","","","","","",""
"psychophysics","31","158507","0.0-6.0-0.25","6097bc419da1d74a8bb14d52","609006691f6f4e337c17f836","609d4b2b113933f8ed7b0bda","356.9999999999709","","","","37","","","","key","16.665999999999954","707.5","406","true","1","141.58291200000002","6.291456","7","1","1","","","","","","","","","","","","",""
"psychophysics","32","160229","0.0-6.0-0.26","6097bc419da1d74a8bb14d52","609006691f6f4e337c17f836","609d4b2b113933f8ed7b0bda","718.999999999156","","","","39","","","","key","16.666000000000007","707.5","406","true","-1","147.87436800000003","6.291456","7","1","1","","","","","","","","","","","","",""
"psychophysics","33","161803","0.0-6.0-0.27","6097bc419da1d74a8bb14d52","609006691f6f4e337c17f836","609d4b2b113933f8ed7b0bda","568.000000001106","","","","39","","","","key","16.666000000000224","707.5","406","true","1","154.16582400000004","6.291456","7","-1","1","","","","","","","","","","","","",""
"psychophysics","34","163511","0.0-6.0-0.28","6097bc419da1d74a8bb14d52","609006691f6f4e337c17f836","609d4b2b113933f8ed7b0bda","703.999999999709","","","","39","","","","key","16.665999999999745","707.5","406","true","-1","154.16582400000004","5.033164800000001","8","1","-1","","","","","","","","","","","","",""
"psychophysics","35","164557","0.0-6.0-0.29","6097bc419da1d74a8bb14d52","609006691f6f4e337c17f836","609d4b2b113933f8ed7b0bda","43.999999999883585","","","","39","","","","key","16.665999999999787","707.5","406","true","1","159.19898880000005","5.033164800000001","8","-1","1","","","","","","","","","","","","",""
"psychophysics","36","165722","0.0-6.0-0.30","6097bc419da1d74a8bb14d52","609006691f6f4e337c17f836","609d4b2b113933f8ed7b0bda","158.99999999965075","","","","39","","","","key","16.66599999999997","707.5","406","true","1","159.19898880000005","4.0265318400000005","9","-1","-1","","","","","","","","","","","","",""
"psychophysics","37","167060","0.0-6.0-0.31","6097bc419da1d74a8bb14d52","609006691f6f4e337c17f836","609d4b2b113933f8ed7b0bda","335.0000000009313","","","","39","","","","key","16.666000000000018","707.5","406","true","1","155.17245696000006","4.0265318400000005","9","-1","-1","","","","","","","","","","","","",""
"psychophysics","38","168371","0.0-6.0-0.32","6097bc419da1d74a8bb14d52","609006691f6f4e337c17f836","609d4b2b113933f8ed7b0bda","307.9999999990978","","","","39","","","","key","16.66600000000005","707.5","406","true","1","155.17245696000006","4.0265318400000005","9","-1","-1","","","","","","","","","","","","",""
"psychophysics","39","169506","0.0-6.0-0.33","6097bc419da1d74a8bb14d52","609006691f6f4e337c17f836","609d4b2b113933f8ed7b0bda","131.99999999962165","","","","37","","","","key","16.666000000000047","707.5","406","true","-1","151.14592512000007","4.0265318400000005","9","-1","-1","","","","","","","","","","","","",""
"psychophysics","40","170536","0.0-6.0-0.34","6097bc419da1d74a8bb14d52","609006691f6f4e337c17f836","609d4b2b113933f8ed7b0bda","28.00000000023283","","","","39","","","","key","16.666000000000302","707.5","406","true","1","151.14592512000007","4.0265318400000005","9","-1","-1","","","","","","","","","","","","",""
"psychophysics","41","171765","0.0-6.0-0.35","6097bc419da1d74a8bb14d52","609006691f6f4e337c17f836","609d4b2b113933f8ed7b0bda","226.00000000055297","","","","39","","","","key","16.665999999999865","707.5","406","true","-1","147.11939328000008","3.2212254720000004","10","1","-1","","","","","","","","","","","","",""
"psychophysics","42","173291","0.0-6.0-0.36","6097bc419da1d74a8bb14d52","609006691f6f4e337c17f836","609d4b2b113933f8ed7b0bda","523.999999999447","","","","37","","","","key","16.665999999999997","707.5","406","true","-1","150.34061875200007","3.2212254720000004","10","-1","1","","","","","","","","","","","","",""
"psychophysics","43","174760","0.0-6.0-0.37","6097bc419da1d74a8bb14d52","609006691f6f4e337c17f836","609d4b2b113933f8ed7b0bda","466.99999999874854","","","","37","","","","key","16.666000000000114","707.5","406","true","1","150.34061875200007","2.5769803776000004","11","1","-1","","","","","","","","","","","","",""
"psychophysics","44","176024","0.0-6.0-0.38","6097bc419da1d74a8bb14d52","609006691f6f4e337c17f836","609d4b2b113933f8ed7b0bda","259.0000000000291","","","","39","","","","key","16.666000000000157","707.5","406","true","1","152.91759912960006","2.5769803776000004","11","-1","1","","","","","","","","","","","","",""
"psychophysics","45","177140","0.0-6.0-0.39","6097bc419da1d74a8bb14d52","609006691f6f4e337c17f836","609d4b2b113933f8ed7b0bda","112.99999999935972","","","","37","","","","key","16.665999999999645","707.5","406","true","-1","152.91759912960006","2.0615843020800004","12","-1","-1","","","","","","","","","","","","",""
"html-keyboard-response","46","181358","0.0-7.0","6097bc419da1d74a8bb14d52","609006691f6f4e337c17f836","609d4b2b113933f8ed7b0bda","4215.000000000175","<p>Well Done !</p><p>Prepare for a new block.</p><p>DON'T EXIT THE FULL SCREEN MODE</p><p>Press the Spacebar to start.</p>","","","32","","","","","","","","","","","","","","","true","152.1639665868801","","","","","","","","","","",""
"psychophysics","47","183819","0.0-8.0-0.0","6097bc419da1d74a8bb14d52","609006691f6f4e337c17f836","609d4b2b113933f8ed7b0bda","1456.0000000001164","","","","37","","","","key","16.665999999999997","707.5","406","true","-1","180","30","0","-1","","","","","","","","","","","","","",""
"psychophysics","48","185045","0.0-8.0-0.1","6097bc419da1d74a8bb14d52","609006691f6f4e337c17f836","609d4b2b113933f8ed7b0bda","224.00000000014552","","","","39","","","","key","16.665999999999865","707.5","406","true","1","180","30","0","-1","-1","","","","","","","","","","","","",""
"psychophysics","49","186237","0.0-8.0-0.2","6097bc419da1d74a8bb14d52","609006691f6f4e337c17f836","609d4b2b113933f8ed7b0bda","189.00000000032014","","","","37","","","","key","16.66600000000031","707.5","406","true","-1","150","30","0","-1","-1","","","","","","","","","","","","",""
"psychophysics","50","187847","0.0-8.0-0.3","6097bc419da1d74a8bb14d52","609006691f6f4e337c17f836","609d4b2b113933f8ed7b0bda","605.9999999997672","","","","37","","","","key","16.66599999999989","707.5","406","true","1","150","24","1","1","-1","","","","","","","","","","","","",""
"psychophysics","51","189186","0.0-8.0-0.4","6097bc419da1d74a8bb14d52","609006691f6f4e337c17f836","609d4b2b113933f8ed7b0bda","336.00000000113505","","","","39","","","","key","16.666000000000018","707.5","406","true","-1","174","24","1","1","1","","","","","","","","","","","","",""
"psychophysics","52","191080","0.0-8.0-0.5","6097bc419da1d74a8bb14d52","609006691f6f4e337c17f836","609d4b2b113933f8ed7b0bda","892.0000000016298","","","","37","","","","key","16.666000000000015","707.5","406","true","1","198","24","1","1","1","","","","","","","","","","","","",""
"psychophysics","53","192398","0.0-8.0-0.6","6097bc419da1d74a8bb14d52","609006691f6f4e337c17f836","609d4b2b113933f8ed7b0bda","315.00000000052387","","","","39","","","","key","16.66600000000005","707.5","406","true","1","222","24","1","-1","1","","","","","","","","","","","","",""
"psychophysics","54","193472","0.0-8.0-0.7","6097bc419da1d74a8bb14d52","609006691f6f4e337c17f836","609d4b2b113933f8ed7b0bda","68.99999999950523","","","","37","","","","key","16.666000000000167","707.5","406","true","-1","222","19.2","2","-1","-1","","","","","","","","","","","","",""
"psychophysics","55","194587","0.0-8.0-0.8","6097bc419da1d74a8bb14d52","609006691f6f4e337c17f836","609d4b2b113933f8ed7b0bda","113.00000000116415","","","","37","","","","key","16.666000000000086","707.5","406","true","-1","202.8","19.2","2","-1","-1","","","","","","","","","","","","",""
"psychophysics","56","195598","0.0-8.0-0.9","6097bc419da1d74a8bb14d52","609006691f6f4e337c17f836","609d4b2b113933f8ed7b0bda","8.000000001629815","","","","37","","","","key","16.665999999999904","707.5","406","true","-1","202.8","19.2","2","-1","-1","","","","","","","","","","","","",""
"psychophysics","57","196745","0.0-8.0-0.10","6097bc419da1d74a8bb14d52","609006691f6f4e337c17f836","609d4b2b113933f8ed7b0bda","141.99999999982538","","","","37","","","","key","16.666000000000007","707.5","406","true","-1","183.60000000000002","19.2","2","-1","-1","","","","","","","","","","","","",""
"psychophysics","58","197854","0.0-8.0-0.11","6097bc419da1d74a8bb14d52","609006691f6f4e337c17f836","609d4b2b113933f8ed7b0bda","103.99999999935972","","","","37","","","","key","16.666000000000086","707.5","406","true","-1","183.60000000000002","19.2","2","-1","-1","","","","","","","","","","","","",""
"psychophysics","59","199061","0.0-8.0-0.12","6097bc419da1d74a8bb14d52","609006691f6f4e337c17f836","609d4b2b113933f8ed7b0bda","202.99999999950523","","","","37","","","","key","16.665999999999897","707.5","406","true","-1","164.40000000000003","19.2","2","-1","-1","","","","","","","","","","","","",""
"psychophysics","60","200108","0.0-8.0-0.13","6097bc419da1d74a8bb14d52","609006691f6f4e337c17f836","609d4b2b113933f8ed7b0bda","44.00000000168802","","","","39","","","","key","16.666000000000256","707.5","406","true","1","164.40000000000003","19.2","2","-1","-1","","","","","","","","","","","","",""
"psychophysics","61","201146","0.0-8.0-0.14","6097bc419da1d74a8bb14d52","609006691f6f4e337c17f836","609d4b2b113933f8ed7b0bda","36.00000000005821","","","","37","","","","key","16.665999999999823","707.5","406","true","-1","145.20000000000005","19.2","2","-1","-1","","","","","","","","","","","","",""
"psychophysics","62","202263","0.0-8.0-0.15","6097bc419da1d74a8bb14d52","609006691f6f4e337c17f836","609d4b2b113933f8ed7b0bda","110.99999999898137","","","","39","","","","key","16.666000000000086","707.5","406","true","1","145.20000000000005","19.2","2","-1","-1","","","","","","","","","","","","",""
"psychophysics","63","204004","0.0-8.0-0.16","6097bc419da1d74a8bb14d52","609006691f6f4e337c17f836","609d4b2b113933f8ed7b0bda","736.999999999156","","","","37","","","","key","16.665999999999958","707.5","406","true","-1","129","19.2","2","-1","-1","","","","","","","","","","","","",""
"psychophysics","64","205131","0.0-8.0-0.17","6097bc419da1d74a8bb14d52","609006691f6f4e337c17f836","609d4b2b113933f8ed7b0bda","123.99999999979627","","","","39","","","","key","16.666000000000086","707.5","406","true","1","129","19.2","2","-1","-1","","","","","","","","","","","","",""
"psychophysics","65","206304","0.0-8.0-0.18","6097bc419da1d74a8bb14d52","609006691f6f4e337c17f836","609d4b2b113933f8ed7b0bda","169.99999999825377","","","","39","","","","key","16.665999999999933","707.5","406","true","-1","129","15.36","3","1","-1","","","","","","","","","","","","",""
"psychophysics","66","207428","0.0-8.0-0.19","6097bc419da1d74a8bb14d52","609006691f6f4e337c17f836","609d4b2b113933f8ed7b0bda","121.00000000098953","","","","39","","","","key","16.665999999999645","707.5","406","true","1","144.36","15.36","3","-1","1","","","","","","","","","","","","",""
"psychophysics","67","208527","0.0-8.0-0.20","6097bc419da1d74a8bb14d52","609006691f6f4e337c17f836","609d4b2b113933f8ed7b0bda","95.00000000116415","","","","37","","","","key","16.666000000000125","707.5","406","true","-1","144.36","12.287999999999998","4","-1","-1","","","","","","","","","","","","",""
"psychophysics","68","209529","0.0-8.0-0.21","6097bc419da1d74a8bb14d52","609006691f6f4e337c17f836","609d4b2b113933f8ed7b0bda","0","","","","39","","","","key","16.665999999999904","707.5","406","true","1","132.072","12.287999999999998","4","-1","-1","","","","","","","","","","","","",""
"psychophysics","69","210824","0.0-8.0-0.22","6097bc419da1d74a8bb14d52","609006691f6f4e337c17f836","609d4b2b113933f8ed7b0bda","290.9999999992724","","","","39","","","","key","16.665999999999705","707.5","406","true","1","132.072","12.287999999999998","4","-1","-1","","","","","","","","","","","","",""
"psychophysics","70","212026","0.0-8.0-0.23","6097bc419da1d74a8bb14d52","609006691f6f4e337c17f836","609d4b2b113933f8ed7b0bda","199.00000000052387","","","","37","","","","key","16.66600000000031","707.5","406","true","-1","129","12.287999999999998","4","-1","-1","","","","","","","","","","","","",""
"psychophysics","71","219824","0.0-8.0-0.24","6097bc419da1d74a8bb14d52","609006691f6f4e337c17f836","609d4b2b113933f8ed7b0bda","6795.000000000087","","","","39","","","","key","16.665999999999993","707.5","406","true","1","129","12.287999999999998","4","-1","-1","","","","","","","","","","","","",""
"psychophysics","72","225505","0.0-8.0-0.25","6097bc419da1d74a8bb14d52","609006691f6f4e337c17f836","609d4b2b113933f8ed7b0bda","4675.999999999476","","","","37","","","","key","16.715162241887914","707.5","406","true","1","129","9.8304","5","1","-1","","","","","","","","","","","","",""
"psychophysics","73","226523","0.0-8.0-0.26","6097bc419da1d74a8bb14d52","609006691f6f4e337c17f836","609d4b2b113933f8ed7b0bda","12.000000000640284","","","","39","","","","key","16.665999999999865","707.5","406","true","1","138.8304","9.8304","5","-1","1","","","","","","","","","","","","",""
"psychophysics","74","227634","0.0-8.0-0.27","6097bc419da1d74a8bb14d52","609006691f6f4e337c17f836","609d4b2b113933f8ed7b0bda","108.00000000017462","","","","39","","","","key","16.666000000000086","707.5","406","true","1","138.8304","7.864319999999999","6","-1","-1","","","","","","","","","","","","",""
"psychophysics","75","228739","0.0-8.0-0.28","6097bc419da1d74a8bb14d52","609006691f6f4e337c17f836","609d4b2b113933f8ed7b0bda","102.0000000007567","","","","39","","","","key","16.666000000000125","707.5","406","true","-1","130.96608","6.291456","7","1","-1","","","","","","","","","","","","",""
"psychophysics","76","229892","0.0-8.0-0.29","6097bc419da1d74a8bb14d52","609006691f6f4e337c17f836","609d4b2b113933f8ed7b0bda","150.0000000014552","","","","39","","","","key","16.666000000000007","707.5","406","true","1","137.25753600000002","6.291456","7","-1","1","","","","","","","","","","","","",""
"psychophysics","77","230917","0.0-8.0-0.30","6097bc419da1d74a8bb14d52","609006691f6f4e337c17f836","609d4b2b113933f8ed7b0bda","22.00000000084401","","","","37","","","","key","16.665999999999823","707.5","406","true","-1","137.25753600000002","5.033164800000001","8","-1","-1","","","","","","","","","","","","",""
"psychophysics","78","232095","0.0-8.0-0.31","6097bc419da1d74a8bb14d52","609006691f6f4e337c17f836","609d4b2b113933f8ed7b0bda","174.9999999992724","","","","39","","","","key","16.66599999999997","707.5","406","true","-1","132.2243712","4.0265318400000005","9","1","-1","","","","","","","","","","","","",""
"psychophysics","79","233160","0.0-8.0-0.32","6097bc419da1d74a8bb14d52","609006691f6f4e337c17f836","609d4b2b113933f8ed7b0bda","59.000000001105946","","","","39","","","","key","16.665999999999748","707.5","406","true","1","136.25090304","4.0265318400000005","9","-1","1","","","","","","","","","","","","",""
"psychophysics","80","234594","0.0-8.0-0.33","6097bc419da1d74a8bb14d52","609006691f6f4e337c17f836","609d4b2b113933f8ed7b0bda","426.99999999967986","","","","39","","","","key","16.66600000000021","707.5","406","true","1","136.25090304","3.2212254720000004","10","-1","-1","","","","","","","","","","","","",""
"psychophysics","81","235992","0.0-8.0-0.34","6097bc419da1d74a8bb14d52","609006691f6f4e337c17f836","609d4b2b113933f8ed7b0bda","395.00000000043656","","","","39","","","","key","16.665999999999865","707.5","406","true","-1","133.029677568","2.5769803776000004","11","1","-1","","","","","","","","","","","","",""
"psychophysics","82","237428","0.0-8.0-0.35","6097bc419da1d74a8bb14d52","609006691f6f4e337c17f836","609d4b2b113933f8ed7b0bda","434.00000000110595","","","","37","","","","key","16.666000000000178","707.5","406","true","-1","135.6066579456","2.5769803776000004","11","-1","1","","","","","","","","","","","","",""
"psychophysics","83","238571","0.0-8.0-0.36","6097bc419da1d74a8bb14d52","609006691f6f4e337c17f836","609d4b2b113933f8ed7b0bda","138.0000000008149","","","","39","","","","key","16.666000000000047","707.5","406","true","1","135.6066579456","2.0615843020800004","12","-1","-1","","","","","","","","","","","","",""
"psychophysics","84","239589","0.0-8.0-0.37","6097bc419da1d74a8bb14d52","609006691f6f4e337c17f836","609d4b2b113933f8ed7b0bda","15.00000000122236","","","","37","","","","key","16.943766666666487","707.5","406","true","-1","133.54507364352","2.0615843020800004","12","-1","-1","","","","","","","","","","","","",""
"psychophysics","85","240660","0.0-8.0-0.38","6097bc419da1d74a8bb14d52","609006691f6f4e337c17f836","609d4b2b113933f8ed7b0bda","68.00000000113505","","","","37","","","","key","16.66600000000021","707.5","406","true","1","133.54507364352","1.6492674416640005","13","1","-1","","","","","","","","","","","","",""
"psychophysics","86","241690","0.0-8.0-0.39","6097bc419da1d74a8bb14d52","609006691f6f4e337c17f836","609d4b2b113933f8ed7b0bda","28.000000000261934","","","","39","","","","key","16.665999999999823","707.5","406","true","1","135.194341085184","1.6492674416640005","13","-1","1","","","","","","","","","","","","",""
"html-keyboard-response","87","241960","0.0-9.0","6097bc419da1d74a8bb14d52","609006691f6f4e337c17f836","609d4b2b113933f8ed7b0bda","266.9999999998254","<p>Well Done !</p><p>Prepare for a new block.</p><p>DON'T EXIT THE FULL SCREEN MODE</p><p>Press the Spacebar to start.</p>","","","39","","","","","","","","","","","","","","","true","134.89304074076162","","","","","","","","","","",""
"psychophysics","88","243933","0.0-10.0-0.0","6097bc419da1d74a8bb14d52","609006691f6f4e337c17f836","609d4b2b113933f8ed7b0bda","968.999999999156","","","","37","","","","key","16.665999999999904","707.5","406","true","-1","180","30","0","-1","","","","","","","","","","","","","",""
"psychophysics","89","245034","0.0-10.0-0.1","6097bc419da1d74a8bb14d52","609006691f6f4e337c17f836","609d4b2b113933f8ed7b0bda","96.99999999976717","","","","39","","","","key","16.666000000000125","707.5","406","true","1","180","30","0","-1","-1","","","","","","","","","","","","",""
"psychophysics","90","246199","0.0-10.0-0.2","6097bc419da1d74a8bb14d52","609006691f6f4e337c17f836","609d4b2b113933f8ed7b0bda","162.99999999866122","","","","39","","","","key","16.66599999999997","707.5","406","true","1","150","30","0","-1","-1","","","","","","","","","","","","",""
"psychophysics","91","247302","0.0-10.0-0.3","6097bc419da1d74a8bb14d52","609006691f6f4e337c17f836","609d4b2b113933f8ed7b0bda","100.00000000037835","","","","37","","","","key","16.666000000000125","707.5","406","true","-1","150","30","0","-1","-1","","","","","","","","","","","","",""
"psychophysics","92","248419","0.0-10.0-0.4","6097bc419da1d74a8bb14d52","609006691f6f4e337c17f836","609d4b2b113933f8ed7b0bda","114.99999999976717","","","","37","","","","key","16.666000000000086","707.5","406","true","-1","129","30","0","-1","-1","","","","","","","","","","","","",""
"psychophysics","93","249477","0.0-10.0-0.5","6097bc419da1d74a8bb14d52","609006691f6f4e337c17f836","609d4b2b113933f8ed7b0bda","55.00000000029104","","","","37","","","","key","16.665999999999787","707.5","406","true","1","129","24","1","1","-1","","","","","","","","","","","","",""
"psychophysics","94","250496","0.0-10.0-0.6","6097bc419da1d74a8bb14d52","609006691f6f4e337c17f836","609d4b2b113933f8ed7b0bda","16.999999999825377","","","","37","","","","key","16.66600000000035","707.5","406","true","-1","153","24","1","-1","1","","","","","","","","","","","","",""
"psychophysics","95","251663","0.0-10.0-0.7","6097bc419da1d74a8bb14d52","609006691f6f4e337c17f836","609d4b2b113933f8ed7b0bda","162.99999999863212","","","","37","","","","key","16.66599999999997","707.5","406","true","-1","153","19.2","2","-1","-1","","","","","","","","","","","","",""
"psychophysics","96","252858","0.0-10.0-0.8","6097bc419da1d74a8bb14d52","609006691f6f4e337c17f836","609d4b2b113933f8ed7b0bda","191.99999999912689","","","","39","","","","key","16.66600000000031","707.5","406","true","1","133.8","19.2","2","-1","-1","","","","","","","","","","","","",""
"psychophysics","97","253983","0.0-10.0-0.9","6097bc419da1d74a8bb14d52","609006691f6f4e337c17f836","609d4b2b113933f8ed7b0bda","118.00000000034925","","","","39","","","","key","16.666000000000086","707.5","406","true","1","133.8","19.2","2","-1","-1","","","","","","","","","","","","",""
"psychophysics","98","255268","0.0-10.0-0.10","6097bc419da1d74a8bb14d52","609006691f6f4e337c17f836","609d4b2b113933f8ed7b0bda","282.00000000104774","","","","37","","","","key","16.666000000000086","707.5","406","true","1","129","15.36","3","1","-1","","","","","","","","","","","","",""
"psychophysics","99","256378","0.0-10.0-0.11","6097bc419da1d74a8bb14d52","609006691f6f4e337c17f836","609d4b2b113933f8ed7b0bda","106.99999999994179","","","","39","","","","key","16.665999999999677","707.5","406","true","-1","144.36","15.36","3","1","1","","","","","","","","","","","","",""
"psychophysics","100","257442","0.0-10.0-0.12","6097bc419da1d74a8bb14d52","609006691f6f4e337c17f836","609d4b2b113933f8ed7b0bda","59.99999999953434","","","","37","","","","key","16.665999999999748","707.5","406","true","-1","159.72000000000003","15.36","3","-1","1","","","","","","","","","","","","",""
"psychophysics","101","258673","0.0-10.0-0.13","6097bc419da1d74a8bb14d52","609006691f6f4e337c17f836","609d4b2b113933f8ed7b0bda","226.99999999895226","","","","39","","","","key","16.665999999999432","707.5","406","true","1","159.72000000000003","12.287999999999998","4","-1","-1","","","","","","","","","","","","",""
"psychophysics","102","260101","0.0-10.0-0.14","6097bc419da1d74a8bb14d52","609006691f6f4e337c17f836","609d4b2b113933f8ed7b0bda","424.9999999993015","","","","39","","","","key","16.665999999999837","707.5","406","true","1","147.43200000000002","12.287999999999998","4","-1","-1","","","","","","","","","","","","",""
"psychophysics","103","261135","0.0-10.0-0.15","6097bc419da1d74a8bb14d52","609006691f6f4e337c17f836","609d4b2b113933f8ed7b0bda","30.999999999068677","","","","39","","","","key","16.665999999999823","707.5","406","true","1","147.43200000000002","12.287999999999998","4","-1","-1","","","","","","","","","","","","",""
"psychophysics","104","262154","0.0-10.0-0.16","6097bc419da1d74a8bb14d52","609006691f6f4e337c17f836","609d4b2b113933f8ed7b0bda","14.999999999417923","","","","39","","","","key","16.66599999999938","707.5","406","true","1","135.144","12.287999999999998","4","-1","-1","","","","","","","","","","","","",""
"psychophysics","105","263539","0.0-10.0-0.17","6097bc419da1d74a8bb14d52","609006691f6f4e337c17f836","609d4b2b113933f8ed7b0bda","381.99999999959255","","","","39","","","","key","16.665999999999567","707.5","406","true","-1","135.144","9.8304","5","1","-1","","","","","","","","","","","","",""
"psychophysics","106","264588","0.0-10.0-0.18","6097bc419da1d74a8bb14d52","609006691f6f4e337c17f836","609d4b2b113933f8ed7b0bda","47.00000000052387","","","","39","","","","key","16.666000000000256","707.5","406","true","1","144.9744","9.8304","5","-1","1","","","","","","","","","","","","",""
"psychophysics","107","266142","0.0-10.0-0.19","6097bc419da1d74a8bb14d52","609006691f6f4e337c17f836","609d4b2b113933f8ed7b0bda","550.000000001106","","","","39","","","","key","16.66599999999997","707.5","406","true","1","144.9744","7.864319999999999","6","-1","-1","","","","","","","","","","","","",""
"psychophysics","108","267638","0.0-10.0-0.20","6097bc419da1d74a8bb14d52","609006691f6f4e337c17f836","609d4b2b113933f8ed7b0bda","493.00000000040745","","","","37","","","","key","16.665999999999727","707.5","406","true","-1","137.11008","7.864319999999999","6","-1","-1","","","","","","","","","","","","",""
"psychophysics","109","268789","0.0-10.0-0.21","6097bc419da1d74a8bb14d52","609006691f6f4e337c17f836","609d4b2b113933f8ed7b0bda","149.99999999965075","","","","39","","","","key","16.666000000000007","707.5","406","true","1","137.11008","7.864319999999999","6","-1","-1","","","","","","","","","","","","",""
"psychophysics","110","269983","0.0-10.0-0.22","6097bc419da1d74a8bb14d52","609006691f6f4e337c17f836","609d4b2b113933f8ed7b0bda","190.00000000052387","","","","39","","","","key","16.66600000000031","707.5","406","true","1","129.24576000000002","7.864319999999999","6","-1","-1","","","","","","","","","","","","",""
"psychophysics","111","271224","0.0-10.0-0.23","6097bc419da1d74a8bb14d52","609006691f6f4e337c17f836","609d4b2b113933f8ed7b0bda","238.99999999959255","","","","39","","","","key","16.66600000000023","707.5","406","true","1","129.24576000000002","7.864319999999999","6","-1","-1","","","","","","","","","","","","",""
"psychophysics","112","272994","0.0-10.0-0.24","6097bc419da1d74a8bb14d52","609006691f6f4e337c17f836","609d4b2b113933f8ed7b0bda","765.9999999996508","","","","39","","","","key","16.665999999999933","707.5","406","true","-1","129","6.291456","7","1","-1","","","","","","","","","","","","",""
"psychophysics","113","274440","0.0-10.0-0.25","6097bc419da1d74a8bb14d52","609006691f6f4e337c17f836","609d4b2b113933f8ed7b0bda","439.99999999871943","","","","37","","","","key","16.666000000000146","707.5","406","true","-1","135.291456","6.291456","7","-1","1","","","","","","","","","","","","",""
"psychophysics","114","275621","0.0-10.0-0.26","6097bc419da1d74a8bb14d52","609006691f6f4e337c17f836","609d4b2b113933f8ed7b0bda","177.99999999988358","","","","39","","","","key","16.665999999999933","707.5","406","true","-1","135.291456","5.033164800000001","8","1","-1","","","","","","","","","","","","",""
"psychophysics","115","277307","0.0-10.0-0.27","6097bc419da1d74a8bb14d52","609006691f6f4e337c17f836","609d4b2b113933f8ed7b0bda","683.9999999993015","","","","37","","","","key","16.66600000000035","707.5","406","true","-1","140.32462080000002","5.033164800000001","8","-1","1","","","","","","","","","","","","",""
"psychophysics","116","278715","0.0-10.0-0.28","6097bc419da1d74a8bb14d52","609006691f6f4e337c17f836","609d4b2b113933f8ed7b0bda","404.00000000046566","","","","39","","","","key","16.665999999999894","707.5","406","true","1","140.32462080000002","4.0265318400000005","9","-1","-1","","","","","","","","","","","","",""
"psychophysics","117","280120","0.0-10.0-0.29","6097bc419da1d74a8bb14d52","609006691f6f4e337c17f836","609d4b2b113933f8ed7b0bda","403.00000000023283","","","","39","","","","key","16.66600000000021","707.5","406","true","1","136.29808896000003","4.0265318400000005","9","-1","-1","","","","","","","","","","","","",""
"psychophysics","118","281180","0.0-10.0-0.30","6097bc419da1d74a8bb14d52","609006691f6f4e337c17f836","609d4b2b113933f8ed7b0bda","55.00000000029104","","","","37","","","","key","16.666000000000256","707.5","406","true","-1","136.29808896000003","4.0265318400000005","9","-1","-1","","","","","","","","","","","","",""
"psychophysics","119","282559","0.0-10.0-0.31","6097bc419da1d74a8bb14d52","609006691f6f4e337c17f836","609d4b2b113933f8ed7b0bda","377.00000000040745","","","","39","","","","key","16.666000000000277","707.5","406","true","1","132.27155712000004","4.0265318400000005","9","-1","-1","","","","","","","","","","","","",""
"psychophysics","120","284043","0.0-10.0-0.32","6097bc419da1d74a8bb14d52","609006691f6f4e337c17f836","609d4b2b113933f8ed7b0bda","482","","","","37","","","","key","16.857563218390222","707.5","406","true","-1","132.27155712000004","4.0265318400000005","9","-1","-1","","","","","","","","","","","","",""
"psychophysics","121","285415","0.0-10.0-0.33","6097bc419da1d74a8bb14d52","609006691f6f4e337c17f836","609d4b2b113933f8ed7b0bda","368.00000000040745","","","","39","","","","key","16.665999999999954","707.5","406","true","-1","129","3.2212254720000004","10","1","-1","","","","","","","","","","","","",""
"psychophysics","122","287661","0.0-10.0-0.34","6097bc419da1d74a8bb14d52","609006691f6f4e337c17f836","609d4b2b113933f8ed7b0bda","1244.000000000582","","","","39","","","","key","16.66599999999961","707.5","406","true","1","132.22122547200001","3.2212254720000004","10","-1","1","","","","","","","","","","","","",""
"psychophysics","123","289015","0.0-10.0-0.35","6097bc419da1d74a8bb14d52","609006691f6f4e337c17f836","609d4b2b113933f8ed7b0bda","351.00000000052387","","","","39","","","","key","16.665999999999954","707.5","406","true","1","132.22122547200001","2.5769803776000004","11","-1","-1","","","","","","","","","","","","",""
"psychophysics","124","290066","0.0-10.0-0.36","6097bc419da1d74a8bb14d52","609006691f6f4e337c17f836","609d4b2b113933f8ed7b0bda","48.99999999906868","","","","39","","","","key","16.66599999999932","707.5","406","true","-1","129.64424509440002","2.0615843020800004","12","1","-1","","","","","","","","","","","","",""
"psychophysics","125","291152","0.0-10.0-0.37","6097bc419da1d74a8bb14d52","609006691f6f4e337c17f836","609d4b2b113933f8ed7b0bda","82.00000000034925","","","","37","","","","key","16.666000000000167","707.5","406","true","-1","131.70582939648003","2.0615843020800004","12","-1","1","","","","","","","","","","","","",""
"psychophysics","126","295175","0.0-10.0-0.38","6097bc419da1d74a8bb14d52","609006691f6f4e337c17f836","609d4b2b113933f8ed7b0bda","3020.0000000004657","","","","39","","","","key","16.73573221757333","707.5","406","true","-1","131.70582939648003","1.6492674416640005","13","1","-1","","","","","","","","","","","","",""
"psychophysics","127","299075","0.0-10.0-0.39","6097bc419da1d74a8bb14d52","609006691f6f4e337c17f836","609d4b2b113933f8ed7b0bda","2894.000000000233","","","","39","","","","key","16.66600000000006","707.5","406","true","-1","133.35509683814402","1.6492674416640005","13","1","1","","","","","","","","","","","","",""
"html-keyboard-response","128","307678","0.0-11.0","6097bc419da1d74a8bb14d52","609006691f6f4e337c17f836","609d4b2b113933f8ed7b0bda","8600.00000000035","<p>Well Done !</p><p>Prepare for a new block.</p><p>DON'T EXIT THE FULL SCREEN MODE</p><p>Press the Spacebar to start.</p>","","","32","","","","","","","","","","","","","","","true","133.88165982863362","","","","","","","","","","",""
"psychophysics","129","308908","0.0-12.0-0.0","6097bc419da1d74a8bb14d52","609006691f6f4e337c17f836","609d4b2b113933f8ed7b0bda","225.00000000034925","","","","37","","","","key","16.66600000000023","707.5","406","true","-1","180","30","0","-1","","","","","","","","","","","","","",""
"psychophysics","130","312771","0.0-12.0-0.1","6097bc419da1d74a8bb14d52","609006691f6f4e337c17f836","609d4b2b113933f8ed7b0bda","2854.9999999995925","","","","39","","","","key","16.665999999999833","707.5","406","true","1","180","30","0","-1","-1","","","","","","","","","","","","",""
"psychophysics","131","313906","0.0-12.0-0.2","6097bc419da1d74a8bb14d52","609006691f6f4e337c17f836","609d4b2b113933f8ed7b0bda","129.9999999992433","","","","37","","","","key","16.66599999999961","707.5","406","true","-1","150","30","0","-1","-1","","","","","","","","","","","","",""
"psychophysics","132","314992","0.0-12.0-0.3","6097bc419da1d74a8bb14d52","609006691f6f4e337c17f836","609d4b2b113933f8ed7b0bda","82.00000000034925","","","","39","","","","key","16.666000000000167","707.5","406","true","1","150","30","0","-1","-1","","","","","","","","","","","","",""
"psychophysics","133","316361","0.0-12.0-0.4","6097bc419da1d74a8bb14d52","609006691f6f4e337c17f836","609d4b2b113933f8ed7b0bda","363.99999999959255","","","","39","","","","key","16.665999999999954","707.5","406","true","-1","129","24","1","1","-1","","","","","","","","","","","","",""
"psychophysics","134","317385","0.0-12.0-0.5","6097bc419da1d74a8bb14d52","609006691f6f4e337c17f836","609d4b2b113933f8ed7b0bda","20.00000000046566","","","","37","","","","key","16.665999999999823","707.5","406","true","-1","153","24","1","-1","1","","","","","","","","","","","","",""
"psychophysics","135","318609","0.0-12.0-0.6","6097bc419da1d74a8bb14d52","609006691f6f4e337c17f836","609d4b2b113933f8ed7b0bda","221.99999999970896","","","","37","","","","key","16.665999999999865","707.5","406","true","-1","153","19.2","2","-1","-1","","","","","","","","","","","","",""
"psychophysics","136","319980","0.0-12.0-0.7","6097bc419da1d74a8bb14d52","609006691f6f4e337c17f836","609d4b2b113933f8ed7b0bda","367.0000000001746","","","","37","","","","key","16.666000000000277","707.5","406","true","-1","133.8","19.2","2","-1","-1","","","","","","","","","","","","",""
"psychophysics","137","321207","0.0-12.0-0.8","6097bc419da1d74a8bb14d52","609006691f6f4e337c17f836","609d4b2b113933f8ed7b0bda","224.9999999985448","","","","37","","","","key","16.666000000000672","707.5","406","true","-1","133.8","19.2","2","-1","-1","","","","","","","","","","","","",""
"psychophysics","138","322300","0.0-12.0-0.9","6097bc419da1d74a8bb14d52","609006691f6f4e337c17f836","609d4b2b113933f8ed7b0bda","88.99999999994179","","","","39","","","","key","16.665999999999677","707.5","406","true","-1","129","15.36","3","1","-1","","","","","","","","","","","","",""
"psychophysics","139","323477","0.0-12.0-0.10","6097bc419da1d74a8bb14d52","609006691f6f4e337c17f836","609d4b2b113933f8ed7b0bda","174.9999999992433","","","","37","","","","key","16.66600000000039","707.5","406","true","-1","144.36","15.36","3","-1","1","","","","","","","","","","","","",""
"psychophysics","140","324688","0.0-12.0-0.11","6097bc419da1d74a8bb14d52","609006691f6f4e337c17f836","609d4b2b113933f8ed7b0bda","206.9999999985448","","","","37","","","","key","16.665999999999865","707.5","406","true","-1","144.36","12.287999999999998","4","-1","-1","","","","","","","","","","","","",""
"psychophysics","141","325871","0.0-12.0-0.12","6097bc419da1d74a8bb14d52","609006691f6f4e337c17f836","609d4b2b113933f8ed7b0bda","179.0000000000582","","","","37","","","","key","16.665999999999933","707.5","406","true","1","132.072","9.8304","5","1","-1","","","","","","","","","","","","",""
"psychophysics","142","328881","0.0-12.0-0.13","6097bc419da1d74a8bb14d52","609006691f6f4e337c17f836","609d4b2b113933f8ed7b0bda","2005.999999999418","","","","39","","","","key","16.666000000000025","707.5","406","true","1","141.9024","9.8304","5","-1","1","","","","","","","","","","","","",""
"psychophysics","143","331959","0.0-12.0-0.14","6097bc419da1d74a8bb14d52","609006691f6f4e337c17f836","609d4b2b113933f8ed7b0bda","2073.999999998661","","","","39","","","","key","16.665999999999823","707.5","406","true","1","141.9024","7.864319999999999","6","-1","-1","","","","","","","","","","","","",""
"psychophysics","144","333507","0.0-12.0-0.15","6097bc419da1d74a8bb14d52","609006691f6f4e337c17f836","609d4b2b113933f8ed7b0bda","542.9999999996508","","","","39","","","","key","16.66599999999997","707.5","406","true","1","134.03808","7.864319999999999","6","-1","-1","","","","","","","","","","","","",""
"psychophysics","145","334669","0.0-12.0-0.16","6097bc419da1d74a8bb14d52","609006691f6f4e337c17f836","609d4b2b113933f8ed7b0bda","159.99999999982538","","","","39","","","","key","16.66599999999955","707.5","406","true","-1","134.03808","6.291456","7","1","-1","","","","","","","","","","","","",""
"psychophysics","146","336317","0.0-12.0-0.17","6097bc419da1d74a8bb14d52","609006691f6f4e337c17f836","609d4b2b113933f8ed7b0bda","644.0000000002328","","","","39","","","","key","16.665999999999816","707.5","406","true","1","140.32953600000002","6.291456","7","-1","1","","","","","","","","","","","","",""
"psychophysics","147","337411","0.0-12.0-0.18","6097bc419da1d74a8bb14d52","609006691f6f4e337c17f836","609d4b2b113933f8ed7b0bda","91.00000000034925","","","","37","","","","key","16.665999999999258","707.5","406","true","-1","140.32953600000002","5.033164800000001","8","-1","-1","","","","","","","","","","","","",""
"psychophysics","148","338553","0.0-12.0-0.19","6097bc419da1d74a8bb14d52","609006691f6f4e337c17f836","609d4b2b113933f8ed7b0bda","139.00000000098953","","","","37","","","","key","16.666000000000007","707.5","406","true","-1","135.2963712","5.033164800000001","8","-1","-1","","","","","","","","","","","","",""
"psychophysics","149","339715","0.0-12.0-0.20","6097bc419da1d74a8bb14d52","609006691f6f4e337c17f836","609d4b2b113933f8ed7b0bda","159.0000000014552","","","","39","","","","key","16.66600000000039","707.5","406","true","1","135.2963712","5.033164800000001","8","-1","-1","","","","","","","","","","","","",""
"psychophysics","150","340875","0.0-12.0-0.21","6097bc419da1d74a8bb14d52","609006691f6f4e337c17f836","609d4b2b113933f8ed7b0bda","156.00000000087311","","","","39","","","","key","16.914746268656724","707.5","406","true","1","130.2632064","5.033164800000001","8","-1","-1","","","","","","","","","","","","",""
"psychophysics","151","342494","0.0-12.0-0.22","6097bc419da1d74a8bb14d52","609006691f6f4e337c17f836","609d4b2b113933f8ed7b0bda","614.9999999998254","","","","39","","","","key","16.665999999999865","707.5","406","true","1","130.2632064","5.033164800000001","8","-1","-1","","","","","","","","","","","","",""
"psychophysics","152","344634","0.0-12.0-0.23","6097bc419da1d74a8bb14d52","609006691f6f4e337c17f836","609d4b2b113933f8ed7b0bda","1136.0000000004075","","","","39","","","","key","16.665999999999713","707.5","406","true","1","129","5.033164800000001","8","-1","-1","","","","","","","","","","","","",""
"psychophysics","153","345960","0.0-12.0-0.24","6097bc419da1d74a8bb14d52","609006691f6f4e337c17f836","609d4b2b113933f8ed7b0bda","324.00000000052387","","","","37","","","","key","16.665999999999677","707.5","406","true","-1","129","5.033164800000001","8","-1","-1","","","","","","","","","","","","",""
"psychophysics","154","347388","0.0-12.0-0.25","6097bc419da1d74a8bb14d52","609006691f6f4e337c17f836","609d4b2b113933f8ed7b0bda","424.9999999992433","","","","39","","","","key","16.665999999999837","707.5","406","true","-1","129","4.0265318400000005","9","1","-1","","","","","","","","","","","","",""
"psychophysics","155","348477","0.0-12.0-0.26","6097bc419da1d74a8bb14d52","609006691f6f4e337c17f836","609d4b2b113933f8ed7b0bda","84.99999999912689","","","","39","","","","key","16.93053968253985","707.5","406","true","1","133.02653184","4.0265318400000005","9","-1","1","","","","","","","","","","","","",""
"psychophysics","156","355021","0.0-12.0-0.27","6097bc419da1d74a8bb14d52","609006691f6f4e337c17f836","609d4b2b113933f8ed7b0bda","5540.999999999243","","","","37","","","","key","16.665999999999965","707.5","406","true","-1","133.02653184","3.2212254720000004","10","-1","-1","","","","","","","","","","","","",""
"psychophysics","157","357268","0.0-12.0-0.28","6097bc419da1d74a8bb14d52","609006691f6f4e337c17f836","609d4b2b113933f8ed7b0bda","1241","","","","37","","","","key","16.666000000000047","707.5","406","true","1","129.805306368","2.5769803776000004","11","1","-1","","","","","","","","","","","","",""
"psychophysics","158","358881","0.0-12.0-0.29","6097bc419da1d74a8bb14d52","609006691f6f4e337c17f836","609d4b2b113933f8ed7b0bda","611.0000000007567","","","","39","","","","key","16.66600000000047","707.5","406","true","-1","132.3822867456","2.5769803776000004","11","1","1","","","","","","","","","","","","",""
"psychophysics","159","360128","0.0-12.0-0.30","6097bc419da1d74a8bb14d52","609006691f6f4e337c17f836","609d4b2b113933f8ed7b0bda","244.99999999895226","","","","39","","","","key","16.665999999999798","707.5","406","true","1","134.9592671232","2.5769803776000004","11","-1","1","","","","","","","","","","","","",""
"psychophysics","160","361304","0.0-12.0-0.31","6097bc419da1d74a8bb14d52","609006691f6f4e337c17f836","609d4b2b113933f8ed7b0bda","173.00000000064028","","","","39","","","","key","16.66599999999955","707.5","406","true","1","134.9592671232","2.0615843020800004","12","-1","-1","","","","","","","","","","","","",""
"psychophysics","161","363602","0.0-12.0-0.32","6097bc419da1d74a8bb14d52","609006691f6f4e337c17f836","609d4b2b113933f8ed7b0bda","1295.0000000000582","","","","37","","","","key","16.6660000000002","707.5","406","true","-1","132.89768282112","2.0615843020800004","12","-1","-1","","","","","","","","","","","","",""
"psychophysics","162","365219","0.0-12.0-0.33","6097bc419da1d74a8bb14d52","609006691f6f4e337c17f836","609d4b2b113933f8ed7b0bda","614.9999999997672","","","","39","","","","key","16.665999999999865","707.5","406","true","1","132.89768282112","2.0615843020800004","12","-1","-1","","","","","","","","","","","","",""
"psychophysics","163","366367","0.0-12.0-0.34","6097bc419da1d74a8bb14d52","609006691f6f4e337c17f836","609d4b2b113933f8ed7b0bda","145.99999999877764","","","","39","","","","key","16.666000000000007","707.5","406","true","1","130.83609851903998","2.0615843020800004","12","-1","-1","","","","","","","","","","","","",""
"psychophysics","164","368140","0.0-12.0-0.35","6097bc419da1d74a8bb14d52","609006691f6f4e337c17f836","609d4b2b113933f8ed7b0bda","770.0000000004657","","","","39","","","","key","16.665999999999933","707.5","406","true","-1","130.83609851903998","1.6492674416640005","13","1","-1","","","","","","","","","","","","",""
"psychophysics","165","369931","0.0-12.0-0.36","6097bc419da1d74a8bb14d52","609006691f6f4e337c17f836","609d4b2b113933f8ed7b0bda","787.9999999986612","","","","39","","","","key","16.666000000000185","707.5","406","true","1","132.48536596070397","1.6492674416640005","13","-1","1","","","","","","","","","","","","",""
"psychophysics","166","371281","0.0-12.0-0.37","6097bc419da1d74a8bb14d52","609006691f6f4e337c17f836","609d4b2b113933f8ed7b0bda","334.9999999991269","","","","37","","","","key","16.665999999999954","707.5","406","true","-1","132.48536596070397","1.3194139533312006","14","-1","-1","","","","","","","","","","","","",""
"psychophysics","167","372682","0.0-12.0-0.38","6097bc419da1d74a8bb14d52","609006691f6f4e337c17f836","609d4b2b113933f8ed7b0bda","398.9999999994179","","","","37","","","","key","16.665999999999894","707.5","406","true","1","131.16595200737277","1.0555311626649604","15","1","-1","","","","","","","","","","","","",""
"psychophysics","168","374112","0.0-12.0-0.39","6097bc419da1d74a8bb14d52","609006691f6f4e337c17f836","609d4b2b113933f8ed7b0bda","426.99999999970896","","","","39","","","","key","16.665999999999837","707.5","406","true","1","132.22148317003771","1.0555311626649604","15","-1","1","","","","","","","","","","","","",""
"html-keyboard-response","169","374230","0.0-13.0","6097bc419da1d74a8bb14d52","609006691f6f4e337c17f836","609d4b2b113933f8ed7b0bda","116","<p>Well Done !</p><p>Prepare for a new block.</p><p>DON'T EXIT THE FULL SCREEN MODE</p><p>Press the Spacebar to start.</p>","","","39","","","","","","","","","","","","","","","true","132.19899472127588","","","","","","","","","","",""
"html-keyboard-response","170","374332","0.0-14.0","6097bc419da1d74a8bb14d52","609006691f6f4e337c17f836","609d4b2b113933f8ed7b0bda","null","","","","null","","","","","","","","","","","","","","","","","138.2844154693878","true","148.5688309387756","","","","","","","",""
"instructions","171","398086","0.0-15.0","6097bc419da1d74a8bb14d52","609006691f6f4e337c17f836","609d4b2b113933f8ed7b0bda","23752.000000000407","","","","","","","[{""page_index"":0,""viewing_time"":16049.000000000873},{""page_index"":1,""viewing_time"":2050.999999999476},{""page_index"":2,""viewing_time"":5650.999999999825}]","","","","","","","","","","","","","","","","","","","","","","","",""
"psychophysics","172","401091","0.0-16.0-0.0","6097bc419da1d74a8bb14d52","609006691f6f4e337c17f836","609d4b2b113933f8ed7b0bda","null","","","","null","","","","key","16.665999999999904","707.5","406","","","","","","","","","","","","","","","","","","","",""
"psychophysics","173","401594","0.0-16.0-1.0","6097bc419da1d74a8bb14d52","609006691f6f4e337c17f836","609d4b2b113933f8ed7b0bda","null","","","","null","","","","key","16.66599999999938","707.5","406","","","","","","","","","","","","","149","-1","4","false","","","",""
"psychophysics","174","402004","0.0-16.0-2.0","6097bc419da1d74a8bb14d52","609006691f6f4e337c17f836","609d4b2b113933f8ed7b0bda","406.9999999991851","","","","90","","","","key","16.666000000001237","707.5","406","","","","","","","","","","","","","","","","","","","",""
"psychophysics","175","403005","0.0-16.0-0.1","6097bc419da1d74a8bb14d52","609006691f6f4e337c17f836","609d4b2b113933f8ed7b0bda","null","","","","null","","","","key","16.666000000000892","707.5","406","","","","","","","","","","","","","","","","","","","",""
"psychophysics","176","403508","0.0-16.0-1.1","6097bc419da1d74a8bb14d52","609006691f6f4e337c17f836","609d4b2b113933f8ed7b0bda","null","","","","null","","","","key","16.666000000000448","707.5","406","","","","","","","","","","","","","149","-1","6","false","","","",""
"psychophysics","177","403640","0.0-16.0-2.1","6097bc419da1d74a8bb14d52","609006691f6f4e337c17f836","609d4b2b113933f8ed7b0bda","127.00000000040745","","","","90","","","","key","16.666000000001596","707.5","406","","","","","","","","","","","","","","","","","","","",""
"psychophysics","178","404641","0.0-16.0-0.2","6097bc419da1d74a8bb14d52","609006691f6f4e337c17f836","609d4b2b113933f8ed7b0bda","null","","","","null","","","","key","16.665999999999904","707.5","406","","","","","","","","","","","","","","","","","","","",""
"psychophysics","179","405143","0.0-16.0-1.2","6097bc419da1d74a8bb14d52","609006691f6f4e337c17f836","609d4b2b113933f8ed7b0bda","null","","","","null","","","","key","16.66600000000132","707.5","406","","","","","","","","","","","","","149","1","5","false","","","",""
"psychophysics","180","405174","0.0-16.0-2.2","6097bc419da1d74a8bb14d52","609006691f6f4e337c17f836","609d4b2b113933f8ed7b0bda","29.000000000407454","","","","77","","","","key","NaN","707.5","406","","","","","","","","","","","","","","","","","","","",""
"psychophysics","181","406175","0.0-16.0-0.3","6097bc419da1d74a8bb14d52","609006691f6f4e337c17f836","609d4b2b113933f8ed7b0bda","null","","","","null","","","","key","16.665999999999904","707.5","406","","","","","","","","","","","","","","","","","","","",""
"psychophysics","182","406678","0.0-16.0-1.3","6097bc419da1d74a8bb14d52","609006691f6f4e337c17f836","609d4b2b113933f8ed7b0bda","null","","","","null","","","","key","16.66600000000132","707.5","406","","","","","","","","","","","","","149","1","0","false","","","",""
"psychophysics","183","406687","0.0-16.0-2.3","6097bc419da1d74a8bb14d52","609006691f6f4e337c17f836","609d4b2b113933f8ed7b0bda","6.000000001222361","","","","77","","","","key","NaN","707.5","406","","","","","","","","","","","","","","","","","","","",""
"psychophysics","184","407688","0.0-16.0-0.4","6097bc419da1d74a8bb14d52","609006691f6f4e337c17f836","609d4b2b113933f8ed7b0bda","null","","","","null","","","","key","16.665999999999904","707.5","406","","","","","","","","","","","","","","","","","","","",""
"psychophysics","185","408190","0.0-16.0-1.4","6097bc419da1d74a8bb14d52","609006691f6f4e337c17f836","609d4b2b113933f8ed7b0bda","null","","","","null","","","","key","16.666000000000448","707.5","406","","","","","","","","","","","","","149","1","3","false","","","",""
"psychophysics","186","408235","0.0-16.0-2.4","6097bc419da1d74a8bb14d52","609006691f6f4e337c17f836","609d4b2b113933f8ed7b0bda","40.9999999992433","","","","77","","","","key","16.66599999999744","707.5","406","","","","","","","","","","","","","","","","","","","",""
"psychophysics","187","409237","0.0-16.0-0.5","6097bc419da1d74a8bb14d52","609006691f6f4e337c17f836","609d4b2b113933f8ed7b0bda","null","","","","null","","","","key","16.665999999999904","707.5","406","","","","","","","","","","","","","","","","","","","",""
"psychophysics","188","409740","0.0-16.0-1.5","6097bc419da1d74a8bb14d52","609006691f6f4e337c17f836","609d4b2b113933f8ed7b0bda","null","","","","null","","","","key","16.66599999999844","707.5","406","","","","","","","","","","","","","149","1","6","false","","","",""
"psychophysics","189","419513","0.0-16.0-2.5","6097bc419da1d74a8bb14d52","609006691f6f4e337c17f836","609d4b2b113933f8ed7b0bda","9766.999999999825","","","","90","","","","key","16.66600000000002","707.5","406","","","","","","","","","","","","","","","","","","","",""
"psychophysics","190","420515","0.0-16.0-0.6","6097bc419da1d74a8bb14d52","609006691f6f4e337c17f836","609d4b2b113933f8ed7b0bda","null","","","","null","","","","key","16.665999999999904","707.5","406","","","","","","","","","","","","","","","","","","","",""
"psychophysics","191","421020","0.0-16.0-1.6","6097bc419da1d74a8bb14d52","609006691f6f4e337c17f836","609d4b2b113933f8ed7b0bda","null","","","","null","","","","key","16.666000000000448","707.5","406","","","","","","","","","","","","","149","-1","0","false","","","",""
"psychophysics","192","423910","0.0-16.0-2.6","6097bc419da1d74a8bb14d52","609006691f6f4e337c17f836","609d4b2b113933f8ed7b0bda","2888.000000000873","","","","90","","","","key","16.66599999999996","707.5","406","","","","","","","","","","","","","","","","","","","",""
"psychophysics","193","424911","0.0-16.0-0.7","6097bc419da1d74a8bb14d52","609006691f6f4e337c17f836","609d4b2b113933f8ed7b0bda","null","","","","null","","","","key","16.665999999999904","707.5","406","","","","","","","","","","","","","","","","","","","",""
"psychophysics","194","425414","0.0-16.0-1.7","6097bc419da1d74a8bb14d52","609006691f6f4e337c17f836","609d4b2b113933f8ed7b0bda","null","","","","null","","","","key","16.666000000000448","707.5","406","","","","","","","","","","","","","149","-1","3","false","","","",""
"psychophysics","195","425728","0.0-16.0-2.7","6097bc419da1d74a8bb14d52","609006691f6f4e337c17f836","609d4b2b113933f8ed7b0bda","310.99999999970896","","","","77","","","","key","16.666000000000672","707.5","406","","","","","","","","","","","","","","","","","","","",""
"psychophysics","196","426729","0.0-16.0-0.8","6097bc419da1d74a8bb14d52","609006691f6f4e337c17f836","609d4b2b113933f8ed7b0bda","null","","","","null","","","","key","16.665999999999904","707.5","406","","","","","","","","","","","","","","","","","","","",""
"psychophysics","197","427231","0.0-16.0-1.8","6097bc419da1d74a8bb14d52","609006691f6f4e337c17f836","609d4b2b113933f8ed7b0bda","null","","","","null","","","","key","16.66599999999844","707.5","406","","","","","","","","","","","","","149","-1","2","false","","","",""
"psychophysics","198","427860","0.0-16.0-2.8","6097bc419da1d74a8bb14d52","609006691f6f4e337c17f836","609d4b2b113933f8ed7b0bda","627.0000000004075","","","","77","","","","key","16.665999999999798","707.5","406","","","","","","","","","","","","","","","","","","","",""
"psychophysics","199","428861","0.0-16.0-0.9","6097bc419da1d74a8bb14d52","609006691f6f4e337c17f836","609d4b2b113933f8ed7b0bda","null","","","","null","","","","key","16.665999999999904","707.5","406","","","","","","","","","","","","","","","","","","","",""
"psychophysics","200","429363","0.0-16.0-1.9","6097bc419da1d74a8bb14d52","609006691f6f4e337c17f836","609d4b2b113933f8ed7b0bda","null","","","","null","","","","key","16.666000000000448","707.5","406","","","","","","","","","","","","","149","1","2","false","","","",""
"psychophysics","201","429756","0.0-16.0-2.9","6097bc419da1d74a8bb14d52","609006691f6f4e337c17f836","609d4b2b113933f8ed7b0bda","389.9999999994179","","","","90","","","","key","16.666000000000086","707.5","406","","","","","","","","","","","","","","","","","","","",""
"psychophysics","202","430758","0.0-16.0-0.10","6097bc419da1d74a8bb14d52","609006691f6f4e337c17f836","609d4b2b113933f8ed7b0bda","null","","","","null","","","","key","16.66600000000035","707.5","406","","","","","","","","","","","","","","","","","","","",""
"psychophysics","203","431260","0.0-16.0-1.10","6097bc419da1d74a8bb14d52","609006691f6f4e337c17f836","609d4b2b113933f8ed7b0bda","null","","","","null","","","","key","16.666000000000448","707.5","406","","","","","","","","","","","","","149","-1","5","false","","","",""
"psychophysics","204","431315","0.0-16.0-2.10","6097bc419da1d74a8bb14d52","609006691f6f4e337c17f836","609d4b2b113933f8ed7b0bda","52.999999999883585","","","","77","","","","key","16.66599999999744","707.5","406","","","","","","","","","","","","","","","","","","","",""
"psychophysics","205","432316","0.0-16.0-0.11","6097bc419da1d74a8bb14d52","609006691f6f4e337c17f836","609d4b2b113933f8ed7b0bda","null","","","","null","","","","key","16.665999999999904","707.5","406","","","","","","","","","","","","","","","","","","","",""
"psychophysics","206","432818","0.0-16.0-1.11","6097bc419da1d74a8bb14d52","609006691f6f4e337c17f836","609d4b2b113933f8ed7b0bda","null","","","","null","","","","key","16.666000000000448","707.5","406","","","","","","","","","","","","","149","1","4","false","","","",""
"psychophysics","207","433023","0.0-16.0-2.11","6097bc419da1d74a8bb14d52","609006691f6f4e337c17f836","609d4b2b113933f8ed7b0bda","202.99999999953434","","","","77","","","","key","16.666000000000086","707.5","406","","","","","","","","","","","","","","","","","","","",""
"psychophysics","208","434026","0.0-16.0-0.12","6097bc419da1d74a8bb14d52","609006691f6f4e337c17f836","609d4b2b113933f8ed7b0bda","null","","","","null","","","","key","16.66599999999938","707.5","406","","","","","","","","","","","","","","","","","","","",""
"psychophysics","209","434528","0.0-16.0-1.12","6097bc419da1d74a8bb14d52","609006691f6f4e337c17f836","609d4b2b113933f8ed7b0bda","null","","","","null","","","","key","16.666000000000448","707.5","406","","","","","","","","","","","","","149","-1","2","false","","","",""
"psychophysics","210","434701","0.0-16.0-2.12","6097bc419da1d74a8bb14d52","609006691f6f4e337c17f836","609d4b2b113933f8ed7b0bda","170.0000000000582","","","","90","","","","key","16.666000000000672","707.5","406","","","","","","","","","","","","","","","","","","","",""
"psychophysics","211","435702","0.0-16.0-0.13","6097bc419da1d74a8bb14d52","609006691f6f4e337c17f836","609d4b2b113933f8ed7b0bda","null","","","","null","","","","key","16.665999999999904","707.5","406","","","","","","","","","","","","","","","","","","","",""
"psychophysics","212","436205","0.0-16.0-1.13","6097bc419da1d74a8bb14d52","609006691f6f4e337c17f836","609d4b2b113933f8ed7b0bda","null","","","","null","","","","key","16.666000000000448","707.5","406","","","","","","","","","","","","","149","-1","4","false","","","",""
"psychophysics","213","436232","0.0-16.0-2.13","6097bc419da1d74a8bb14d52","609006691f6f4e337c17f836","609d4b2b113933f8ed7b0bda","23.000000001047738","","","","77","","","","key","16.665999999968335","707.5","406","","","","","","","","","","","","","","","","","","","",""
"psychophysics","214","437237","0.0-16.0-0.14","6097bc419da1d74a8bb14d52","609006691f6f4e337c17f836","609d4b2b113933f8ed7b0bda","null","","","","null","","","","key","16.665999999999904","707.5","406","","","","","","","","","","","","","","","","","","","",""
"psychophysics","215","437740","0.0-16.0-1.14","6097bc419da1d74a8bb14d52","609006691f6f4e337c17f836","609d4b2b113933f8ed7b0bda","null","","","","null","","","","key","16.66600000000132","707.5","406","","","","","","","","","","","","","149","1","3","false","","","",""
"psychophysics","216","437813","0.0-16.0-2.14","6097bc419da1d74a8bb14d52","609006691f6f4e337c17f836","609d4b2b113933f8ed7b0bda","71.00000000174623","","","","77","","","","key","16.66600000000714","707.5","406","","","","","","","","","","","","","","","","","","","",""
"psychophysics","217","438816","0.0-16.0-0.15","6097bc419da1d74a8bb14d52","609006691f6f4e337c17f836","609d4b2b113933f8ed7b0bda","null","","","","null","","","","key","16.666000000000892","707.5","406","","","","","","","","","","","","","","","","","","","",""
"psychophysics","218","439319","0.0-16.0-1.15","6097bc419da1d74a8bb14d52","609006691f6f4e337c17f836","609d4b2b113933f8ed7b0bda","null","","","","null","","","","key","16.666000000000448","707.5","406","","","","","","","","","","","","","149","-1","6","false","","","",""
"psychophysics","219","439368","0.0-16.0-2.15","6097bc419da1d74a8bb14d52","609006691f6f4e337c17f836","609d4b2b113933f8ed7b0bda","46.999999998661224","","","","77","","","","key","16.666000000026543","707.5","406","","","","","","","","","","","","","","","","","","","",""
"psychophysics","220","440370","0.0-16.0-0.16","6097bc419da1d74a8bb14d52","609006691f6f4e337c17f836","609d4b2b113933f8ed7b0bda","null","","","","null","","","","key","16.665999999999904","707.5","406","","","","","","","","","","","","","","","","","","","",""
"psychophysics","221","440872","0.0-16.0-1.16","6097bc419da1d74a8bb14d52","609006691f6f4e337c17f836","609d4b2b113933f8ed7b0bda","null","","","","null","","","","key","16.66599999999844","707.5","406","","","","","","","","","","","","","149","-1","5","false","","","",""
"psychophysics","222","442869","0.0-16.0-2.16","6097bc419da1d74a8bb14d52","609006691f6f4e337c17f836","609d4b2b113933f8ed7b0bda","1989.9999999998254","","","","77","","","","key","16.66600000000013","707.5","406","","","","","","","","","","","","","","","","","","","",""
"psychophysics","223","443870","0.0-16.0-0.17","6097bc419da1d74a8bb14d52","609006691f6f4e337c17f836","609d4b2b113933f8ed7b0bda","null","","","","null","","","","key","16.665999999999904","707.5","406","","","","","","","","","","","","","","","","","","","",""
"psychophysics","224","444376","0.0-16.0-1.17","6097bc419da1d74a8bb14d52","609006691f6f4e337c17f836","609d4b2b113933f8ed7b0bda","null","","","","null","","","","key","16.66599999999938","707.5","406","","","","","","","","","","","","","149","1","0","false","","","",""
"psychophysics","225","444497","0.0-16.0-2.17","6097bc419da1d74a8bb14d52","609006691f6f4e337c17f836","609d4b2b113933f8ed7b0bda","119.00000000064028","","","","77","","","","key","16.66599999999744","707.5","406","","","","","","","","","","","","","","","","","","","",""
"psychophysics","226","445498","0.0-16.0-0.18","6097bc419da1d74a8bb14d52","609006691f6f4e337c17f836","609d4b2b113933f8ed7b0bda","null","","","","null","","","","key","16.665999999999904","707.5","406","","","","","","","","","","","","","","","","","","","",""
"psychophysics","227","446001","0.0-16.0-1.18","6097bc419da1d74a8bb14d52","609006691f6f4e337c17f836","609d4b2b113933f8ed7b0bda","null","","","","null","","","","key","16.666000000000448","707.5","406","","","","","","","","","","","","","149","-1","0","false","","","",""
"psychophysics","228","446056","0.0-16.0-2.18","6097bc419da1d74a8bb14d52","609006691f6f4e337c17f836","609d4b2b113933f8ed7b0bda","54.00000000005821","","","","90","","","","key","16.66599999999744","707.5","406","","","","","","","","","","","","","","","","","","","",""
"psychophysics","229","447059","0.0-16.0-0.19","6097bc419da1d74a8bb14d52","609006691f6f4e337c17f836","609d4b2b113933f8ed7b0bda","null","","","","null","","","","key","16.66600000000035","707.5","406","","","","","","","","","","","","","","","","","","","",""
"psychophysics","230","447561","0.0-16.0-1.19","6097bc419da1d74a8bb14d52","609006691f6f4e337c17f836","609d4b2b113933f8ed7b0bda","null","","","","null","","","","key","16.666000000000448","707.5","406","","","","","","","","","","","","","149","1","4","false","","","",""
"psychophysics","231","450007","0.0-16.0-2.19","6097bc419da1d74a8bb14d52","609006691f6f4e337c17f836","609d4b2b113933f8ed7b0bda","2442.9999999993015","","","","77","","","","key","16.666000000000047","707.5","406","","","","","","","","","","","","","","","","","","","",""
"psychophysics","232","451009","0.0-16.0-0.20","6097bc419da1d74a8bb14d52","609006691f6f4e337c17f836","609d4b2b113933f8ed7b0bda","null","","","","null","","","","key","16.66600000000035","707.5","406","","","","","","","","","","","","","","","","","","","",""
"psychophysics","233","451513","0.0-16.0-1.20","6097bc419da1d74a8bb14d52","609006691f6f4e337c17f836","609d4b2b113933f8ed7b0bda","null","","","","null","","","","key","16.666000000000448","707.5","406","","","","","","","","","","","","","149","1","6","false","","","",""
"psychophysics","234","452030","0.0-16.0-2.20","6097bc419da1d74a8bb14d52","609006691f6f4e337c17f836","609d4b2b113933f8ed7b0bda","514.9999999994179","","","","77","","","","key","16.66599999999938","707.5","406","","","","","","","","","","","","","","","","","","","",""
"psychophysics","235","453032","0.0-16.0-0.21","6097bc419da1d74a8bb14d52","609006691f6f4e337c17f836","609d4b2b113933f8ed7b0bda","null","","","","null","","","","key","16.665999999999904","707.5","406","","","","","","","","","","","","","","","","","","","",""
"psychophysics","236","453535","0.0-16.0-1.21","6097bc419da1d74a8bb14d52","609006691f6f4e337c17f836","609d4b2b113933f8ed7b0bda","null","","","","null","","","","key","16.666000000000448","707.5","406","","","","","","","","","","","","","149","1","5","false","","","",""
"psychophysics","237","453580","0.0-16.0-2.21","6097bc419da1d74a8bb14d52","609006691f6f4e337c17f836","609d4b2b113933f8ed7b0bda","43.0000000015134","","","","77","","","","key","16.666000000026543","707.5","406","","","","","","","","","","","","","","","","","","","",""
"psychophysics","238","454581","0.0-16.0-0.22","6097bc419da1d74a8bb14d52","609006691f6f4e337c17f836","609d4b2b113933f8ed7b0bda","null","","","","null","","","","key","16.665999999999904","707.5","406","","","","","","","","","","","","","","","","","","","",""
"psychophysics","239","455084","0.0-16.0-1.22","6097bc419da1d74a8bb14d52","609006691f6f4e337c17f836","609d4b2b113933f8ed7b0bda","null","","","","null","","","","key","16.666000000000448","707.5","406","","","","","","","","","","","","","149","-1","3","false","","","",""
"psychophysics","240","455317","0.0-16.0-2.22","6097bc419da1d74a8bb14d52","609006691f6f4e337c17f836","609d4b2b113933f8ed7b0bda","232","","","","90","","","","key","16.665999999999677","707.5","406","","","","","","","","","","","","","","","","","","","",""
"psychophysics","241","456319","0.0-16.0-0.23","6097bc419da1d74a8bb14d52","609006691f6f4e337c17f836","609d4b2b113933f8ed7b0bda","null","","","","null","","","","key","16.665999999999904","707.5","406","","","","","","","","","","","","","","","","","","","",""
"psychophysics","242","456821","0.0-16.0-1.23","6097bc419da1d74a8bb14d52","609006691f6f4e337c17f836","609d4b2b113933f8ed7b0bda","null","","","","null","","","","key","16.666000000000448","707.5","406","","","","","","","","","","","","","149","1","2","false","","","",""
"psychophysics","243","458593","0.0-16.0-2.23","6097bc419da1d74a8bb14d52","609006691f6f4e337c17f836","609d4b2b113933f8ed7b0bda","1765.9999999996508","","","","77","","","","key","16.665999999999634","707.5","406","","","","","","","","","","","","","","","","","","","",""
"html-keyboard-response","244","462327","0.0-17.0","6097bc419da1d74a8bb14d52","609006691f6f4e337c17f836","609d4b2b113933f8ed7b0bda","3732","<p>Well Done !</p><p>Training Complete. Press the spacebar to start.</p><p>DON'T EXIT THE FULL SCREEN MODE</p>","","","32","","","","","","","","","","","","","","","","","","","","","","","","","","",""
"psychophysics","245","465328","0.0-18.0-0.0","6097bc419da1d74a8bb14d52","609006691f6f4e337c17f836","609d4b2b113933f8ed7b0bda","null","","","","null","","","","key","16.66600000000035","707.5","406","","","","","","","","","","","","","","","","","","","",""
"psychophysics","246","465832","0.0-18.0-1.0","6097bc419da1d74a8bb14d52","609006691f6f4e337c17f836","609d4b2b113933f8ed7b0bda","null","","","","null","","","","key","16.66599999999844","707.5","406","","","","","","","","","","","","","149","1","3","true","","","",""
"psychophysics","247","466106","0.0-18.0-2.0","6097bc419da1d74a8bb14d52","609006691f6f4e337c17f836","609d4b2b113933f8ed7b0bda","271.0000000006403","","","","77","","","","key","16.66599999999938","707.5","406","","","","","","","","","","","","","","","","","","","",""
"psychophysics","248","467108","0.0-18.0-0.1","6097bc419da1d74a8bb14d52","609006691f6f4e337c17f836","609d4b2b113933f8ed7b0bda","null","","","","null","","","","key","16.66599999999938","707.5","406","","","","","","","","","","","","","","","","","","","",""
"psychophysics","249","467611","0.0-18.0-1.1","6097bc419da1d74a8bb14d52","609006691f6f4e337c17f836","609d4b2b113933f8ed7b0bda","null","","","","null","","","","key","16.666000000000448","707.5","406","","","","","","","","","","","","","149","-1","0","true","","","",""
"psychophysics","250","468415","0.0-18.0-2.1","6097bc419da1d74a8bb14d52","609006691f6f4e337c17f836","609d4b2b113933f8ed7b0bda","800.9999999995343","","","","77","","","","key","16.666000000000533","707.5","406","","","","","","","","","","","","","","","","","","","",""
"psychophysics","251","469416","0.0-18.0-0.2","6097bc419da1d74a8bb14d52","609006691f6f4e337c17f836","609d4b2b113933f8ed7b0bda","null","","","","null","","","","key","16.665999999999904","707.5","406","","","","","","","","","","","","","","","","","","","",""
"psychophysics","252","469919","0.0-18.0-1.2","6097bc419da1d74a8bb14d52","609006691f6f4e337c17f836","609d4b2b113933f8ed7b0bda","null","","","","null","","","","key","16.666000000000448","707.5","406","","","","","","","","","","","","","149","1","0","true","","","",""
"psychophysics","253","472599","0.0-18.0-2.2","6097bc419da1d74a8bb14d52","609006691f6f4e337c17f836","609d4b2b113933f8ed7b0bda","2678.999999998312","","","","90","","","","key","16.665999999999986","707.5","406","","","","","","","","","","","","","","","","","","","",""
"psychophysics","254","473601","0.0-18.0-0.3","6097bc419da1d74a8bb14d52","609006691f6f4e337c17f836","609d4b2b113933f8ed7b0bda","null","","","","null","","","","key","16.665999999999904","707.5","406","","","","","","","","","","","","","","","","","","","",""
"psychophysics","255","474106","0.0-18.0-1.3","6097bc419da1d74a8bb14d52","609006691f6f4e337c17f836","609d4b2b113933f8ed7b0bda","null","","","","null","","","","key","16.666000000000448","707.5","406","","","","","","","","","","","","","149","-1","5","true","","","",""
"psychophysics","256","477088","0.0-18.0-2.3","6097bc419da1d74a8bb14d52","609006691f6f4e337c17f836","609d4b2b113933f8ed7b0bda","2977.0000000007567","","","","77","","","","key","16.666000000000054","707.5","406","","","","","","","","","","","","","","","","","","","",""
"psychophysics","257","478091","0.0-18.0-0.4","6097bc419da1d74a8bb14d52","609006691f6f4e337c17f836","609d4b2b113933f8ed7b0bda","null","","","","null","","","","key","16.66600000000035","707.5","406","","","","","","","","","","","","","","","","","","","",""
"psychophysics","258","478594","0.0-18.0-1.4","6097bc419da1d74a8bb14d52","609006691f6f4e337c17f836","609d4b2b113933f8ed7b0bda","null","","","","null","","","","key","16.666000000000448","707.5","406","","","","","","","","","","","","","149","-1","4","true","","","",""
"psychophysics","259","478784","0.0-18.0-2.4","6097bc419da1d74a8bb14d52","609006691f6f4e337c17f836","609d4b2b113933f8ed7b0bda","188.0000000000582","","","","77","","","","key","16.66599999999744","707.5","406","","","","","","","","","","","","","","","","","","","",""
"psychophysics","260","479786","0.0-18.0-0.5","6097bc419da1d74a8bb14d52","609006691f6f4e337c17f836","609d4b2b113933f8ed7b0bda","null","","","","null","","","","key","16.665999999999904","707.5","406","","","","","","","","","","","","","","","","","","","",""
"psychophysics","261","480291","0.0-18.0-1.5","6097bc419da1d74a8bb14d52","609006691f6f4e337c17f836","609d4b2b113933f8ed7b0bda","null","","","","null","","","","key","16.66600000000132","707.5","406","","","","","","","","","","","","","149","1","5","true","","","",""
"psychophysics","262","480325","0.0-18.0-2.5","6097bc419da1d74a8bb14d52","609006691f6f4e337c17f836","609d4b2b113933f8ed7b0bda","30.99999999901047","","","","77","","","","key","NaN","707.5","406","","","","","","","","","","","","","","","","","","","",""
"psychophysics","263","481327","0.0-18.0-0.6","6097bc419da1d74a8bb14d52","609006691f6f4e337c17f836","609d4b2b113933f8ed7b0bda","null","","","","null","","","","key","16.66599999999938","707.5","406","","","","","","","","","","","","","","","","","","","",""
"psychophysics","264","481829","0.0-18.0-1.6","6097bc419da1d74a8bb14d52","609006691f6f4e337c17f836","609d4b2b113933f8ed7b0bda","null","","","","null","","","","key","16.666000000000448","707.5","406","","","","","","","","","","","","","149","-1","6","true","","","",""
"psychophysics","265","482602","0.0-18.0-2.6","6097bc419da1d74a8bb14d52","609006691f6f4e337c17f836","609d4b2b113933f8ed7b0bda","771.0000000006403","","","","77","","","","key","16.666000000000672","707.5","406","","","","","","","","","","","","","","","","","","","",""
"psychophysics","266","483606","0.0-18.0-0.7","6097bc419da1d74a8bb14d52","609006691f6f4e337c17f836","609d4b2b113933f8ed7b0bda","null","","","","null","","","","key","16.66600000000035","707.5","406","","","","","","","","","","","","","","","","","","","",""
"psychophysics","267","484108","0.0-18.0-1.7","6097bc419da1d74a8bb14d52","609006691f6f4e337c17f836","609d4b2b113933f8ed7b0bda","null","","","","null","","","","key","16.666000000000448","707.5","406","","","","","","","","","","","","","149","1","2","true","","","",""
"psychophysics","268","485860","0.0-18.0-2.7","6097bc419da1d74a8bb14d52","609006691f6f4e337c17f836","609d4b2b113933f8ed7b0bda","1750","","","","77","","","","key","16.665999999999677","707.5","406","","","","","","","","","","","","","","","","","","","",""
"psychophysics","269","486861","0.0-18.0-0.8","6097bc419da1d74a8bb14d52","609006691f6f4e337c17f836","609d4b2b113933f8ed7b0bda","null","","","","null","","","","key","16.665999999999904","707.5","406","","","","","","","","","","","","","","","","","","","",""
"psychophysics","270","487364","0.0-18.0-1.8","6097bc419da1d74a8bb14d52","609006691f6f4e337c17f836","609d4b2b113933f8ed7b0bda","null","","","","null","","","","key","16.666000000000448","707.5","406","","","","","","","","","","","","","149","-1","3","true","","","",""
"psychophysics","271","487440","0.0-18.0-2.8","6097bc419da1d74a8bb14d52","609006691f6f4e337c17f836","609d4b2b113933f8ed7b0bda","73.99999999871943","","","","90","","","","key","16.66599999999744","707.5","406","","","","","","","","","","","","","","","","","","","",""
"psychophysics","272","488441","0.0-18.0-0.9","6097bc419da1d74a8bb14d52","609006691f6f4e337c17f836","609d4b2b113933f8ed7b0bda","null","","","","null","","","","key","16.665999999999904","707.5","406","","","","","","","","","","","","","","","","","","","",""
"psychophysics","273","488943","0.0-18.0-1.9","6097bc419da1d74a8bb14d52","609006691f6f4e337c17f836","609d4b2b113933f8ed7b0bda","null","","","","null","","","","key","16.666000000000448","707.5","406","","","","","","","","","","","","","149","-1","2","true","","","",""
"psychophysics","274","489136","0.0-18.0-2.9","6097bc419da1d74a8bb14d52","609006691f6f4e337c17f836","609d4b2b113933f8ed7b0bda","190.99999999889405","","","","77","","","","key","16.666000000003258","707.5","406","","","","","","","","","","","","","","","","","","","",""
"psychophysics","275","490141","0.0-18.0-0.10","6097bc419da1d74a8bb14d52","609006691f6f4e337c17f836","609d4b2b113933f8ed7b0bda","null","","","","null","","","","key","16.66600000000035","707.5","406","","","","","","","","","","","","","","","","","","","",""
"psychophysics","276","490643","0.0-18.0-1.10","6097bc419da1d74a8bb14d52","609006691f6f4e337c17f836","609d4b2b113933f8ed7b0bda","null","","","","null","","","","key","16.66599999999844","707.5","406","","","","","","","","","","","","","149","1","6","true","","","",""
"psychophysics","277","492579","0.0-18.0-2.10","6097bc419da1d74a8bb14d52","609006691f6f4e337c17f836","609d4b2b113933f8ed7b0bda","1933.0000000008731","","","","77","","","","key","16.666000000000224","707.5","406","","","","","","","","","","","","","","","","","","","",""
"psychophysics","278","493580","0.0-18.0-0.11","6097bc419da1d74a8bb14d52","609006691f6f4e337c17f836","609d4b2b113933f8ed7b0bda","null","","","","null","","","","key","16.665999999999904","707.5","406","","","","","","","","","","","","","","","","","","","",""
"psychophysics","279","494084","0.0-18.0-1.11","6097bc419da1d74a8bb14d52","609006691f6f4e337c17f836","609d4b2b113933f8ed7b0bda","null","","","","null","","","","key","16.66599999999844","707.5","406","","","","","","","","","","","","","149","1","4","true","","","",""
"psychophysics","280","495300","0.0-18.0-2.11","6097bc419da1d74a8bb14d52","609006691f6f4e337c17f836","609d4b2b113933f8ed7b0bda","1213.9999999999418","","","","77","","","","key","16.665999999999865","707.5","406","","","","","","","","","","","","","","","","","","","",""
"psychophysics","281","496302","0.0-18.0-0.12","6097bc419da1d74a8bb14d52","609006691f6f4e337c17f836","609d4b2b113933f8ed7b0bda","null","","","","null","","","","key","16.665999999999904","707.5","406","","","","","","","","","","","","","","","","","","","",""
"psychophysics","282","496806","0.0-18.0-1.12","6097bc419da1d74a8bb14d52","609006691f6f4e337c17f836","609d4b2b113933f8ed7b0bda","null","","","","null","","","","key","16.66600000000132","707.5","406","","","","","","","","","","","","","149","1","0","true","","","",""
"psychophysics","283","497603","0.0-18.0-2.12","6097bc419da1d74a8bb14d52","609006691f6f4e337c17f836","609d4b2b113933f8ed7b0bda","795.0000000000582","","","","90","","","","key","16.66599999999997","707.5","406","","","","","","","","","","","","","","","","","","","",""
"psychophysics","284","498607","0.0-18.0-0.13","6097bc419da1d74a8bb14d52","609006691f6f4e337c17f836","609d4b2b113933f8ed7b0bda","null","","","","null","","","","key","16.66599999999938","707.5","406","","","","","","","","","","","","","","","","","","","",""
"psychophysics","285","499110","0.0-18.0-1.13","6097bc419da1d74a8bb14d52","609006691f6f4e337c17f836","609d4b2b113933f8ed7b0bda","null","","","","null","","","","key","16.666000000000448","707.5","406","","","","","","","","","","","","","149","1","3","true","","","",""
"psychophysics","286","500599","0.0-18.0-2.13","6097bc419da1d74a8bb14d52","609006691f6f4e337c17f836","609d4b2b113933f8ed7b0bda","1485.000000000582","","","","77","","","","key","16.666000000000086","707.5","406","","","","","","","","","","","","","","","","","","","",""
"psychophysics","287","501600","0.0-18.0-0.14","6097bc419da1d74a8bb14d52","609006691f6f4e337c17f836","609d4b2b113933f8ed7b0bda","null","","","","null","","","","key","16.665999999999904","707.5","406","","","","","","","","","","","","","","","","","","","",""
"psychophysics","288","502102","0.0-18.0-1.14","6097bc419da1d74a8bb14d52","609006691f6f4e337c17f836","609d4b2b113933f8ed7b0bda","null","","","","null","","","","key","16.666000000000448","707.5","406","","","","","","","","","","","","","149","-1","3","true","","","",""
"psychophysics","289","502275","0.0-18.0-2.14","6097bc419da1d74a8bb14d52","609006691f6f4e337c17f836","609d4b2b113933f8ed7b0bda","163.00000000046566","","","","90","","","","key","16.66599999999744","707.5","406","","","","","","","","","","","","","","","","","","","",""
"psychophysics","290","503276","0.0-18.0-0.15","6097bc419da1d74a8bb14d52","609006691f6f4e337c17f836","609d4b2b113933f8ed7b0bda","null","","","","null","","","","key","16.665999999999904","707.5","406","","","","","","","","","","","","","","","","","","","",""
"psychophysics","291","503778","0.0-18.0-1.15","6097bc419da1d74a8bb14d52","609006691f6f4e337c17f836","609d4b2b113933f8ed7b0bda","null","","","","null","","","","key","16.666000000000448","707.5","406","","","","","","","","","","","","","149","-1","5","true","","","",""
"psychophysics","292","506406","0.0-18.0-2.15","6097bc419da1d74a8bb14d52","609006691f6f4e337c17f836","609d4b2b113933f8ed7b0bda","2626.000000000233","","","","77","","","","key","16.665999999999677","707.5","406","","","","","","","","","","","","","","","","","","","",""
"psychophysics","293","507408","0.0-18.0-0.16","6097bc419da1d74a8bb14d52","609006691f6f4e337c17f836","609d4b2b113933f8ed7b0bda","null","","","","null","","","","key","16.66600000000035","707.5","406","","","","","","","","","","","","","","","","","","","",""
"psychophysics","294","507911","0.0-18.0-1.16","6097bc419da1d74a8bb14d52","609006691f6f4e337c17f836","609d4b2b113933f8ed7b0bda","null","","","","null","","","","key","16.666000000000448","707.5","406","","","","","","","","","","","","","149","1","4","true","","","",""
"psychophysics","295","509521","0.0-18.0-2.16","6097bc419da1d74a8bb14d52","609006691f6f4e337c17f836","609d4b2b113933f8ed7b0bda","1608.0000000001746","","","","77","","","","key","16.665999999999585","707.5","406","","","","","","","","","","","","","","","","","","","",""
"psychophysics","296","510525","0.0-18.0-0.17","6097bc419da1d74a8bb14d52","609006691f6f4e337c17f836","609d4b2b113933f8ed7b0bda","null","","","","null","","","","key","16.66599999999938","707.5","406","","","","","","","","","","","","","","","","","","","",""
"psychophysics","297","511030","0.0-18.0-1.17","6097bc419da1d74a8bb14d52","609006691f6f4e337c17f836","609d4b2b113933f8ed7b0bda","null","","","","null","","","","key","16.666000000000448","707.5","406","","","","","","","","","","","","","149","-1","4","true","","","",""
"psychophysics","298","511283","0.0-18.0-2.17","6097bc419da1d74a8bb14d52","609006691f6f4e337c17f836","609d4b2b113933f8ed7b0bda","251.00000000023283","","","","77","","","","key","16.666000000001596","707.5","406","","","","","","","","","","","","","","","","","","","",""
"psychophysics","299","512284","0.0-18.0-0.18","6097bc419da1d74a8bb14d52","609006691f6f4e337c17f836","609d4b2b113933f8ed7b0bda","null","","","","null","","","","key","16.666000000000892","707.5","406","","","","","","","","","","","","","","","","","","","",""
"psychophysics","300","512787","0.0-18.0-1.18","6097bc419da1d74a8bb14d52","609006691f6f4e337c17f836","609d4b2b113933f8ed7b0bda","null","","","","null","","","","key","16.666000000000448","707.5","406","","","","","","","","","","","","","149","-1","0","true","","","",""
"psychophysics","301","513324","0.0-18.0-2.18","6097bc419da1d74a8bb14d52","609006691f6f4e337c17f836","609d4b2b113933f8ed7b0bda","530.9999999990687","","","","77","","","","key","16.666000000001077","707.5","406","","","","","","","","","","","","","","","","","","","",""
"psychophysics","302","514325","0.0-18.0-0.19","6097bc419da1d74a8bb14d52","609006691f6f4e337c17f836","609d4b2b113933f8ed7b0bda","null","","","","null","","","","key","16.666000000000892","707.5","406","","","","","","","","","","","","","","","","","","","",""
"psychophysics","303","514828","0.0-18.0-1.19","6097bc419da1d74a8bb14d52","609006691f6f4e337c17f836","609d4b2b113933f8ed7b0bda","null","","","","null","","","","key","16.666000000000448","707.5","406","","","","","","","","","","","","","149","1","2","true","","","",""
"psychophysics","304","515344","0.0-18.0-2.19","6097bc419da1d74a8bb14d52","609006691f6f4e337c17f836","609d4b2b113933f8ed7b0bda","513.9999999991851","","","","77","","","","key","16.66599999999938","707.5","406","","","","","","","","","","","","","","","","","","","",""
"psychophysics","305","516345","0.0-18.0-0.20","6097bc419da1d74a8bb14d52","609006691f6f4e337c17f836","609d4b2b113933f8ed7b0bda","null","","","","null","","","","key","16.665999999999904","707.5","406","","","","","","","","","","","","","","","","","","","",""
"psychophysics","306","516848","0.0-18.0-1.20","6097bc419da1d74a8bb14d52","609006691f6f4e337c17f836","609d4b2b113933f8ed7b0bda","null","","","","null","","","","key","16.666000000000448","707.5","406","","","","","","","","","","","","","149","1","5","true","","","",""
"psychophysics","307","516998","0.0-18.0-2.20","6097bc419da1d74a8bb14d52","609006691f6f4e337c17f836","609d4b2b113933f8ed7b0bda","147.0000000008149","","","","77","","","","key","16.66599999999744","707.5","406","","","","","","","","","","","","","","","","","","","",""
"psychophysics","308","518000","0.0-18.0-0.21","6097bc419da1d74a8bb14d52","609006691f6f4e337c17f836","609d4b2b113933f8ed7b0bda","null","","","","null","","","","key","16.665999999999904","707.5","406","","","","","","","","","","","","","","","","","","","",""
"psychophysics","309","518501","0.0-18.0-1.21","6097bc419da1d74a8bb14d52","609006691f6f4e337c17f836","609d4b2b113933f8ed7b0bda","null","","","","null","","","","key","16.666000000000448","707.5","406","","","","","","","","","","","","","149","1","6","true","","","",""
"psychophysics","310","519067","0.0-18.0-2.21","6097bc419da1d74a8bb14d52","609006691f6f4e337c17f836","609d4b2b113933f8ed7b0bda","564.0000000003492","","","","77","","","","key","16.666000000000086","707.5","406","","","","","","","","","","","","","","","","","","","",""
"psychophysics","311","520070","0.0-18.0-0.22","6097bc419da1d74a8bb14d52","609006691f6f4e337c17f836","609d4b2b113933f8ed7b0bda","null","","","","null","","","","key","16.665999999999904","707.5","406","","","","","","","","","","","","","","","","","","","",""
"psychophysics","312","520572","0.0-18.0-1.22","6097bc419da1d74a8bb14d52","609006691f6f4e337c17f836","609d4b2b113933f8ed7b0bda","null","","","","null","","","","key","16.66599999999938","707.5","406","","","","","","","","","","","","","149","-1","6","true","","","",""
"psychophysics","313","522686","0.0-18.0-2.22","6097bc419da1d74a8bb14d52","609006691f6f4e337c17f836","609d4b2b113933f8ed7b0bda","2111.000000000815","","","","90","","","","key","16.666","707.5","406","","","","","","","","","","","","","","","","","","","",""
"psychophysics","314","523689","0.0-18.0-0.23","6097bc419da1d74a8bb14d52","609006691f6f4e337c17f836","609d4b2b113933f8ed7b0bda","null","","","","null","","","","key","16.66600000000132","707.5","406","","","","","","","","","","","","","","","","","","","",""
"psychophysics","315","524192","0.0-18.0-1.23","6097bc419da1d74a8bb14d52","609006691f6f4e337c17f836","609d4b2b113933f8ed7b0bda","null","","","","null","","","","key","16.666000000000448","707.5","406","","","","","","","","","","","","","149","-1","2","true","","","",""
"psychophysics","316","524509","0.0-18.0-2.23","6097bc419da1d74a8bb14d52","609006691f6f4e337c17f836","609d4b2b113933f8ed7b0bda","315.0000000005821","","","","77","","","","key","16.666000000000672","707.5","406","","","","","","","","","","","","","","","","","","","",""
"psychophysics","317","525511","0.0-18.0-0.24","6097bc419da1d74a8bb14d52","609006691f6f4e337c17f836","609d4b2b113933f8ed7b0bda","null","","","","null","","","","key","16.665999999999904","707.5","406","","","","","","","","","","","","","","","","","","","",""
"psychophysics","318","526013","0.0-18.0-1.24","6097bc419da1d74a8bb14d52","609006691f6f4e337c17f836","609d4b2b113933f8ed7b0bda","null","","","","null","","","","key","16.665999999996437","707.5","406","","","","","","","","","","","","","149","-1","3","true","","","",""
"psychophysics","319","527595","0.0-18.0-2.24","6097bc419da1d74a8bb14d52","609006691f6f4e337c17f836","609d4b2b113933f8ed7b0bda","1578.9999999996508","","","","77","","","","key","16.665999999999297","707.5","406","","","","","","","","","","","","","","","","","","","",""
"psychophysics","320","528597","0.0-18.0-0.25","6097bc419da1d74a8bb14d52","609006691f6f4e337c17f836","609d4b2b113933f8ed7b0bda","null","","","","null","","","","key","16.665999999999904","707.5","406","","","","","","","","","","","","","","","","","","","",""
"psychophysics","321","529104","0.0-18.0-1.25","6097bc419da1d74a8bb14d52","609006691f6f4e337c17f836","609d4b2b113933f8ed7b0bda","null","","","","null","","","","key","16.66599999999938","707.5","406","","","","","","","","","","","","","149","1","3","true","","","",""
"psychophysics","322","529538","0.0-18.0-2.25","6097bc419da1d74a8bb14d52","609006691f6f4e337c17f836","609d4b2b113933f8ed7b0bda","431.99999999883585","","","","77","","","","key","16.66600000000229","707.5","406","","","","","","","","","","","","","","","","","","","",""
"psychophysics","323","530540","0.0-18.0-0.26","6097bc419da1d74a8bb14d52","609006691f6f4e337c17f836","609d4b2b113933f8ed7b0bda","null","","","","null","","","","key","16.66599999999938","707.5","406","","","","","","","","","","","","","","","","","","","",""
"psychophysics","324","531041","0.0-18.0-1.26","6097bc419da1d74a8bb14d52","609006691f6f4e337c17f836","609d4b2b113933f8ed7b0bda","null","","","","null","","","","key","16.666000000000448","707.5","406","","","","","","","","","","","","","149","1","4","true","","","",""
"psychophysics","325","531110","0.0-18.0-2.26","6097bc419da1d74a8bb14d52","609006691f6f4e337c17f836","609d4b2b113933f8ed7b0bda","66.99999999906868","","","","77","","","","key","16.66600000000714","707.5","406","","","","","","","","","","","","","","","","","","","",""
"psychophysics","326","532113","0.0-18.0-0.27","6097bc419da1d74a8bb14d52","609006691f6f4e337c17f836","609d4b2b113933f8ed7b0bda","null","","","","null","","","","key","16.665999999999904","707.5","406","","","","","","","","","","","","","","","","","","","",""
"psychophysics","327","532614","0.0-18.0-1.27","6097bc419da1d74a8bb14d52","609006691f6f4e337c17f836","609d4b2b113933f8ed7b0bda","null","","","","null","","","","key","16.666000000000448","707.5","406","","","","","","","","","","","","","149","1","5","true","","","",""
"psychophysics","328","532700","0.0-18.0-2.27","6097bc419da1d74a8bb14d52","609006691f6f4e337c17f836","609d4b2b113933f8ed7b0bda","83.99999999883585","","","","77","","","","key","16.66599999999744","707.5","406","","","","","","","","","","","","","","","","","","","",""
