"trial_type","trial_index","time_elapsed","internal_node_id","PROLIFIC_PID","STUDY_ID","SESSION_ID","rt","stimulus","button_pressed","success","key_press","responses","isData","view_history","response_type","avg_frame_time","center_x","center_y","isSC","stim_side","trial_luminance","step_size","nReversal","correct","prev_ans","isThreshold","SC_threshold","final_threshold","isLuminance","FF_luminance","luminance","stimSide","ISInt","isFF","question_order","isSPQ","isCAPS","isAQ"
"pavlovia","0","25","0.0-0.0","5e149c03864020aa6e1cf04d","609006691f6f4e337c17f836","609d60ac788fa0041e5604b8","","","","","","","","","","","","","","","","","","","","","","","","","","","","","","","",""
"html-button-response","1","5108","0.0-1.0","5e149c03864020aa6e1cf04d","609006691f6f4e337c17f836","609d60ac788fa0041e5604b8","5082.170000066981","<div style='background-color: white; width:60%; margin: auto; padding: 50px; text-align: justify; text-justify: inter-word; margin-bottom: 20px;'><h1 style='text-align: center;'>Consent Form</h1><p>Please read this consent form carefully before deciding whether you would like to participate in this study. You have to be 18 years old or older to participate to this study.</p><p style='text-decoration: underline;'>Participation is voluntary:</p><p>It is your choice whether or not to participate in this research. If you choose to participate, you may change your mind and leave the study at any time. Refusal to participate or stopping your participation will involve no penalty or loss of benefits to which you are otherwise entitled.</p><p style='text-decoration: underline;'>Purpose of the Study:</p><p>To understand the mechanisms underlying human perception.</p><p style='text-decoration: underline;'>What you will do in this study:</p><p>You will be presented with a series of visual images and then you will press buttons on the keyboard of your computer to respond to simple questions about the images (e.g. Were one or two images presented?). In addition, you will be asked to complete a questionnaire concerning your beliefs and everyday mental and perceptual experiences.'</p><p style='text-decoration: underline;'> Time Required:</p><p>The study will take 40 minutes to complete. </p><p style='text-decoration: underline;'>Risks:</p><p>There are no anticipated risks associated with participating in this study that are beyond those experienced in everyday life. </p><p style='text-decoration: underline;'>Benefits:</p><p>There are no benefits to you in participating in the study. However, this study may lead to a better understanding of how different kinds of visual information are used.</p><p style='text-decoration: underline;'>Compensation:</p><p>You will be paid US$6.6/hour. </p><p style='text-decoration: underline;'>Privacy and Confidentiality:</p><p>Your participation in this study will be anonymous. No personal information about your name or identity will be asked or recorded. This anonymous data will be stored for several years and may be used for a variety of research purposes. The overall results of the study may be published, or the data files may be shared with other researchers, but your identity will not be revealed in any way. The online services we are using for this study may temporarily store your data, but this data will be downloaded and then promptly deleted from those services.Your data will not be permanently associated with your name, IP address, or any other identifiable information (e.g., your information will only be connected to your payment, not to any of your responses), though they may be temporarily stored together before we download and separate them. Even so, no guarantee of internet survey security can be given because, although unlikely, transmissions can be intercepted and IP addresses can be identified. The anonymous data may be shared publicly (for example, in conjunction with a resulting academic publication).</p><p style='text-decoration: underline;'>Participation and Withdrawal:</p><p>Your participation in this study is completely voluntary. You may stop responding to the stimuli or stop answering questions if you so choose and without penalty by exiting the full screen mode, closing this tab of your browser or redirecting it to a different website.</p><p style='text-decoration: underline;'>Contact Info of the Researcher: </p><p>If you have questions about this study, or if you would like to talk to the research team, please contact David Melcher (david.melcher@nyu.edu, md5050@nyu.edu) at the Perception and Active Cognition Laboratory, New York University Abu Dhabi, Computational Research Building, Saadiyat Island, Abu Dhabi, UAE.This research has been reviewed by the New York University Abu Dhabi Institutional Review Board (NYUAD IRB). To contact about your rights in this research, for questions, suggestions, or complaints that are not addressed by the researchers, please email IRBnyuad@nyu.edu, or call the NYUAD IRB at +971 2 628 4313. </p></div>","0","","","","","","","","","","","","","","","","","","","","","","","","","","","","",""
"fullscreen","2","6722","0.0-2.0","5e149c03864020aa6e1cf04d","609006691f6f4e337c17f836","609d60ac788fa0041e5604b8","","","","true","","","","","","","","","","","","","","","","","","","","","","","","","","","",""
"html-keyboard-response","3","14156","0.0-3.0","5e149c03864020aa6e1cf04d","609006691f6f4e337c17f836","609d60ac788fa0041e5604b8","7431.749999988824","<p>Welcome !</p><p>READ CAREFULLY THE FOLLOWING INDICATIONS:</p><p>From this moment you have ~40 minutes to complete the experiment.</p><p>During the experiment you will be prompted to take several breaks. Each break should not last longer than 2-3 minutes.</p><p>Make sure that your computer is plugged in and it's not running on battery power, even if the battery is already fully charged.</p><p>Turn off your phone and music, make sure that you are in a quiet room and that you will not be distracted for the next hour.</p><p>Failure to comply with the instructions and indications provided during the experiment will most likely result in the rejection of your data.<p>Press the spacebar to start.</p>","","","32","","","","","","","","","","","","","","","","","","","","","","","","","","",""
"survey-html-form","4","21313","0.0-4.0","5e149c03864020aa6e1cf04d","609006691f6f4e337c17f836","609d60ac788fa0041e5604b8","7155.060000019148","","","","","{""age"":""39"",""sex"":""M""}","true","","","","","","","","","","","","","","","","","","","","","","","","",""
"instructions","5","39322","0.0-5.0","5e149c03864020aa6e1cf04d","609006691f6f4e337c17f836","609d60ac788fa0041e5604b8","18009.24499996472","","","","","","","[{""page_index"":0,""viewing_time"":10232.80999995768},{""page_index"":1,""viewing_time"":5791.995000094175},{""page_index"":2,""viewing_time"":1984.1999999480322}]","","","","","","","","","","","","","","","","","","","","","","","",""
"psychophysics","6","40580","0.0-6.0-0.0","5e149c03864020aa6e1cf04d","609006691f6f4e337c17f836","609d60ac788fa0041e5604b8","245.94000005163252","","","","39","","","","key","16.66630666666674","960","488.5","true","1","180","30","0","-1","","","","","","","","","","","","","",""
"psychophysics","7","41672","0.0-6.0-0.1","5e149c03864020aa6e1cf04d","609006691f6f4e337c17f836","609d60ac788fa0041e5604b8","88.51499995216727","","","","39","","","","key","16.668446153846162","960","488.5","true","1","180","30","0","-1","-1","","","","","","","","","","","","",""
"psychophysics","8","43006","0.0-6.0-0.2","5e149c03864020aa6e1cf04d","609006691f6f4e337c17f836","609d60ac788fa0041e5604b8","323.6549999564886","","","","39","","","","key","16.667240506329108","960","488.5","true","1","150","30","0","-1","-1","","","","","","","","","","","","",""
"psychophysics","9","44078","0.0-6.0-0.3","5e149c03864020aa6e1cf04d","609006691f6f4e337c17f836","609d60ac788fa0041e5604b8","61.87500001396984","","","","39","","","","key","16.66744444444443","960","488.5","true","1","150","30","0","-1","-1","","","","","","","","","","","","",""
"psychophysics","10","46254","0.0-6.0-0.4","5e149c03864020aa6e1cf04d","609006691f6f4e337c17f836","609d60ac788fa0041e5604b8","1171.1450000293553","","","","39","","","","key","16.667107692307706","960","488.5","true","1","129","30","0","-1","-1","","","","","","","","","","","","",""
"psychophysics","11","48952","0.0-6.0-0.5","5e149c03864020aa6e1cf04d","609006691f6f4e337c17f836","609d60ac788fa0041e5604b8","1692.0700001064688","","","","37","","","","key","16.66666459627333","960","488.5","true","1","129","24","1","1","-1","","","","","","","","","","","","",""
"psychophysics","12","52152","0.0-6.0-0.6","5e149c03864020aa6e1cf04d","609006691f6f4e337c17f836","609d60ac788fa0041e5604b8","2189.4049999536946","","","","37","","","","key","16.667235602094216","960","488.5","true","1","153","24","1","1","1","","","","","","","","","","","","",""
"psychophysics","13","53198","0.0-6.0-0.7","5e149c03864020aa6e1cf04d","609006691f6f4e337c17f836","609d60ac788fa0041e5604b8","33.10499992221594","","","","39","","","","key","16.666114754098267","960","488.5","true","1","177","24","1","-1","1","","","","","","","","","","","","",""
"psychophysics","14","55414","0.0-6.0-0.8","5e149c03864020aa6e1cf04d","609006691f6f4e337c17f836","609d60ac788fa0041e5604b8","1213.289999985136","","","","39","","","","key","16.666636363636357","960","488.5","true","1","177","19.2","2","-1","-1","","","","","","","","","","","","",""
"psychophysics","15","56535","0.0-6.0-0.9","5e149c03864020aa6e1cf04d","609006691f6f4e337c17f836","609d60ac788fa0041e5604b8","104.1249999543652","","","","37","","","","key","16.66819402985075","960","488.5","true","-1","157.8","19.2","2","-1","-1","","","","","","","","","","","","",""
"psychophysics","16","57942","0.0-6.0-0.10","5e149c03864020aa6e1cf04d","609006691f6f4e337c17f836","609d60ac788fa0041e5604b8","392.1349999727681","","","","37","","","","key","16.66645783132529","960","488.5","true","-1","157.8","19.2","2","-1","-1","","","","","","","","","","","","",""
"psychophysics","17","59367","0.0-6.0-0.11","5e149c03864020aa6e1cf04d","609006691f6f4e337c17f836","609d60ac788fa0041e5604b8","417.1850000275299","","","","37","","","","key","16.667214285714312","960","488.5","true","-1","138.60000000000002","19.2","2","-1","-1","","","","","","","","","","","","",""
"psychophysics","18","60543","0.0-6.0-0.12","5e149c03864020aa6e1cf04d","609006691f6f4e337c17f836","609d60ac788fa0041e5604b8","164.53499998897314","","","","37","","","","key","16.666942857142775","960","488.5","true","-1","138.60000000000002","19.2","2","-1","-1","","","","","","","","","","","","",""
"psychophysics","19","62215","0.0-6.0-0.13","5e149c03864020aa6e1cf04d","609006691f6f4e337c17f836","609d60ac788fa0041e5604b8","665.1249999413267","","","","37","","","","key","16.66670707070708","960","488.5","true","-1","129","19.2","2","-1","-1","","","","","","","","","","","","",""
"psychophysics","20","63764","0.0-6.0-0.14","5e149c03864020aa6e1cf04d","609006691f6f4e337c17f836","609d60ac788fa0041e5604b8","532.3850000277162","","","","37","","","","key","16.665271739130453","960","488.5","true","1","129","15.36","3","1","-1","","","","","","","","","","","","",""
"psychophysics","21","65038","0.0-6.0-0.15","5e149c03864020aa6e1cf04d","609006691f6f4e337c17f836","609d60ac788fa0041e5604b8","272.289999993518","","","","37","","","","key","16.668618421052663","960","488.5","true","-1","144.36","15.36","3","-1","1","","","","","","","","","","","","",""
"psychophysics","22","66277","0.0-6.0-0.16","5e149c03864020aa6e1cf04d","609006691f6f4e337c17f836","609d60ac788fa0041e5604b8","232.3399999877438","","","","37","","","","key","16.665780821917792","960","488.5","true","-1","144.36","12.287999999999998","4","-1","-1","","","","","","","","","","","","",""
"psychophysics","23","67990","0.0-6.0-0.17","5e149c03864020aa6e1cf04d","609006691f6f4e337c17f836","609d60ac788fa0041e5604b8","706.3649999909103","","","","37","","","","key","16.66732352941172","960","488.5","true","-1","132.072","12.287999999999998","4","-1","-1","","","","","","","","","","","","",""
"psychophysics","24","69447","0.0-6.0-0.18","5e149c03864020aa6e1cf04d","609006691f6f4e337c17f836","609d60ac788fa0041e5604b8","447.15000002179295","","","","37","","","","key","16.66651162790706","960","488.5","true","-1","132.072","12.287999999999998","4","-1","-1","","","","","","","","","","","","",""
"psychophysics","25","70879","0.0-6.0-0.19","5e149c03864020aa6e1cf04d","609006691f6f4e337c17f836","609d60ac788fa0041e5604b8","428.37500001769513","","","","37","","","","key","16.666694117646994","960","488.5","true","1","129","9.8304","5","1","-1","","","","","","","","","","","","",""
"psychophysics","26","72190","0.0-6.0-0.20","5e149c03864020aa6e1cf04d","609006691f6f4e337c17f836","609d60ac788fa0041e5604b8","306.8549999734387","","","","39","","","","key","16.666487179487238","960","488.5","true","1","138.8304","9.8304","5","-1","1","","","","","","","","","","","","",""
"psychophysics","27","73336","0.0-6.0-0.21","5e149c03864020aa6e1cf04d","609006691f6f4e337c17f836","609d60ac788fa0041e5604b8","135.6449999148026","","","","39","","","","key","16.666764705882514","960","488.5","true","1","138.8304","7.864319999999999","6","-1","-1","","","","","","","","","","","","",""
"psychophysics","28","74767","0.0-6.0-0.22","5e149c03864020aa6e1cf04d","609006691f6f4e337c17f836","609d60ac788fa0041e5604b8","416.04499996174127","","","","37","","","","key","16.666821428571502","960","488.5","true","-1","130.96608","7.864319999999999","6","-1","-1","","","","","","","","","","","","",""
"psychophysics","29","76406","0.0-6.0-0.23","5e149c03864020aa6e1cf04d","609006691f6f4e337c17f836","609d60ac788fa0041e5604b8","630.6849999818951","","","","39","","","","key","16.66693877551021","960","488.5","true","-1","130.96608","6.291456","7","1","-1","","","","","","","","","","","","",""
"psychophysics","30","77431","0.0-6.0-0.24","5e149c03864020aa6e1cf04d","609006691f6f4e337c17f836","609d60ac788fa0041e5604b8","13.414999935775995","","","","39","","","","key","16.667116666666697","960","488.5","true","1","137.25753600000002","6.291456","7","-1","1","","","","","","","","","","","","",""
"psychophysics","31","78744","0.0-6.0-0.25","5e149c03864020aa6e1cf04d","609006691f6f4e337c17f836","609d60ac788fa0041e5604b8","310.0799999665469","","","","39","","","","key","16.66697435897442","960","488.5","true","1","137.25753600000002","5.033164800000001","8","-1","-1","","","","","","","","","","","","",""
"psychophysics","32","80766","0.0-6.0-0.26","5e149c03864020aa6e1cf04d","609006691f6f4e337c17f836","609d60ac788fa0041e5604b8","1015.599999926053","","","","37","","","","key","16.667074999999993","960","488.5","true","-1","132.2243712","5.033164800000001","8","-1","-1","","","","","","","","","","","","",""
"psychophysics","33","82270","0.0-6.0-0.27","5e149c03864020aa6e1cf04d","609006691f6f4e337c17f836","609d60ac788fa0041e5604b8","485.8150000218302","","","","37","","","","key","16.666300000000046","960","488.5","true","-1","132.2243712","5.033164800000001","8","-1","-1","","","","","","","","","","","","",""
"psychophysics","34","84016","0.0-6.0-0.28","5e149c03864020aa6e1cf04d","609006691f6f4e337c17f836","609d60ac788fa0041e5604b8","731.800000066869","","","","37","","","","key","16.666708737863956","960","488.5","true","-1","129","5.033164800000001","8","-1","-1","","","","","","","","","","","","",""
"psychophysics","35","85432","0.0-6.0-0.29","5e149c03864020aa6e1cf04d","609006691f6f4e337c17f836","609d60ac788fa0041e5604b8","398.4450000571087","","","","37","","","","key","16.666773809523875","960","488.5","true","-1","129","5.033164800000001","8","-1","-1","","","","","","","","","","","","",""
"psychophysics","36","86839","0.0-6.0-0.30","5e149c03864020aa6e1cf04d","609006691f6f4e337c17f836","609d60ac788fa0041e5604b8","404.51999998185784","","","","37","","","","key","16.668369047619176","960","488.5","true","1","129","4.0265318400000005","9","1","-1","","","","","","","","","","","","",""
"psychophysics","37","88254","0.0-6.0-0.31","5e149c03864020aa6e1cf04d","609006691f6f4e337c17f836","609d60ac788fa0041e5604b8","411.6449999855831","","","","37","","","","key","16.66726190476194","960","488.5","true","-1","133.02653184","4.0265318400000005","9","-1","1","","","","","","","","","","","","",""
"psychophysics","38","89630","0.0-6.0-0.32","5e149c03864020aa6e1cf04d","609006691f6f4e337c17f836","609d60ac788fa0041e5604b8","363.0150000099093","","","","37","","","","key","16.667358024691318","960","488.5","true","-1","133.02653184","3.2212254720000004","10","-1","-1","","","","","","","","","","","","",""
"psychophysics","39","91046","0.0-6.0-0.33","5e149c03864020aa6e1cf04d","609006691f6f4e337c17f836","609d60ac788fa0041e5604b8","411.835000035353","","","","37","","","","key","16.666678571428616","960","488.5","true","1","129.805306368","2.5769803776000004","11","1","-1","","","","","","","","","","","","",""
"psychophysics","40","92736","0.0-6.0-0.34","5e149c03864020aa6e1cf04d","609006691f6f4e337c17f836","609d60ac788fa0041e5604b8","685.1399999577552","","","","37","","","","key","16.666673267326757","960","488.5","true","-1","132.3822867456","2.5769803776000004","11","-1","1","","","","","","","","","","","","",""
"psychophysics","41","94120","0.0-6.0-0.35","5e149c03864020aa6e1cf04d","609006691f6f4e337c17f836","609d60ac788fa0041e5604b8","377.6300000026822","","","","39","","","","key","16.66708536585367","960","488.5","true","1","132.3822867456","2.0615843020800004","12","-1","-1","","","","","","","","","","","","",""
"psychophysics","42","95670","0.0-6.0-0.36","5e149c03864020aa6e1cf04d","609006691f6f4e337c17f836","609d60ac788fa0041e5604b8","545.990000013262","","","","37","","","","key","16.667336956521783","960","488.5","true","1","130.32070244352","1.6492674416640005","13","1","-1","","","","","","","","","","","","",""
"psychophysics","43","97062","0.0-6.0-0.37","5e149c03864020aa6e1cf04d","609006691f6f4e337c17f836","609d60ac788fa0041e5604b8","385.22999989800155","","","","37","","","","key","16.666951219512224","960","488.5","true","-1","131.96996988518399","1.6492674416640005","13","-1","1","","","","","","","","","","","","",""
"psychophysics","44","98535","0.0-6.0-0.38","5e149c03864020aa6e1cf04d","609006691f6f4e337c17f836","609d60ac788fa0041e5604b8","467.00499998405576","","","","39","","","","key","16.666448275862066","960","488.5","true","1","131.96996988518399","1.3194139533312006","14","-1","-1","","","","","","","","","","","","",""
"psychophysics","45","100102","0.0-6.0-0.39","5e149c03864020aa6e1cf04d","609006691f6f4e337c17f836","609d60ac788fa0041e5604b8","555.7450000196695","","","","37","","","","key","16.665904255319163","960","488.5","true","-1","130.65055593185278","1.3194139533312006","14","-1","-1","","","","","","","","","","","","",""
"html-keyboard-response","46","103975","0.0-7.0","5e149c03864020aa6e1cf04d","609006691f6f4e337c17f836","609d60ac788fa0041e5604b8","3871.2999999988824","<p>Well Done !</p><p>Prepare for a new block.</p><p>DON'T EXIT THE FULL SCREEN MODE</p><p>Press the Spacebar to start.</p>","","","32","","","","","","","","","","","","","","","true","131.61602800566268","","","","","","","","","","",""
"psychophysics","47","104983","0.0-8.0-0.0","5e149c03864020aa6e1cf04d","609006691f6f4e337c17f836","609d60ac788fa0041e5604b8","2.0750000840052962","","","","37","","","","key","16.671583333333306","960","488.5","true","-1","180","30","0","-1","","","","","","","","","","","","","",""
"psychophysics","48","107742","0.0-8.0-0.1","5e149c03864020aa6e1cf04d","609006691f6f4e337c17f836","609d60ac788fa0041e5604b8","1756.4350001048297","","","","37","","","","key","16.66770303030304","960","488.5","true","1","180","30","0","1","-1","","","","","","","","","","","","",""
"psychophysics","49","108868","0.0-8.0-0.2","5e149c03864020aa6e1cf04d","609006691f6f4e337c17f836","609d60ac788fa0041e5604b8","121.61999999079853","","","","37","","","","key","16.66508955223883","960","488.5","true","-1","210","30","0","-1","1","","","","","","","","","","","","",""
"psychophysics","50","110287","0.0-8.0-0.3","5e149c03864020aa6e1cf04d","609006691f6f4e337c17f836","609d60ac788fa0041e5604b8","417.2949999338016","","","","39","","","","key","16.66857142857147","960","488.5","true","1","210","24","1","-1","-1","","","","","","","","","","","","",""
"psychophysics","51","111726","0.0-8.0-0.4","5e149c03864020aa6e1cf04d","609006691f6f4e337c17f836","609d60ac788fa0041e5604b8","435.25999994017184","","","","37","","","","key","16.666611764706015","960","488.5","true","-1","186","24","1","-1","-1","","","","","","","","","","","","",""
"psychophysics","52","113183","0.0-8.0-0.5","5e149c03864020aa6e1cf04d","609006691f6f4e337c17f836","609d60ac788fa0041e5604b8","452.699999907054","","","","39","","","","key","16.666348837209267","960","488.5","true","1","186","24","1","-1","-1","","","","","","","","","","","","",""
"psychophysics","53","114590","0.0-8.0-0.6","5e149c03864020aa6e1cf04d","609006691f6f4e337c17f836","609d60ac788fa0041e5604b8","403.7199999438599","","","","39","","","","key","16.666964285714215","960","488.5","true","1","162","24","1","-1","-1","","","","","","","","","","","","",""
"psychophysics","54","116033","0.0-8.0-0.7","5e149c03864020aa6e1cf04d","609006691f6f4e337c17f836","609d60ac788fa0041e5604b8","439.5900000818074","","","","39","","","","key","16.667070588235305","960","488.5","true","1","162","24","1","-1","-1","","","","","","","","","","","","",""
"psychophysics","55","117431","0.0-8.0-0.8","5e149c03864020aa6e1cf04d","609006691f6f4e337c17f836","609d60ac788fa0041e5604b8","394.3100000033155","","","","39","","","","key","16.66653012048193","960","488.5","true","1","138","24","1","-1","-1","","","","","","","","","","","","",""
"psychophysics","56","118870","0.0-8.0-0.9","5e149c03864020aa6e1cf04d","609006691f6f4e337c17f836","609d60ac788fa0041e5604b8","435.36999996285886","","","","37","","","","key","16.66795348837213","960","488.5","true","-1","138","24","1","-1","-1","","","","","","","","","","","","",""
"psychophysics","57","120373","0.0-8.0-0.10","5e149c03864020aa6e1cf04d","609006691f6f4e337c17f836","609d60ac788fa0041e5604b8","499.8999999370426","","","","37","","","","key","16.667134831460675","960","488.5","true","1","129","19.2","2","1","-1","","","","","","","","","","","","",""
"psychophysics","58","121782","0.0-8.0-0.11","5e149c03864020aa6e1cf04d","609006691f6f4e337c17f836","609d60ac788fa0041e5604b8","405.92000004835427","","","","39","","","","key","16.666987951807236","960","488.5","true","1","148.2","19.2","2","-1","1","","","","","","","","","","","","",""
"psychophysics","59","123173","0.0-8.0-0.12","5e149c03864020aa6e1cf04d","609006691f6f4e337c17f836","609d60ac788fa0041e5604b8","388.0800000624731","","","","37","","","","key","16.66636144578319","960","488.5","true","-1","148.2","15.36","3","-1","-1","","","","","","","","","","","","",""
"psychophysics","60","124589","0.0-8.0-0.13","5e149c03864020aa6e1cf04d","609006691f6f4e337c17f836","609d60ac788fa0041e5604b8","413.1899999920279","","","","39","","","","key","16.667023809523794","960","488.5","true","1","132.83999999999997","15.36","3","-1","-1","","","","","","","","","","","","",""
"psychophysics","61","125989","0.0-8.0-0.14","5e149c03864020aa6e1cf04d","609006691f6f4e337c17f836","609d60ac788fa0041e5604b8","395.54499997757375","","","","37","","","","key","16.666903614457866","960","488.5","true","-1","132.83999999999997","15.36","3","-1","-1","","","","","","","","","","","","",""
"psychophysics","62","127384","0.0-8.0-0.15","5e149c03864020aa6e1cf04d","609006691f6f4e337c17f836","609d60ac788fa0041e5604b8","391.330000013113","","","","37","","","","key","16.666951219512224","960","488.5","true","-1","129","15.36","3","-1","-1","","","","","","","","","","","","",""
"psychophysics","63","128798","0.0-8.0-0.16","5e149c03864020aa6e1cf04d","609006691f6f4e337c17f836","609d60ac788fa0041e5604b8","409.3149999389425","","","","37","","","","key","16.66751190476186","960","488.5","true","1","129","12.287999999999998","4","1","-1","","","","","","","","","","","","",""
"psychophysics","64","130173","0.0-8.0-0.17","5e149c03864020aa6e1cf04d","609006691f6f4e337c17f836","609d60ac788fa0041e5604b8","372.220000019297","","","","37","","","","key","16.667121951219663","960","488.5","true","-1","141.288","12.287999999999998","4","-1","1","","","","","","","","","","","","",""
"psychophysics","65","131214","0.0-8.0-0.18","5e149c03864020aa6e1cf04d","609006691f6f4e337c17f836","609d60ac788fa0041e5604b8","37.08999999798834","","","","39","","","","key","16.66677049180344","960","488.5","true","1","141.288","9.8304","5","-1","-1","","","","","","","","","","","","",""
"psychophysics","66","132950","0.0-8.0-0.19","5e149c03864020aa6e1cf04d","609006691f6f4e337c17f836","609d60ac788fa0041e5604b8","732.3450000258163","","","","39","","","","key","16.667058252427136","960","488.5","true","-1","131.4576","7.864319999999999","6","1","-1","","","","","","","","","","","","",""
"psychophysics","67","134302","0.0-8.0-0.20","5e149c03864020aa6e1cf04d","609006691f6f4e337c17f836","609d60ac788fa0041e5604b8","348.6999999731779","","","","37","","","","key","16.666575000000012","960","488.5","true","-1","139.32192","7.864319999999999","6","-1","1","","","","","","","","","","","","",""
"psychophysics","68","135695","0.0-8.0-0.21","5e149c03864020aa6e1cf04d","609006691f6f4e337c17f836","609d60ac788fa0041e5604b8","389.33000003453344","","","","39","","","","key","16.667012048192696","960","488.5","true","1","139.32192","6.291456","7","-1","-1","","","","","","","","","","","","",""
"psychophysics","69","137157","0.0-8.0-0.22","5e149c03864020aa6e1cf04d","609006691f6f4e337c17f836","609d60ac788fa0041e5604b8","458.6100000888109","","","","37","","","","key","16.667333333333218","960","488.5","true","-1","133.030464","6.291456","7","-1","-1","","","","","","","","","","","","",""
"psychophysics","70","138623","0.0-8.0-0.23","5e149c03864020aa6e1cf04d","609006691f6f4e337c17f836","609d60ac788fa0041e5604b8","462.8449999727309","","","","39","","","","key","16.66701149425286","960","488.5","true","1","133.030464","6.291456","7","-1","-1","","","","","","","","","","","","",""
"psychophysics","71","140172","0.0-8.0-0.24","5e149c03864020aa6e1cf04d","609006691f6f4e337c17f836","609d60ac788fa0041e5604b8","545.4299999400973","","","","39","","","","key","16.666163043478065","960","488.5","true","1","129","6.291456","7","-1","-1","","","","","","","","","","","","",""
"psychophysics","72","141557","0.0-8.0-0.25","5e149c03864020aa6e1cf04d","609006691f6f4e337c17f836","609d60ac788fa0041e5604b8","383.92000005114824","","","","39","","","","key","16.667536585366","960","488.5","true","1","129","6.291456","7","-1","-1","","","","","","","","","","","","",""
"psychophysics","73","143006","0.0-8.0-0.26","5e149c03864020aa6e1cf04d","609006691f6f4e337c17f836","609d60ac788fa0041e5604b8","441.5049999952316","","","","39","","","","key","16.666848837209496","960","488.5","true","-1","129","5.033164800000001","8","1","-1","","","","","","","","","","","","",""
"psychophysics","74","144414","0.0-8.0-0.27","5e149c03864020aa6e1cf04d","609006691f6f4e337c17f836","609d60ac788fa0041e5604b8","404.8850000835955","","","","37","","","","key","16.666180722891628","960","488.5","true","-1","134.0331648","5.033164800000001","8","-1","1","","","","","","","","","","","","",""
"psychophysics","75","145734","0.0-8.0-0.28","5e149c03864020aa6e1cf04d","609006691f6f4e337c17f836","609d60ac788fa0041e5604b8","315.5400000978261","","","","39","","","","key","16.666705128205088","960","488.5","true","1","134.0331648","4.0265318400000005","9","-1","-1","","","","","","","","","","","","",""
"psychophysics","76","147230","0.0-8.0-0.29","5e149c03864020aa6e1cf04d","609006691f6f4e337c17f836","609d60ac788fa0041e5604b8","492.8099999669939","","","","37","","","","key","16.66603370786519","960","488.5","true","-1","130.00663296000002","4.0265318400000005","9","-1","-1","","","","","","","","","","","","",""
"psychophysics","77","148680","0.0-8.0-0.30","5e149c03864020aa6e1cf04d","609006691f6f4e337c17f836","609d60ac788fa0041e5604b8","444.67999995686114","","","","39","","","","key","16.667232558139677","960","488.5","true","1","130.00663296000002","4.0265318400000005","9","-1","-1","","","","","","","","","","","","",""
"psychophysics","78","150173","0.0-8.0-0.31","5e149c03864020aa6e1cf04d","609006691f6f4e337c17f836","609d60ac788fa0041e5604b8","488.6100000003353","","","","37","","","","key","16.66601123595499","960","488.5","true","-1","129","4.0265318400000005","9","-1","-1","","","","","","","","","","","","",""
"psychophysics","79","151558","0.0-8.0-0.32","5e149c03864020aa6e1cf04d","609006691f6f4e337c17f836","609d60ac788fa0041e5604b8","377.57499993313104","","","","37","","","","key","16.66759756097546","960","488.5","true","-1","129","4.0265318400000005","9","-1","-1","","","","","","","","","","","","",""
"psychophysics","80","153028","0.0-8.0-0.33","5e149c03864020aa6e1cf04d","609006691f6f4e337c17f836","609d60ac788fa0041e5604b8","458.7349999928847","","","","37","","","","key","16.666425287356564","960","488.5","true","-1","129","4.0265318400000005","9","-1","-1","","","","","","","","","","","","",""
"psychophysics","81","154399","0.0-8.0-0.34","5e149c03864020aa6e1cf04d","609006691f6f4e337c17f836","609d60ac788fa0041e5604b8","364.0650000888854","","","","37","","","","key","16.667629629629378","960","488.5","true","1","129","3.2212254720000004","10","1","-1","","","","","","","","","","","","",""
"psychophysics","82","155837","0.0-8.0-0.35","5e149c03864020aa6e1cf04d","609006691f6f4e337c17f836","609d60ac788fa0041e5604b8","435.6150000821799","","","","37","","","","key","16.668244186046312","960","488.5","true","1","132.22122547200001","3.2212254720000004","10","1","1","","","","","","","","","","","","",""
"psychophysics","83","157230","0.0-8.0-0.36","5e149c03864020aa6e1cf04d","609006691f6f4e337c17f836","609d60ac788fa0041e5604b8","383.5550000658259","","","","37","","","","key","16.66673170731697","960","488.5","true","-1","135.44245094400003","3.2212254720000004","10","-1","1","","","","","","","","","","","","",""
"psychophysics","84","158638","0.0-8.0-0.37","5e149c03864020aa6e1cf04d","609006691f6f4e337c17f836","609d60ac788fa0041e5604b8","402.49500004574656","","","","37","","","","key","16.66665476190489","960","488.5","true","-1","135.44245094400003","2.5769803776000004","11","-1","-1","","","","","","","","","","","","",""
"psychophysics","85","159967","0.0-8.0-0.38","5e149c03864020aa6e1cf04d","609006691f6f4e337c17f836","609d60ac788fa0041e5604b8","315.49499998800457","","","","39","","","","key","16.666858974359155","960","488.5","true","1","132.86547056640003","2.5769803776000004","11","-1","-1","","","","","","","","","","","","",""
"psychophysics","86","161454","0.0-8.0-0.39","5e149c03864020aa6e1cf04d","609006691f6f4e337c17f836","609d60ac788fa0041e5604b8","472.57999994326383","","","","39","","","","key","16.668797752809166","960","488.5","true","-1","132.86547056640003","2.0615843020800004","12","1","-1","","","","","","","","","","","","",""
"html-keyboard-response","87","164806","0.0-9.0","5e149c03864020aa6e1cf04d","609006691f6f4e337c17f836","609d60ac788fa0041e5604b8","3349.42499990575","<p>Well Done !</p><p>Prepare for a new block.</p><p>DON'T EXIT THE FULL SCREEN MODE</p><p>Press the Spacebar to start.</p>","","","32","","","","","","","","","","","","","","","true","131.39444426752002","","","","","","","","","","",""
"psychophysics","88","166110","0.0-10.0-0.0","5e149c03864020aa6e1cf04d","609006691f6f4e337c17f836","609d60ac788fa0041e5604b8","299.36500010080636","","","","37","","","","key","16.671269230769187","960","488.5","true","-1","180","30","0","-1","","","","","","","","","","","","","",""
"psychophysics","89","167301","0.0-10.0-0.1","5e149c03864020aa6e1cf04d","609006691f6f4e337c17f836","609d60ac788fa0041e5604b8","187.83500010613352","","","","39","","","","key","16.666071428571428","960","488.5","true","1","180","30","0","-1","-1","","","","","","","","","","","","",""
"psychophysics","90","168598","0.0-10.0-0.2","5e149c03864020aa6e1cf04d","609006691f6f4e337c17f836","609d60ac788fa0041e5604b8","294.7300000814721","","","","39","","","","key","16.667324675324558","960","488.5","true","1","150","30","0","-1","-1","","","","","","","","","","","","",""
"psychophysics","91","169950","0.0-10.0-0.3","5e149c03864020aa6e1cf04d","609006691f6f4e337c17f836","609d60ac788fa0041e5604b8","348.2850000727922","","","","39","","","","key","16.66672499999986","960","488.5","true","1","150","30","0","-1","-1","","","","","","","","","","","","",""
"psychophysics","92","171367","0.0-10.0-0.4","5e149c03864020aa6e1cf04d","609006691f6f4e337c17f836","609d60ac788fa0041e5604b8","414.06500001903623","","","","37","","","","key","16.666940476190316","960","488.5","true","1","129","24","1","1","-1","","","","","","","","","","","","",""
"psychophysics","93","172727","0.0-10.0-0.5","5e149c03864020aa6e1cf04d","609006691f6f4e337c17f836","609d60ac788fa0041e5604b8","357.105000060983","","","","39","","","","key","16.666975308641902","960","488.5","true","1","153","24","1","-1","1","","","","","","","","","","","","",""
"psychophysics","94","174055","0.0-10.0-0.6","5e149c03864020aa6e1cf04d","609006691f6f4e337c17f836","609d60ac788fa0041e5604b8","324.27999994251877","","","","37","","","","key","16.66843037974661","960","488.5","true","-1","153","19.2","2","-1","-1","","","","","","","","","","","","",""
"psychophysics","95","175421","0.0-10.0-0.7","5e149c03864020aa6e1cf04d","609006691f6f4e337c17f836","609d60ac788fa0041e5604b8","363.42499998863786","","","","37","","","","key","16.666530864197547","960","488.5","true","-1","133.8","19.2","2","-1","-1","","","","","","","","","","","","",""
"psychophysics","96","176823","0.0-10.0-0.8","5e149c03864020aa6e1cf04d","609006691f6f4e337c17f836","609d60ac788fa0041e5604b8","398.56000000145286","","","","37","","","","key","16.66651807228911","960","488.5","true","-1","133.8","19.2","2","-1","-1","","","","","","","","","","","","",""
"psychophysics","97","178420","0.0-10.0-0.9","5e149c03864020aa6e1cf04d","609006691f6f4e337c17f836","609d60ac788fa0041e5604b8","593.0099999532104","","","","37","","","","key","16.665252631578877","960","488.5","true","1","129","15.36","3","1","-1","","","","","","","","","","","","",""
"psychophysics","98","179774","0.0-10.0-0.10","5e149c03864020aa6e1cf04d","609006691f6f4e337c17f836","609d60ac788fa0041e5604b8","352.7599999215454","","","","39","","","","key","16.66826250000013","960","488.5","true","1","144.36","15.36","3","-1","1","","","","","","","","","","","","",""
"psychophysics","99","181182","0.0-10.0-0.11","5e149c03864020aa6e1cf04d","609006691f6f4e337c17f836","609d60ac788fa0041e5604b8","393.4400000143796","","","","37","","","","key","16.66725301204799","960","488.5","true","-1","144.36","12.287999999999998","4","-1","-1","","","","","","","","","","","","",""
"psychophysics","100","182662","0.0-10.0-0.12","5e149c03864020aa6e1cf04d","609006691f6f4e337c17f836","609d60ac788fa0041e5604b8","476.1700000381097","","","","39","","","","key","16.66628409090911","960","488.5","true","1","132.072","12.287999999999998","4","-1","-1","","","","","","","","","","","","",""
"psychophysics","101","184110","0.0-10.0-0.13","5e149c03864020aa6e1cf04d","609006691f6f4e337c17f836","609d60ac788fa0041e5604b8","446.1300000548363","","","","37","","","","key","16.66787209302332","960","488.5","true","-1","132.072","12.287999999999998","4","-1","-1","","","","","","","","","","","","",""
"psychophysics","102","185543","0.0-10.0-0.14","5e149c03864020aa6e1cf04d","609006691f6f4e337c17f836","609d60ac788fa0041e5604b8","428.74499992467463","","","","37","","","","key","16.666894117646905","960","488.5","true","1","129","9.8304","5","1","-1","","","","","","","","","","","","",""
"psychophysics","103","186941","0.0-10.0-0.15","5e149c03864020aa6e1cf04d","609006691f6f4e337c17f836","609d60ac788fa0041e5604b8","395.23499994538724","","","","39","","","","key","16.665795180722874","960","488.5","true","1","138.8304","9.8304","5","-1","1","","","","","","","","","","","","",""
"psychophysics","104","188271","0.0-10.0-0.16","5e149c03864020aa6e1cf04d","609006691f6f4e337c17f836","609d60ac788fa0041e5604b8","328.9349999977276","","","","39","","","","key","16.668506329113992","960","488.5","true","1","138.8304","7.864319999999999","6","-1","-1","","","","","","","","","","","","",""
"psychophysics","105","189703","0.0-10.0-0.17","5e149c03864020aa6e1cf04d","609006691f6f4e337c17f836","609d60ac788fa0041e5604b8","428.53500007186085","","","","37","","","","key","16.6667738095237","960","488.5","true","1","130.96608","6.291456","7","1","-1","","","","","","","","","","","","",""
"psychophysics","106","191030","0.0-10.0-0.18","5e149c03864020aa6e1cf04d","609006691f6f4e337c17f836","609d60ac788fa0041e5604b8","324.5899999747053","","","","37","","","","key","16.666493670886332","960","488.5","true","-1","137.25753600000002","6.291456","7","-1","1","","","","","","","","","","","","",""
"psychophysics","107","192383","0.0-10.0-0.19","5e149c03864020aa6e1cf04d","609006691f6f4e337c17f836","609d60ac788fa0041e5604b8","349.24500004854053","","","","37","","","","key","16.666800000000148","960","488.5","true","-1","137.25753600000002","5.033164800000001","8","-1","-1","","","","","","","","","","","","",""
"psychophysics","108","193752","0.0-10.0-0.20","5e149c03864020aa6e1cf04d","609006691f6f4e337c17f836","609d60ac788fa0041e5604b8","366.14499997813255","","","","39","","","","key","16.66713580246914","960","488.5","true","1","132.2243712","5.033164800000001","8","-1","-1","","","","","","","","","","","","",""
"psychophysics","109","195214","0.0-10.0-0.21","5e149c03864020aa6e1cf04d","609006691f6f4e337c17f836","609d60ac788fa0041e5604b8","456.72000001650304","","","","37","","","","key","16.666586206896746","960","488.5","true","1","132.2243712","4.0265318400000005","9","1","-1","","","","","","","","","","","","",""
"psychophysics","110","196573","0.0-10.0-0.22","5e149c03864020aa6e1cf04d","609006691f6f4e337c17f836","609d60ac788fa0041e5604b8","355.8849999681115","","","","37","","","","key","16.666802469135785","960","488.5","true","-1","136.25090304","4.0265318400000005","9","-1","1","","","","","","","","","","","","",""
"psychophysics","111","197941","0.0-10.0-0.23","5e149c03864020aa6e1cf04d","609006691f6f4e337c17f836","609d60ac788fa0041e5604b8","366.1650000140071","","","","37","","","","key","16.666765432098785","960","488.5","true","-1","136.25090304","3.2212254720000004","10","-1","-1","","","","","","","","","","","","",""
"psychophysics","112","199646","0.0-10.0-0.24","5e149c03864020aa6e1cf04d","609006691f6f4e337c17f836","609d60ac788fa0041e5604b8","702.3449999978766","","","","37","","","","key","16.667049504950526","960","488.5","true","1","133.029677568","2.5769803776000004","11","1","-1","","","","","","","","","","","","",""
"psychophysics","113","200965","0.0-10.0-0.25","5e149c03864020aa6e1cf04d","609006691f6f4e337c17f836","609d60ac788fa0041e5604b8","313.75000008847564","","","","37","","","","key","16.667102564102372","960","488.5","true","-1","135.6066579456","2.5769803776000004","11","-1","1","","","","","","","","","","","","",""
"psychophysics","114","202332","0.0-10.0-0.26","5e149c03864020aa6e1cf04d","609006691f6f4e337c17f836","609d60ac788fa0041e5604b8","365.1449999306351","","","","37","","","","key","16.665654320987716","960","488.5","true","-1","135.6066579456","2.0615843020800004","12","-1","-1","","","","","","","","","","","","",""
"psychophysics","115","203646","0.0-10.0-0.27","5e149c03864020aa6e1cf04d","609006691f6f4e337c17f836","609d60ac788fa0041e5604b8","310.56000001262873","","","","37","","","","key","16.66796153846185","960","488.5","true","-1","133.54507364352","2.0615843020800004","12","-1","-1","","","","","","","","","","","","",""
"psychophysics","116","204960","0.0-10.0-0.28","5e149c03864020aa6e1cf04d","609006691f6f4e337c17f836","609d60ac788fa0041e5604b8","311.930000083521","","","","39","","","","key","16.667384615384762","960","488.5","true","1","133.54507364352","2.0615843020800004","12","-1","-1","","","","","","","","","","","","",""
"psychophysics","117","206422","0.0-10.0-0.29","5e149c03864020aa6e1cf04d","609006691f6f4e337c17f836","609d60ac788fa0041e5604b8","458.15500000026077","","","","37","","","","key","16.667712643678332","960","488.5","true","-1","131.48348934144","2.0615843020800004","12","-1","-1","","","","","","","","","","","","",""
"psychophysics","118","207789","0.0-10.0-0.30","5e149c03864020aa6e1cf04d","609006691f6f4e337c17f836","609d60ac788fa0041e5604b8","363.8049999717623","","","","37","","","","key","16.666691358024426","960","488.5","true","-1","131.48348934144","2.0615843020800004","12","-1","-1","","","","","","","","","","","","",""
"psychophysics","119","209140","0.0-10.0-0.31","5e149c03864020aa6e1cf04d","609006691f6f4e337c17f836","609d60ac788fa0041e5604b8","347.6500000106171","","","","37","","","","key","16.666449999999895","960","488.5","true","-1","129.42190503935998","2.0615843020800004","12","-1","-1","","","","","","","","","","","","",""
"psychophysics","120","210743","0.0-10.0-0.32","5e149c03864020aa6e1cf04d","609006691f6f4e337c17f836","609d60ac788fa0041e5604b8","601.2750000227243","","","","39","","","","key","16.667610526315894","960","488.5","true","-1","129.42190503935998","1.6492674416640005","13","1","-1","","","","","","","","","","","","",""
"psychophysics","121","212157","0.0-10.0-0.33","5e149c03864020aa6e1cf04d","609006691f6f4e337c17f836","609d60ac788fa0041e5604b8","411.1249999841675","","","","39","","","","key","16.667178571428632","960","488.5","true","1","131.07117248102398","1.6492674416640005","13","-1","1","","","","","","","","","","","","",""
"psychophysics","122","213534","0.0-10.0-0.34","5e149c03864020aa6e1cf04d","609006691f6f4e337c17f836","609d60ac788fa0041e5604b8","372.37499991897494","","","","39","","","","key","16.666925925926023","960","488.5","true","1","131.07117248102398","1.3194139533312006","14","-1","-1","","","","","","","","","","","","",""
"psychophysics","123","214894","0.0-10.0-0.35","5e149c03864020aa6e1cf04d","609006691f6f4e337c17f836","609d60ac788fa0041e5604b8","357.5849999906495","","","","39","","","","key","16.66641975308655","960","488.5","true","-1","129.75175852769277","1.0555311626649604","15","1","-1","","","","","","","","","","","","",""
"psychophysics","124","216368","0.0-10.0-0.36","5e149c03864020aa6e1cf04d","609006691f6f4e337c17f836","609d60ac788fa0041e5604b8","471.3850000407547","","","","39","","","","key","16.66706896551728","960","488.5","true","1","130.80728969035772","1.0555311626649604","15","-1","1","","","","","","","","","","","","",""
"psychophysics","125","217734","0.0-10.0-0.37","5e149c03864020aa6e1cf04d","609006691f6f4e337c17f836","609d60ac788fa0041e5604b8","363.08999999891967","","","","37","","","","key","16.667098765432144","960","488.5","true","-1","130.80728969035772","1","16","-1","-1","","","","","","","","","","","","",""
"psychophysics","126","219102","0.0-10.0-0.38","5e149c03864020aa6e1cf04d","609006691f6f4e337c17f836","609d60ac788fa0041e5604b8","364.1399999614805","","","","37","","","","key","16.666691358024785","960","488.5","true","-1","129.80728969035772","1","16","-1","-1","","","","","","","","","","","","",""
"psychophysics","127","220526","0.0-10.0-0.39","5e149c03864020aa6e1cf04d","609006691f6f4e337c17f836","609d60ac788fa0041e5604b8","420.77500000596046","","","","37","","","","key","16.666941176470615","960","488.5","true","1","129.80728969035772","1","17","1","-1","","","","","","","","","","","","",""
"html-keyboard-response","128","224872","0.0-11.0","5e149c03864020aa6e1cf04d","609006691f6f4e337c17f836","609d60ac788fa0041e5604b8","4344.540000078268","<p>Well Done !</p><p>Prepare for a new block.</p><p>DON'T EXIT THE FULL SCREEN MODE</p><p>Press the Spacebar to start.</p>","","","32","","","","","","","","","","","","","","","true","131.5491676127341","","","","","","","","","","",""
"psychophysics","129","225908","0.0-12.0-0.0","5e149c03864020aa6e1cf04d","609006691f6f4e337c17f836","609d60ac788fa0041e5604b8","33.10500003863126","","","","37","","","","key","16.670516129032496","960","488.5","true","-1","180","30","0","-1","","","","","","","","","","","","","",""
"psychophysics","130","227198","0.0-12.0-0.1","5e149c03864020aa6e1cf04d","609006691f6f4e337c17f836","609d60ac788fa0041e5604b8","288.2150000659749","","","","39","","","","key","16.66701315789473","960","488.5","true","1","180","30","0","-1","-1","","","","","","","","","","","","",""
"psychophysics","131","228494","0.0-12.0-0.2","5e149c03864020aa6e1cf04d","609006691f6f4e337c17f836","609d60ac788fa0041e5604b8","293.0300000589341","","","","37","","","","key","16.666870129869967","960","488.5","true","-1","150","30","0","-1","-1","","","","","","","","","","","","",""
"psychophysics","132","229806","0.0-12.0-0.3","5e149c03864020aa6e1cf04d","609006691f6f4e337c17f836","609d60ac788fa0041e5604b8","308.5799999535084","","","","39","","","","key","16.667474358974662","960","488.5","true","1","150","30","0","-1","-1","","","","","","","","","","","","",""
"psychophysics","133","231325","0.0-12.0-0.4","5e149c03864020aa6e1cf04d","609006691f6f4e337c17f836","609d60ac788fa0041e5604b8","516.9699999969453","","","","37","","","","key","16.666944444444702","960","488.5","true","-1","129","30","0","-1","-1","","","","","","","","","","","","",""
"psychophysics","134","232789","0.0-12.0-0.5","5e149c03864020aa6e1cf04d","609006691f6f4e337c17f836","609d60ac788fa0041e5604b8","459.89499997813255","","","","39","","","","key","16.666505747126486","960","488.5","true","-1","129","24","1","1","-1","","","","","","","","","","","","",""
"psychophysics","135","234182","0.0-12.0-0.6","5e149c03864020aa6e1cf04d","609006691f6f4e337c17f836","609d60ac788fa0041e5604b8","387.77499995194376","","","","39","","","","key","16.66691463414641","960","488.5","true","1","153","24","1","-1","1","","","","","","","","","","","","",""
"psychophysics","136","235502","0.0-12.0-0.7","5e149c03864020aa6e1cf04d","609006691f6f4e337c17f836","609d60ac788fa0041e5604b8","316.9100000523031","","","","39","","","","key","16.66705128205127","960","488.5","true","1","153","19.2","2","-1","-1","","","","","","","","","","","","",""
"psychophysics","137","236822","0.0-12.0-0.8","5e149c03864020aa6e1cf04d","609006691f6f4e337c17f836","609d60ac788fa0041e5604b8","317.9999999701977","","","","37","","","","key","16.667025316455785","960","488.5","true","-1","133.8","19.2","2","-1","-1","","","","","","","","","","","","",""
"psychophysics","138","238088","0.0-12.0-0.9","5e149c03864020aa6e1cf04d","609006691f6f4e337c17f836","609d60ac788fa0041e5604b8","262.08500005304813","","","","39","","","","key","16.666959999999964","960","488.5","true","1","133.8","19.2","2","-1","-1","","","","","","","","","","","","",""
"psychophysics","139","239509","0.0-12.0-0.10","5e149c03864020aa6e1cf04d","609006691f6f4e337c17f836","609d60ac788fa0041e5604b8","417.7700000582263","","","","37","","","","key","16.666630952380643","960","488.5","true","1","129","15.36","3","1","-1","","","","","","","","","","","","",""
"psychophysics","140","240820","0.0-12.0-0.11","5e149c03864020aa6e1cf04d","609006691f6f4e337c17f836","609d60ac788fa0041e5604b8","307.06000002101064","","","","39","","","","key","16.665500000000183","960","488.5","true","1","144.36","15.36","3","-1","1","","","","","","","","","","","","",""
"psychophysics","141","242157","0.0-12.0-0.12","5e149c03864020aa6e1cf04d","609006691f6f4e337c17f836","609d60ac788fa0041e5604b8","335.5349999619648","","","","37","","","","key","16.668392405063106","960","488.5","true","-1","144.36","12.287999999999998","4","-1","-1","","","","","","","","","","","","",""
"psychophysics","142","243566","0.0-12.0-0.13","5e149c03864020aa6e1cf04d","609006691f6f4e337c17f836","609d60ac788fa0041e5604b8","406.13000001758337","","","","37","","","","key","16.666277108433817","960","488.5","true","1","132.072","9.8304","5","1","-1","","","","","","","","","","","","",""
"psychophysics","143","244892","0.0-12.0-0.14","5e149c03864020aa6e1cf04d","609006691f6f4e337c17f836","609d60ac788fa0041e5604b8","323.5199999762699","","","","37","","","","key","16.666291139240354","960","488.5","true","-1","141.9024","9.8304","5","-1","1","","","","","","","","","","","","",""
"psychophysics","144","245965","0.0-12.0-0.15","5e149c03864020aa6e1cf04d","609006691f6f4e337c17f836","609d60ac788fa0041e5604b8","70.50499995239079","","","","39","","","","key","16.66668253968283","960","488.5","true","1","141.9024","7.864319999999999","6","-1","-1","","","","","","","","","","","","",""
"psychophysics","145","247239","0.0-12.0-0.16","5e149c03864020aa6e1cf04d","609006691f6f4e337c17f836","609d60ac788fa0041e5604b8","271.8650000169873","","","","37","","","","key","16.66761842105265","960","488.5","true","-1","134.03808","7.864319999999999","6","-1","-1","","","","","","","","","","","","",""
"psychophysics","146","248535","0.0-12.0-0.17","5e149c03864020aa6e1cf04d","609006691f6f4e337c17f836","609d60ac788fa0041e5604b8","291.84499999973923","","","","37","","","","key","16.667289473684306","960","488.5","true","-1","134.03808","7.864319999999999","6","-1","-1","","","","","","","","","","","","",""
"psychophysics","147","250117","0.0-12.0-0.18","5e149c03864020aa6e1cf04d","609006691f6f4e337c17f836","609d60ac788fa0041e5604b8","577.5750000029802","","","","37","","","","key","16.666861702127633","960","488.5","true","1","129","6.291456","7","1","-1","","","","","","","","","","","","",""
"psychophysics","148","251398","0.0-12.0-0.19","5e149c03864020aa6e1cf04d","609006691f6f4e337c17f836","609d60ac788fa0041e5604b8","276.99000004213303","","","","39","","","","key","16.66775000000014","960","488.5","true","1","135.291456","6.291456","7","-1","1","","","","","","","","","","","","",""
"psychophysics","149","252734","0.0-12.0-0.20","5e149c03864020aa6e1cf04d","609006691f6f4e337c17f836","609d60ac788fa0041e5604b8","332.7900000149384","","","","37","","","","key","16.66654430379718","960","488.5","true","-1","135.291456","5.033164800000001","8","-1","-1","","","","","","","","","","","","",""
"psychophysics","150","254295","0.0-12.0-0.21","5e149c03864020aa6e1cf04d","609006691f6f4e337c17f836","609d60ac788fa0041e5604b8","557.6099999016151","","","","39","","","","key","16.666483870967824","960","488.5","true","1","130.2582912","5.033164800000001","8","-1","-1","","","","","","","","","","","","",""
"psychophysics","151","255662","0.0-12.0-0.22","5e149c03864020aa6e1cf04d","609006691f6f4e337c17f836","609d60ac788fa0041e5604b8","364.28500001784414","","","","39","","","","key","16.666728395061426","960","488.5","true","1","130.2582912","5.033164800000001","8","-1","-1","","","","","","","","","","","","",""
"psychophysics","152","257102","0.0-12.0-0.23","5e149c03864020aa6e1cf04d","609006691f6f4e337c17f836","609d60ac788fa0041e5604b8","435.97999995108694","","","","37","","","","key","16.666564705882305","960","488.5","true","1","129","4.0265318400000005","9","1","-1","","","","","","","","","","","","",""
"psychophysics","153","258543","0.0-12.0-0.24","5e149c03864020aa6e1cf04d","609006691f6f4e337c17f836","609d60ac788fa0041e5604b8","438.1300000241026","","","","37","","","","key","16.667104651162614","960","488.5","true","-1","133.02653184","4.0265318400000005","9","-1","1","","","","","","","","","","","","",""
"psychophysics","154","260030","0.0-12.0-0.25","5e149c03864020aa6e1cf04d","609006691f6f4e337c17f836","609d60ac788fa0041e5604b8","482.88999998476356","","","","39","","","","key","16.66639772727285","960","488.5","true","-1","133.02653184","3.2212254720000004","10","1","-1","","","","","","","","","","","","",""
"psychophysics","155","261357","0.0-12.0-0.26","5e149c03864020aa6e1cf04d","609006691f6f4e337c17f836","609d60ac788fa0041e5604b8","325.24000003468245","","","","39","","","","key","16.666329113924228","960","488.5","true","1","136.24775731199998","3.2212254720000004","10","-1","1","","","","","","","","","","","","",""
"psychophysics","156","262622","0.0-12.0-0.27","5e149c03864020aa6e1cf04d","609006691f6f4e337c17f836","609d60ac788fa0041e5604b8","260.97499998286366","","","","37","","","","key","16.66689333333401","960","488.5","true","-1","136.24775731199998","2.5769803776000004","11","-1","-1","","","","","","","","","","","","",""
"psychophysics","157","263892","0.0-12.0-0.28","5e149c03864020aa6e1cf04d","609006691f6f4e337c17f836","609d60ac788fa0041e5604b8","266.73500007018447","","","","39","","","","key","16.668013333333658","960","488.5","true","1","133.67077693439998","2.5769803776000004","11","-1","-1","","","","","","","","","","","","",""
"psychophysics","158","265181","0.0-12.0-0.29","5e149c03864020aa6e1cf04d","609006691f6f4e337c17f836","609d60ac788fa0041e5604b8","286.240000044927","","","","37","","","","key","16.667328947368475","960","488.5","true","-1","133.67077693439998","2.5769803776000004","11","-1","-1","","","","","","","","","","","","",""
"psychophysics","159","266502","0.0-12.0-0.30","5e149c03864020aa6e1cf04d","609006691f6f4e337c17f836","609d60ac788fa0041e5604b8","318.32500000018626","","","","37","","","","key","16.66750000000003","960","488.5","true","-1","131.0937965568","2.5769803776000004","11","-1","-1","","","","","","","","","","","","",""
"psychophysics","160","267806","0.0-12.0-0.31","5e149c03864020aa6e1cf04d","609006691f6f4e337c17f836","609d60ac788fa0041e5604b8","300.40499998722225","","","","37","","","","key","16.666205128205593","960","488.5","true","1","131.0937965568","2.0615843020800004","12","1","-1","","","","","","","","","","","","",""
"psychophysics","161","269088","0.0-12.0-0.32","5e149c03864020aa6e1cf04d","609006691f6f4e337c17f836","609d60ac788fa0041e5604b8","278.980000060983","","","","37","","","","key","16.667586666666125","960","488.5","true","-1","133.15538085888","2.0615843020800004","12","-1","1","","","","","","","","","","","","",""
"psychophysics","162","270398","0.0-12.0-0.33","5e149c03864020aa6e1cf04d","609006691f6f4e337c17f836","609d60ac788fa0041e5604b8","306.0250000562519","","","","37","","","","key","16.667474358974662","960","488.5","true","-1","133.15538085888","1.6492674416640005","13","-1","-1","","","","","","","","","","","","",""
"psychophysics","163","271718","0.0-12.0-0.34","5e149c03864020aa6e1cf04d","609006691f6f4e337c17f836","609d60ac788fa0041e5604b8","316.2400000728667","","","","37","","","","key","16.666410256410018","960","488.5","true","-1","131.506113417216","1.6492674416640005","13","-1","-1","","","","","","","","","","","","",""
"psychophysics","164","273012","0.0-12.0-0.35","5e149c03864020aa6e1cf04d","609006691f6f4e337c17f836","609d60ac788fa0041e5604b8","291.4650000166148","","","","37","","","","key","16.665545454545114","960","488.5","true","1","131.506113417216","1.3194139533312006","14","1","-1","","","","","","","","","","","","",""
"psychophysics","165","274141","0.0-12.0-0.36","5e149c03864020aa6e1cf04d","609006691f6f4e337c17f836","609d60ac788fa0041e5604b8","127.08999996539205","","","","39","","","","key","16.66768656716397","960","488.5","true","1","132.8255273705472","1.3194139533312006","14","-1","1","","","","","","","","","","","","",""
"psychophysics","166","275919","0.0-12.0-0.37","5e149c03864020aa6e1cf04d","609006691f6f4e337c17f836","609d60ac788fa0041e5604b8","774.37999995891","","","","39","","","","key","16.66690476190443","960","488.5","true","-1","132.8255273705472","1.0555311626649604","15","1","-1","","","","","","","","","","","","",""
"psychophysics","167","277206","0.0-12.0-0.38","5e149c03864020aa6e1cf04d","609006691f6f4e337c17f836","609d60ac788fa0041e5604b8","284.75500002969056","","","","37","","","","key","16.667051948052105","960","488.5","true","-1","133.88105853321215","1.0555311626649604","15","-1","1","","","","","","","","","","","","",""
"psychophysics","168","278614","0.0-12.0-0.39","5e149c03864020aa6e1cf04d","609006691f6f4e337c17f836","609d60ac788fa0041e5604b8","404.7349999891594","","","","39","","","","key","16.66661445783165","960","488.5","true","1","133.88105853321215","1","16","-1","-1","","","","","","","","","","","","",""
"html-keyboard-response","169","443967","0.0-13.0","5e149c03864020aa6e1cf04d","609006691f6f4e337c17f836","609d60ac788fa0041e5604b8","165350.5100000184","<p>Well Done !</p><p>Prepare for a new block.</p><p>DON'T EXIT THE FULL SCREEN MODE</p><p>Press the Spacebar to start.</p>","","","32","","","","","","","","","","","","","","","true","133.18582358707405","","","","","","","","","","",""
"html-keyboard-response","170","444077","0.0-14.0","5e149c03864020aa6e1cf04d","609006691f6f4e337c17f836","609d60ac788fa0041e5604b8","null","","","","null","","","","","","","","","","","","","","","","","131.93636586824772","true","135.87273173649544","","","","","","","",""
"instructions","171","469118","0.0-15.0","5e149c03864020aa6e1cf04d","609006691f6f4e337c17f836","609d60ac788fa0041e5604b8","25039.209999958985","","","","","","","[{""page_index"":0,""viewing_time"":17099.034999962896},{""page_index"":1,""viewing_time"":1864.0450000530109},{""page_index"":2,""viewing_time"":6075.85999998264}]","","","","","","","","","","","","","","","","","","","","","","","",""
"psychophysics","172","472136","0.0-16.0-0.0","5e149c03864020aa6e1cf04d","609006691f6f4e337c17f836","609d60ac788fa0041e5604b8","null","","","","null","","","","key","16.669983333332734","960","488.5","","","","","","","","","","","","","","","","","","","",""
"psychophysics","173","472640","0.0-16.0-1.0","5e149c03864020aa6e1cf04d","609006691f6f4e337c17f836","609d60ac788fa0041e5604b8","null","","","","null","","","","key","16.667482758621315","960","488.5","","","","","","","","","","","","","136","1","3","false","","","",""
"psychophysics","174","474287","0.0-16.0-2.0","5e149c03864020aa6e1cf04d","609006691f6f4e337c17f836","609d60ac788fa0041e5604b8","1641.2949999794364","","","","90","","","","key","16.666418367347024","960","488.5","","","","","","","","","","","","","","","","","","","",""
"psychophysics","175","475292","0.0-16.0-0.1","5e149c03864020aa6e1cf04d","609006691f6f4e337c17f836","609d60ac788fa0041e5604b8","null","","","","null","","","","key","16.666864406779187","960","488.5","","","","","","","","","","","","","","","","","","","",""
"psychophysics","176","475807","0.0-16.0-1.1","5e149c03864020aa6e1cf04d","609006691f6f4e337c17f836","609d60ac788fa0041e5604b8","null","","","","null","","","","key","16.666133333335164","960","488.5","","","","","","","","","","","","","136","1","0","false","","","",""
"psychophysics","177","476103","0.0-16.0-2.1","5e149c03864020aa6e1cf04d","609006691f6f4e337c17f836","609d60ac788fa0041e5604b8","284.9900000728667","","","","90","","","","key","16.66358823529513","960","488.5","","","","","","","","","","","","","","","","","","","",""
"psychophysics","178","477108","0.0-16.0-0.2","5e149c03864020aa6e1cf04d","609006691f6f4e337c17f836","609d60ac788fa0041e5604b8","null","","","","null","","","","key","16.66654237288137","960","488.5","","","","","","","","","","","","","","","","","","","",""
"psychophysics","179","477625","0.0-16.0-1.2","5e149c03864020aa6e1cf04d","609006691f6f4e337c17f836","609d60ac788fa0041e5604b8","null","","","","null","","","","key","16.667333333333954","960","488.5","","","","","","","","","","","","","136","1","5","false","","","",""
"psychophysics","180","477773","0.0-16.0-2.2","5e149c03864020aa6e1cf04d","609006691f6f4e337c17f836","609d60ac788fa0041e5604b8","139.68999998178333","","","","77","","","","key","16.668125000003783","960","488.5","","","","","","","","","","","","","","","","","","","",""
"psychophysics","181","478776","0.0-16.0-0.3","5e149c03864020aa6e1cf04d","609006691f6f4e337c17f836","609d60ac788fa0041e5604b8","null","","","","null","","","","key","16.66643333333292","960","488.5","","","","","","","","","","","","","","","","","","","",""
"psychophysics","182","479280","0.0-16.0-1.3","5e149c03864020aa6e1cf04d","609006691f6f4e337c17f836","609d60ac788fa0041e5604b8","null","","","","null","","","","key","16.666999999999774","960","488.5","","","","","","","","","","","","","136","-1","6","false","","","",""
"psychophysics","183","479454","0.0-16.0-2.3","5e149c03864020aa6e1cf04d","609006691f6f4e337c17f836","609d60ac788fa0041e5604b8","171.07500007841736","","","","77","","","","key","16.66644444444036","960","488.5","","","","","","","","","","","","","","","","","","","",""
"psychophysics","184","480457","0.0-16.0-0.4","5e149c03864020aa6e1cf04d","609006691f6f4e337c17f836","609d60ac788fa0041e5604b8","null","","","","null","","","","key","16.666491525423304","960","488.5","","","","","","","","","","","","","","","","","","","",""
"psychophysics","185","480960","0.0-16.0-1.4","5e149c03864020aa6e1cf04d","609006691f6f4e337c17f836","609d60ac788fa0041e5604b8","null","","","","null","","","","key","16.665766666666606","960","488.5","","","","","","","","","","","","","136","-1","3","false","","","",""
"psychophysics","186","481102","0.0-16.0-2.4","5e149c03864020aa6e1cf04d","609006691f6f4e337c17f836","609d60ac788fa0041e5604b8","139.30000003892928","","","","77","","","","key","16.668857142853085","960","488.5","","","","","","","","","","","","","","","","","","","",""
"psychophysics","187","482109","0.0-16.0-0.5","5e149c03864020aa6e1cf04d","609006691f6f4e337c17f836","609d60ac788fa0041e5604b8","null","","","","null","","","","key","16.666491525424288","960","488.5","","","","","","","","","","","","","","","","","","","",""
"psychophysics","188","482623","0.0-16.0-1.5","5e149c03864020aa6e1cf04d","609006691f6f4e337c17f836","609d60ac788fa0041e5604b8","null","","","","null","","","","key","16.666133333333224","960","488.5","","","","","","","","","","","","","136","1","2","false","","","",""
"psychophysics","189","482750","0.0-16.0-2.5","5e149c03864020aa6e1cf04d","609006691f6f4e337c17f836","609d60ac788fa0041e5604b8","125.15500001609325","","","","90","","","","key","16.665428571427974","960","488.5","","","","","","","","","","","","","","","","","","","",""
"psychophysics","190","483759","0.0-16.0-0.6","5e149c03864020aa6e1cf04d","609006691f6f4e337c17f836","609d60ac788fa0041e5604b8","null","","","","null","","","","key","16.667983050847827","960","488.5","","","","","","","","","","","","","","","","","","","",""
"psychophysics","191","484264","0.0-16.0-1.6","5e149c03864020aa6e1cf04d","609006691f6f4e337c17f836","609d60ac788fa0041e5604b8","null","","","","null","","","","key","16.66626666666707","960","488.5","","","","","","","","","","","","","136","-1","0","false","","","",""
"psychophysics","192","484360","0.0-16.0-2.6","5e149c03864020aa6e1cf04d","609006691f6f4e337c17f836","609d60ac788fa0041e5604b8","91.79500001482666","","","","90","","","","key","16.67599999998929","960","488.5","","","","","","","","","","","","","","","","","","","",""
"psychophysics","193","485363","0.0-16.0-0.7","5e149c03864020aa6e1cf04d","609006691f6f4e337c17f836","609d60ac788fa0041e5604b8","null","","","","null","","","","key","16.666423728812873","960","488.5","","","","","","","","","","","","","","","","","","","",""
"psychophysics","194","485874","0.0-16.0-1.7","5e149c03864020aa6e1cf04d","609006691f6f4e337c17f836","609d60ac788fa0041e5604b8","null","","","","null","","","","key","16.668068965517612","960","488.5","","","","","","","","","","","","","136","1","6","false","","","",""
"psychophysics","195","486278","0.0-16.0-2.7","5e149c03864020aa6e1cf04d","609006691f6f4e337c17f836","609d60ac788fa0041e5604b8","398.1549999443814","","","","77","","","","key","16.664750000001124","960","488.5","","","","","","","","","","","","","","","","","","","",""
"psychophysics","196","487286","0.0-16.0-0.8","5e149c03864020aa6e1cf04d","609006691f6f4e337c17f836","609d60ac788fa0041e5604b8","null","","","","null","","","","key","16.66747457627207","960","488.5","","","","","","","","","","","","","","","","","","","",""
"psychophysics","197","487792","0.0-16.0-1.8","5e149c03864020aa6e1cf04d","609006691f6f4e337c17f836","609d60ac788fa0041e5604b8","null","","","","null","","","","key","16.666551724136486","960","488.5","","","","","","","","","","","","","136","-1","4","false","","","",""
"psychophysics","198","488119","0.0-16.0-2.8","5e149c03864020aa6e1cf04d","609006691f6f4e337c17f836","609d60ac788fa0041e5604b8","322.370000067167","","","","90","","","","key","16.667368421052263","960","488.5","","","","","","","","","","","","","","","","","","","",""
"psychophysics","199","489125","0.0-16.0-0.9","5e149c03864020aa6e1cf04d","609006691f6f4e337c17f836","609d60ac788fa0041e5604b8","null","","","","null","","","","key","16.66638983050815","960","488.5","","","","","","","","","","","","","","","","","","","",""
"psychophysics","200","489627","0.0-16.0-1.9","5e149c03864020aa6e1cf04d","609006691f6f4e337c17f836","609d60ac788fa0041e5604b8","null","","","","null","","","","key","16.668733333332543","960","488.5","","","","","","","","","","","","","136","-1","5","false","","","",""
"psychophysics","201","489934","0.0-16.0-2.9","5e149c03864020aa6e1cf04d","609006691f6f4e337c17f836","609d60ac788fa0041e5604b8","304.82499999925494","","","","90","","","","key","16.666588235293816","960","488.5","","","","","","","","","","","","","","","","","","","",""
"psychophysics","202","490937","0.0-16.0-0.10","5e149c03864020aa6e1cf04d","609006691f6f4e337c17f836","609d60ac788fa0041e5604b8","null","","","","null","","","","key","16.665745762711534","960","488.5","","","","","","","","","","","","","","","","","","","",""
"psychophysics","203","491442","0.0-16.0-1.10","5e149c03864020aa6e1cf04d","609006691f6f4e337c17f836","609d60ac788fa0041e5604b8","null","","","","null","","","","key","16.66744827586106","960","488.5","","","","","","","","","","","","","136","-1","2","false","","","",""
"psychophysics","204","491942","0.0-16.0-2.10","5e149c03864020aa6e1cf04d","609006691f6f4e337c17f836","609d60ac788fa0041e5604b8","495.5700000282377","","","","90","","","","key","16.667103448276535","960","488.5","","","","","","","","","","","","","","","","","","","",""
"psychophysics","205","492953","0.0-16.0-0.11","5e149c03864020aa6e1cf04d","609006691f6f4e337c17f836","609d60ac788fa0041e5604b8","null","","","","null","","","","key","16.66610000000025","960","488.5","","","","","","","","","","","","","","","","","","","",""
"psychophysics","206","493459","0.0-16.0-1.11","5e149c03864020aa6e1cf04d","609006691f6f4e337c17f836","609d60ac788fa0041e5604b8","null","","","","null","","","","key","16.66651724138024","960","488.5","","","","","","","","","","","","","136","1","4","false","","","",""
"psychophysics","207","493774","0.0-16.0-2.11","5e149c03864020aa6e1cf04d","609006691f6f4e337c17f836","609d60ac788fa0041e5604b8","310.6350000016391","","","","77","","","","key","16.667055555554626","960","488.5","","","","","","","","","","","","","","","","","","","",""
"psychophysics","208","494776","0.0-16.0-0.12","5e149c03864020aa6e1cf04d","609006691f6f4e337c17f836","609d60ac788fa0041e5604b8","null","","","","null","","","","key","16.666466666666867","960","488.5","","","","","","","","","","","","","","","","","","","",""
"psychophysics","209","495284","0.0-16.0-1.12","5e149c03864020aa6e1cf04d","609006691f6f4e337c17f836","609d60ac788fa0041e5604b8","null","","","","null","","","","key","16.666931034481266","960","488.5","","","","","","","","","","","","","136","1","6","false","","","",""
"psychophysics","210","495623","0.0-16.0-2.12","5e149c03864020aa6e1cf04d","609006691f6f4e337c17f836","609d60ac788fa0041e5604b8","335.384999983944","","","","77","","","","key","16.66842105263219","960","488.5","","","","","","","","","","","","","","","","","","","",""
"psychophysics","211","496625","0.0-16.0-0.13","5e149c03864020aa6e1cf04d","609006691f6f4e337c17f836","609d60ac788fa0041e5604b8","null","","","","null","","","","key","16.66708474576284","960","488.5","","","","","","","","","","","","","","","","","","","",""
"psychophysics","212","497131","0.0-16.0-1.13","5e149c03864020aa6e1cf04d","609006691f6f4e337c17f836","609d60ac788fa0041e5604b8","null","","","","null","","","","key","16.667233333333083","960","488.5","","","","","","","","","","","","","136","1","5","false","","","",""
"psychophysics","213","497430","0.0-16.0-2.13","5e149c03864020aa6e1cf04d","609006691f6f4e337c17f836","609d60ac788fa0041e5604b8","295.9549999795854","","","","77","","","","key","16.668882352940273","960","488.5","","","","","","","","","","","","","","","","","","","",""
"psychophysics","214","498436","0.0-16.0-0.14","5e149c03864020aa6e1cf04d","609006691f6f4e337c17f836","609d60ac788fa0041e5604b8","null","","","","null","","","","key","16.66552542372887","960","488.5","","","","","","","","","","","","","","","","","","","",""
"psychophysics","215","498942","0.0-16.0-1.14","5e149c03864020aa6e1cf04d","609006691f6f4e337c17f836","609d60ac788fa0041e5604b8","null","","","","null","","","","key","16.66482758620786","960","488.5","","","","","","","","","","","","","136","1","0","false","","","",""
"psychophysics","216","499254","0.0-16.0-2.14","5e149c03864020aa6e1cf04d","609006691f6f4e337c17f836","609d60ac788fa0041e5604b8","307.314999983646","","","","77","","","","key","16.666611111111706","960","488.5","","","","","","","","","","","","","","","","","","","",""
"psychophysics","217","500259","0.0-16.0-0.15","5e149c03864020aa6e1cf04d","609006691f6f4e337c17f836","609d60ac788fa0041e5604b8","null","","","","null","","","","key","16.667237288135073","960","488.5","","","","","","","","","","","","","","","","","","","",""
"psychophysics","218","500774","0.0-16.0-1.15","5e149c03864020aa6e1cf04d","609006691f6f4e337c17f836","609d60ac788fa0041e5604b8","null","","","","null","","","","key","16.66536666666701","960","488.5","","","","","","","","","","","","","136","1","4","false","","","",""
"psychophysics","219","501071","0.0-16.0-2.15","5e149c03864020aa6e1cf04d","609006691f6f4e337c17f836","609d60ac788fa0041e5604b8","292.9549999535084","","","","77","","","","key","16.665352941175705","960","488.5","","","","","","","","","","","","","","","","","","","",""
"psychophysics","220","502076","0.0-16.0-0.16","5e149c03864020aa6e1cf04d","609006691f6f4e337c17f836","609d60ac788fa0041e5604b8","null","","","","null","","","","key","16.668796610169043","960","488.5","","","","","","","","","","","","","","","","","","","",""
"psychophysics","221","502584","0.0-16.0-1.16","5e149c03864020aa6e1cf04d","609006691f6f4e337c17f836","609d60ac788fa0041e5604b8","null","","","","null","","","","key","16.666700000001583","960","488.5","","","","","","","","","","","","","136","-1","3","false","","","",""
"psychophysics","222","503150","0.0-16.0-2.16","5e149c03864020aa6e1cf04d","609006691f6f4e337c17f836","609d60ac788fa0041e5604b8","563.0499999970198","","","","77","","","","key","16.66696969696998","960","488.5","","","","","","","","","","","","","","","","","","","",""
"psychophysics","223","504151","0.0-16.0-0.17","5e149c03864020aa6e1cf04d","609006691f6f4e337c17f836","609d60ac788fa0041e5604b8","null","","","","null","","","","key","16.664576271186796","960","488.5","","","","","","","","","","","","","","","","","","","",""
"psychophysics","224","504659","0.0-16.0-1.17","5e149c03864020aa6e1cf04d","609006691f6f4e337c17f836","609d60ac788fa0041e5604b8","null","","","","null","","","","key","16.672793103450235","960","488.5","","","","","","","","","","","","","136","-1","4","false","","","",""
"psychophysics","225","504974","0.0-16.0-2.17","5e149c03864020aa6e1cf04d","609006691f6f4e337c17f836","609d60ac788fa0041e5604b8","310.7099999906495","","","","77","","","","key","16.6654444444446","960","488.5","","","","","","","","","","","","","","","","","","","",""
"psychophysics","226","505976","0.0-16.0-0.18","5e149c03864020aa6e1cf04d","609006691f6f4e337c17f836","609d60ac788fa0041e5604b8","null","","","","null","","","","key","16.666169491525487","960","488.5","","","","","","","","","","","","","","","","","","","",""
"psychophysics","227","506492","0.0-16.0-1.18","5e149c03864020aa6e1cf04d","609006691f6f4e337c17f836","609d60ac788fa0041e5604b8","null","","","","null","","","","key","16.6647333333327","960","488.5","","","","","","","","","","","","","136","1","2","false","","","",""
"psychophysics","228","507079","0.0-16.0-2.18","5e149c03864020aa6e1cf04d","609006691f6f4e337c17f836","609d60ac788fa0041e5604b8","583.199999993667","","","","77","","","","key","16.66780000000061","960","488.5","","","","","","","","","","","","","","","","","","","",""
"psychophysics","229","508085","0.0-16.0-0.19","5e149c03864020aa6e1cf04d","609006691f6f4e337c17f836","609d60ac788fa0041e5604b8","null","","","","null","","","","key","16.666745762711674","960","488.5","","","","","","","","","","","","","","","","","","","",""
"psychophysics","230","508593","0.0-16.0-1.19","5e149c03864020aa6e1cf04d","609006691f6f4e337c17f836","609d60ac788fa0041e5604b8","null","","","","null","","","","key","16.66772413793108","960","488.5","","","","","","","","","","","","","136","1","3","false","","","",""
"psychophysics","231","508927","0.0-16.0-2.19","5e149c03864020aa6e1cf04d","609006691f6f4e337c17f836","609d60ac788fa0041e5604b8","329.20999999623746","","","","90","","","","key","16.66484210526534","960","488.5","","","","","","","","","","","","","","","","","","","",""
"psychophysics","232","509931","0.0-16.0-0.20","5e149c03864020aa6e1cf04d","609006691f6f4e337c17f836","609d60ac788fa0041e5604b8","null","","","","null","","","","key","16.66610000000025","960","488.5","","","","","","","","","","","","","","","","","","","",""
"psychophysics","233","510440","0.0-16.0-1.20","5e149c03864020aa6e1cf04d","609006691f6f4e337c17f836","609d60ac788fa0041e5604b8","null","","","","null","","","","key","16.667793103447586","960","488.5","","","","","","","","","","","","","136","-1","0","false","","","",""
"psychophysics","234","510742","0.0-16.0-2.20","5e149c03864020aa6e1cf04d","609006691f6f4e337c17f836","609d60ac788fa0041e5604b8","299.07499998807907","","","","90","","","","key","16.66900000000126","960","488.5","","","","","","","","","","","","","","","","","","","",""
"psychophysics","235","511744","0.0-16.0-0.21","5e149c03864020aa6e1cf04d","609006691f6f4e337c17f836","609d60ac788fa0041e5604b8","null","","","","null","","","","key","16.666583333333257","960","488.5","","","","","","","","","","","","","","","","","","","",""
"psychophysics","236","512257","0.0-16.0-1.21","5e149c03864020aa6e1cf04d","609006691f6f4e337c17f836","609d60ac788fa0041e5604b8","null","","","","null","","","","key","16.665172413794387","960","488.5","","","","","","","","","","","","","136","-1","5","false","","","",""
"psychophysics","237","512637","0.0-16.0-2.21","5e149c03864020aa6e1cf04d","609006691f6f4e337c17f836","609d60ac788fa0041e5604b8","375.08499994874","","","","77","","","","key","16.665545454545114","960","488.5","","","","","","","","","","","","","","","","","","","",""
"psychophysics","238","513643","0.0-16.0-0.22","5e149c03864020aa6e1cf04d","609006691f6f4e337c17f836","609d60ac788fa0041e5604b8","null","","","","null","","","","key","16.668576271186378","960","488.5","","","","","","","","","","","","","","","","","","","",""
"psychophysics","239","514151","0.0-16.0-1.22","5e149c03864020aa6e1cf04d","609006691f6f4e337c17f836","609d60ac788fa0041e5604b8","null","","","","null","","","","key","16.6661666666662","960","488.5","","","","","","","","","","","","","136","-1","6","false","","","",""
"psychophysics","240","514438","0.0-16.0-2.22","5e149c03864020aa6e1cf04d","609006691f6f4e337c17f836","609d60ac788fa0041e5604b8","284.4499999191612","","","","77","","","","key","16.668625000002066","960","488.5","","","","","","","","","","","","","","","","","","","",""
"psychophysics","241","515443","0.0-16.0-0.23","5e149c03864020aa6e1cf04d","609006691f6f4e337c17f836","609d60ac788fa0041e5604b8","null","","","","null","","","","key","16.665711864406813","960","488.5","","","","","","","","","","","","","","","","","","","",""
"psychophysics","242","515955","0.0-16.0-1.23","5e149c03864020aa6e1cf04d","609006691f6f4e337c17f836","609d60ac788fa0041e5604b8","null","","","","null","","","","key","16.66506666666634","960","488.5","","","","","","","","","","","","","136","-1","2","false","","","",""
"psychophysics","243","516285","0.0-16.0-2.23","5e149c03864020aa6e1cf04d","609006691f6f4e337c17f836","609d60ac788fa0041e5604b8","327.0899999188259","","","","90","","","","key","16.66557894736884","960","488.5","","","","","","","","","","","","","","","","","","","",""
"html-keyboard-response","244","519760","0.0-17.0","5e149c03864020aa6e1cf04d","609006691f6f4e337c17f836","609d60ac788fa0041e5604b8","3472.5649999454618","<p>Well Done !</p><p>Training Complete. Press the spacebar to start.</p><p>DON'T EXIT THE FULL SCREEN MODE</p>","","","32","","","","","","","","","","","","","","","","","","","","","","","","","","",""
"psychophysics","245","522776","0.0-18.0-0.0","5e149c03864020aa6e1cf04d","609006691f6f4e337c17f836","609d60ac788fa0041e5604b8","null","","","","null","","","","key","16.66973333333444","960","488.5","","","","","","","","","","","","","","","","","","","",""
"psychophysics","246","523291","0.0-18.0-1.0","5e149c03864020aa6e1cf04d","609006691f6f4e337c17f836","609d60ac788fa0041e5604b8","null","","","","null","","","","key","16.667433333334824","960","488.5","","","","","","","","","","","","","136","1","5","true","","","",""
"psychophysics","247","523406","0.0-18.0-2.0","5e149c03864020aa6e1cf04d","609006691f6f4e337c17f836","609d60ac788fa0041e5604b8","110.6900000013411","","","","77","","","","key","16.66433333331952","960","488.5","","","","","","","","","","","","","","","","","","","",""
"psychophysics","248","524410","0.0-18.0-0.1","5e149c03864020aa6e1cf04d","609006691f6f4e337c17f836","609d60ac788fa0041e5604b8","null","","","","null","","","","key","16.666271186441627","960","488.5","","","","","","","","","","","","","","","","","","","",""
"psychophysics","249","524913","0.0-18.0-1.1","5e149c03864020aa6e1cf04d","609006691f6f4e337c17f836","609d60ac788fa0041e5604b8","null","","","","null","","","","key","16.66736666666499","960","488.5","","","","","","","","","","","","","136","-1","2","true","","","",""
"psychophysics","250","525191","0.0-18.0-2.1","5e149c03864020aa6e1cf04d","609006691f6f4e337c17f836","609d60ac788fa0041e5604b8","275.069999974221","","","","90","","","","key","16.667466666673622","960","488.5","","","","","","","","","","","","","","","","","","","",""
"psychophysics","251","526193","0.0-18.0-0.2","5e149c03864020aa6e1cf04d","609006691f6f4e337c17f836","609d60ac788fa0041e5604b8","null","","","","null","","","","key","16.667271186439795","960","488.5","","","","","","","","","","","","","","","","","","","",""
"psychophysics","252","526708","0.0-18.0-1.2","5e149c03864020aa6e1cf04d","609006691f6f4e337c17f836","609d60ac788fa0041e5604b8","null","","","","null","","","","key","16.668533333332743","960","488.5","","","","","","","","","","","","","136","1","3","true","","","",""
"psychophysics","253","527230","0.0-18.0-2.2","5e149c03864020aa6e1cf04d","609006691f6f4e337c17f836","609d60ac788fa0041e5604b8","517.7050000056624","","","","90","","","","key","16.665903225803987","960","488.5","","","","","","","","","","","","","","","","","","","",""
"psychophysics","254","528240","0.0-18.0-0.3","5e149c03864020aa6e1cf04d","609006691f6f4e337c17f836","609d60ac788fa0041e5604b8","null","","","","null","","","","key","16.666830508474465","960","488.5","","","","","","","","","","","","","","","","","","","",""
"psychophysics","255","528743","0.0-18.0-1.3","5e149c03864020aa6e1cf04d","609006691f6f4e337c17f836","609d60ac788fa0041e5604b8","null","","","","null","","","","key","16.666448275859725","960","488.5","","","","","","","","","","","","","136","1","2","true","","","",""
"psychophysics","256","529014","0.0-18.0-2.3","5e149c03864020aa6e1cf04d","609006691f6f4e337c17f836","609d60ac788fa0041e5604b8","266.6899999603629","","","","90","","","","key","16.66968750000524","960","488.5","","","","","","","","","","","","","","","","","","","",""
"psychophysics","257","530023","0.0-18.0-0.4","5e149c03864020aa6e1cf04d","609006691f6f4e337c17f836","609d60ac788fa0041e5604b8","null","","","","null","","","","key","16.666762711865022","960","488.5","","","","","","","","","","","","","","","","","","","",""
"psychophysics","258","530526","0.0-18.0-1.4","5e149c03864020aa6e1cf04d","609006691f6f4e337c17f836","609d60ac788fa0041e5604b8","null","","","","null","","","","key","16.66644827586374","960","488.5","","","","","","","","","","","","","136","1","6","true","","","",""
"psychophysics","259","530815","0.0-18.0-2.4","5e149c03864020aa6e1cf04d","609006691f6f4e337c17f836","609d60ac788fa0041e5604b8","284.77999998722225","","","","77","","","","key","16.668411764706594","960","488.5","","","","","","","","","","","","","","","","","","","",""
"psychophysics","260","531826","0.0-18.0-0.5","5e149c03864020aa6e1cf04d","609006691f6f4e337c17f836","609d60ac788fa0041e5604b8","null","","","","null","","","","key","16.666576271186095","960","488.5","","","","","","","","","","","","","","","","","","","",""
"psychophysics","261","532339","0.0-18.0-1.5","5e149c03864020aa6e1cf04d","609006691f6f4e337c17f836","609d60ac788fa0041e5604b8","null","","","","null","","","","key","16.665666666665736","960","488.5","","","","","","","","","","","","","136","-1","6","true","","","",""
"psychophysics","262","532622","0.0-18.0-2.5","5e149c03864020aa6e1cf04d","609006691f6f4e337c17f836","609d60ac788fa0041e5604b8","279.6849999576807","","","","77","","","","key","16.66706250000425","960","488.5","","","","","","","","","","","","","","","","","","","",""
"psychophysics","263","533624","0.0-18.0-0.6","5e149c03864020aa6e1cf04d","609006691f6f4e337c17f836","609d60ac788fa0041e5604b8","null","","","","null","","","","key","16.666593220337468","960","488.5","","","","","","","","","","","","","","","","","","","",""
"psychophysics","264","534126","0.0-18.0-1.6","5e149c03864020aa6e1cf04d","609006691f6f4e337c17f836","609d60ac788fa0041e5604b8","null","","","","null","","","","key","16.66796551723884","960","488.5","","","","","","","","","","","","","136","-1","4","true","","","",""
"psychophysics","265","534358","0.0-18.0-2.6","5e149c03864020aa6e1cf04d","609006691f6f4e337c17f836","609d60ac788fa0041e5604b8","227.38000005483627","","","","77","","","","key","16.668461538466197","960","488.5","","","","","","","","","","","","","","","","","","","",""
"psychophysics","266","535360","0.0-18.0-0.7","5e149c03864020aa6e1cf04d","609006691f6f4e337c17f836","609d60ac788fa0041e5604b8","null","","","","null","","","","key","16.66716949152563","960","488.5","","","","","","","","","","","","","","","","","","","",""
"psychophysics","267","535876","0.0-18.0-1.7","5e149c03864020aa6e1cf04d","609006691f6f4e337c17f836","609d60ac788fa0041e5604b8","null","","","","null","","","","key","16.66763333333268","960","488.5","","","","","","","","","","","","","136","1","0","true","","","",""
"psychophysics","268","536118","0.0-18.0-2.7","5e149c03864020aa6e1cf04d","609006691f6f4e337c17f836","609d60ac788fa0041e5604b8","236.70999996829778","","","","90","","","","key","16.666357142859074","960","488.5","","","","","","","","","","","","","","","","","","","",""
"psychophysics","269","537121","0.0-18.0-0.8","5e149c03864020aa6e1cf04d","609006691f6f4e337c17f836","609d60ac788fa0041e5604b8","null","","","","null","","","","key","16.667389830507307","960","488.5","","","","","","","","","","","","","","","","","","","",""
"psychophysics","270","537626","0.0-18.0-1.8","5e149c03864020aa6e1cf04d","609006691f6f4e337c17f836","609d60ac788fa0041e5604b8","null","","","","null","","","","key","16.668620689655654","960","488.5","","","","","","","","","","","","","136","1","4","true","","","",""
"psychophysics","271","537949","0.0-18.0-2.8","5e149c03864020aa6e1cf04d","609006691f6f4e337c17f836","609d60ac788fa0041e5604b8","318.4750000946224","","","","77","","","","key","16.66368421053171","960","488.5","","","","","","","","","","","","","","","","","","","",""
"psychophysics","272","538960","0.0-18.0-0.9","5e149c03864020aa6e1cf04d","609006691f6f4e337c17f836","609d60ac788fa0041e5604b8","null","","","","null","","","","key","16.667576271186235","960","488.5","","","","","","","","","","","","","","","","","","","",""
"psychophysics","273","539466","0.0-18.0-1.9","5e149c03864020aa6e1cf04d","609006691f6f4e337c17f836","609d60ac788fa0041e5604b8","null","","","","null","","","","key","16.66610000000025","960","488.5","","","","","","","","","","","","","136","-1","3","true","","","",""
"psychophysics","274","539790","0.0-18.0-2.9","5e149c03864020aa6e1cf04d","609006691f6f4e337c17f836","609d60ac788fa0041e5604b8","321.2150000035763","","","","90","","","","key","16.666611111108473","960","488.5","","","","","","","","","","","","","","","","","","","",""
"psychophysics","275","540793","0.0-18.0-0.10","5e149c03864020aa6e1cf04d","609006691f6f4e337c17f836","609d60ac788fa0041e5604b8","null","","","","null","","","","key","16.665644067795395","960","488.5","","","","","","","","","","","","","","","","","","","",""
"psychophysics","276","541309","0.0-18.0-1.10","5e149c03864020aa6e1cf04d","609006691f6f4e337c17f836","609d60ac788fa0041e5604b8","null","","","","null","","","","key","16.66673333333262","960","488.5","","","","","","","","","","","","","136","-1","5","true","","","",""
"psychophysics","277","541559","0.0-18.0-2.10","5e149c03864020aa6e1cf04d","609006691f6f4e337c17f836","609d60ac788fa0041e5604b8","245.40999997407198","","","","77","","","","key","16.668642857136938","960","488.5","","","","","","","","","","","","","","","","","","","",""
"psychophysics","278","542569","0.0-18.0-0.11","5e149c03864020aa6e1cf04d","609006691f6f4e337c17f836","609d60ac788fa0041e5604b8","null","","","","null","","","","key","16.667050000000746","960","488.5","","","","","","","","","","","","","","","","","","","",""
"psychophysics","279","543077","0.0-18.0-1.11","5e149c03864020aa6e1cf04d","609006691f6f4e337c17f836","609d60ac788fa0041e5604b8","null","","","","null","","","","key","16.667068965520293","960","488.5","","","","","","","","","","","","","136","-1","0","true","","","",""
"psychophysics","280","543430","0.0-18.0-2.11","5e149c03864020aa6e1cf04d","609006691f6f4e337c17f836","609d60ac788fa0041e5604b8","348.46000000834465","","","","90","","","","key","16.666952380954864","960","488.5","","","","","","","","","","","","","","","","","","","",""
"psychophysics","281","544443","0.0-18.0-0.12","5e149c03864020aa6e1cf04d","609006691f6f4e337c17f836","609d60ac788fa0041e5604b8","null","","","","null","","","","key","16.667254237288418","960","488.5","","","","","","","","","","","","","","","","","","","",""
"psychophysics","282","544960","0.0-18.0-1.12","5e149c03864020aa6e1cf04d","609006691f6f4e337c17f836","609d60ac788fa0041e5604b8","null","","","","null","","","","key","16.666966666669275","960","488.5","","","","","","","","","","","","","136","-1","6","true","","","",""
"psychophysics","283","545230","0.0-18.0-2.12","5e149c03864020aa6e1cf04d","609006691f6f4e337c17f836","609d60ac788fa0041e5604b8","265.9500000299886","","","","77","","","","key","16.663312500000757","960","488.5","","","","","","","","","","","","","","","","","","","",""
"psychophysics","284","546243","0.0-18.0-0.13","5e149c03864020aa6e1cf04d","609006691f6f4e337c17f836","609d60ac788fa0041e5604b8","null","","","","null","","","","key","16.667440677965377","960","488.5","","","","","","","","","","","","","","","","","","","",""
"psychophysics","285","546754","0.0-18.0-1.13","5e149c03864020aa6e1cf04d","609006691f6f4e337c17f836","609d60ac788fa0041e5604b8","null","","","","null","","","","key","16.668166666668064","960","488.5","","","","","","","","","","","","","136","-1","4","true","","","",""
"psychophysics","286","547070","0.0-18.0-2.13","5e149c03864020aa6e1cf04d","609006691f6f4e337c17f836","609d60ac788fa0041e5604b8","313.28499992378056","","","","90","","","","key","16.664888888888527","960","488.5","","","","","","","","","","","","","","","","","","","",""
"psychophysics","287","548073","0.0-18.0-0.14","5e149c03864020aa6e1cf04d","609006691f6f4e337c17f836","609d60ac788fa0041e5604b8","null","","","","null","","","","key","16.66659322033944","960","488.5","","","","","","","","","","","","","","","","","","","",""
"psychophysics","288","548577","0.0-18.0-1.14","5e149c03864020aa6e1cf04d","609006691f6f4e337c17f836","609d60ac788fa0041e5604b8","null","","","","null","","","","key","16.666999999999774","960","488.5","","","","","","","","","","","","","136","1","3","true","","","",""
"psychophysics","289","548870","0.0-18.0-2.14","5e149c03864020aa6e1cf04d","609006691f6f4e337c17f836","609d60ac788fa0041e5604b8","285.5449999915436","","","","90","","","","key","16.66470588235568","960","488.5","","","","","","","","","","","","","","","","","","","",""
"psychophysics","290","549871","0.0-18.0-0.15","5e149c03864020aa6e1cf04d","609006691f6f4e337c17f836","609d60ac788fa0041e5604b8","null","","","","null","","","","key","16.66667796610223","960","488.5","","","","","","","","","","","","","","","","","","","",""
"psychophysics","291","550377","0.0-18.0-1.15","5e149c03864020aa6e1cf04d","609006691f6f4e337c17f836","609d60ac788fa0041e5604b8","null","","","","null","","","","key","16.66789655172234","960","488.5","","","","","","","","","","","","","136","1","5","true","","","",""
"psychophysics","292","550606","0.0-18.0-2.15","5e149c03864020aa6e1cf04d","609006691f6f4e337c17f836","609d60ac788fa0041e5604b8","225.35999992396683","","","","77","","","","key","16.663538461542114","960","488.5","","","","","","","","","","","","","","","","","","","",""
"psychophysics","293","551610","0.0-18.0-0.16","5e149c03864020aa6e1cf04d","609006691f6f4e337c17f836","609d60ac788fa0041e5604b8","null","","","","null","","","","key","16.666796610169744","960","488.5","","","","","","","","","","","","","","","","","","","",""
"psychophysics","294","552117","0.0-18.0-1.16","5e149c03864020aa6e1cf04d","609006691f6f4e337c17f836","609d60ac788fa0041e5604b8","null","","","","null","","","","key","16.66683333333349","960","488.5","","","","","","","","","","","","","136","-1","2","true","","","",""
"psychophysics","295","552391","0.0-18.0-2.16","5e149c03864020aa6e1cf04d","609006691f6f4e337c17f836","609d60ac788fa0041e5604b8","271.00499998778105","","","","90","","","","key","16.666600000004596","960","488.5","","","","","","","","","","","","","","","","","","","",""
"psychophysics","296","553393","0.0-18.0-0.17","5e149c03864020aa6e1cf04d","609006691f6f4e337c17f836","609d60ac788fa0041e5604b8","null","","","","null","","","","key","16.666745762711674","960","488.5","","","","","","","","","","","","","","","","","","","",""
"psychophysics","297","553898","0.0-18.0-1.17","5e149c03864020aa6e1cf04d","609006691f6f4e337c17f836","609d60ac788fa0041e5604b8","null","","","","null","","","","key","16.66809999999823","960","488.5","","","","","","","","","","","","","136","1","6","true","","","",""
"psychophysics","298","554135","0.0-18.0-2.17","5e149c03864020aa6e1cf04d","609006691f6f4e337c17f836","609d60ac788fa0041e5604b8","234.2499999795109","","","","77","","","","key","16.664230769231487","960","488.5","","","","","","","","","","","","","","","","","","","",""
"psychophysics","299","555139","0.0-18.0-0.18","5e149c03864020aa6e1cf04d","609006691f6f4e337c17f836","609d60ac788fa0041e5604b8","null","","","","null","","","","key","16.666576271186095","960","488.5","","","","","","","","","","","","","","","","","","","",""
"psychophysics","300","555644","0.0-18.0-1.18","5e149c03864020aa6e1cf04d","609006691f6f4e337c17f836","609d60ac788fa0041e5604b8","null","","","","null","","","","key","16.665793103446926","960","488.5","","","","","","","","","","","","","136","-1","0","true","","","",""
"psychophysics","301","555894","0.0-18.0-2.18","5e149c03864020aa6e1cf04d","609006691f6f4e337c17f836","609d60ac788fa0041e5604b8","246.07500003185123","","","","77","","","","key","16.667285714281856","960","488.5","","","","","","","","","","","","","","","","","","","",""
"psychophysics","302","556898","0.0-18.0-0.19","5e149c03864020aa6e1cf04d","609006691f6f4e337c17f836","609d60ac788fa0041e5604b8","null","","","","null","","","","key","16.666600000000713","960","488.5","","","","","","","","","","","","","","","","","","","",""
"psychophysics","303","557410","0.0-18.0-1.19","5e149c03864020aa6e1cf04d","609006691f6f4e337c17f836","609d60ac788fa0041e5604b8","null","","","","null","","","","key","16.665034482757367","960","488.5","","","","","","","","","","","","","136","1","2","true","","","",""
"psychophysics","304","557629","0.0-18.0-2.19","5e149c03864020aa6e1cf04d","609006691f6f4e337c17f836","609d60ac788fa0041e5604b8","212.7200000686571","","","","90","","","","key","16.6672307692307","960","488.5","","","","","","","","","","","","","","","","","","","",""
"psychophysics","305","558640","0.0-18.0-0.20","5e149c03864020aa6e1cf04d","609006691f6f4e337c17f836","609d60ac788fa0041e5604b8","null","","","","null","","","","key","16.66711864406756","960","488.5","","","","","","","","","","","","","","","","","","","",""
"psychophysics","306","559144","0.0-18.0-1.20","5e149c03864020aa6e1cf04d","609006691f6f4e337c17f836","609d60ac788fa0041e5604b8","null","","","","null","","","","key","16.666586206896746","960","488.5","","","","","","","","","","","","","136","-1","3","true","","","",""
"psychophysics","307","559406","0.0-18.0-2.20","5e149c03864020aa6e1cf04d","609006691f6f4e337c17f836","609d60ac788fa0041e5604b8","257.51500006299466","","","","77","","","","key","16.6687333333306","960","488.5","","","","","","","","","","","","","","","","","","","",""
"psychophysics","308","560410","0.0-18.0-0.21","5e149c03864020aa6e1cf04d","609006691f6f4e337c17f836","609d60ac788fa0041e5604b8","null","","","","null","","","","key","16.6667288135603","960","488.5","","","","","","","","","","","","","","","","","","","",""
"psychophysics","309","560927","0.0-18.0-1.21","5e149c03864020aa6e1cf04d","609006691f6f4e337c17f836","609d60ac788fa0041e5604b8","null","","","","null","","","","key","16.667666666667596","960","488.5","","","","","","","","","","","","","136","-1","5","true","","","",""
"psychophysics","310","561198","0.0-18.0-2.21","5e149c03864020aa6e1cf04d","609006691f6f4e337c17f836","609d60ac788fa0041e5604b8","266.5450000204146","","","","77","","","","key","16.665812500003085","960","488.5","","","","","","","","","","","","","","","","","","","",""
"psychophysics","311","562208","0.0-18.0-0.22","5e149c03864020aa6e1cf04d","609006691f6f4e337c17f836","609d60ac788fa0041e5604b8","null","","","","null","","","","key","16.665644067797366","960","488.5","","","","","","","","","","","","","","","","","","","",""
"psychophysics","312","562710","0.0-18.0-1.22","5e149c03864020aa6e1cf04d","609006691f6f4e337c17f836","609d60ac788fa0041e5604b8","null","","","","null","","","","key","16.665241379310892","960","488.5","","","","","","","","","","","","","136","1","4","true","","","",""
"psychophysics","313","563040","0.0-18.0-2.22","5e149c03864020aa6e1cf04d","609006691f6f4e337c17f836","609d60ac788fa0041e5604b8","325.7350000785664","","","","77","","","","key","16.66663157895183","960","488.5","","","","","","","","","","","","","","","","","","","",""
"psychophysics","314","564044","0.0-18.0-0.23","5e149c03864020aa6e1cf04d","609006691f6f4e337c17f836","609d60ac788fa0041e5604b8","null","","","","null","","","","key","16.66642372881386","960","488.5","","","","","","","","","","","","","","","","","","","",""
"psychophysics","315","564561","0.0-18.0-1.23","5e149c03864020aa6e1cf04d","609006691f6f4e337c17f836","609d60ac788fa0041e5604b8","null","","","","null","","","","key","16.66836666666592","960","488.5","","","","","","","","","","","","","136","1","0","true","","","",""
"psychophysics","316","564798","0.0-18.0-2.23","5e149c03864020aa6e1cf04d","609006691f6f4e337c17f836","609d60ac788fa0041e5604b8","232.96499997377396","","","","90","","","","key","16.664642857146514","960","488.5","","","","","","","","","","","","","","","","","","","",""
"psychophysics","317","565807","0.0-18.0-0.24","5e149c03864020aa6e1cf04d","609006691f6f4e337c17f836","609d60ac788fa0041e5604b8","null","","","","null","","","","key","16.666779661016395","960","488.5","","","","","","","","","","","","","","","","","","","",""
"psychophysics","318","566311","0.0-18.0-1.24","5e149c03864020aa6e1cf04d","609006691f6f4e337c17f836","609d60ac788fa0041e5604b8","null","","","","null","","","","key","16.666551724136486","960","488.5","","","","","","","","","","","","","136","-1","5","true","","","",""
"psychophysics","319","566582","0.0-18.0-2.24","5e149c03864020aa6e1cf04d","609006691f6f4e337c17f836","609d60ac788fa0041e5604b8","267.11000001523644","","","","77","","","","key","16.668499999999767","960","488.5","","","","","","","","","","","","","","","","","","","",""
"psychophysics","320","567592","0.0-18.0-0.25","5e149c03864020aa6e1cf04d","609006691f6f4e337c17f836","609d60ac788fa0041e5604b8","null","","","","null","","","","key","16.66620338983021","960","488.5","","","","","","","","","","","","","","","","","","","",""
"psychophysics","321","568094","0.0-18.0-1.25","5e149c03864020aa6e1cf04d","609006691f6f4e337c17f836","609d60ac788fa0041e5604b8","null","","","","null","","","","key","16.666862068962754","960","488.5","","","","","","","","","","","","","136","-1","0","true","","","",""
"psychophysics","322","568382","0.0-18.0-2.25","5e149c03864020aa6e1cf04d","609006691f6f4e337c17f836","609d60ac788fa0041e5604b8","283.034999971278","","","","77","","","","key","16.661941176465273","960","488.5","","","","","","","","","","","","","","","","","","","",""
"psychophysics","323","569394","0.0-18.0-0.26","5e149c03864020aa6e1cf04d","609006691f6f4e337c17f836","609d60ac788fa0041e5604b8","null","","","","null","","","","key","16.666661016948883","960","488.5","","","","","","","","","","","","","","","","","","","",""
"psychophysics","324","569908","0.0-18.0-1.26","5e149c03864020aa6e1cf04d","609006691f6f4e337c17f836","609d60ac788fa0041e5604b8","null","","","","null","","","","key","16.668166666668064","960","488.5","","","","","","","","","","","","","136","1","0","true","","","",""
"psychophysics","325","570190","0.0-18.0-2.26","5e149c03864020aa6e1cf04d","609006691f6f4e337c17f836","609d60ac788fa0041e5604b8","279.44500010926276","","","","90","","","","key","16.66356249999808","960","488.5","","","","","","","","","","","","","","","","","","","",""
"psychophysics","326","571194","0.0-18.0-0.27","5e149c03864020aa6e1cf04d","609006691f6f4e337c17f836","609d60ac788fa0041e5604b8","null","","","","null","","","","key","16.667966101693494","960","488.5","","","","","","","","","","","","","","","","","","","",""
"psychophysics","327","571711","0.0-18.0-1.27","5e149c03864020aa6e1cf04d","609006691f6f4e337c17f836","609d60ac788fa0041e5604b8","null","","","","null","","","","key","16.667133333336096","960","488.5","","","","","","","","","","","","","136","-1","3","true","","","",""
"psychophysics","328","571998","0.0-18.0-2.27","5e149c03864020aa6e1cf04d","609006691f6f4e337c17f836","609d60ac788fa0041e5604b8","283.2449999405071","","","","77","","","","key","16.67005882352618","960","488.5","","","","","","","","","","","","","","","","","","","",""
"psychophysics","329","573011","0.0-18.0-0.28","5e149c03864020aa6e1cf04d","609006691f6f4e337c17f836","609d60ac788fa0041e5604b8","null","","","","null","","","","key","16.666101694916044","960","488.5","","","","","","","","","","","","","","","","","","","",""
