"trial_type","trial_index","time_elapsed","internal_node_id","PROLIFIC_PID","STUDY_ID","SESSION_ID","rt","stimulus","button_pressed","success","key_press","responses","isData","view_history","response_type","avg_frame_time","center_x","center_y","isSC","stim_side","trial_luminance","step_size","nReversal","correct","prev_ans","isThreshold","SC_threshold","final_threshold","isLuminance","FF_luminance","luminance","stimSide","ISInt","isFF","question_order","isSPQ","isCAPS","isAQ"
"pavlovia","0","5","0.0-0.0","5df7f53c76f45059b65f4c99","609006691f6f4e337c17f836","609d360c7f9b03d354c2f888","","","","","","","","","","","","","","","","","","","","","","","","","","","","","","","",""
"html-button-response","1","8134","0.0-1.0","5df7f53c76f45059b65f4c99","609006691f6f4e337c17f836","609d360c7f9b03d354c2f888","8126.964999999473","<div style='background-color: white; width:60%; margin: auto; padding: 50px; text-align: justify; text-justify: inter-word; margin-bottom: 20px;'><h1 style='text-align: center;'>Consent Form</h1><p>Please read this consent form carefully before deciding whether you would like to participate in this study. You have to be 18 years old or older to participate to this study.</p><p style='text-decoration: underline;'>Participation is voluntary:</p><p>It is your choice whether or not to participate in this research. If you choose to participate, you may change your mind and leave the study at any time. Refusal to participate or stopping your participation will involve no penalty or loss of benefits to which you are otherwise entitled.</p><p style='text-decoration: underline;'>Purpose of the Study:</p><p>To understand the mechanisms underlying human perception.</p><p style='text-decoration: underline;'>What you will do in this study:</p><p>You will be presented with a series of visual images and then you will press buttons on the keyboard of your computer to respond to simple questions about the images (e.g. Were one or two images presented?). In addition, you will be asked to complete a questionnaire concerning your beliefs and everyday mental and perceptual experiences.'</p><p style='text-decoration: underline;'> Time Required:</p><p>The study will take 40 minutes to complete. </p><p style='text-decoration: underline;'>Risks:</p><p>There are no anticipated risks associated with participating in this study that are beyond those experienced in everyday life. </p><p style='text-decoration: underline;'>Benefits:</p><p>There are no benefits to you in participating in the study. However, this study may lead to a better understanding of how different kinds of visual information are used.</p><p style='text-decoration: underline;'>Compensation:</p><p>You will be paid US$6.6/hour. </p><p style='text-decoration: underline;'>Privacy and Confidentiality:</p><p>Your participation in this study will be anonymous. No personal information about your name or identity will be asked or recorded. This anonymous data will be stored for several years and may be used for a variety of research purposes. The overall results of the study may be published, or the data files may be shared with other researchers, but your identity will not be revealed in any way. The online services we are using for this study may temporarily store your data, but this data will be downloaded and then promptly deleted from those services.Your data will not be permanently associated with your name, IP address, or any other identifiable information (e.g., your information will only be connected to your payment, not to any of your responses), though they may be temporarily stored together before we download and separate them. Even so, no guarantee of internet survey security can be given because, although unlikely, transmissions can be intercepted and IP addresses can be identified. The anonymous data may be shared publicly (for example, in conjunction with a resulting academic publication).</p><p style='text-decoration: underline;'>Participation and Withdrawal:</p><p>Your participation in this study is completely voluntary. You may stop responding to the stimuli or stop answering questions if you so choose and without penalty by exiting the full screen mode, closing this tab of your browser or redirecting it to a different website.</p><p style='text-decoration: underline;'>Contact Info of the Researcher: </p><p>If you have questions about this study, or if you would like to talk to the research team, please contact David Melcher (david.melcher@nyu.edu, md5050@nyu.edu) at the Perception and Active Cognition Laboratory, New York University Abu Dhabi, Computational Research Building, Saadiyat Island, Abu Dhabi, UAE.This research has been reviewed by the New York University Abu Dhabi Institutional Review Board (NYUAD IRB). To contact about your rights in this research, for questions, suggestions, or complaints that are not addressed by the researchers, please email IRBnyuad@nyu.edu, or call the NYUAD IRB at +971 2 628 4313. </p></div>","0","","","","","","","","","","","","","","","","","","","","","","","","","","","","",""
"fullscreen","2","31641","0.0-2.0","5df7f53c76f45059b65f4c99","609006691f6f4e337c17f836","609d360c7f9b03d354c2f888","","","","true","","","","","","","","","","","","","","","","","","","","","","","","","","","",""
"html-keyboard-response","3","48628","0.0-3.0","5df7f53c76f45059b65f4c99","609006691f6f4e337c17f836","609d360c7f9b03d354c2f888","16985.499999998865","<p>Welcome !</p><p>READ CAREFULLY THE FOLLOWING INDICATIONS:</p><p>From this moment you have ~40 minutes to complete the experiment.</p><p>During the experiment you will be prompted to take several breaks. Each break should not last longer than 2-3 minutes.</p><p>Make sure that your computer is plugged in and it's not running on battery power, even if the battery is already fully charged.</p><p>Turn off your phone and music, make sure that you are in a quiet room and that you will not be distracted for the next hour.</p><p>Failure to comply with the instructions and indications provided during the experiment will most likely result in the rejection of your data.<p>Press the spacebar to start.</p>","","","32","","","","","","","","","","","","","","","","","","","","","","","","","","",""
"survey-html-form","4","54261","0.0-4.0","5df7f53c76f45059b65f4c99","609006691f6f4e337c17f836","609d360c7f9b03d354c2f888","5630.9499999988475","","","","","{""age"":""27"",""sex"":""F""}","true","","","","","","","","","","","","","","","","","","","","","","","","",""
"instructions","5","205909","0.0-5.0","5df7f53c76f45059b65f4c99","609006691f6f4e337c17f836","609d360c7f9b03d354c2f888","151646.84500000294","","","","","","","[{""page_index"":0,""viewing_time"":142591.47500000108},{""page_index"":1,""viewing_time"":6015.2799999996205},{""page_index"":2,""viewing_time"":3039.700000001176}]","","","","","","","","","","","","","","","","","","","","","","","",""
"psychophysics","6","207380","0.0-6.0-0.0","5df7f53c76f45059b65f4c99","609006691f6f4e337c17f836","609d360c7f9b03d354c2f888","464.6649999995134","","","","39","","","","key","16.651465909090884","960","468.5","true","1","180","30","0","-1","","","","","","","","","","","","","",""
"psychophysics","7","210783","0.0-6.0-0.1","5df7f53c76f45059b65f4c99","609006691f6f4e337c17f836","609d360c7f9b03d354c2f888","2399.4000000020606","","","","39","","","","key","16.651897058823643","960","468.5","true","-1","180","30","0","1","-1","","","","","","","","","","","","",""
"psychophysics","8","211994","0.0-6.0-0.2","5df7f53c76f45059b65f4c99","609006691f6f4e337c17f836","609d360c7f9b03d354c2f888","208.360000000539","","","","39","","","","key","16.650929577464588","960","468.5","true","1","210","30","0","-1","1","","","","","","","","","","","","",""
"psychophysics","9","216024","0.0-6.0-0.3","5df7f53c76f45059b65f4c99","609006691f6f4e337c17f836","609d360c7f9b03d354c2f888","3026.4749999987544","","","","37","","","","key","16.651195020746865","960","468.5","true","1","210","24","1","1","-1","","","","","","","","","","","","",""
"psychophysics","10","217457","0.0-6.0-0.4","5df7f53c76f45059b65f4c99","609006691f6f4e337c17f836","609d360c7f9b03d354c2f888","427.3400000020047","","","","39","","","","key","16.650988235294147","960","468.5","true","1","234","24","1","-1","1","","","","","","","","","","","","",""
"psychophysics","11","221302","0.0-6.0-0.5","5df7f53c76f45059b65f4c99","609006691f6f4e337c17f836","609d360c7f9b03d354c2f888","2841.004999998404","","","","37","","","","key","16.651586956521697","960","468.5","true","1","234","19.2","2","1","-1","","","","","","","","","","","","",""
"psychophysics","12","222555","0.0-6.0-0.6","5df7f53c76f45059b65f4c99","609006691f6f4e337c17f836","609d360c7f9b03d354c2f888","248.20999999792548","","","","37","","","","key","16.65076000000001","960","468.5","true","-1","253.2","19.2","2","-1","1","","","","","","","","","","","","",""
"psychophysics","13","224606","0.0-6.0-0.7","5df7f53c76f45059b65f4c99","609006691f6f4e337c17f836","609d360c7f9b03d354c2f888","1048.015000000305","","","","37","","","","key","16.65069672131155","960","468.5","true","-1","253.2","15.36","3","-1","-1","","","","","","","","","","","","",""
"psychophysics","14","225853","0.0-6.0-0.8","5df7f53c76f45059b65f4c99","609006691f6f4e337c17f836","609d360c7f9b03d354c2f888","245.2099999973143","","","","39","","","","key","16.650662162162227","960","468.5","true","1","237.83999999999997","15.36","3","-1","-1","","","","","","","","","","","","",""
"psychophysics","15","227068","0.0-6.0-0.9","5df7f53c76f45059b65f4c99","609006691f6f4e337c17f836","609d360c7f9b03d354c2f888","211.90000000206055","","","","37","","","","key","16.650777777777776","960","468.5","true","-1","237.83999999999997","15.36","3","-1","-1","","","","","","","","","","","","",""
"psychophysics","16","228288","0.0-6.0-0.10","5df7f53c76f45059b65f4c99","609006691f6f4e337c17f836","609d360c7f9b03d354c2f888","215.9800000008545","","","","37","","","","key","17.127657142857373","960","468.5","true","-1","222.47999999999996","15.36","3","-1","-1","","","","","","","","","","","","",""
"psychophysics","17","230000","0.0-6.0-0.11","5df7f53c76f45059b65f4c99","609006691f6f4e337c17f836","609d360c7f9b03d354c2f888","706.8299999991723","","","","37","","","","key","16.651333333333206","960","468.5","true","-1","222.47999999999996","15.36","3","-1","-1","","","","","","","","","","","","",""
"psychophysics","18","232403","0.0-6.0-0.12","5df7f53c76f45059b65f4c99","609006691f6f4e337c17f836","609d360c7f9b03d354c2f888","1399.7849999977916","","","","37","","","","key","16.651223776223777","960","468.5","true","-1","207.11999999999995","15.36","3","-1","-1","","","","","","","","","","","","",""
"psychophysics","19","234676","0.0-6.0-0.13","5df7f53c76f45059b65f4c99","609006691f6f4e337c17f836","609d360c7f9b03d354c2f888","1271.0550000010699","","","","37","","","","key","16.65020588235305","960","468.5","true","-1","207.11999999999995","15.36","3","-1","-1","","","","","","","","","","","","",""
"psychophysics","20","235791","0.0-6.0-0.14","5df7f53c76f45059b65f4c99","609006691f6f4e337c17f836","609d360c7f9b03d354c2f888","113.04499999823747","","","","39","","","","key","16.651369230768893","960","468.5","true","1","191.75999999999993","15.36","3","-1","-1","","","","","","","","","","","","",""
"psychophysics","21","238427","0.0-6.0-0.15","5df7f53c76f45059b65f4c99","609006691f6f4e337c17f836","609d360c7f9b03d354c2f888","1632.2650000001886","","","","39","","","","key","16.651221518987413","960","468.5","true","1","191.75999999999993","15.36","3","-1","-1","","","","","","","","","","","","",""
"psychophysics","22","241474","0.0-6.0-0.16","5df7f53c76f45059b65f4c99","609006691f6f4e337c17f836","609d360c7f9b03d354c2f888","2044.9900000021444","","","","39","","","","key","16.65156593406605","960","468.5","true","1","176.39999999999992","15.36","3","-1","-1","","","","","","","","","","","","",""
"psychophysics","23","242661","0.0-6.0-0.17","5df7f53c76f45059b65f4c99","609006691f6f4e337c17f836","609d360c7f9b03d354c2f888","182.6199999995879","","","","37","","","","key","16.6510000000001","960","468.5","true","-1","176.39999999999992","15.36","3","-1","-1","","","","","","","","","","","","",""
"psychophysics","24","244495","0.0-6.0-0.18","5df7f53c76f45059b65f4c99","609006691f6f4e337c17f836","609d360c7f9b03d354c2f888","830.245000001014","","","","37","","","","key","16.650816513761587","960","468.5","true","-1","161.0399999999999","15.36","3","-1","-1","","","","","","","","","","","","",""
"psychophysics","25","246919","0.0-6.0-0.19","5df7f53c76f45059b65f4c99","609006691f6f4e337c17f836","609d360c7f9b03d354c2f888","1420.8350000008068","","","","37","","","","key","16.651379310344907","960","468.5","true","-1","161.0399999999999","15.36","3","-1","-1","","","","","","","","","","","","",""
"psychophysics","26","248173","0.0-6.0-0.20","5df7f53c76f45059b65f4c99","609006691f6f4e337c17f836","609d360c7f9b03d354c2f888","249.3499999982305","","","","37","","","","key","16.65491891891862","960","468.5","true","-1","145.6799999999999","15.36","3","-1","-1","","","","","","","","","","","","",""
"psychophysics","27","251200","0.0-6.0-0.21","5df7f53c76f45059b65f4c99","609006691f6f4e337c17f836","609d360c7f9b03d354c2f888","2023.7699999997858","","","","37","","","","key","16.65006666666676","960","468.5","true","-1","145.6799999999999","15.36","3","-1","-1","","","","","","","","","","","","",""
"psychophysics","28","252348","0.0-6.0-0.22","5df7f53c76f45059b65f4c99","609006691f6f4e337c17f836","609d360c7f9b03d354c2f888","145.1550000019779","","","","37","","","","key","16.650029411764564","960","468.5","true","1","130.31999999999988","12.287999999999998","4","1","-1","","","","","","","","","","","","",""
"psychophysics","29","253515","0.0-6.0-0.23","5df7f53c76f45059b65f4c99","609006691f6f4e337c17f836","609d360c7f9b03d354c2f888","162.8049999999348","","","","39","","","","key","17.39617910447753","960","468.5","true","1","142.6079999999999","12.287999999999998","4","-1","1","","","","","","","","","","","","",""
"psychophysics","30","254947","0.0-6.0-0.24","5df7f53c76f45059b65f4c99","609006691f6f4e337c17f836","609d360c7f9b03d354c2f888","428.4850000003644","","","","39","","","","key","16.651176470588304","960","468.5","true","1","142.6079999999999","9.8304","5","-1","-1","","","","","","","","","","","","",""
"psychophysics","31","256005","0.0-6.0-0.25","5df7f53c76f45059b65f4c99","609006691f6f4e337c17f836","609d360c7f9b03d354c2f888","53.984999998647254","","","","37","","","","key","16.651177419354713","960","468.5","true","-1","132.7775999999999","9.8304","5","-1","-1","","","","","","","","","","","","",""
"psychophysics","32","257558","0.0-6.0-0.26","5df7f53c76f45059b65f4c99","609006691f6f4e337c17f836","609d360c7f9b03d354c2f888","549.8200000001816","","","","37","","","","key","16.65191397849459","960","468.5","true","1","132.7775999999999","7.864319999999999","6","1","-1","","","","","","","","","","","","",""
"psychophysics","33","258772","0.0-6.0-0.27","5df7f53c76f45059b65f4c99","609006691f6f4e337c17f836","609d360c7f9b03d354c2f888","211.4900000015041","","","","39","","","","key","16.651791666666718","960","468.5","true","1","140.64191999999989","7.864319999999999","6","-1","1","","","","","","","","","","","","",""
"psychophysics","34","260129","0.0-6.0-0.28","5df7f53c76f45059b65f4c99","609006691f6f4e337c17f836","609d360c7f9b03d354c2f888","353.0949999985751","","","","39","","","","key","16.651187500000013","960","468.5","true","1","140.64191999999989","6.291456","7","-1","-1","","","","","","","","","","","","",""
"psychophysics","35","261266","0.0-6.0-0.29","5df7f53c76f45059b65f4c99","609006691f6f4e337c17f836","609d360c7f9b03d354c2f888","129.46000000010827","","","","39","","","","key","16.65098507462657","960","468.5","true","1","134.35046399999987","6.291456","7","-1","-1","","","","","","","","","","","","",""
"psychophysics","36","262321","0.0-6.0-0.30","5df7f53c76f45059b65f4c99","609006691f6f4e337c17f836","609d360c7f9b03d354c2f888","52.26000000035856","","","","39","","","","key","16.649317460317103","960","468.5","true","1","134.35046399999987","6.291456","7","-1","-1","","","","","","","","","","","","",""
"psychophysics","37","263849","0.0-6.0-0.31","5df7f53c76f45059b65f4c99","609006691f6f4e337c17f836","609d360c7f9b03d354c2f888","523.6850000000559","","","","39","","","","key","16.650967032967166","960","468.5","true","1","129","6.291456","7","-1","-1","","","","","","","","","","","","",""
"psychophysics","38","265097","0.0-6.0-0.32","5df7f53c76f45059b65f4c99","609006691f6f4e337c17f836","609d360c7f9b03d354c2f888","245.78000000113389","","","","39","","","","key","16.652698630137746","960","468.5","true","-1","129","5.033164800000001","8","1","-1","","","","","","","","","","","","",""
"psychophysics","39","266448","0.0-6.0-0.33","5df7f53c76f45059b65f4c99","609006691f6f4e337c17f836","609d360c7f9b03d354c2f888","348.70999999833293","","","","39","","","","key","16.651074074073637","960","468.5","true","1","134.0331648","5.033164800000001","8","-1","1","","","","","","","","","","","","",""
"psychophysics","40","267849","0.0-6.0-0.34","5df7f53c76f45059b65f4c99","609006691f6f4e337c17f836","609d360c7f9b03d354c2f888","398.9050000018324","","","","39","","","","key","16.648867469879164","960","468.5","true","1","134.0331648","4.0265318400000005","9","-1","-1","","","","","","","","","","","","",""
"psychophysics","41","269097","0.0-6.0-0.35","5df7f53c76f45059b65f4c99","609006691f6f4e337c17f836","609d360c7f9b03d354c2f888","244.28000000264728","","","","37","","","","key","16.65235135135181","960","468.5","true","-1","130.00663296000002","4.0265318400000005","9","-1","-1","","","","","","","","","","","","",""
"psychophysics","42","270634","0.0-6.0-0.36","5df7f53c76f45059b65f4c99","609006691f6f4e337c17f836","609d360c7f9b03d354c2f888","532.9600000004866","","","","37","","","","key","16.65072527472544","960","468.5","true","-1","130.00663296000002","4.0265318400000005","9","-1","-1","","","","","","","","","","","","",""
"psychophysics","43","272094","0.0-6.0-0.37","5df7f53c76f45059b65f4c99","609006691f6f4e337c17f836","609d360c7f9b03d354c2f888","457.0300000013667","","","","37","","","","key","16.65099999999986","960","468.5","true","-1","129","4.0265318400000005","9","-1","-1","","","","","","","","","","","","",""
"psychophysics","44","273504","0.0-6.0-0.38","5df7f53c76f45059b65f4c99","609006691f6f4e337c17f836","609d360c7f9b03d354c2f888","407.91999999783","","","","37","","","","key","17.062814814815397","960","468.5","true","-1","129","4.0265318400000005","9","-1","-1","","","","","","","","","","","","",""
"psychophysics","45","274832","0.0-6.0-0.39","5df7f53c76f45059b65f4c99","609006691f6f4e337c17f836","609d360c7f9b03d354c2f888","324.2100000024657","","","","37","","","","key","16.6507594936713","960","468.5","true","-1","129","4.0265318400000005","9","-1","-1","","","","","","","","","","","","",""
"html-keyboard-response","46","281864","0.0-7.0","5df7f53c76f45059b65f4c99","609006691f6f4e337c17f836","609d360c7f9b03d354c2f888","7030.155000000377","<p>Well Done !</p><p>Prepare for a new block.</p><p>DON'T EXIT THE FULL SCREEN MODE</p><p>Press the Spacebar to start.</p>","","","32","","","","","","","","","","","","","","","true","132.57463756799996","","","","","","","","","","",""
"psychophysics","47","284224","0.0-8.0-0.0","5df7f53c76f45059b65f4c99","609006691f6f4e337c17f836","609d360c7f9b03d354c2f888","1355.6549999993877","","","","39","","","","key","16.76958156028368","960","468.5","true","1","180","30","0","-1","","","","","","","","","","","","","",""
"psychophysics","48","286933","0.0-8.0-0.1","5df7f53c76f45059b65f4c99","609006691f6f4e337c17f836","609d360c7f9b03d354c2f888","1703.8600000014412","","","","37","","","","key","16.65068518518532","960","468.5","true","-1","180","30","0","-1","-1","","","","","","","","","","","","",""
"psychophysics","49","289514","0.0-8.0-0.2","5df7f53c76f45059b65f4c99","609006691f6f4e337c17f836","609d360c7f9b03d354c2f888","1577.7749999979278","","","","39","","","","key","16.652012987013197","960","468.5","true","1","150","30","0","-1","-1","","","","","","","","","","","","",""
"psychophysics","50","290813","0.0-8.0-0.3","5df7f53c76f45059b65f4c99","609006691f6f4e337c17f836","609d360c7f9b03d354c2f888","296.4449999999488","","","","39","","","","key","16.65275324675309","960","468.5","true","1","150","30","0","-1","-1","","","","","","","","","","","","",""
"psychophysics","51","292185","0.0-8.0-0.4","5df7f53c76f45059b65f4c99","609006691f6f4e337c17f836","609d360c7f9b03d354c2f888","368.3500000006752","","","","39","","","","key","16.651493827160593","960","468.5","true","-1","129","24","1","1","-1","","","","","","","","","","","","",""
"psychophysics","52","293503","0.0-8.0-0.5","5df7f53c76f45059b65f4c99","609006691f6f4e337c17f836","609d360c7f9b03d354c2f888","314.6599999999744","","","","39","","","","key","16.651448717948277","960","468.5","true","1","153","24","1","-1","1","","","","","","","","","","","","",""
"psychophysics","53","294719","0.0-8.0-0.6","5df7f53c76f45059b65f4c99","609006691f6f4e337c17f836","609d360c7f9b03d354c2f888","213.27999999996973","","","","39","","","","key","16.651541666666162","960","468.5","true","1","153","19.2","2","-1","-1","","","","","","","","","","","","",""
"psychophysics","54","295969","0.0-8.0-0.7","5df7f53c76f45059b65f4c99","609006691f6f4e337c17f836","609d360c7f9b03d354c2f888","245.36000000080094","","","","39","","","","key","16.65095945945988","960","468.5","true","1","133.8","19.2","2","-1","-1","","","","","","","","","","","","",""
"psychophysics","55","297006","0.0-8.0-0.8","5df7f53c76f45059b65f4c99","609006691f6f4e337c17f836","609d360c7f9b03d354c2f888","33.10000000055879","","","","37","","","","key","16.65148387096762","960","468.5","true","-1","133.8","19.2","2","-1","-1","","","","","","","","","","","","",""
"psychophysics","56","298510","0.0-8.0-0.9","5df7f53c76f45059b65f4c99","609006691f6f4e337c17f836","609d360c7f9b03d354c2f888","499.84000000037486","","","","37","","","","key","16.651033707865608","960","468.5","true","-1","129","19.2","2","-1","-1","","","","","","","","","","","","",""
"psychophysics","57","299947","0.0-8.0-0.10","5df7f53c76f45059b65f4c99","609006691f6f4e337c17f836","609d360c7f9b03d354c2f888","432.4400000005262","","","","37","","","","key","16.652388235293877","960","468.5","true","1","129","15.36","3","1","-1","","","","","","","","","","","","",""
"psychophysics","58","300966","0.0-8.0-0.11","5df7f53c76f45059b65f4c99","609006691f6f4e337c17f836","609d360c7f9b03d354c2f888","15.755000000353903","","","","39","","","","key","16.65062295082006","960","468.5","true","1","144.36","15.36","3","-1","1","","","","","","","","","","","","",""
"psychophysics","59","302034","0.0-8.0-0.12","5df7f53c76f45059b65f4c99","609006691f6f4e337c17f836","609d360c7f9b03d354c2f888","64.97999999916647","","","","37","","","","key","16.650333333333645","960","468.5","true","-1","144.36","12.287999999999998","4","-1","-1","","","","","","","","","","","","",""
"psychophysics","60","303449","0.0-8.0-0.13","5df7f53c76f45059b65f4c99","609006691f6f4e337c17f836","609d360c7f9b03d354c2f888","411.01500000152737","","","","37","","","","key","16.65105952380968","960","468.5","true","1","132.072","9.8304","5","1","-1","","","","","","","","","","","","",""
"psychophysics","61","304843","0.0-8.0-0.14","5df7f53c76f45059b65f4c99","609006691f6f4e337c17f836","609d360c7f9b03d354c2f888","390.28500000131316","","","","37","","","","key","16.651012195121616","960","468.5","true","-1","141.9024","9.8304","5","-1","1","","","","","","","","","","","","",""
"psychophysics","62","306087","0.0-8.0-0.15","5df7f53c76f45059b65f4c99","609006691f6f4e337c17f836","609d360c7f9b03d354c2f888","241.31999999732943","","","","39","","","","key","16.880260273972876","960","468.5","true","1","141.9024","7.864319999999999","6","-1","-1","","","","","","","","","","","","",""
"psychophysics","63","307513","0.0-8.0-0.16","5df7f53c76f45059b65f4c99","609006691f6f4e337c17f836","609d360c7f9b03d354c2f888","424.1200000033132","","","","39","","","","key","16.651176470587963","960","468.5","true","1","134.03808","7.864319999999999","6","-1","-1","","","","","","","","","","","","",""
"psychophysics","64","308651","0.0-8.0-0.17","5df7f53c76f45059b65f4c99","609006691f6f4e337c17f836","609d360c7f9b03d354c2f888","134.5499999988242","","","","37","","","","key","16.650358208955556","960","468.5","true","-1","134.03808","7.864319999999999","6","-1","-1","","","","","","","","","","","","",""
"psychophysics","65","310458","0.0-8.0-0.18","5df7f53c76f45059b65f4c99","609006691f6f4e337c17f836","609d360c7f9b03d354c2f888","804.1949999970384","","","","39","","","","key","16.65087962962948","960","468.5","true","1","129","7.864319999999999","6","-1","-1","","","","","","","","","","","","",""
"psychophysics","66","311790","0.0-8.0-0.19","5df7f53c76f45059b65f4c99","609006691f6f4e337c17f836","609d360c7f9b03d354c2f888","328.7450000024983","","","","39","","","","key","16.650797468354437","960","468.5","true","-1","129","6.291456","7","1","-1","","","","","","","","","","","","",""
"psychophysics","67","312974","0.0-8.0-0.20","5df7f53c76f45059b65f4c99","609006691f6f4e337c17f836","609d360c7f9b03d354c2f888","179.65499999991152","","","","39","","","","key","16.650671428570888","960","468.5","true","1","135.291456","6.291456","7","-1","1","","","","","","","","","","","","",""
"psychophysics","68","314041","0.0-8.0-0.21","5df7f53c76f45059b65f4c99","609006691f6f4e337c17f836","609d360c7f9b03d354c2f888","64.44500000000698","","","","37","","","","key","16.651142857142812","960","468.5","true","-1","135.291456","5.033164800000001","8","-1","-1","","","","","","","","","","","","",""
"psychophysics","69","315636","0.0-8.0-0.22","5df7f53c76f45059b65f4c99","609006691f6f4e337c17f836","609d360c7f9b03d354c2f888","591.4450000018114","","","","37","","","","key","16.652073684210375","960","468.5","true","1","130.2582912","4.0265318400000005","9","1","-1","","","","","","","","","","","","",""
"psychophysics","70","316731","0.0-8.0-0.23","5df7f53c76f45059b65f4c99","609006691f6f4e337c17f836","609d360c7f9b03d354c2f888","91.28000000055181","","","","37","","","","key","16.916428571429275","960","468.5","true","-1","134.28482304","4.0265318400000005","9","-1","1","","","","","","","","","","","","",""
"psychophysics","71","318162","0.0-8.0-0.24","5df7f53c76f45059b65f4c99","609006691f6f4e337c17f836","609d360c7f9b03d354c2f888","424.799999997078","","","","37","","","","key","16.651047058823956","960","468.5","true","-1","134.28482304","3.2212254720000004","10","-1","-1","","","","","","","","","","","","",""
"psychophysics","72","319587","0.0-8.0-0.25","5df7f53c76f45059b65f4c99","609006691f6f4e337c17f836","609d360c7f9b03d354c2f888","422.94500000210246","","","","37","","","","key","16.651670588235206","960","468.5","true","-1","131.06359756799998","3.2212254720000004","10","-1","-1","","","","","","","","","","","","",""
"psychophysics","73","320699","0.0-8.0-0.26","5df7f53c76f45059b65f4c99","609006691f6f4e337c17f836","609d360c7f9b03d354c2f888","106.70000000030268","","","","37","","","","key","16.649878787878674","960","468.5","true","1","131.06359756799998","2.5769803776000004","11","1","-1","","","","","","","","","","","","",""
"psychophysics","74","322040","0.0-8.0-0.27","5df7f53c76f45059b65f4c99","609006691f6f4e337c17f836","609d360c7f9b03d354c2f888","336.1999999979744","","","","37","","","","key","16.65024050632919","960","468.5","true","-1","133.64057794559997","2.5769803776000004","11","-1","1","","","","","","","","","","","","",""
"psychophysics","75","323135","0.0-8.0-0.28","5df7f53c76f45059b65f4c99","609006691f6f4e337c17f836","609d360c7f9b03d354c2f888","91.95499999989988","","","","37","","","","key","16.652953846154446","960","468.5","true","-1","133.64057794559997","2.0615843020800004","12","-1","-1","","","","","","","","","","","","",""
"psychophysics","76","324371","0.0-8.0-0.29","5df7f53c76f45059b65f4c99","609006691f6f4e337c17f836","609d360c7f9b03d354c2f888","232.0849999996135","","","","39","","","","key","16.88023611111162","960","468.5","true","1","131.57899364351996","2.0615843020800004","12","-1","-1","","","","","","","","","","","","",""
"psychophysics","77","325991","0.0-8.0-0.30","5df7f53c76f45059b65f4c99","609006691f6f4e337c17f836","609d360c7f9b03d354c2f888","616.5250000012456","","","","37","","","","key","16.65204166666687","960","468.5","true","-1","131.57899364351996","2.0615843020800004","12","-1","-1","","","","","","","","","","","","",""
"psychophysics","78","327460","0.0-8.0-0.31","5df7f53c76f45059b65f4c99","609006691f6f4e337c17f836","609d360c7f9b03d354c2f888","466.57499999855645","","","","39","","","","key","16.651159090909378","960","468.5","true","-1","129.51740934143996","1.6492674416640005","13","1","-1","","","","","","","","","","","","",""
"psychophysics","79","328634","0.0-8.0-0.32","5df7f53c76f45059b65f4c99","609006691f6f4e337c17f836","609d360c7f9b03d354c2f888","165.70999999745982","","","","39","","","","key","16.650724637680653","960","468.5","true","-1","131.16667678310395","1.6492674416640005","13","1","1","","","","","","","","","","","","",""
"psychophysics","80","329981","0.0-8.0-0.33","5df7f53c76f45059b65f4c99","609006691f6f4e337c17f836","609d360c7f9b03d354c2f888","344.9049999980489","","","","39","","","","key","16.652062499999737","960","468.5","true","1","132.81594422476795","1.6492674416640005","13","-1","1","","","","","","","","","","","","",""
"psychophysics","81","331190","0.0-8.0-0.34","5df7f53c76f45059b65f4c99","609006691f6f4e337c17f836","609d360c7f9b03d354c2f888","205.37500000139698","","","","37","","","","key","16.652138888889265","960","468.5","true","-1","132.81594422476795","1.3194139533312006","14","-1","-1","","","","","","","","","","","","",""
"psychophysics","82","333999","0.0-8.0-0.35","5df7f53c76f45059b65f4c99","609006691f6f4e337c17f836","609d360c7f9b03d354c2f888","1805.4750000010245","","","","39","","","","key","16.65052380952381","960","468.5","true","1","131.49653027143674","1.3194139533312006","14","-1","-1","","","","","","","","","","","","",""
"psychophysics","83","335658","0.0-8.0-0.36","5df7f53c76f45059b65f4c99","609006691f6f4e337c17f836","609d360c7f9b03d354c2f888","656.0500000014435","","","","37","","","","key","16.82129896907184","960","468.5","true","-1","131.49653027143674","1.3194139533312006","14","-1","-1","","","","","","","","","","","","",""
"psychophysics","84","336999","0.0-8.0-0.37","5df7f53c76f45059b65f4c99","609006691f6f4e337c17f836","609d360c7f9b03d354c2f888","336.37000000092667","","","","39","","","","key","16.652462500000546","960","468.5","true","1","130.17711631810553","1.3194139533312006","14","-1","-1","","","","","","","","","","","","",""
"psychophysics","85","338292","0.0-8.0-0.38","5df7f53c76f45059b65f4c99","609006691f6f4e337c17f836","609d360c7f9b03d354c2f888","289.62999999930616","","","","39","","","","key","16.6512631578953","960","468.5","true","-1","130.17711631810553","1.0555311626649604","15","1","-1","","","","","","","","","","","","",""
"psychophysics","86","339979","0.0-8.0-0.39","5df7f53c76f45059b65f4c99","609006691f6f4e337c17f836","609d360c7f9b03d354c2f888","684.4249999994645","","","","39","","","","key","16.651257425742592","960","468.5","true","1","131.23264748077048","1.0555311626649604","15","-1","1","","","","","","","","","","","","",""
"html-keyboard-response","87","342746","0.0-9.0","5df7f53c76f45059b65f4c99","609006691f6f4e337c17f836","609d360c7f9b03d354c2f888","2765.364999999292","<p>Well Done !</p><p>Prepare for a new block.</p><p>DON'T EXIT THE FULL SCREEN MODE</p><p>Press the Spacebar to start.</p>","","","39","","","","","","","","","","","","","","","true","131.564150236545","","","","","","","","","","",""
"psychophysics","88","345540","0.0-10.0-0.0","5df7f53c76f45059b65f4c99","609006691f6f4e337c17f836","609d360c7f9b03d354c2f888","1790.8650000026682","","","","37","","","","key","16.650196428571473","960","468.5","true","-1","180","30","0","-1","","","","","","","","","","","","","",""
"psychophysics","89","347917","0.0-10.0-0.1","5df7f53c76f45059b65f4c99","609006691f6f4e337c17f836","609d360c7f9b03d354c2f888","1375.240000001213","","","","39","","","","key","16.651007092198693","960","468.5","true","1","180","30","0","-1","-1","","","","","","","","","","","","",""
"psychophysics","90","348991","0.0-10.0-0.2","5df7f53c76f45059b65f4c99","609006691f6f4e337c17f836","609d360c7f9b03d354c2f888","72.94499999989057","","","","39","","","","key","16.65368749999925","960","468.5","true","1","150","30","0","-1","-1","","","","","","","","","","","","",""
"psychophysics","91","351520","0.0-10.0-0.3","5df7f53c76f45059b65f4c99","609006691f6f4e337c17f836","609d360c7f9b03d354c2f888","1526.944999997795","","","","37","","","","key","16.651019867549692","960","468.5","true","-1","150","30","0","-1","-1","","","","","","","","","","","","",""
"psychophysics","92","352767","0.0-10.0-0.4","5df7f53c76f45059b65f4c99","609006691f6f4e337c17f836","609d360c7f9b03d354c2f888","242.58999999804655","","","","39","","","","key","16.65098648648662","960","468.5","true","-1","129","24","1","1","-1","","","","","","","","","","","","",""
"psychophysics","93","353844","0.0-10.0-0.5","5df7f53c76f45059b65f4c99","609006691f6f4e337c17f836","609d360c7f9b03d354c2f888","73.37499999988358","","","","37","","","","key","16.650222222222798","960","468.5","true","-1","153","24","1","-1","1","","","","","","","","","","","","",""
"psychophysics","94","354875","0.0-10.0-0.6","5df7f53c76f45059b65f4c99","609006691f6f4e337c17f836","609d360c7f9b03d354c2f888","29.525000001769513","","","","39","","","","key","16.653409836065695","960","468.5","true","1","153","19.2","2","-1","-1","","","","","","","","","","","","",""
"psychophysics","95","356393","0.0-10.0-0.7","5df7f53c76f45059b65f4c99","609006691f6f4e337c17f836","609d360c7f9b03d354c2f888","515.6849999985425","","","","39","","","","key","16.65197777777729","960","468.5","true","1","133.8","19.2","2","-1","-1","","","","","","","","","","","","",""
"psychophysics","96","357593","0.0-10.0-0.8","5df7f53c76f45059b65f4c99","609006691f6f4e337c17f836","609d360c7f9b03d354c2f888","198.1000000014319","","","","39","","","","key","16.65322535211289","960","468.5","true","1","133.8","19.2","2","-1","-1","","","","","","","","","","","","",""
"psychophysics","97","358756","0.0-10.0-0.9","5df7f53c76f45059b65f4c99","609006691f6f4e337c17f836","609d360c7f9b03d354c2f888","157.45500000048196","","","","39","","","","key","16.650405797101826","960","468.5","true","-1","129","15.36","3","1","-1","","","","","","","","","","","","",""
"psychophysics","98","359789","0.0-10.0-0.10","5df7f53c76f45059b65f4c99","609006691f6f4e337c17f836","609d360c7f9b03d354c2f888","30.96499999810476","","","","37","","","","key","16.651606557376446","960","468.5","true","-1","144.36","15.36","3","-1","1","","","","","","","","","","","","",""
"psychophysics","99","360953","0.0-10.0-0.11","5df7f53c76f45059b65f4c99","609006691f6f4e337c17f836","609d360c7f9b03d354c2f888","160.7000000004191","","","","39","","","","key","16.65123188405794","960","468.5","true","1","144.36","12.287999999999998","4","-1","-1","","","","","","","","","","","","",""
"psychophysics","100","362077","0.0-10.0-0.12","5df7f53c76f45059b65f4c99","609006691f6f4e337c17f836","609d360c7f9b03d354c2f888","121.50499999913154","","","","37","","","","key","16.65095522388062","960","468.5","true","-1","132.072","12.287999999999998","4","-1","-1","","","","","","","","","","","","",""
"psychophysics","101","363902","0.0-10.0-0.13","5df7f53c76f45059b65f4c99","609006691f6f4e337c17f836","609d360c7f9b03d354c2f888","821.7499999991269","","","","37","","","","key","16.65072222222214","960","468.5","true","1","132.072","9.8304","5","1","-1","","","","","","","","","","","","",""
"psychophysics","102","366601","0.0-10.0-0.14","5df7f53c76f45059b65f4c99","609006691f6f4e337c17f836","609d360c7f9b03d354c2f888","1696.5300000010757","","","","39","","","","key","16.651236024844643","960","468.5","true","1","141.9024","9.8304","5","-1","1","","","","","","","","","","","","",""
"psychophysics","103","367630","0.0-10.0-0.15","5df7f53c76f45059b65f4c99","609006691f6f4e337c17f836","609d360c7f9b03d354c2f888","23.314999998547137","","","","39","","","","key","16.652721311475272","960","468.5","true","1","141.9024","7.864319999999999","6","-1","-1","","","","","","","","","","","","",""
"psychophysics","104","369032","0.0-10.0-0.16","5df7f53c76f45059b65f4c99","609006691f6f4e337c17f836","609d360c7f9b03d354c2f888","398.6299999997136","","","","37","","","","key","16.65190361445792","960","468.5","true","-1","134.03808","7.864319999999999","6","-1","-1","","","","","","","","","","","","",""
"psychophysics","105","370429","0.0-10.0-0.17","5df7f53c76f45059b65f4c99","609006691f6f4e337c17f836","609d360c7f9b03d354c2f888","394.3599999984144","","","","37","","","","key","16.653289156626485","960","468.5","true","-1","134.03808","7.864319999999999","6","-1","-1","","","","","","","","","","","","",""
"psychophysics","106","372091","0.0-10.0-0.18","5df7f53c76f45059b65f4c99","609006691f6f4e337c17f836","609d360c7f9b03d354c2f888","660.5099999979138","","","","37","","","","key","16.650393939393602","960","468.5","true","-1","129","7.864319999999999","6","-1","-1","","","","","","","","","","","","",""
"psychophysics","107","373945","0.0-10.0-0.19","5df7f53c76f45059b65f4c99","609006691f6f4e337c17f836","609d360c7f9b03d354c2f888","849.4750000027125","","","","37","","","","key","16.650409090908944","960","468.5","true","1","129","6.291456","7","1","-1","","","","","","","","","","","","",""
"psychophysics","108","375119","0.0-10.0-0.20","5df7f53c76f45059b65f4c99","609006691f6f4e337c17f836","609d360c7f9b03d354c2f888","170.9950000004028","","","","39","","","","key","16.652314285713615","960","468.5","true","1","135.291456","6.291456","7","-1","1","","","","","","","","","","","","",""
"psychophysics","109","377276","0.0-10.0-0.21","5df7f53c76f45059b65f4c99","609006691f6f4e337c17f836","609d360c7f9b03d354c2f888","1153.614999999234","","","","39","","","","key","16.651289062499927","960","468.5","true","1","135.291456","5.033164800000001","8","-1","-1","","","","","","","","","","","","",""
"psychophysics","110","378946","0.0-10.0-0.22","5df7f53c76f45059b65f4c99","609006691f6f4e337c17f836","609d360c7f9b03d354c2f888","666.1149999999907","","","","39","","","","key","16.819818181818295","960","468.5","true","-1","130.2582912","4.0265318400000005","9","1","-1","","","","","","","","","","","","",""
"psychophysics","111","380050","0.0-10.0-0.23","5df7f53c76f45059b65f4c99","609006691f6f4e337c17f836","609d360c7f9b03d354c2f888","97.89000000088708","","","","39","","","","key","16.651800000000424","960","468.5","true","1","134.28482304","4.0265318400000005","9","-1","1","","","","","","","","","","","","",""
"psychophysics","112","381172","0.0-10.0-0.24","5df7f53c76f45059b65f4c99","609006691f6f4e337c17f836","609d360c7f9b03d354c2f888","117.39500000106636","","","","37","","","","key","16.651106060606033","960","468.5","true","-1","134.28482304","3.2212254720000004","10","-1","-1","","","","","","","","","","","","",""
"psychophysics","113","383016","0.0-10.0-0.25","5df7f53c76f45059b65f4c99","609006691f6f4e337c17f836","609d360c7f9b03d354c2f888","839.045000000624","","","","37","","","","key","16.65211818181825","960","468.5","true","-1","131.06359756799998","3.2212254720000004","10","-1","-1","","","","","","","","","","","","",""
"psychophysics","114","384782","0.0-10.0-0.26","5df7f53c76f45059b65f4c99","609006691f6f4e337c17f836","609d360c7f9b03d354c2f888","760.6799999994109","","","","37","","","","key","16.650933333333317","960","468.5","true","-1","131.06359756799998","3.2212254720000004","10","-1","-1","","","","","","","","","","","","",""
"psychophysics","115","388424","0.0-10.0-0.27","5df7f53c76f45059b65f4c99","609006691f6f4e337c17f836","609d360c7f9b03d354c2f888","2637.9650000017136","","","","37","","","","key","16.65121658986181","960","468.5","true","1","129","2.5769803776000004","11","1","-1","","","","","","","","","","","","",""
"psychophysics","116","391909","0.0-10.0-0.28","5df7f53c76f45059b65f4c99","609006691f6f4e337c17f836","609d360c7f9b03d354c2f888","2479.3850000023376","","","","37","","","","key","16.65116746411475","960","468.5","true","1","131.5769803776","2.5769803776000004","11","1","1","","","","","","","","","","","","",""
"psychophysics","117","393393","0.0-10.0-0.29","5df7f53c76f45059b65f4c99","609006691f6f4e337c17f836","609d360c7f9b03d354c2f888","480.1399999996647","","","","39","","","","key","16.65102272727315","960","468.5","true","1","134.1539607552","2.5769803776000004","11","-1","1","","","","","","","","","","","","",""
"psychophysics","118","394508","0.0-10.0-0.30","5df7f53c76f45059b65f4c99","609006691f6f4e337c17f836","609d360c7f9b03d354c2f888","109.86000000045169","","","","37","","","","key","16.650363636363622","960","468.5","true","-1","134.1539607552","2.0615843020800004","12","-1","-1","","","","","","","","","","","","",""
"psychophysics","119","395651","0.0-10.0-0.31","5df7f53c76f45059b65f4c99","609006691f6f4e337c17f836","609d360c7f9b03d354c2f888","137.20500000275206","","","","37","","","","key","16.899895522388135","960","468.5","true","-1","132.09237645311998","2.0615843020800004","12","-1","-1","","","","","","","","","","","","",""
"psychophysics","120","396738","0.0-10.0-0.32","5df7f53c76f45059b65f4c99","609006691f6f4e337c17f836","609d360c7f9b03d354c2f888","82.23999999975786","","","","39","","","","key","16.65026562500043","960","468.5","true","1","132.09237645311998","2.0615843020800004","12","-1","-1","","","","","","","","","","","","",""
"psychophysics","121","397830","0.0-10.0-0.33","5df7f53c76f45059b65f4c99","609006691f6f4e337c17f836","609d360c7f9b03d354c2f888","88.47500000050059","","","","37","","","","key","16.65093846153826","960","468.5","true","1","130.03079215103998","1.6492674416640005","13","1","-1","","","","","","","","","","","","",""
"psychophysics","122","399053","0.0-10.0-0.34","5df7f53c76f45059b65f4c99","609006691f6f4e337c17f836","609d360c7f9b03d354c2f888","218.63999999914085","","","","39","","","","key","16.650999999999637","960","468.5","true","1","131.68005959270397","1.6492674416640005","13","-1","1","","","","","","","","","","","","",""
"psychophysics","123","401178","0.0-10.0-0.35","5df7f53c76f45059b65f4c99","609006691f6f4e337c17f836","609d360c7f9b03d354c2f888","1121.015000000596","","","","39","","","","key","16.917216000000014","960","468.5","true","-1","131.68005959270397","1.3194139533312006","14","1","-1","","","","","","","","","","","","",""
"psychophysics","124","402647","0.0-10.0-0.36","5df7f53c76f45059b65f4c99","609006691f6f4e337c17f836","609d360c7f9b03d354c2f888","465.7100000004284","","","","39","","","","key","16.65218390804587","960","468.5","true","-1","132.99947354603518","1.3194139533312006","14","1","1","","","","","","","","","","","","",""
"psychophysics","125","403703","0.0-10.0-0.37","5df7f53c76f45059b65f4c99","609006691f6f4e337c17f836","609d360c7f9b03d354c2f888","51.8549999978859","","","","37","","","","key","16.651444444444866","960","468.5","true","-1","134.31888749936638","1.3194139533312006","14","-1","1","","","","","","","","","","","","",""
"psychophysics","126","404792","0.0-10.0-0.38","5df7f53c76f45059b65f4c99","609006691f6f4e337c17f836","609d360c7f9b03d354c2f888","85.10499999823514","","","","37","","","","key","16.651031250000415","960","468.5","true","-1","134.31888749936638","1.0555311626649604","15","-1","-1","","","","","","","","","","","","",""
"psychophysics","127","405923","0.0-10.0-0.39","5df7f53c76f45059b65f4c99","609006691f6f4e337c17f836","609d360c7f9b03d354c2f888","128.05999999912456","","","","39","","","","key","16.650253731343","960","468.5","true","1","133.26335633670143","1.0555311626649604","15","-1","-1","","","","","","","","","","","","",""
"html-keyboard-response","128","407927","0.0-11.0","5df7f53c76f45059b65f4c99","609006691f6f4e337c17f836","609d360c7f9b03d354c2f888","2003.1500000004307","<p>Well Done !</p><p>Prepare for a new block.</p><p>DON'T EXIT THE FULL SCREEN MODE</p><p>Press the Spacebar to start.</p>","","","39","","","","","","","","","","","","","","","true","132.2325577432105","","","","","","","","","","",""
"psychophysics","129","410186","0.0-12.0-0.0","5df7f53c76f45059b65f4c99","609006691f6f4e337c17f836","609d360c7f9b03d354c2f888","1256.8649999993504","","","","37","","","","key","16.650602941176604","960","468.5","true","-1","180","30","0","-1","","","","","","","","","","","","","",""
"psychophysics","130","411222","0.0-12.0-0.1","5df7f53c76f45059b65f4c99","609006691f6f4e337c17f836","609d360c7f9b03d354c2f888","31.500000000931323","","","","39","","","","key","16.651196721311443","960","468.5","true","1","180","30","0","-1","-1","","","","","","","","","","","","",""
"psychophysics","131","413059","0.0-12.0-0.2","5df7f53c76f45059b65f4c99","609006691f6f4e337c17f836","609d360c7f9b03d354c2f888","832.5499999992317","","","","39","","","","key","16.651724770642208","960","468.5","true","1","150","30","0","-1","-1","","","","","","","","","","","","",""
"psychophysics","132","414371","0.0-12.0-0.3","5df7f53c76f45059b65f4c99","609006691f6f4e337c17f836","609d360c7f9b03d354c2f888","308.9899999976624","","","","39","","","","key","16.652525641025605","960","468.5","true","1","150","30","0","-1","-1","","","","","","","","","","","","",""
"psychophysics","133","415621","0.0-12.0-0.4","5df7f53c76f45059b65f4c99","609006691f6f4e337c17f836","609d360c7f9b03d354c2f888","246.32500000006985","","","","39","","","","key","16.651040540540095","960","468.5","true","-1","129","24","1","1","-1","","","","","","","","","","","","",""
"psychophysics","134","417812","0.0-12.0-0.5","5df7f53c76f45059b65f4c99","609006691f6f4e337c17f836","609d360c7f9b03d354c2f888","1188.0649999984307","","","","37","","","","key","16.65112977099244","960","468.5","true","-1","153","24","1","-1","1","","","","","","","","","","","","",""
"psychophysics","135","419146","0.0-12.0-0.6","5df7f53c76f45059b65f4c99","609006691f6f4e337c17f836","609d360c7f9b03d354c2f888","330.5450000007404","","","","39","","","","key","16.650632911392698","960","468.5","true","1","153","19.2","2","-1","-1","","","","","","","","","","","","",""
"psychophysics","136","420559","0.0-12.0-0.7","5df7f53c76f45059b65f4c99","609006691f6f4e337c17f836","609d360c7f9b03d354c2f888","408.805000002787","","","","39","","","","key","16.65165476190478","960","468.5","true","1","133.8","19.2","2","-1","-1","","","","","","","","","","","","",""
"psychophysics","137","421679","0.0-12.0-0.8","5df7f53c76f45059b65f4c99","609006691f6f4e337c17f836","609d360c7f9b03d354c2f888","116.81999999925029","","","","37","","","","key","16.65084848484857","960","468.5","true","-1","133.8","19.2","2","-1","-1","","","","","","","","","","","","",""
"psychophysics","138","423333","0.0-12.0-0.9","5df7f53c76f45059b65f4c99","609006691f6f4e337c17f836","609d360c7f9b03d354c2f888","651.0200000011828","","","","39","","","","key","16.650484848484712","960","468.5","true","-1","129","15.36","3","1","-1","","","","","","","","","","","","",""
"psychophysics","139","424700","0.0-12.0-0.10","5df7f53c76f45059b65f4c99","609006691f6f4e337c17f836","609d360c7f9b03d354c2f888","364.1200000019744","","","","39","","","","key","16.651271604937875","960","468.5","true","1","144.36","15.36","3","-1","1","","","","","","","","","","","","",""
"psychophysics","140","425950","0.0-12.0-0.11","5df7f53c76f45059b65f4c99","609006691f6f4e337c17f836","609d360c7f9b03d354c2f888","245.60500000003958","","","","39","","","","key","16.650635135135097","960","468.5","true","1","144.36","12.287999999999998","4","-1","-1","","","","","","","","","","","","",""
"psychophysics","141","427167","0.0-12.0-0.12","5df7f53c76f45059b65f4c99","609006691f6f4e337c17f836","609d360c7f9b03d354c2f888","214.42000000027474","","","","39","","","","key","16.651055555555406","960","468.5","true","-1","132.072","9.8304","5","1","-1","","","","","","","","","","","","",""
"psychophysics","142","428404","0.0-12.0-0.13","5df7f53c76f45059b65f4c99","609006691f6f4e337c17f836","609d360c7f9b03d354c2f888","233.6700000014389","","","","39","","","","key","16.652068493151017","960","468.5","true","1","141.9024","9.8304","5","-1","1","","","","","","","","","","","","",""
"psychophysics","143","429469","0.0-12.0-0.14","5df7f53c76f45059b65f4c99","609006691f6f4e337c17f836","609d360c7f9b03d354c2f888","61.52999999909662","","","","39","","","","key","16.651095238095703","960","468.5","true","1","141.9024","7.864319999999999","6","-1","-1","","","","","","","","","","","","",""
"psychophysics","144","430696","0.0-12.0-0.15","5df7f53c76f45059b65f4c99","609006691f6f4e337c17f836","609d360c7f9b03d354c2f888","223.5400000027148","","","","37","","","","key","16.64817808219152","960","468.5","true","-1","134.03808","7.864319999999999","6","-1","-1","","","","","","","","","","","","",""
"psychophysics","145","432193","0.0-12.0-0.16","5df7f53c76f45059b65f4c99","609006691f6f4e337c17f836","609d360c7f9b03d354c2f888","495.4749999997439","","","","37","","","","key","16.650089887640533","960","468.5","true","-1","134.03808","7.864319999999999","6","-1","-1","","","","","","","","","","","","",""
"psychophysics","146","433396","0.0-12.0-0.17","5df7f53c76f45059b65f4c99","609006691f6f4e337c17f836","609d360c7f9b03d354c2f888","200.5200000021141","","","","37","","","","key","16.652830985915834","960","468.5","true","-1","129","7.864319999999999","6","-1","-1","","","","","","","","","","","","",""
"psychophysics","147","434554","0.0-12.0-0.18","5df7f53c76f45059b65f4c99","609006691f6f4e337c17f836","609d360c7f9b03d354c2f888","154.05500000267057","","","","37","","","","key","16.649102941176835","960","468.5","true","-1","129","7.864319999999999","6","-1","-1","","","","","","","","","","","","",""
"psychophysics","148","435869","0.0-12.0-0.19","5df7f53c76f45059b65f4c99","609006691f6f4e337c17f836","609d360c7f9b03d354c2f888","310.35999999952037","","","","37","","","","key","16.86668831168813","960","468.5","true","1","129","6.291456","7","1","-1","","","","","","","","","","","","",""
"psychophysics","149","436997","0.0-12.0-0.20","5df7f53c76f45059b65f4c99","609006691f6f4e337c17f836","609d360c7f9b03d354c2f888","124.29999999946449","","","","37","","","","key","16.654059701492322","960","468.5","true","-1","135.291456","6.291456","7","-1","1","","","","","","","","","","","","",""
"psychophysics","150","438142","0.0-12.0-0.21","5df7f53c76f45059b65f4c99","609006691f6f4e337c17f836","609d360c7f9b03d354c2f888","142.7849999999744","","","","39","","","","key","16.64975000000028","960","468.5","true","1","135.291456","5.033164800000001","8","-1","-1","","","","","","","","","","","","",""
"psychophysics","151","439915","0.0-12.0-0.22","5df7f53c76f45059b65f4c99","609006691f6f4e337c17f836","609d360c7f9b03d354c2f888","770.9099999992759","","","","37","","","","key","16.65197142857138","960","468.5","true","1","130.2582912","4.0265318400000005","9","1","-1","","","","","","","","","","","","",""
"psychophysics","152","441164","0.0-12.0-0.23","5df7f53c76f45059b65f4c99","609006691f6f4e337c17f836","609d360c7f9b03d354c2f888","247.21000000135973","","","","37","","","","key","16.65362162162185","960","468.5","true","-1","134.28482304","4.0265318400000005","9","-1","1","","","","","","","","","","","","",""
"psychophysics","153","442353","0.0-12.0-0.24","5df7f53c76f45059b65f4c99","609006691f6f4e337c17f836","609d360c7f9b03d354c2f888","186.30000000121072","","","","37","","","","key","16.650647887323892","960","468.5","true","-1","134.28482304","3.2212254720000004","10","-1","-1","","","","","","","","","","","","",""
"psychophysics","154","443832","0.0-12.0-0.25","5df7f53c76f45059b65f4c99","609006691f6f4e337c17f836","609d360c7f9b03d354c2f888","474.9249999986496","","","","37","","","","key","16.65137499999996","960","468.5","true","1","131.06359756799998","2.5769803776000004","11","1","-1","","","","","","","","","","","","",""
"psychophysics","155","445025","0.0-12.0-0.26","5df7f53c76f45059b65f4c99","609006691f6f4e337c17f836","609d360c7f9b03d354c2f888","190.50000000058208","","","","39","","","","key","16.650985714285135","960","468.5","true","1","133.64057794559997","2.5769803776000004","11","-1","1","","","","","","","","","","","","",""
"psychophysics","156","447353","0.0-12.0-0.27","5df7f53c76f45059b65f4c99","609006691f6f4e337c17f836","609d360c7f9b03d354c2f888","1324.704999999085","","","","39","","","","key","16.651503597122364","960","468.5","true","1","133.64057794559997","2.0615843020800004","12","-1","-1","","","","","","","","","","","","",""
"psychophysics","157","448562","0.0-12.0-0.28","5df7f53c76f45059b65f4c99","609006691f6f4e337c17f836","609d360c7f9b03d354c2f888","206.8150000013411","","","","39","","","","key","16.64990277777785","960","468.5","true","1","131.57899364351996","2.0615843020800004","12","-1","-1","","","","","","","","","","","","",""
"psychophysics","158","449772","0.0-12.0-0.29","5df7f53c76f45059b65f4c99","609006691f6f4e337c17f836","609d360c7f9b03d354c2f888","206.89000000129454","","","","37","","","","key","16.65194366197184","960","468.5","true","-1","131.57899364351996","2.0615843020800004","12","-1","-1","","","","","","","","","","","","",""
"psychophysics","159","451308","0.0-12.0-0.30","5df7f53c76f45059b65f4c99","609006691f6f4e337c17f836","609d360c7f9b03d354c2f888","531.670000000333","","","","37","","","","key","16.65203260869527","960","468.5","true","-1","129.51740934143996","2.0615843020800004","12","-1","-1","","","","","","","","","","","","",""
"psychophysics","160","452490","0.0-12.0-0.31","5df7f53c76f45059b65f4c99","609006691f6f4e337c17f836","609d360c7f9b03d354c2f888","178.41000000038184","","","","37","","","","key","16.650814285714713","960","468.5","true","-1","129.51740934143996","2.0615843020800004","12","-1","-1","","","","","","","","","","","","",""
"psychophysics","161","454039","0.0-12.0-0.32","5df7f53c76f45059b65f4c99","609006691f6f4e337c17f836","609d360c7f9b03d354c2f888","544.4550000029267","","","","39","","","","key","16.651912087912333","960","468.5","true","-1","129","1.6492674416640005","13","1","-1","","","","","","","","","","","","",""
"psychophysics","162","455439","0.0-12.0-0.33","5df7f53c76f45059b65f4c99","609006691f6f4e337c17f836","609d360c7f9b03d354c2f888","397.42499999923166","","","","39","","","","key","16.65099999999995","960","468.5","true","1","130.649267441664","1.6492674416640005","13","-1","1","","","","","","","","","","","","",""
"psychophysics","163","456897","0.0-12.0-0.34","5df7f53c76f45059b65f4c99","609006691f6f4e337c17f836","609d360c7f9b03d354c2f888","454.1749999988824","","","","39","","","","key","16.651896551724434","960","468.5","true","-1","130.649267441664","1.3194139533312006","14","1","-1","","","","","","","","","","","","",""
"psychophysics","164","458047","0.0-12.0-0.35","5df7f53c76f45059b65f4c99","609006691f6f4e337c17f836","609d360c7f9b03d354c2f888","147.60999999998603","","","","37","","","","key","16.652867647059097","960","468.5","true","-1","131.9686813949952","1.3194139533312006","14","-1","1","","","","","","","","","","","","",""
"psychophysics","165","459758","0.0-12.0-0.36","5df7f53c76f45059b65f4c99","609006691f6f4e337c17f836","609d360c7f9b03d354c2f888","707.4399999983143","","","","37","","","","key","16.65133663366369","960","468.5","true","1","131.9686813949952","1.0555311626649604","15","1","-1","","","","","","","","","","","","",""
"psychophysics","166","460767","0.0-12.0-0.37","5df7f53c76f45059b65f4c99","609006691f6f4e337c17f836","609d360c7f9b03d354c2f888","5.949999998789281","","","","39","","","","key","16.928350000000016","960","468.5","true","1","133.02421255766015","1.0555311626649604","15","-1","1","","","","","","","","","","","","",""
"psychophysics","167","461983","0.0-12.0-0.38","5df7f53c76f45059b65f4c99","609006691f6f4e337c17f836","609d360c7f9b03d354c2f888","213.30999999924097","","","","37","","","","key","16.88547887323952","960","468.5","true","-1","133.02421255766015","1","16","-1","-1","","","","","","","","","","","","",""
"psychophysics","168","464144","0.0-12.0-0.39","5df7f53c76f45059b65f4c99","609006691f6f4e337c17f836","609d360c7f9b03d354c2f888","1157.325000000128","","","","37","","","","key","16.651523437500146","960","468.5","true","1","132.02421255766015","1","17","1","-1","","","","","","","","","","","","",""
"html-keyboard-response","169","466413","0.0-13.0","5df7f53c76f45059b65f4c99","609006691f6f4e337c17f836","609d360c7f9b03d354c2f888","2266.360000001441","<p>Well Done !</p><p>Prepare for a new block.</p><p>DON'T EXIT THE FULL SCREEN MODE</p><p>Press the Spacebar to start.</p>","","","32","","","","","","","","","","","","","","","true","131.5230729850279","","","","","","","","","","",""
"html-keyboard-response","170","466517","0.0-14.0","5df7f53c76f45059b65f4c99","609006691f6f4e337c17f836","609d360c7f9b03d354c2f888","null","","","","null","","","","","","","","","","","","","","","","","131.97360463319586","true","135.94720926639172","","","","","","","",""
"instructions","171","516430","0.0-15.0","5df7f53c76f45059b65f4c99","609006691f6f4e337c17f836","609d360c7f9b03d354c2f888","49911.53000000125","","","","","","","[{""page_index"":0,""viewing_time"":46831.655000001774},{""page_index"":1,""viewing_time"":1175.3349999999627},{""page_index"":2,""viewing_time"":1904.1450000003679}]","","","","","","","","","","","","","","","","","","","","","","","",""
"psychophysics","172","519436","0.0-16.0-0.0","5df7f53c76f45059b65f4c99","609006691f6f4e337c17f836","609d360c7f9b03d354c2f888","null","","","","null","","","","key","16.651333333332634","960","468.5","","","","","","","","","","","","","","","","","","","",""
"psychophysics","173","519942","0.0-16.0-1.0","5df7f53c76f45059b65f4c99","609006691f6f4e337c17f836","609d360c7f9b03d354c2f888","null","","","","null","","","","key","16.65410344827527","960","468.5","","","","","","","","","","","","","136","-1","6","false","","","",""
"psychophysics","174","520611","0.0-16.0-2.0","5df7f53c76f45059b65f4c99","609006691f6f4e337c17f836","609d360c7f9b03d354c2f888","661.7599999990198","","","","90","","","","key","16.652000000000406","960","468.5","","","","","","","","","","","","","","","","","","","",""
"psychophysics","175","521614","0.0-16.0-0.1","5df7f53c76f45059b65f4c99","609006691f6f4e337c17f836","609d360c7f9b03d354c2f888","null","","","","null","","","","key","16.651050847457817","960","468.5","","","","","","","","","","","","","","","","","","","",""
"psychophysics","176","522116","0.0-16.0-1.1","5df7f53c76f45059b65f4c99","609006691f6f4e337c17f836","609d360c7f9b03d354c2f888","null","","","","null","","","","key","16.650275862069222","960","468.5","","","","","","","","","","","","","136","1","4","false","","","",""
"psychophysics","177","523249","0.0-16.0-2.1","5df7f53c76f45059b65f4c99","609006691f6f4e337c17f836","609d360c7f9b03d354c2f888","1129.675000000163","","","","77","","","","key","16.653238805970037","960","468.5","","","","","","","","","","","","","","","","","","","",""
"psychophysics","178","524251","0.0-16.0-0.2","5df7f53c76f45059b65f4c99","609006691f6f4e337c17f836","609d360c7f9b03d354c2f888","null","","","","null","","","","key","16.65132203389855","960","468.5","","","","","","","","","","","","","","","","","","","",""
"psychophysics","179","524755","0.0-16.0-1.2","5df7f53c76f45059b65f4c99","609006691f6f4e337c17f836","609d360c7f9b03d354c2f888","null","","","","null","","","","key","16.650448275862487","960","468.5","","","","","","","","","","","","","136","1","5","false","","","",""
"psychophysics","180","525286","0.0-16.0-2.2","5df7f53c76f45059b65f4c99","609006691f6f4e337c17f836","609d360c7f9b03d354c2f888","526.2650000003632","","","","77","","","","key","16.648483870967834","960","468.5","","","","","","","","","","","","","","","","","","","",""
"psychophysics","181","526288","0.0-16.0-0.3","5df7f53c76f45059b65f4c99","609006691f6f4e337c17f836","609d360c7f9b03d354c2f888","null","","","","null","","","","key","16.65084999999963","960","468.5","","","","","","","","","","","","","","","","","","","",""
"psychophysics","182","526791","0.0-16.0-1.3","5df7f53c76f45059b65f4c99","609006691f6f4e337c17f836","609d360c7f9b03d354c2f888","null","","","","null","","","","key","16.650413793102228","960","468.5","","","","","","","","","","","","","136","1","6","false","","","",""
"psychophysics","183","527278","0.0-16.0-2.3","5df7f53c76f45059b65f4c99","609006691f6f4e337c17f836","609d360c7f9b03d354c2f888","483.7499999994179","","","","77","","","","key","16.651321428574324","960","468.5","","","","","","","","","","","","","","","","","","","",""
"psychophysics","184","528283","0.0-16.0-0.4","5df7f53c76f45059b65f4c99","609006691f6f4e337c17f836","609d360c7f9b03d354c2f888","null","","","","null","","","","key","16.651186440676703","960","468.5","","","","","","","","","","","","","","","","","","","",""
"psychophysics","185","528785","0.0-16.0-1.4","5df7f53c76f45059b65f4c99","609006691f6f4e337c17f836","609d360c7f9b03d354c2f888","null","","","","null","","","","key","16.648000000002018","960","468.5","","","","","","","","","","","","","136","-1","2","false","","","",""
"psychophysics","186","529182","0.0-16.0-2.4","5df7f53c76f45059b65f4c99","609006691f6f4e337c17f836","609d360c7f9b03d354c2f888","394.4149999988731","","","","77","","","","key","16.650636363631666","960","468.5","","","","","","","","","","","","","","","","","","","",""
"psychophysics","187","530183","0.0-16.0-0.5","5df7f53c76f45059b65f4c99","609006691f6f4e337c17f836","609d360c7f9b03d354c2f888","null","","","","null","","","","key","16.653084745762822","960","468.5","","","","","","","","","","","","","","","","","","","",""
"psychophysics","188","530685","0.0-16.0-1.5","5df7f53c76f45059b65f4c99","609006691f6f4e337c17f836","609d360c7f9b03d354c2f888","null","","","","null","","","","key","16.650600000001337","960","468.5","","","","","","","","","","","","","136","-1","0","false","","","",""
"psychophysics","189","531204","0.0-16.0-2.5","5df7f53c76f45059b65f4c99","609006691f6f4e337c17f836","609d360c7f9b03d354c2f888","516.1100000004517","","","","77","","","","key","16.65043333333451","960","468.5","","","","","","","","","","","","","","","","","","","",""
"psychophysics","190","532206","0.0-16.0-0.6","5df7f53c76f45059b65f4c99","609006691f6f4e337c17f836","609d360c7f9b03d354c2f888","null","","","","null","","","","key","16.65113559322061","960","468.5","","","","","","","","","","","","","","","","","","","",""
"psychophysics","191","532710","0.0-16.0-1.6","5df7f53c76f45059b65f4c99","609006691f6f4e337c17f836","609d360c7f9b03d354c2f888","null","","","","null","","","","key","16.6486896551736","960","468.5","","","","","","","","","","","","","136","1","0","false","","","",""
"psychophysics","192","532974","0.0-16.0-2.6","5df7f53c76f45059b65f4c99","609006691f6f4e337c17f836","609d360c7f9b03d354c2f888","261.3999999994412","","","","77","","","","key","16.649600000004284","960","468.5","","","","","","","","","","","","","","","","","","","",""
"psychophysics","193","533975","0.0-16.0-0.7","5df7f53c76f45059b65f4c99","609006691f6f4e337c17f836","609d360c7f9b03d354c2f888","null","","","","null","","","","key","16.648644067796926","960","468.5","","","","","","","","","","","","","","","","","","","",""
"psychophysics","194","534477","0.0-16.0-1.7","5df7f53c76f45059b65f4c99","609006691f6f4e337c17f836","609d360c7f9b03d354c2f888","null","","","","null","","","","key","16.64551724138236","960","468.5","","","","","","","","","","","","","136","-1","5","false","","","",""
"psychophysics","195","534848","0.0-16.0-2.7","5df7f53c76f45059b65f4c99","609006691f6f4e337c17f836","609d360c7f9b03d354c2f888","369.1050000016112","","","","77","","","","key","16.647636363637336","960","468.5","","","","","","","","","","","","","","","","","","","",""
"psychophysics","196","535850","0.0-16.0-0.8","5df7f53c76f45059b65f4c99","609006691f6f4e337c17f836","609d360c7f9b03d354c2f888","null","","","","null","","","","key","16.651728813560144","960","468.5","","","","","","","","","","","","","","","","","","","",""
"psychophysics","197","536353","0.0-16.0-1.8","5df7f53c76f45059b65f4c99","609006691f6f4e337c17f836","609d360c7f9b03d354c2f888","null","","","","null","","","","key","16.645517241378347","960","468.5","","","","","","","","","","","","","136","-1","4","false","","","",""
"psychophysics","198","536807","0.0-16.0-2.8","5df7f53c76f45059b65f4c99","609006691f6f4e337c17f836","609d360c7f9b03d354c2f888","450.45999999996275","","","","77","","","","key","16.656307692308193","960","468.5","","","","","","","","","","","","","","","","","","","",""
"psychophysics","199","537809","0.0-16.0-0.9","5df7f53c76f45059b65f4c99","609006691f6f4e337c17f836","609d360c7f9b03d354c2f888","null","","","","null","","","","key","16.65037288135549","960","468.5","","","","","","","","","","","","","","","","","","","",""
"psychophysics","200","538311","0.0-16.0-1.9","5df7f53c76f45059b65f4c99","609006691f6f4e337c17f836","609d360c7f9b03d354c2f888","null","","","","null","","","","key","16.65633333333535","960","468.5","","","","","","","","","","","","","136","-1","3","false","","","",""
"psychophysics","201","538930","0.0-16.0-2.9","5df7f53c76f45059b65f4c99","609006691f6f4e337c17f836","609d360c7f9b03d354c2f888","616.409999998752","","","","77","","","","key","16.65224999999757","960","468.5","","","","","","","","","","","","","","","","","","","",""
"psychophysics","202","539933","0.0-16.0-0.10","5df7f53c76f45059b65f4c99","609006691f6f4e337c17f836","609d360c7f9b03d354c2f888","null","","","","null","","","","key","16.65181355932096","960","468.5","","","","","","","","","","","","","","","","","","","",""
"psychophysics","203","540438","0.0-16.0-1.10","5df7f53c76f45059b65f4c99","609006691f6f4e337c17f836","609d360c7f9b03d354c2f888","null","","","","null","","","","key","16.650758620688755","960","468.5","","","","","","","","","","","","","136","1","3","false","","","",""
"psychophysics","204","540701","0.0-16.0-2.10","5df7f53c76f45059b65f4c99","609006691f6f4e337c17f836","609d360c7f9b03d354c2f888","257.3100000008708","","","","77","","","","key","16.66066666666108","960","468.5","","","","","","","","","","","","","","","","","","","",""
"psychophysics","205","541703","0.0-16.0-0.11","5df7f53c76f45059b65f4c99","609006691f6f4e337c17f836","609d360c7f9b03d354c2f888","null","","","","null","","","","key","16.6509830508464","960","468.5","","","","","","","","","","","","","","","","","","","",""
"psychophysics","206","542207","0.0-16.0-1.11","5df7f53c76f45059b65f4c99","609006691f6f4e337c17f836","609d360c7f9b03d354c2f888","null","","","","null","","","","key","16.64979999999826","960","468.5","","","","","","","","","","","","","136","1","2","false","","","",""
"psychophysics","207","542543","0.0-16.0-2.11","5df7f53c76f45059b65f4c99","609006691f6f4e337c17f836","609d360c7f9b03d354c2f888","332.77000000083353","","","","90","","","","key","16.649947368423454","960","468.5","","","","","","","","","","","","","","","","","","","",""
"psychophysics","208","543545","0.0-16.0-0.12","5df7f53c76f45059b65f4c99","609006691f6f4e337c17f836","609d360c7f9b03d354c2f888","null","","","","null","","","","key","16.65064406779721","960","468.5","","","","","","","","","","","","","","","","","","","",""
"psychophysics","209","544048","0.0-16.0-1.12","5df7f53c76f45059b65f4c99","609006691f6f4e337c17f836","609d360c7f9b03d354c2f888","null","","","","null","","","","key","16.653344827587716","960","468.5","","","","","","","","","","","","","136","-1","4","false","","","",""
"psychophysics","210","544385","0.0-16.0-2.12","5df7f53c76f45059b65f4c99","609006691f6f4e337c17f836","609d360c7f9b03d354c2f888","333.9449999984354","","","","77","","","","key","16.65142105263045","960","468.5","","","","","","","","","","","","","","","","","","","",""
"psychophysics","211","545387","0.0-16.0-0.13","5df7f53c76f45059b65f4c99","609006691f6f4e337c17f836","609d360c7f9b03d354c2f888","null","","","","null","","","","key","16.65081666666665","960","468.5","","","","","","","","","","","","","","","","","","","",""
"psychophysics","212","545890","0.0-16.0-1.13","5df7f53c76f45059b65f4c99","609006691f6f4e337c17f836","609d360c7f9b03d354c2f888","null","","","","null","","","","key","16.65082758620526","960","468.5","","","","","","","","","","","","","136","1","4","false","","","",""
"psychophysics","213","546301","0.0-16.0-2.13","5df7f53c76f45059b65f4c99","609006691f6f4e337c17f836","609d360c7f9b03d354c2f888","407.3050000006333","","","","77","","","","key","16.65143478260902","960","468.5","","","","","","","","","","","","","","","","","","","",""
"psychophysics","214","547303","0.0-16.0-0.14","5df7f53c76f45059b65f4c99","609006691f6f4e337c17f836","609d360c7f9b03d354c2f888","null","","","","null","","","","key","16.918050847458257","960","468.5","","","","","","","","","","","","","","","","","","","",""
"psychophysics","215","547811","0.0-16.0-1.14","5df7f53c76f45059b65f4c99","609006691f6f4e337c17f836","609d360c7f9b03d354c2f888","null","","","","null","","","","key","16.650379310345983","960","468.5","","","","","","","","","","","","","136","-1","5","false","","","",""
"psychophysics","216","548158","0.0-16.0-2.14","5df7f53c76f45059b65f4c99","609006691f6f4e337c17f836","609d360c7f9b03d354c2f888","344.43499999912456","","","","77","","","","key","16.65349999999744","960","468.5","","","","","","","","","","","","","","","","","","","",""
"psychophysics","217","549160","0.0-16.0-0.15","5df7f53c76f45059b65f4c99","609006691f6f4e337c17f836","609d360c7f9b03d354c2f888","null","","","","null","","","","key","16.651881355932378","960","468.5","","","","","","","","","","","","","","","","","","","",""
"psychophysics","218","549662","0.0-16.0-1.15","5df7f53c76f45059b65f4c99","609006691f6f4e337c17f836","609d360c7f9b03d354c2f888","null","","","","null","","","","key","16.649931034482695","960","468.5","","","","","","","","","","","","","136","1","2","false","","","",""
"psychophysics","219","550046","0.0-16.0-2.15","5df7f53c76f45059b65f4c99","609006691f6f4e337c17f836","609d360c7f9b03d354c2f888","379.11499999975786","","","","77","","","","key","16.65309090909167","960","468.5","","","","","","","","","","","","","","","","","","","",""
"psychophysics","220","551049","0.0-16.0-0.16","5df7f53c76f45059b65f4c99","609006691f6f4e337c17f836","609d360c7f9b03d354c2f888","null","","","","null","","","","key","16.651900000000992","960","468.5","","","","","","","","","","","","","","","","","","","",""
"psychophysics","221","551551","0.0-16.0-1.16","5df7f53c76f45059b65f4c99","609006691f6f4e337c17f836","609d360c7f9b03d354c2f888","null","","","","null","","","","key","16.650310344825467","960","468.5","","","","","","","","","","","","","136","-1","0","false","","","",""
"psychophysics","222","552098","0.0-16.0-2.16","5df7f53c76f45059b65f4c99","609006691f6f4e337c17f836","609d360c7f9b03d354c2f888","544.0100000014063","","","","90","","","","key","16.64740625000195","960","468.5","","","","","","","","","","","","","","","","","","","",""
"psychophysics","223","553100","0.0-16.0-0.17","5df7f53c76f45059b65f4c99","609006691f6f4e337c17f836","609d360c7f9b03d354c2f888","null","","","","null","","","","key","16.64876271186444","960","468.5","","","","","","","","","","","","","","","","","","","",""
"psychophysics","224","553602","0.0-16.0-1.17","5df7f53c76f45059b65f4c99","609006691f6f4e337c17f836","609d360c7f9b03d354c2f888","null","","","","null","","","","key","16.652241379307615","960","468.5","","","","","","","","","","","","","136","1","0","false","","","",""
"psychophysics","225","553845","0.0-16.0-2.17","5df7f53c76f45059b65f4c99","609006691f6f4e337c17f836","609d360c7f9b03d354c2f888","239.8800000010524","","","","77","","","","key","16.64985714285701","960","468.5","","","","","","","","","","","","","","","","","","","",""
"psychophysics","226","554847","0.0-16.0-0.18","5df7f53c76f45059b65f4c99","609006691f6f4e337c17f836","609d360c7f9b03d354c2f888","null","","","","null","","","","key","16.649745762713206","960","468.5","","","","","","","","","","","","","","","","","","","",""
"psychophysics","227","555350","0.0-16.0-1.18","5df7f53c76f45059b65f4c99","609006691f6f4e337c17f836","609d360c7f9b03d354c2f888","null","","","","null","","","","key","16.65168965517158","960","468.5","","","","","","","","","","","","","136","1","6","false","","","",""
"psychophysics","228","555594","0.0-16.0-2.18","5df7f53c76f45059b65f4c99","609006691f6f4e337c17f836","609d360c7f9b03d354c2f888","241.58499999972992","","","","77","","","","key","16.655642857143125","960","468.5","","","","","","","","","","","","","","","","","","","",""
"psychophysics","229","556596","0.0-16.0-0.19","5df7f53c76f45059b65f4c99","609006691f6f4e337c17f836","609d360c7f9b03d354c2f888","null","","","","null","","","","key","16.649694915255136","960","468.5","","","","","","","","","","","","","","","","","","","",""
"psychophysics","230","557098","0.0-16.0-1.19","5df7f53c76f45059b65f4c99","609006691f6f4e337c17f836","609d360c7f9b03d354c2f888","null","","","","null","","","","key","16.649827586205934","960","468.5","","","","","","","","","","","","","136","1","3","false","","","",""
"psychophysics","231","557482","0.0-16.0-2.19","5df7f53c76f45059b65f4c99","609006691f6f4e337c17f836","609d360c7f9b03d354c2f888","381.6799999985378","","","","77","","","","key","16.648545454541985","960","468.5","","","","","","","","","","","","","","","","","","","",""
"psychophysics","232","558484","0.0-16.0-0.20","5df7f53c76f45059b65f4c99","609006691f6f4e337c17f836","609d360c7f9b03d354c2f888","null","","","","null","","","","key","16.650847457627513","960","468.5","","","","","","","","","","","","","","","","","","","",""
"psychophysics","233","558988","0.0-16.0-1.20","5df7f53c76f45059b65f4c99","609006691f6f4e337c17f836","609d360c7f9b03d354c2f888","null","","","","null","","","","key","16.650896551725776","960","468.5","","","","","","","","","","","","","136","1","5","false","","","",""
"psychophysics","234","559314","0.0-16.0-2.20","5df7f53c76f45059b65f4c99","609006691f6f4e337c17f836","609d360c7f9b03d354c2f888","322.02999999932945","","","","77","","","","key","17.584777777775244","960","468.5","","","","","","","","","","","","","","","","","","","",""
"psychophysics","235","560317","0.0-16.0-0.21","5df7f53c76f45059b65f4c99","609006691f6f4e337c17f836","609d360c7f9b03d354c2f888","null","","","","null","","","","key","16.651610169490656","960","468.5","","","","","","","","","","","","","","","","","","","",""
"psychophysics","236","560821","0.0-16.0-1.21","5df7f53c76f45059b65f4c99","609006691f6f4e337c17f836","609d360c7f9b03d354c2f888","null","","","","null","","","","key","16.65296551724093","960","468.5","","","","","","","","","","","","","136","-1","3","false","","","",""
"psychophysics","237","561130","0.0-16.0-2.21","5df7f53c76f45059b65f4c99","609006691f6f4e337c17f836","609d360c7f9b03d354c2f888","303.4899999983609","","","","77","","","","key","16.652111111111783","960","468.5","","","","","","","","","","","","","","","","","","","",""
"psychophysics","238","562132","0.0-16.0-0.22","5df7f53c76f45059b65f4c99","609006691f6f4e337c17f836","609d360c7f9b03d354c2f888","null","","","","null","","","","key","16.651610169490656","960","468.5","","","","","","","","","","","","","","","","","","","",""
"psychophysics","239","562635","0.0-16.0-1.22","5df7f53c76f45059b65f4c99","609006691f6f4e337c17f836","609d360c7f9b03d354c2f888","null","","","","null","","","","key","16.653620689653728","960","468.5","","","","","","","","","","","","","136","-1","2","false","","","",""
"psychophysics","240","562922","0.0-16.0-2.22","5df7f53c76f45059b65f4c99","609006691f6f4e337c17f836","609d360c7f9b03d354c2f888","281.5950000003213","","","","90","","","","key","16.656235294115238","960","468.5","","","","","","","","","","","","","","","","","","","",""
"psychophysics","241","563925","0.0-16.0-0.23","5df7f53c76f45059b65f4c99","609006691f6f4e337c17f836","609d360c7f9b03d354c2f888","null","","","","null","","","","key","16.65023728813463","960","468.5","","","","","","","","","","","","","","","","","","","",""
"psychophysics","242","564427","0.0-16.0-1.23","5df7f53c76f45059b65f4c99","609006691f6f4e337c17f836","609d360c7f9b03d354c2f888","null","","","","null","","","","key","17.24699999999887","960","468.5","","","","","","","","","","","","","136","-1","6","false","","","",""
"psychophysics","243","564835","0.0-16.0-2.23","5df7f53c76f45059b65f4c99","609006691f6f4e337c17f836","609d360c7f9b03d354c2f888","404.85000000265427","","","","77","","","","key","16.651304347825278","960","468.5","","","","","","","","","","","","","","","","","","","",""
"html-keyboard-response","244","566885","0.0-17.0","5df7f53c76f45059b65f4c99","609006691f6f4e337c17f836","609d360c7f9b03d354c2f888","2049.204999999376","<p>Well Done !</p><p>Training Complete. Press the spacebar to start.</p><p>DON'T EXIT THE FULL SCREEN MODE</p>","","","32","","","","","","","","","","","","","","","","","","","","","","","","","","",""
"psychophysics","245","569889","0.0-18.0-0.0","5df7f53c76f45059b65f4c99","609006691f6f4e337c17f836","609d360c7f9b03d354c2f888","null","","","","null","","","","key","16.651766666665207","960","468.5","","","","","","","","","","","","","","","","","","","",""
"psychophysics","246","570392","0.0-18.0-1.0","5df7f53c76f45059b65f4c99","609006691f6f4e337c17f836","609d360c7f9b03d354c2f888","null","","","","null","","","","key","16.650551724139248","960","468.5","","","","","","","","","","","","","136","-1","2","true","","","",""
"psychophysics","247","570718","0.0-18.0-2.0","5df7f53c76f45059b65f4c99","609006691f6f4e337c17f836","609d360c7f9b03d354c2f888","322.91500000073574","","","","90","","","","key","16.654263157893805","960","468.5","","","","","","","","","","","","","","","","","","","",""
"psychophysics","248","571720","0.0-18.0-0.1","5df7f53c76f45059b65f4c99","609006691f6f4e337c17f836","609d360c7f9b03d354c2f888","null","","","","null","","","","key","16.65125423728812","960","468.5","","","","","","","","","","","","","","","","","","","",""
"psychophysics","249","572223","0.0-18.0-1.1","5df7f53c76f45059b65f4c99","609006691f6f4e337c17f836","609d360c7f9b03d354c2f888","null","","","","null","","","","key","16.65082758620526","960","468.5","","","","","","","","","","","","","136","-1","4","true","","","",""
"psychophysics","250","572510","0.0-18.0-2.1","5df7f53c76f45059b65f4c99","609006691f6f4e337c17f836","609d360c7f9b03d354c2f888","283.0550000035437","","","","77","","","","key","16.65056249999907","960","468.5","","","","","","","","","","","","","","","","","","","",""
"psychophysics","251","573512","0.0-18.0-0.2","5df7f53c76f45059b65f4c99","609006691f6f4e337c17f836","609d360c7f9b03d354c2f888","null","","","","null","","","","key","16.651416666667988","960","468.5","","","","","","","","","","","","","","","","","","","",""
"psychophysics","252","574015","0.0-18.0-1.2","5df7f53c76f45059b65f4c99","609006691f6f4e337c17f836","609d360c7f9b03d354c2f888","null","","","","null","","","","key","16.653896551723754","960","468.5","","","","","","","","","","","","","136","-1","5","true","","","",""
"psychophysics","253","574185","0.0-18.0-2.2","5df7f53c76f45059b65f4c99","609006691f6f4e337c17f836","609d360c7f9b03d354c2f888","166.9049999981653","","","","77","","","","key","16.6586666666618","960","468.5","","","","","","","","","","","","","","","","","","","",""
"psychophysics","254","575187","0.0-18.0-0.3","5df7f53c76f45059b65f4c99","609006691f6f4e337c17f836","609d360c7f9b03d354c2f888","null","","","","null","","","","key","16.65023728813463","960","468.5","","","","","","","","","","","","","","","","","","","",""
"psychophysics","255","575690","0.0-18.0-1.3","5df7f53c76f45059b65f4c99","609006691f6f4e337c17f836","609d360c7f9b03d354c2f888","null","","","","null","","","","key","16.65220689655137","960","468.5","","","","","","","","","","","","","136","1","3","true","","","",""
"psychophysics","256","575914","0.0-18.0-2.3","5df7f53c76f45059b65f4c99","609006691f6f4e337c17f836","609d360c7f9b03d354c2f888","218.0499999994645","","","","77","","","","key","16.644692307687365","960","468.5","","","","","","","","","","","","","","","","","","","",""
"psychophysics","257","576916","0.0-18.0-0.4","5df7f53c76f45059b65f4c99","609006691f6f4e337c17f836","609d360c7f9b03d354c2f888","null","","","","null","","","","key","16.651305084746188","960","468.5","","","","","","","","","","","","","","","","","","","",""
"psychophysics","258","577417","0.0-18.0-1.4","5df7f53c76f45059b65f4c99","609006691f6f4e337c17f836","609d360c7f9b03d354c2f888","null","","","","null","","","","key","16.65613793103217","960","468.5","","","","","","","","","","","","","136","1","5","true","","","",""
"psychophysics","259","577685","0.0-18.0-2.4","5df7f53c76f45059b65f4c99","609006691f6f4e337c17f836","609d360c7f9b03d354c2f888","264.6050000003306","","","","77","","","","key","16.65480000000292","960","468.5","","","","","","","","","","","","","","","","","","","",""
"psychophysics","260","578687","0.0-18.0-0.5","5df7f53c76f45059b65f4c99","609006691f6f4e337c17f836","609d360c7f9b03d354c2f888","null","","","","null","","","","key","16.651322033899536","960","468.5","","","","","","","","","","","","","","","","","","","",""
"psychophysics","261","579190","0.0-18.0-1.5","5df7f53c76f45059b65f4c99","609006691f6f4e337c17f836","609d360c7f9b03d354c2f888","null","","","","null","","","","key","16.65356666666533","960","468.5","","","","","","","","","","","","","136","-1","3","true","","","",""
"psychophysics","262","579386","0.0-18.0-2.5","5df7f53c76f45059b65f4c99","609006691f6f4e337c17f836","609d360c7f9b03d354c2f888","193.54999999993015","","","","77","","","","key","16.637599999993107","960","468.5","","","","","","","","","","","","","","","","","","","",""
"psychophysics","263","580387","0.0-18.0-0.6","5df7f53c76f45059b65f4c99","609006691f6f4e337c17f836","609d360c7f9b03d354c2f888","null","","","","null","","","","key","16.653250000001087","960","468.5","","","","","","","","","","","","","","","","","","","",""
"psychophysics","264","580890","0.0-18.0-1.6","5df7f53c76f45059b65f4c99","609006691f6f4e337c17f836","609d360c7f9b03d354c2f888","null","","","","null","","","","key","16.648551724140596","960","468.5","","","","","","","","","","","","","136","1","0","true","","","",""
"psychophysics","265","581028","0.0-18.0-2.6","5df7f53c76f45059b65f4c99","609006691f6f4e337c17f836","609d360c7f9b03d354c2f888","136.1849999993574","","","","77","","","","key","16.662714285709495","960","468.5","","","","","","","","","","","","","","","","","","","",""
"psychophysics","266","582029","0.0-18.0-0.7","5df7f53c76f45059b65f4c99","609006691f6f4e337c17f836","609d360c7f9b03d354c2f888","null","","","","null","","","","key","16.652796610167755","960","468.5","","","","","","","","","","","","","","","","","","","",""
"psychophysics","267","582531","0.0-18.0-1.7","5df7f53c76f45059b65f4c99","609006691f6f4e337c17f836","609d360c7f9b03d354c2f888","null","","","","null","","","","key","16.651896551725102","960","468.5","","","","","","","","","","","","","136","1","6","true","","","",""
"psychophysics","268","582747","0.0-18.0-2.7","5df7f53c76f45059b65f4c99","609006691f6f4e337c17f836","609d360c7f9b03d354c2f888","210.09000000054948","","","","77","","","","key","16.650416666661233","960","468.5","","","","","","","","","","","","","","","","","","","",""
"psychophysics","269","583750","0.0-18.0-0.8","5df7f53c76f45059b65f4c99","609006691f6f4e337c17f836","609d360c7f9b03d354c2f888","null","","","","null","","","","key","16.65218644067882","960","468.5","","","","","","","","","","","","","","","","","","","",""
"psychophysics","270","584253","0.0-18.0-1.8","5df7f53c76f45059b65f4c99","609006691f6f4e337c17f836","609d360c7f9b03d354c2f888","null","","","","null","","","","key","16.64963333333532","960","468.5","","","","","","","","","","","","","136","1","2","true","","","",""
"psychophysics","271","584632","0.0-18.0-2.8","5df7f53c76f45059b65f4c99","609006691f6f4e337c17f836","609d360c7f9b03d354c2f888","376.38000000151806","","","","90","","","","key","16.64861904762109","960","468.5","","","","","","","","","","","","","","","","","","","",""
"psychophysics","272","585636","0.0-18.0-0.9","5df7f53c76f45059b65f4c99","609006691f6f4e337c17f836","609d360c7f9b03d354c2f888","null","","","","null","","","","key","16.651600000000325","960","468.5","","","","","","","","","","","","","","","","","","","",""
"psychophysics","273","586140","0.0-18.0-1.9","5df7f53c76f45059b65f4c99","609006691f6f4e337c17f836","609d360c7f9b03d354c2f888","null","","","","null","","","","key","16.651137931035542","960","468.5","","","","","","","","","","","","","136","-1","0","true","","","",""
"psychophysics","274","586528","0.0-18.0-2.9","5df7f53c76f45059b65f4c99","609006691f6f4e337c17f836","609d360c7f9b03d354c2f888","386.1299999989569","","","","90","","","","key","16.650636363636956","960","468.5","","","","","","","","","","","","","","","","","","","",""
"psychophysics","275","587530","0.0-18.0-0.10","5df7f53c76f45059b65f4c99","609006691f6f4e337c17f836","609d360c7f9b03d354c2f888","null","","","","null","","","","key","16.64963333333338","960","468.5","","","","","","","","","","","","","","","","","","","",""
"psychophysics","276","588032","0.0-18.0-1.10","5df7f53c76f45059b65f4c99","609006691f6f4e337c17f836","609d360c7f9b03d354c2f888","null","","","","null","","","","key","16.645241379312335","960","468.5","","","","","","","","","","","","","136","-1","6","true","","","",""
"psychophysics","277","588342","0.0-18.0-2.10","5df7f53c76f45059b65f4c99","609006691f6f4e337c17f836","609d360c7f9b03d354c2f888","306.89500000164844","","","","77","","","","key","16.655588235295212","960","468.5","","","","","","","","","","","","","","","","","","","",""
"psychophysics","278","589344","0.0-18.0-0.11","5df7f53c76f45059b65f4c99","609006691f6f4e337c17f836","609d360c7f9b03d354c2f888","null","","","","null","","","","key","16.651796610169587","960","468.5","","","","","","","","","","","","","","","","","","","",""
"psychophysics","279","589846","0.0-18.0-1.11","5df7f53c76f45059b65f4c99","609006691f6f4e337c17f836","609d360c7f9b03d354c2f888","null","","","","null","","","","key","16.65010000000087","960","468.5","","","","","","","","","","","","","136","1","4","true","","","",""
"psychophysics","280","590166","0.0-18.0-2.11","5df7f53c76f45059b65f4c99","609006691f6f4e337c17f836","609d360c7f9b03d354c2f888","316.0300000018906","","","","77","","","","key","16.656499999995706","960","468.5","","","","","","","","","","","","","","","","","","","",""
"psychophysics","281","591170","0.0-18.0-0.12","5df7f53c76f45059b65f4c99","609006691f6f4e337c17f836","609d360c7f9b03d354c2f888","null","","","","null","","","","key","16.649966101694883","960","468.5","","","","","","","","","","","","","","","","","","","",""
"psychophysics","282","591673","0.0-18.0-1.12","5df7f53c76f45059b65f4c99","609006691f6f4e337c17f836","609d360c7f9b03d354c2f888","null","","","","null","","","","key","16.65093103448202","960","468.5","","","","","","","","","","","","","136","1","3","true","","","",""
"psychophysics","283","592043","0.0-18.0-2.12","5df7f53c76f45059b65f4c99","609006691f6f4e337c17f836","609d360c7f9b03d354c2f888","359.8650000022026","","","","77","","","","key","16.652045454544183","960","468.5","","","","","","","","","","","","","","","","","","","",""
"psychophysics","284","593046","0.0-18.0-0.13","5df7f53c76f45059b65f4c99","609006691f6f4e337c17f836","609d360c7f9b03d354c2f888","null","","","","null","","","","key","16.651525423727865","960","468.5","","","","","","","","","","","","","","","","","","","",""
"psychophysics","285","593548","0.0-18.0-1.13","5df7f53c76f45059b65f4c99","609006691f6f4e337c17f836","609d360c7f9b03d354c2f888","null","","","","null","","","","key","16.650344827585727","960","468.5","","","","","","","","","","","","","136","-1","2","true","","","",""
"psychophysics","286","594058","0.0-18.0-2.13","5df7f53c76f45059b65f4c99","609006691f6f4e337c17f836","609d360c7f9b03d354c2f888","506.83000000205357","","","","90","","","","key","16.65450000000031","960","468.5","","","","","","","","","","","","","","","","","","","",""
"psychophysics","287","595059","0.0-18.0-0.14","5df7f53c76f45059b65f4c99","609006691f6f4e337c17f836","609d360c7f9b03d354c2f888","null","","","","null","","","","key","16.656983050847252","960","468.5","","","","","","","","","","","","","","","","","","","",""
"psychophysics","288","595560","0.0-18.0-1.14","5df7f53c76f45059b65f4c99","609006691f6f4e337c17f836","609d360c7f9b03d354c2f888","null","","","","null","","","","key","16.654000000000515","960","468.5","","","","","","","","","","","","","136","-1","6","true","","","",""
"psychophysics","289","595884","0.0-18.0-2.14","5df7f53c76f45059b65f4c99","609006691f6f4e337c17f836","609d360c7f9b03d354c2f888","317.79500000260305","","","","77","","","","key","16.65855555555188","960","468.5","","","","","","","","","","","","","","","","","","","",""
"psychophysics","290","596901","0.0-18.0-0.15","5df7f53c76f45059b65f4c99","609006691f6f4e337c17f836","609d360c7f9b03d354c2f888","null","","","","null","","","","key","16.65116949152533","960","468.5","","","","","","","","","","","","","","","","","","","",""
"psychophysics","291","597403","0.0-18.0-1.15","5df7f53c76f45059b65f4c99","609006691f6f4e337c17f836","609d360c7f9b03d354c2f888","null","","","","null","","","","key","16.65026666666381","960","468.5","","","","","","","","","","","","","136","1","0","true","","","",""
"psychophysics","292","597665","0.0-18.0-2.15","5df7f53c76f45059b65f4c99","609006691f6f4e337c17f836","609d360c7f9b03d354c2f888","256.7899999994552","","","","77","","","","key","16.65339999999851","960","468.5","","","","","","","","","","","","","","","","","","","",""
"psychophysics","293","598669","0.0-18.0-0.16","5df7f53c76f45059b65f4c99","609006691f6f4e337c17f836","609d360c7f9b03d354c2f888","null","","","","null","","","","key","16.649372881357323","960","468.5","","","","","","","","","","","","","","","","","","","",""
"psychophysics","294","599171","0.0-18.0-1.16","5df7f53c76f45059b65f4c99","609006691f6f4e337c17f836","609d360c7f9b03d354c2f888","null","","","","null","","","","key","16.65276666666614","960","468.5","","","","","","","","","","","","","136","1","5","true","","","",""
"psychophysics","295","599438","0.0-18.0-2.16","5df7f53c76f45059b65f4c99","609006691f6f4e337c17f836","609d360c7f9b03d354c2f888","264.28499999747146","","","","77","","","","key","16.636800000001678","960","468.5","","","","","","","","","","","","","","","","","","","",""
"psychophysics","296","600440","0.0-18.0-0.17","5df7f53c76f45059b65f4c99","609006691f6f4e337c17f836","609d360c7f9b03d354c2f888","null","","","","null","","","","key","16.652423728813844","960","468.5","","","","","","","","","","","","","","","","","","","",""
"psychophysics","297","600945","0.0-18.0-1.17","5df7f53c76f45059b65f4c99","609006691f6f4e337c17f836","609d360c7f9b03d354c2f888","null","","","","null","","","","key","16.651413793101554","960","468.5","","","","","","","","","","","","","136","-1","4","true","","","",""
"psychophysics","298","602102","0.0-18.0-2.17","5df7f53c76f45059b65f4c99","609006691f6f4e337c17f836","609d360c7f9b03d354c2f888","1154.984999997425","","","","90","","","","key","16.896838235293913","960","468.5","","","","","","","","","","","","","","","","","","","",""
"psychophysics","299","603106","0.0-18.0-0.18","5df7f53c76f45059b65f4c99","609006691f6f4e337c17f836","609d360c7f9b03d354c2f888","null","","","","null","","","","key","16.65177966101624","960","468.5","","","","","","","","","","","","","","","","","","","",""
"psychophysics","300","603611","0.0-18.0-1.18","5df7f53c76f45059b65f4c99","609006691f6f4e337c17f836","609d360c7f9b03d354c2f888","null","","","","null","","","","key","16.65306896551769","960","468.5","","","","","","","","","","","","","136","-1","0","true","","","",""
"psychophysics","301","604155","0.0-18.0-2.18","5df7f53c76f45059b65f4c99","609006691f6f4e337c17f836","609d360c7f9b03d354c2f888","541.1849999981932","","","","90","","","","key","16.651781250002387","960","468.5","","","","","","","","","","","","","","","","","","","",""
"psychophysics","302","605157","0.0-18.0-0.19","5df7f53c76f45059b65f4c99","609006691f6f4e337c17f836","609d360c7f9b03d354c2f888","null","","","","null","","","","key","16.653983050846826","960","468.5","","","","","","","","","","","","","","","","","","","",""
"psychophysics","303","605659","0.0-18.0-1.19","5df7f53c76f45059b65f4c99","609006691f6f4e337c17f836","609d360c7f9b03d354c2f888","null","","","","null","","","","key","16.652068965518364","960","468.5","","","","","","","","","","","","","136","1","6","true","","","",""
"psychophysics","304","606147","0.0-18.0-2.19","5df7f53c76f45059b65f4c99","609006691f6f4e337c17f836","609d360c7f9b03d354c2f888","485.84500000288244","","","","90","","","","key","16.652448275861136","960","468.5","","","","","","","","","","","","","","","","","","","",""
"psychophysics","305","607150","0.0-18.0-0.20","5df7f53c76f45059b65f4c99","609006691f6f4e337c17f836","609d360c7f9b03d354c2f888","null","","","","null","","","","key","16.64957627118565","960","468.5","","","","","","","","","","","","","","","","","","","",""
"psychophysics","306","607651","0.0-18.0-1.20","5df7f53c76f45059b65f4c99","609006691f6f4e337c17f836","609d360c7f9b03d354c2f888","null","","","","null","","","","key","17.250142857145484","960","468.5","","","","","","","","","","","","","136","-1","5","true","","","",""
"psychophysics","307","607896","0.0-18.0-2.20","5df7f53c76f45059b65f4c99","609006691f6f4e337c17f836","609d360c7f9b03d354c2f888","241.53000000293832","","","","77","","","","key","16.65121428571209","960","468.5","","","","","","","","","","","","","","","","","","","",""
"psychophysics","308","608899","0.0-18.0-0.21","5df7f53c76f45059b65f4c99","609006691f6f4e337c17f836","609d360c7f9b03d354c2f888","null","","","","null","","","","key","16.65216949152547","960","468.5","","","","","","","","","","","","","","","","","","","",""
"psychophysics","309","609403","0.0-18.0-1.21","5df7f53c76f45059b65f4c99","609006691f6f4e337c17f836","609d360c7f9b03d354c2f888","null","","","","null","","","","key","16.653137931034195","960","468.5","","","","","","","","","","","","","136","1","4","true","","","",""
"psychophysics","310","610093","0.0-18.0-2.21","5df7f53c76f45059b65f4c99","609006691f6f4e337c17f836","609d360c7f9b03d354c2f888","687.2849999999162","","","","77","","","","key","16.648902439023935","960","468.5","","","","","","","","","","","","","","","","","","","",""
"psychophysics","311","611094","0.0-18.0-0.22","5df7f53c76f45059b65f4c99","609006691f6f4e337c17f836","609d360c7f9b03d354c2f888","null","","","","null","","","","key","16.652864406779173","960","468.5","","","","","","","","","","","","","","","","","","","",""
"psychophysics","312","611599","0.0-18.0-1.22","5df7f53c76f45059b65f4c99","609006691f6f4e337c17f836","609d360c7f9b03d354c2f888","null","","","","null","","","","key","16.652068965518364","960","468.5","","","","","","","","","","","","","136","1","2","true","","","",""
"psychophysics","313","612027","0.0-18.0-2.22","5df7f53c76f45059b65f4c99","609006691f6f4e337c17f836","609d360c7f9b03d354c2f888","425.0749999991385","","","","90","","","","key","16.654160000002012","960","468.5","","","","","","","","","","","","","","","","","","","",""
"psychophysics","314","613029","0.0-18.0-0.23","5df7f53c76f45059b65f4c99","609006691f6f4e337c17f836","609d360c7f9b03d354c2f888","null","","","","null","","","","key","16.650610169492488","960","468.5","","","","","","","","","","","","","","","","","","","",""
"psychophysics","315","613532","0.0-18.0-1.23","5df7f53c76f45059b65f4c99","609006691f6f4e337c17f836","609d360c7f9b03d354c2f888","null","","","","null","","","","key","16.655172413793103","960","468.5","","","","","","","","","","","","","136","-1","3","true","","","",""
"psychophysics","316","613971","0.0-18.0-2.23","5df7f53c76f45059b65f4c99","609006691f6f4e337c17f836","609d360c7f9b03d354c2f888","435.63999999978114","","","","90","","","","key","16.64899999999907","960","468.5","","","","","","","","","","","","","","","","","","","",""
"psychophysics","317","614975","0.0-18.0-0.24","5df7f53c76f45059b65f4c99","609006691f6f4e337c17f836","609d360c7f9b03d354c2f888","null","","","","null","","","","key","16.65154999999989","960","468.5","","","","","","","","","","","","","","","","","","","",""
"psychophysics","318","615478","0.0-18.0-1.24","5df7f53c76f45059b65f4c99","609006691f6f4e337c17f836","609d360c7f9b03d354c2f888","null","","","","null","","","","key","17.245357142856978","960","468.5","","","","","","","","","","","","","136","-1","0","true","","","",""
"psychophysics","319","615863","0.0-18.0-2.24","5df7f53c76f45059b65f4c99","609006691f6f4e337c17f836","609d360c7f9b03d354c2f888","381.45499999891035","","","","90","","","","key","16.65818181818097","960","468.5","","","","","","","","","","","","","","","","","","","",""
"psychophysics","320","616865","0.0-18.0-0.25","5df7f53c76f45059b65f4c99","609006691f6f4e337c17f836","609d360c7f9b03d354c2f888","null","","","","null","","","","key","16.64752542372927","960","468.5","","","","","","","","","","","","","","","","","","","",""
"psychophysics","321","617368","0.0-18.0-1.25","5df7f53c76f45059b65f4c99","609006691f6f4e337c17f836","609d360c7f9b03d354c2f888","null","","","","null","","","","key","16.655931034482663","960","468.5","","","","","","","","","","","","","136","1","5","true","","","",""
"psychophysics","322","617947","0.0-18.0-2.25","5df7f53c76f45059b65f4c99","609006691f6f4e337c17f836","609d360c7f9b03d354c2f888","572.9250000005122","","","","77","","","","key","16.650882352941313","960","468.5","","","","","","","","","","","","","","","","","","","",""
"psychophysics","323","618949","0.0-18.0-0.26","5df7f53c76f45059b65f4c99","609006691f6f4e337c17f836","609d360c7f9b03d354c2f888","null","","","","null","","","","key","16.649203389829765","960","468.5","","","","","","","","","","","","","","","","","","","",""
"psychophysics","324","619452","0.0-18.0-1.26","5df7f53c76f45059b65f4c99","609006691f6f4e337c17f836","609d360c7f9b03d354c2f888","null","","","","null","","","","key","16.65109999999792","960","468.5","","","","","","","","","","","","","136","1","2","true","","","",""
"psychophysics","325","619830","0.0-18.0-2.26","5df7f53c76f45059b65f4c99","609006691f6f4e337c17f836","609d360c7f9b03d354c2f888","376.0599999986589","","","","90","","","","key","16.647952380950475","960","468.5","","","","","","","","","","","","","","","","","","","",""
"psychophysics","326","620833","0.0-18.0-0.27","5df7f53c76f45059b65f4c99","609006691f6f4e337c17f836","609d360c7f9b03d354c2f888","null","","","","null","","","","key","16.651316666667118","960","468.5","","","","","","","","","","","","","","","","","","","",""
"psychophysics","327","621336","0.0-18.0-1.27","5df7f53c76f45059b65f4c99","609006691f6f4e337c17f836","609d360c7f9b03d354c2f888","null","","","","null","","","","key","16.647620689657774","960","468.5","","","","","","","","","","","","","136","-1","3","true","","","",""
