"trial_type","trial_index","time_elapsed","internal_node_id","PROLIFIC_PID","STUDY_ID","SESSION_ID","rt","stimulus","button_pressed","success","key_press","responses","isData","view_history","response_type","avg_frame_time","center_x","center_y","isSC","stim_side","trial_luminance","step_size","nReversal","correct","prev_ans","isThreshold","SC_threshold","final_threshold","isLuminance","FF_luminance","luminance","stimSide","ISInt","isFF","question_order","isSPQ","isCAPS","isAQ"
"pavlovia","0","13","0.0-0.0","56153d5e7ffc8a000a811ba8","609006691f6f4e337c17f836","609d35a8a36d8cafcab62f78","","","","","","","","","","","","","","","","","","","","","","","","","","","","","","","",""
"html-button-response","1","11600","0.0-1.0","56153d5e7ffc8a000a811ba8","609006691f6f4e337c17f836","609d35a8a36d8cafcab62f78","11580.359999999928","<div style='background-color: white; width:60%; margin: auto; padding: 50px; text-align: justify; text-justify: inter-word; margin-bottom: 20px;'><h1 style='text-align: center;'>Consent Form</h1><p>Please read this consent form carefully before deciding whether you would like to participate in this study. You have to be 18 years old or older to participate to this study.</p><p style='text-decoration: underline;'>Participation is voluntary:</p><p>It is your choice whether or not to participate in this research. If you choose to participate, you may change your mind and leave the study at any time. Refusal to participate or stopping your participation will involve no penalty or loss of benefits to which you are otherwise entitled.</p><p style='text-decoration: underline;'>Purpose of the Study:</p><p>To understand the mechanisms underlying human perception.</p><p style='text-decoration: underline;'>What you will do in this study:</p><p>You will be presented with a series of visual images and then you will press buttons on the keyboard of your computer to respond to simple questions about the images (e.g. Were one or two images presented?). In addition, you will be asked to complete a questionnaire concerning your beliefs and everyday mental and perceptual experiences.'</p><p style='text-decoration: underline;'> Time Required:</p><p>The study will take 40 minutes to complete. </p><p style='text-decoration: underline;'>Risks:</p><p>There are no anticipated risks associated with participating in this study that are beyond those experienced in everyday life. </p><p style='text-decoration: underline;'>Benefits:</p><p>There are no benefits to you in participating in the study. However, this study may lead to a better understanding of how different kinds of visual information are used.</p><p style='text-decoration: underline;'>Compensation:</p><p>You will be paid US$6.6/hour. </p><p style='text-decoration: underline;'>Privacy and Confidentiality:</p><p>Your participation in this study will be anonymous. No personal information about your name or identity will be asked or recorded. This anonymous data will be stored for several years and may be used for a variety of research purposes. The overall results of the study may be published, or the data files may be shared with other researchers, but your identity will not be revealed in any way. The online services we are using for this study may temporarily store your data, but this data will be downloaded and then promptly deleted from those services.Your data will not be permanently associated with your name, IP address, or any other identifiable information (e.g., your information will only be connected to your payment, not to any of your responses), though they may be temporarily stored together before we download and separate them. Even so, no guarantee of internet survey security can be given because, although unlikely, transmissions can be intercepted and IP addresses can be identified. The anonymous data may be shared publicly (for example, in conjunction with a resulting academic publication).</p><p style='text-decoration: underline;'>Participation and Withdrawal:</p><p>Your participation in this study is completely voluntary. You may stop responding to the stimuli or stop answering questions if you so choose and without penalty by exiting the full screen mode, closing this tab of your browser or redirecting it to a different website.</p><p style='text-decoration: underline;'>Contact Info of the Researcher: </p><p>If you have questions about this study, or if you would like to talk to the research team, please contact David Melcher (david.melcher@nyu.edu, md5050@nyu.edu) at the Perception and Active Cognition Laboratory, New York University Abu Dhabi, Computational Research Building, Saadiyat Island, Abu Dhabi, UAE.This research has been reviewed by the New York University Abu Dhabi Institutional Review Board (NYUAD IRB). To contact about your rights in this research, for questions, suggestions, or complaints that are not addressed by the researchers, please email IRBnyuad@nyu.edu, or call the NYUAD IRB at +971 2 628 4313. </p></div>","0","","","","","","","","","","","","","","","","","","","","","","","","","","","","",""
"fullscreen","2","13918","0.0-2.0","56153d5e7ffc8a000a811ba8","609006691f6f4e337c17f836","609d35a8a36d8cafcab62f78","","","","true","","","","","","","","","","","","","","","","","","","","","","","","","","","",""
"html-keyboard-response","3","28413","0.0-3.0","56153d5e7ffc8a000a811ba8","609006691f6f4e337c17f836","609d35a8a36d8cafcab62f78","14491.514999999708","<p>Welcome !</p><p>READ CAREFULLY THE FOLLOWING INDICATIONS:</p><p>From this moment you have ~40 minutes to complete the experiment.</p><p>During the experiment you will be prompted to take several breaks. Each break should not last longer than 2-3 minutes.</p><p>Make sure that your computer is plugged in and it's not running on battery power, even if the battery is already fully charged.</p><p>Turn off your phone and music, make sure that you are in a quiet room and that you will not be distracted for the next hour.</p><p>Failure to comply with the instructions and indications provided during the experiment will most likely result in the rejection of your data.<p>Press the spacebar to start.</p>","","","32","","","","","","","","","","","","","","","","","","","","","","","","","","",""
"survey-html-form","4","33718","0.0-4.0","56153d5e7ffc8a000a811ba8","609006691f6f4e337c17f836","609d35a8a36d8cafcab62f78","5302.034999998796","","","","","{""age"":""38"",""sex"":""f""}","true","","","","","","","","","","","","","","","","","","","","","","","","",""
"instructions","5","188094","0.0-5.0","56153d5e7ffc8a000a811ba8","609006691f6f4e337c17f836","609d35a8a36d8cafcab62f78","154373.56","","","","","","","[{""page_index"":0,""viewing_time"":134447.75499999925},{""page_index"":1,""viewing_time"":15758.065000000002},{""page_index"":2,""viewing_time"":4166.994999999588}]","","","","","","","","","","","","","","","","","","","","","","","",""
"psychophysics","6","190874","0.0-6.0-0.0","56153d5e7ffc8a000a811ba8","609006691f6f4e337c17f836","609d35a8a36d8cafcab62f78","1772.290000000794","","","","39","","","","key","16.768777108433724","680","328.5","true","1","180","30","0","-1","","","","","","","","","","","","","",""
"psychophysics","7","192283","0.0-6.0-0.1","56153d5e7ffc8a000a811ba8","609006691f6f4e337c17f836","609d35a8a36d8cafcab62f78","398.9249999994936","","","","37","","","","key","16.661542168675","680","328.5","true","-1","180","30","0","-1","-1","","","","","","","","","","","","",""
"psychophysics","8","195221","0.0-6.0-0.2","56153d5e7ffc8a000a811ba8","609006691f6f4e337c17f836","609d35a8a36d8cafcab62f78","1932.0250000000815","","","","39","","","","key","16.661227272727213","680","328.5","true","1","150","30","0","-1","-1","","","","","","","","","","","","",""
"psychophysics","9","196594","0.0-6.0-0.3","56153d5e7ffc8a000a811ba8","609006691f6f4e337c17f836","609d35a8a36d8cafcab62f78","368.4599999997008","","","","37","","","","key","16.661061728395087","680","328.5","true","-1","150","30","0","-1","-1","","","","","","","","","","","","",""
"psychophysics","10","198620","0.0-6.0-0.4","56153d5e7ffc8a000a811ba8","609006691f6f4e337c17f836","609d35a8a36d8cafcab62f78","1020.6999999991385","","","","39","","","","key","16.660999999999998","680","328.5","true","-1","129","24","1","1","-1","","","","","","","","","","","","",""
"psychophysics","11","200116","0.0-6.0-0.5","56153d5e7ffc8a000a811ba8","609006691f6f4e337c17f836","609d35a8a36d8cafcab62f78","485.80999999830965","","","","37","","","","key","16.65934090909121","680","328.5","true","-1","153","24","1","-1","1","","","","","","","","","","","","",""
"psychophysics","12","201194","0.0-6.0-0.6","56153d5e7ffc8a000a811ba8","609006691f6f4e337c17f836","609d35a8a36d8cafcab62f78","64.90000000121654","","","","37","","","","key","16.64667187499981","680","328.5","true","-1","153","19.2","2","-1","-1","","","","","","","","","","","","",""
"psychophysics","13","202732","0.0-6.0-0.7","56153d5e7ffc8a000a811ba8","609006691f6f4e337c17f836","609d35a8a36d8cafcab62f78","531.6549999988638","","","","39","","","","key","16.657813186813236","680","328.5","true","1","133.8","19.2","2","-1","-1","","","","","","","","","","","","",""
"psychophysics","14","204209","0.0-6.0-0.8","56153d5e7ffc8a000a811ba8","609006691f6f4e337c17f836","609d35a8a36d8cafcab62f78","461.8950000003679","","","","39","","","","key","16.6502954545454","680","328.5","true","1","133.8","19.2","2","-1","-1","","","","","","","","","","","","",""
"psychophysics","15","206253","0.0-6.0-0.9","56153d5e7ffc8a000a811ba8","609006691f6f4e337c17f836","609d35a8a36d8cafcab62f78","1039.7699999994365","","","","39","","","","key","16.659942622950634","680","328.5","true","-1","129","15.36","3","1","-1","","","","","","","","","","","","",""
"psychophysics","16","208302","0.0-6.0-0.10","56153d5e7ffc8a000a811ba8","609006691f6f4e337c17f836","609d35a8a36d8cafcab62f78","1043.560000000085","","","","37","","","","key","16.666213114754026","680","328.5","true","-1","144.36","15.36","3","-1","1","","","","","","","","","","","","",""
"psychophysics","17","209753","0.0-6.0-0.11","56153d5e7ffc8a000a811ba8","609006691f6f4e337c17f836","609d35a8a36d8cafcab62f78","423.5850000004575","","","","39","","","","key","16.657604651162835","680","328.5","true","1","144.36","12.287999999999998","4","-1","-1","","","","","","","","","","","","",""
"psychophysics","18","211347","0.0-6.0-0.12","56153d5e7ffc8a000a811ba8","609006691f6f4e337c17f836","609d35a8a36d8cafcab62f78","588.8649999997288","","","","37","","","","key","16.651872340425356","680","328.5","true","1","132.072","9.8304","5","1","-1","","","","","","","","","","","","",""
"psychophysics","19","212856","0.0-6.0-0.13","56153d5e7ffc8a000a811ba8","609006691f6f4e337c17f836","609d35a8a36d8cafcab62f78","502.28500000049826","","","","37","","","","key","16.657666666666692","680","328.5","true","-1","141.9024","9.8304","5","-1","1","","","","","","","","","","","","",""
"psychophysics","20","214208","0.0-6.0-0.14","56153d5e7ffc8a000a811ba8","609006691f6f4e337c17f836","609d35a8a36d8cafcab62f78","347.0149999993737","","","","37","","","","key","16.658112500000062","680","328.5","true","-1","141.9024","7.864319999999999","6","-1","-1","","","","","","","","","","","","",""
"psychophysics","21","215808","0.0-6.0-0.15","56153d5e7ffc8a000a811ba8","609006691f6f4e337c17f836","609d35a8a36d8cafcab62f78","593.6000000001513","","","","37","","","","key","16.65768421052612","680","328.5","true","1","134.03808","6.291456","7","1","-1","","","","","","","","","","","","",""
"psychophysics","22","217288","0.0-6.0-0.16","56153d5e7ffc8a000a811ba8","609006691f6f4e337c17f836","609d35a8a36d8cafcab62f78","461.4700000001758","","","","37","","","","key","16.658795454545643","680","328.5","true","-1","140.32953600000002","6.291456","7","-1","1","","","","","","","","","","","","",""
"psychophysics","23","218752","0.0-6.0-0.17","56153d5e7ffc8a000a811ba8","609006691f6f4e337c17f836","609d35a8a36d8cafcab62f78","457.7650000010035","","","","37","","","","key","16.659425287356267","680","328.5","true","-1","140.32953600000002","5.033164800000001","8","-1","-1","","","","","","","","","","","","",""
"psychophysics","24","220623","0.0-6.0-0.18","56153d5e7ffc8a000a811ba8","609006691f6f4e337c17f836","609d35a8a36d8cafcab62f78","863.4349999992992","","","","37","","","","key","16.658270270270265","680","328.5","true","-1","135.2963712","5.033164800000001","8","-1","-1","","","","","","","","","","","","",""
"psychophysics","25","222286","0.0-6.0-0.19","56153d5e7ffc8a000a811ba8","609006691f6f4e337c17f836","609d35a8a36d8cafcab62f78","645.7399999999325","","","","37","","","","key","16.65846464646459","680","328.5","true","-1","135.2963712","5.033164800000001","8","-1","-1","","","","","","","","","","","","",""
"psychophysics","26","223966","0.0-6.0-0.20","56153d5e7ffc8a000a811ba8","609006691f6f4e337c17f836","609d35a8a36d8cafcab62f78","673.8100000002305","","","","39","","","","key","16.660340000000144","680","328.5","true","-1","130.2632064","4.0265318400000005","9","1","-1","","","","","","","","","","","","",""
"psychophysics","27","225535","0.0-6.0-0.21","56153d5e7ffc8a000a811ba8","609006691f6f4e337c17f836","609d35a8a36d8cafcab62f78","559.1450000010955","","","","37","","","","key","16.66036559139805","680","328.5","true","-1","134.28973824","4.0265318400000005","9","-1","1","","","","","","","","","","","","",""
"psychophysics","28","227200","0.0-6.0-0.22","56153d5e7ffc8a000a811ba8","609006691f6f4e337c17f836","609d35a8a36d8cafcab62f78","656.8950000000768","","","","37","","","","key","16.657373737373607","680","328.5","true","1","134.28973824","3.2212254720000004","10","1","-1","","","","","","","","","","","","",""
"psychophysics","29","228881","0.0-6.0-0.23","56153d5e7ffc8a000a811ba8","609006691f6f4e337c17f836","609d35a8a36d8cafcab62f78","676.244999998773","","","","37","","","","key","16.658450000000013","680","328.5","true","1","137.51096371199998","3.2212254720000004","10","1","1","","","","","","","","","","","","",""
"psychophysics","30","230360","0.0-6.0-0.24","56153d5e7ffc8a000a811ba8","609006691f6f4e337c17f836","609d35a8a36d8cafcab62f78","469.61000000010245","","","","37","","","","key","16.65714942528726","680","328.5","true","1","140.732189184","3.2212254720000004","10","1","1","","","","","","","","","","","","",""
"psychophysics","31","231730","0.0-6.0-0.25","56153d5e7ffc8a000a811ba8","609006691f6f4e337c17f836","609d35a8a36d8cafcab62f78","359.48500000085915","","","","39","","","","key","16.650341463414385","680","328.5","true","1","143.953414656","3.2212254720000004","10","-1","1","","","","","","","","","","","","",""
"psychophysics","32","232982","0.0-6.0-0.26","56153d5e7ffc8a000a811ba8","609006691f6f4e337c17f836","609d35a8a36d8cafcab62f78","241.75500000093598","","","","39","","","","key","16.657229729729856","680","328.5","true","1","143.953414656","2.5769803776000004","11","-1","-1","","","","","","","","","","","","",""
"psychophysics","33","234345","0.0-6.0-0.27","56153d5e7ffc8a000a811ba8","609006691f6f4e337c17f836","609d35a8a36d8cafcab62f78","354.55999999976484","","","","39","","","","key","16.65696250000001","680","328.5","true","1","141.3764342784","2.5769803776000004","11","-1","-1","","","","","","","","","","","","",""
"psychophysics","34","235750","0.0-6.0-0.28","56153d5e7ffc8a000a811ba8","609006691f6f4e337c17f836","609d35a8a36d8cafcab62f78","396.39500000156113","","","","39","","","","key","16.662214285714157","680","328.5","true","1","141.3764342784","2.5769803776000004","11","-1","-1","","","","","","","","","","","","",""
"psychophysics","35","237006","0.0-6.0-0.29","56153d5e7ffc8a000a811ba8","609006691f6f4e337c17f836","609d35a8a36d8cafcab62f78","248.98000000033062","","","","39","","","","key","16.64766216216211","680","328.5","true","1","138.79945390080002","2.5769803776000004","11","-1","-1","","","","","","","","","","","","",""
"psychophysics","36","238349","0.0-6.0-0.30","56153d5e7ffc8a000a811ba8","609006691f6f4e337c17f836","609d35a8a36d8cafcab62f78","326.6350000012317","","","","39","","","","key","16.659562500000174","680","328.5","true","1","138.79945390080002","2.5769803776000004","11","-1","-1","","","","","","","","","","","","",""
"psychophysics","37","240037","0.0-6.0-0.31","56153d5e7ffc8a000a811ba8","609006691f6f4e337c17f836","609d35a8a36d8cafcab62f78","681.7499999997381","","","","39","","","","key","16.65964000000007","680","328.5","true","-1","136.22247352320002","2.0615843020800004","12","1","-1","","","","","","","","","","","","",""
"psychophysics","38","241565","0.0-6.0-0.32","56153d5e7ffc8a000a811ba8","609006691f6f4e337c17f836","609d35a8a36d8cafcab62f78","520.2399999998452","","","","37","","","","key","16.66059340659342","680","328.5","true","-1","138.28405782528003","2.0615843020800004","12","-1","1","","","","","","","","","","","","",""
"psychophysics","39","243228","0.0-6.0-0.33","56153d5e7ffc8a000a811ba8","609006691f6f4e337c17f836","609d35a8a36d8cafcab62f78","656.4150000013178","","","","37","","","","key","16.657010101010044","680","328.5","true","-1","138.28405782528003","1.6492674416640005","13","-1","-1","","","","","","","","","","","","",""
"psychophysics","40","245254","0.0-6.0-0.34","56153d5e7ffc8a000a811ba8","609006691f6f4e337c17f836","609d35a8a36d8cafcab62f78","1017.8550000000687","","","","39","","","","key","16.660349999999987","680","328.5","true","1","136.63479038361604","1.6492674416640005","13","-1","-1","","","","","","","","","","","","",""
"psychophysics","41","246957","0.0-6.0-0.35","56153d5e7ffc8a000a811ba8","609006691f6f4e337c17f836","609d35a8a36d8cafcab62f78","695.3799999991897","","","","39","","","","key","16.658294117647138","680","328.5","true","1","136.63479038361604","1.6492674416640005","13","-1","-1","","","","","","","","","","","","",""
"psychophysics","42","248989","0.0-6.0-0.36","56153d5e7ffc8a000a811ba8","609006691f6f4e337c17f836","609d35a8a36d8cafcab62f78","1018.9350000000559","","","","39","","","","key","16.660941666666623","680","328.5","true","1","134.98552294195204","1.6492674416640005","13","-1","-1","","","","","","","","","","","","",""
"psychophysics","43","250533","0.0-6.0-0.37","56153d5e7ffc8a000a811ba8","609006691f6f4e337c17f836","609d35a8a36d8cafcab62f78","533.3649999992922","","","","37","","","","key","16.662532608695745","680","328.5","true","-1","134.98552294195204","1.6492674416640005","13","-1","-1","","","","","","","","","","","","",""
"psychophysics","44","252375","0.0-6.0-0.38","56153d5e7ffc8a000a811ba8","609006691f6f4e337c17f836","609d35a8a36d8cafcab62f78","836.2849999994214","","","","37","","","","key","16.658663636363716","680","328.5","true","-1","133.33625550028805","1.6492674416640005","13","-1","-1","","","","","","","","","","","","",""
"psychophysics","45","253892","0.0-6.0-0.39","56153d5e7ffc8a000a811ba8","609006691f6f4e337c17f836","609d35a8a36d8cafcab62f78","507.81999999890104","","","","37","","","","key","16.657188888888857","680","328.5","true","1","133.33625550028805","1.3194139533312006","14","1","-1","","","","","","","","","","","","",""
"html-keyboard-response","46","272843","0.0-7.0","56153d5e7ffc8a000a811ba8","609006691f6f4e337c17f836","609d35a8a36d8cafcab62f78","18948.29500000016","<p>Well Done !</p><p>Prepare for a new block.</p><p>DON'T EXIT THE FULL SCREEN MODE</p><p>Press the Spacebar to start.</p>","","","32","","","","","","","","","","","","","","","true","138.06415549972482","","","","","","","","","","",""
"psychophysics","47","273968","0.0-8.0-0.0","56153d5e7ffc8a000a811ba8","609006691f6f4e337c17f836","609d35a8a36d8cafcab62f78","116.47499999887077","","","","39","","","","key","16.60210294117603","680","328.5","true","1","180","30","0","-1","","","","","","","","","","","","","",""
"psychophysics","48","275976","0.0-8.0-0.1","56153d5e7ffc8a000a811ba8","609006691f6f4e337c17f836","609d35a8a36d8cafcab62f78","995.6000000002095","","","","37","","","","key","16.66079831932781","680","328.5","true","-1","180","30","0","-1","-1","","","","","","","","","","","","",""
"psychophysics","49","277272","0.0-8.0-0.2","56153d5e7ffc8a000a811ba8","609006691f6f4e337c17f836","609d35a8a36d8cafcab62f78","293.429999999702","","","","39","","","","key","16.66064935064929","680","328.5","true","1","150","30","0","-1","-1","","","","","","","","","","","","",""
"psychophysics","50","279585","0.0-8.0-0.3","56153d5e7ffc8a000a811ba8","609006691f6f4e337c17f836","609d35a8a36d8cafcab62f78","1299.7450000002282","","","","39","","","","key","16.66147826086946","680","328.5","true","1","150","30","0","-1","-1","","","","","","","","","","","","",""
"psychophysics","51","280898","0.0-8.0-0.4","56153d5e7ffc8a000a811ba8","609006691f6f4e337c17f836","609d35a8a36d8cafcab62f78","302.7400000009802","","","","39","","","","key","16.66142857142848","680","328.5","true","-1","129","24","1","1","-1","","","","","","","","","","","","",""
"psychophysics","52","282255","0.0-8.0-0.5","56153d5e7ffc8a000a811ba8","609006691f6f4e337c17f836","609d35a8a36d8cafcab62f78","344.6799999983632","","","","39","","","","key","16.655888888889343","680","328.5","true","1","153","24","1","-1","1","","","","","","","","","","","","",""
"psychophysics","53","283586","0.0-8.0-0.6","56153d5e7ffc8a000a811ba8","609006691f6f4e337c17f836","609d35a8a36d8cafcab62f78","325.02999999996973","","","","39","","","","key","16.660468354430698","680","328.5","true","1","153","19.2","2","-1","-1","","","","","","","","","","","","",""
"psychophysics","54","285064","0.0-8.0-0.7","56153d5e7ffc8a000a811ba8","609006691f6f4e337c17f836","609d35a8a36d8cafcab62f78","469.9600000003702","","","","39","","","","key","16.659306818182152","680","328.5","true","1","133.8","19.2","2","-1","-1","","","","","","","","","","","","",""
"psychophysics","55","286647","0.0-8.0-0.8","56153d5e7ffc8a000a811ba8","609006691f6f4e337c17f836","609d35a8a36d8cafcab62f78","577.1000000003842","","","","39","","","","key","16.66139361702161","680","328.5","true","1","133.8","19.2","2","-1","-1","","","","","","","","","","","","",""
"psychophysics","56","288686","0.0-8.0-0.9","56153d5e7ffc8a000a811ba8","609006691f6f4e337c17f836","609d35a8a36d8cafcab62f78","1034.0500000002212","","","","37","","","","key","16.661314049586537","680","328.5","true","-1","129","19.2","2","-1","-1","","","","","","","","","","","","",""
"psychophysics","57","290160","0.0-8.0-0.10","56153d5e7ffc8a000a811ba8","609006691f6f4e337c17f836","609d35a8a36d8cafcab62f78","468.34999999922","","","","39","","","","key","16.651620689655076","680","328.5","true","-1","129","15.36","3","1","-1","","","","","","","","","","","","",""
"psychophysics","58","291686","0.0-8.0-0.11","56153d5e7ffc8a000a811ba8","609006691f6f4e337c17f836","609d35a8a36d8cafcab62f78","517.7100000000792","","","","39","","","","key","16.659670329669996","680","328.5","true","1","144.36","15.36","3","-1","1","","","","","","","","","","","","",""
"psychophysics","59","292750","0.0-8.0-0.12","56153d5e7ffc8a000a811ba8","609006691f6f4e337c17f836","609d35a8a36d8cafcab62f78","57.675000000046566","","","","37","","","","key","16.64109523809563","680","328.5","true","-1","144.36","12.287999999999998","4","-1","-1","","","","","","","","","","","","",""
"psychophysics","60","294222","0.0-8.0-0.13","56153d5e7ffc8a000a811ba8","609006691f6f4e337c17f836","609d35a8a36d8cafcab62f78","467.47499999945285","","","","37","","","","key","16.659574712643362","680","328.5","true","1","132.072","9.8304","5","1","-1","","","","","","","","","","","","",""
"psychophysics","61","295597","0.0-8.0-0.14","56153d5e7ffc8a000a811ba8","609006691f6f4e337c17f836","609d35a8a36d8cafcab62f78","359.4100000009639","","","","37","","","","key","16.66103658536534","680","328.5","true","-1","141.9024","9.8304","5","-1","1","","","","","","","","","","","","",""
"psychophysics","62","296930","0.0-8.0-0.15","56153d5e7ffc8a000a811ba8","609006691f6f4e337c17f836","609d35a8a36d8cafcab62f78","322.9100000007893","","","","37","","","","key","16.661038461538293","680","328.5","true","-1","141.9024","7.864319999999999","6","-1","-1","","","","","","","","","","","","",""
"psychophysics","63","298165","0.0-8.0-0.16","56153d5e7ffc8a000a811ba8","609006691f6f4e337c17f836","609d35a8a36d8cafcab62f78","228.09500000043772","","","","37","","","","key","16.661621621621904","680","328.5","true","1","134.03808","6.291456","7","1","-1","","","","","","","","","","","","",""
"psychophysics","64","299516","0.0-8.0-0.17","56153d5e7ffc8a000a811ba8","609006691f6f4e337c17f836","609d35a8a36d8cafcab62f78","343.49499999918044","","","","37","","","","key","16.658887500000127","680","328.5","true","-1","140.32953600000002","6.291456","7","-1","1","","","","","","","","","","","","",""
"psychophysics","65","300696","0.0-8.0-0.18","56153d5e7ffc8a000a811ba8","609006691f6f4e337c17f836","609d35a8a36d8cafcab62f78","172.82999999949243","","","","39","","","","key","16.66015714285729","680","328.5","true","1","140.32953600000002","5.033164800000001","8","-1","-1","","","","","","","","","","","","",""
"psychophysics","66","302294","0.0-8.0-0.19","56153d5e7ffc8a000a811ba8","609006691f6f4e337c17f836","609d35a8a36d8cafcab62f78","589.2649999986752","","","","39","","","","key","16.660905263158124","680","328.5","true","-1","135.2963712","4.0265318400000005","9","1","-1","","","","","","","","","","","","",""
"psychophysics","67","303828","0.0-8.0-0.20","56153d5e7ffc8a000a811ba8","609006691f6f4e337c17f836","609d35a8a36d8cafcab62f78","527.2949999999255","","","","39","","","","key","16.66074725274754","680","328.5","true","1","139.32290304","4.0265318400000005","9","-1","1","","","","","","","","","","","","",""
"psychophysics","68","305133","0.0-8.0-0.21","56153d5e7ffc8a000a811ba8","609006691f6f4e337c17f836","609d35a8a36d8cafcab62f78","298.22499999863794","","","","37","","","","key","16.659792207792258","680","328.5","true","-1","139.32290304","3.2212254720000004","10","-1","-1","","","","","","","","","","","","",""
"psychophysics","69","306606","0.0-8.0-0.22","56153d5e7ffc8a000a811ba8","609006691f6f4e337c17f836","609d35a8a36d8cafcab62f78","466.6849999994738","","","","37","","","","key","16.660045977011485","680","328.5","true","-1","136.101677568","3.2212254720000004","10","-1","-1","","","","","","","","","","","","",""
"psychophysics","70","308011","0.0-8.0-0.23","56153d5e7ffc8a000a811ba8","609006691f6f4e337c17f836","609d35a8a36d8cafcab62f78","394.6649999998044","","","","37","","","","key","16.659345238095348","680","328.5","true","-1","136.101677568","3.2212254720000004","10","-1","-1","","","","","","","","","","","","",""
"psychophysics","71","310027","0.0-8.0-0.24","56153d5e7ffc8a000a811ba8","609006691f6f4e337c17f836","609d35a8a36d8cafcab62f78","1006.9700000003795","","","","37","","","","key","16.66191666666661","680","328.5","true","-1","132.880452096","3.2212254720000004","10","-1","-1","","","","","","","","","","","","",""
"psychophysics","72","311547","0.0-8.0-0.25","56153d5e7ffc8a000a811ba8","609006691f6f4e337c17f836","609d35a8a36d8cafcab62f78","509.9399999998859","","","","37","","","","key","16.657911111111105","680","328.5","true","-1","132.880452096","3.2212254720000004","10","-1","-1","","","","","","","","","","","","",""
"psychophysics","73","313124","0.0-8.0-0.26","56153d5e7ffc8a000a811ba8","609006691f6f4e337c17f836","609d35a8a36d8cafcab62f78","554.5750000001281","","","","37","","","","key","16.659659574468414","680","328.5","true","-1","129.65922662399998","3.2212254720000004","10","-1","-1","","","","","","","","","","","","",""
"psychophysics","74","314623","0.0-8.0-0.27","56153d5e7ffc8a000a811ba8","609006691f6f4e337c17f836","609d35a8a36d8cafcab62f78","487.2100000011269","","","","37","","","","key","16.66055681818199","680","328.5","true","1","129.65922662399998","2.5769803776000004","11","1","-1","","","","","","","","","","","","",""
"psychophysics","75","316341","0.0-8.0-0.28","56153d5e7ffc8a000a811ba8","609006691f6f4e337c17f836","609d35a8a36d8cafcab62f78","706.4199999985867","","","","37","","","","key","16.65896116504875","680","328.5","true","1","132.23620700159998","2.5769803776000004","11","1","1","","","","","","","","","","","","",""
"psychophysics","76","317906","0.0-8.0-0.29","56153d5e7ffc8a000a811ba8","609006691f6f4e337c17f836","609d35a8a36d8cafcab62f78","557.4750000014319","","","","37","","","","key","16.659215053763134","680","328.5","true","1","134.81318737919997","2.5769803776000004","11","1","1","","","","","","","","","","","","",""
"psychophysics","77","319573","0.0-8.0-0.30","56153d5e7ffc8a000a811ba8","609006691f6f4e337c17f836","609d35a8a36d8cafcab62f78","660.0049999997136","","","","39","","","","key","16.661132653061497","680","328.5","true","-1","137.39016775679997","2.5769803776000004","11","1","1","","","","","","","","","","","","",""
"psychophysics","78","321065","0.0-8.0-0.31","56153d5e7ffc8a000a811ba8","609006691f6f4e337c17f836","609d35a8a36d8cafcab62f78","488.6850000002887","","","","39","","","","key","16.660707865168703","680","328.5","true","-1","139.96714813439996","2.5769803776000004","11","1","1","","","","","","","","","","","","",""
"psychophysics","79","322490","0.0-8.0-0.32","56153d5e7ffc8a000a811ba8","609006691f6f4e337c17f836","609d35a8a36d8cafcab62f78","419.1050000008545","","","","39","","","","key","16.66164705882342","680","328.5","true","-1","142.54412851199996","2.5769803776000004","11","1","1","","","","","","","","","","","","",""
"psychophysics","80","323945","0.0-8.0-0.33","56153d5e7ffc8a000a811ba8","609006691f6f4e337c17f836","609d35a8a36d8cafcab62f78","445.6350000000093","","","","39","","","","key","16.66080232558171","680","328.5","true","1","145.12110888959995","2.5769803776000004","11","-1","1","","","","","","","","","","","","",""
"psychophysics","81","325280","0.0-8.0-0.34","56153d5e7ffc8a000a811ba8","609006691f6f4e337c17f836","609d35a8a36d8cafcab62f78","331.3550000002142","","","","39","","","","key","16.659974683544014","680","328.5","true","1","145.12110888959995","2.0615843020800004","12","-1","-1","","","","","","","","","","","","",""
"psychophysics","82","326490","0.0-8.0-0.35","56153d5e7ffc8a000a811ba8","609006691f6f4e337c17f836","609d35a8a36d8cafcab62f78","207.02500000153668","","","","37","","","","key","16.661097222222047","680","328.5","true","-1","143.05952458751995","2.0615843020800004","12","-1","-1","","","","","","","","","","","","",""
"psychophysics","83","327857","0.0-8.0-0.36","56153d5e7ffc8a000a811ba8","609006691f6f4e337c17f836","609d35a8a36d8cafcab62f78","357.5000000000582","","","","39","","","","key","16.660679012345852","680","328.5","true","1","143.05952458751995","2.0615843020800004","12","-1","-1","","","","","","","","","","","","",""
"psychophysics","84","329250","0.0-8.0-0.37","56153d5e7ffc8a000a811ba8","609006691f6f4e337c17f836","609d35a8a36d8cafcab62f78","383.3949999989127","","","","37","","","","key","16.65908536585346","680","328.5","true","-1","140.99794028543994","2.0615843020800004","12","-1","-1","","","","","","","","","","","","",""
"psychophysics","85","330651","0.0-8.0-0.38","56153d5e7ffc8a000a811ba8","609006691f6f4e337c17f836","609d35a8a36d8cafcab62f78","388.0800000006566","","","","39","","","","key","16.65866265060234","680","328.5","true","1","140.99794028543994","2.0615843020800004","12","-1","-1","","","","","","","","","","","","",""
"psychophysics","86","331682","0.0-8.0-0.39","56153d5e7ffc8a000a811ba8","609006691f6f4e337c17f836","609d35a8a36d8cafcab62f78","16.030000000668224","","","","39","","","","key","16.649163934426024","680","328.5","true","1","138.93635598335993","2.0615843020800004","12","-1","-1","","","","","","","","","","","","",""
"html-keyboard-response","87","343561","0.0-9.0","56153d5e7ffc8a000a811ba8","609006691f6f4e337c17f836","609d35a8a36d8cafcab62f78","11873.274999999907","<p>Well Done !</p><p>Prepare for a new block.</p><p>DON'T EXIT THE FULL SCREEN MODE</p><p>Press the Spacebar to start.</p>","","","32","","","","","","","","","","","","","","","true","138.42954984243198","","","","","","","","","","",""
"psychophysics","88","344743","0.0-10.0-0.0","56153d5e7ffc8a000a811ba8","609006691f6f4e337c17f836","609d35a8a36d8cafcab62f78","176.8700000011595","","","","39","","","","key","16.864857142856845","680","328.5","true","1","180","30","0","-1","","","","","","","","","","","","","",""
"psychophysics","89","345974","0.0-10.0-0.1","56153d5e7ffc8a000a811ba8","609006691f6f4e337c17f836","609d35a8a36d8cafcab62f78","212.9899999999907","","","","39","","","","key","16.659931506849155","680","328.5","true","1","180","30","0","-1","-1","","","","","","","","","","","","",""
"psychophysics","90","347287","0.0-10.0-0.2","56153d5e7ffc8a000a811ba8","609006691f6f4e337c17f836","609d35a8a36d8cafcab62f78","308.5950000004377","","","","37","","","","key","16.66191025640971","680","328.5","true","-1","150","30","0","-1","-1","","","","","","","","","","","","",""
"psychophysics","91","348654","0.0-10.0-0.3","56153d5e7ffc8a000a811ba8","609006691f6f4e337c17f836","609d35a8a36d8cafcab62f78","359.3049999999348","","","","39","","","","key","16.6599629629629","680","328.5","true","1","150","30","0","-1","-1","","","","","","","","","","","","",""
"psychophysics","92","350006","0.0-10.0-0.4","56153d5e7ffc8a000a811ba8","609006691f6f4e337c17f836","609d35a8a36d8cafcab62f78","344.64500000106636","","","","37","","","","key","16.661537500000122","680","328.5","true","1","129","24","1","1","-1","","","","","","","","","","","","",""
"psychophysics","93","351382","0.0-10.0-0.5","56153d5e7ffc8a000a811ba8","609006691f6f4e337c17f836","609d35a8a36d8cafcab62f78","372.2849999995087","","","","37","","","","key","16.656060975610007","680","328.5","true","-1","153","24","1","-1","1","","","","","","","","","","","","",""
"psychophysics","94","352799","0.0-10.0-0.6","56153d5e7ffc8a000a811ba8","609006691f6f4e337c17f836","609d35a8a36d8cafcab62f78","407.96500000031665","","","","39","","","","key","16.66117857142845","680","328.5","true","1","153","19.2","2","-1","-1","","","","","","","","","","","","",""
"psychophysics","95","354200","0.0-10.0-0.7","56153d5e7ffc8a000a811ba8","609006691f6f4e337c17f836","609d35a8a36d8cafcab62f78","397.4899999994086","","","","39","","","","key","16.65949397590376","680","328.5","true","1","133.8","19.2","2","-1","-1","","","","","","","","","","","","",""
"psychophysics","96","356022","0.0-10.0-0.8","56153d5e7ffc8a000a811ba8","609006691f6f4e337c17f836","609d35a8a36d8cafcab62f78","812.1000000010245","","","","39","","","","key","16.661000000000328","680","328.5","true","-1","133.8","15.36","3","1","-1","","","","","","","","","","","","",""
"psychophysics","97","357486","0.0-10.0-0.9","56153d5e7ffc8a000a811ba8","609006691f6f4e337c17f836","609d35a8a36d8cafcab62f78","459.9650000000256","","","","37","","","","key","16.659310344827425","680","328.5","true","-1","149.16000000000003","15.36","3","-1","1","","","","","","","","","","","","",""
"psychophysics","98","358831","0.0-10.0-0.10","56153d5e7ffc8a000a811ba8","609006691f6f4e337c17f836","609d35a8a36d8cafcab62f78","340.09999999945285","","","","39","","","","key","16.65280000000057","680","328.5","true","1","149.16000000000003","12.287999999999998","4","-1","-1","","","","","","","","","","","","",""
"psychophysics","99","360663","0.0-10.0-0.11","56153d5e7ffc8a000a811ba8","609006691f6f4e337c17f836","609d35a8a36d8cafcab62f78","821.2850000000326","","","","37","","","","key","16.66138532110052","680","328.5","true","-1","136.872","12.287999999999998","4","-1","-1","","","","","","","","","","","","",""
"psychophysics","100","362637","0.0-10.0-0.12","56153d5e7ffc8a000a811ba8","609006691f6f4e337c17f836","609d35a8a36d8cafcab62f78","966.3249999994296","","","","37","","","","key","16.661717948718216","680","328.5","true","1","136.872","9.8304","5","1","-1","","","","","","","","","","","","",""
"psychophysics","101","364197","0.0-10.0-0.13","56153d5e7ffc8a000a811ba8","609006691f6f4e337c17f836","609d35a8a36d8cafcab62f78","557.134999999078","","","","37","","","","key","16.660483870967617","680","328.5","true","-1","146.7024","9.8304","5","-1","1","","","","","","","","","","","","",""
"psychophysics","102","365812","0.0-10.0-0.14","56153d5e7ffc8a000a811ba8","609006691f6f4e337c17f836","609d35a8a36d8cafcab62f78","606.0350000007311","","","","37","","","","key","16.661208333333587","680","328.5","true","-1","146.7024","7.864319999999999","6","-1","-1","","","","","","","","","","","","",""
"psychophysics","103","367180","0.0-10.0-0.15","56153d5e7ffc8a000a811ba8","609006691f6f4e337c17f836","609d35a8a36d8cafcab62f78","357.30499999952735","","","","37","","","","key","16.660913580246728","680","328.5","true","-1","138.83808000000002","7.864319999999999","6","-1","-1","","","","","","","","","","","","",""
"psychophysics","104","369019","0.0-10.0-0.16","56153d5e7ffc8a000a811ba8","609006691f6f4e337c17f836","609d35a8a36d8cafcab62f78","829.5099999996019","","","","37","","","","key","16.66037614678872","680","328.5","true","1","138.83808000000002","6.291456","7","1","-1","","","","","","","","","","","","",""
"psychophysics","105","370499","0.0-10.0-0.17","56153d5e7ffc8a000a811ba8","609006691f6f4e337c17f836","609d35a8a36d8cafcab62f78","477.44499999861","","","","37","","","","key","16.659999999999524","680","328.5","true","-1","145.12953600000003","6.291456","7","-1","1","","","","","","","","","","","","",""
"psychophysics","106","371928","0.0-10.0-0.18","56153d5e7ffc8a000a811ba8","609006691f6f4e337c17f836","609d35a8a36d8cafcab62f78","421.7900000003283","","","","37","","","","key","16.661809523809573","680","328.5","true","-1","145.12953600000003","5.033164800000001","8","-1","-1","","","","","","","","","","","","",""
"psychophysics","107","373531","0.0-10.0-0.19","56153d5e7ffc8a000a811ba8","609006691f6f4e337c17f836","609d35a8a36d8cafcab62f78","596.864999999525","","","","39","","","","key","16.66172916666619","680","328.5","true","1","140.09637120000002","5.033164800000001","8","-1","-1","","","","","","","","","","","","",""
"psychophysics","108","374804","0.0-10.0-0.20","56153d5e7ffc8a000a811ba8","609006691f6f4e337c17f836","609d35a8a36d8cafcab62f78","265.84499999985565","","","","37","","","","key","16.658893333332767","680","328.5","true","-1","140.09637120000002","5.033164800000001","8","-1","-1","","","","","","","","","","","","",""
"psychophysics","109","376748","0.0-10.0-0.21","56153d5e7ffc8a000a811ba8","609006691f6f4e337c17f836","609d35a8a36d8cafcab62f78","927.5049999996554","","","","39","","","","key","16.658715517241568","680","328.5","true","1","135.0632064","5.033164800000001","8","-1","-1","","","","","","","","","","","","",""
"psychophysics","110","378356","0.0-10.0-0.22","56153d5e7ffc8a000a811ba8","609006691f6f4e337c17f836","609d35a8a36d8cafcab62f78","605.0599999998813","","","","39","","","","key","16.654063157894722","680","328.5","true","1","135.0632064","5.033164800000001","8","-1","-1","","","","","","","","","","","","",""
"psychophysics","111","379834","0.0-10.0-0.23","56153d5e7ffc8a000a811ba8","609006691f6f4e337c17f836","609d35a8a36d8cafcab62f78","475.21999999845866","","","","39","","","","key","16.661556818181865","680","328.5","true","-1","130.0300416","4.0265318400000005","9","1","-1","","","","","","","","","","","","",""
"psychophysics","112","381373","0.0-10.0-0.24","56153d5e7ffc8a000a811ba8","609006691f6f4e337c17f836","609d35a8a36d8cafcab62f78","519.5500000009197","","","","39","","","","key","16.661329670330115","680","328.5","true","-1","134.05657344","4.0265318400000005","9","1","1","","","","","","","","","","","","",""
"psychophysics","113","382891","0.0-10.0-0.25","56153d5e7ffc8a000a811ba8","609006691f6f4e337c17f836","609d35a8a36d8cafcab62f78","511.5200000000186","","","","39","","","","key","16.84693333333384","680","328.5","true","-1","138.08310527999998","4.0265318400000005","9","1","1","","","","","","","","","","","","",""
"psychophysics","114","384226","0.0-10.0-0.26","56153d5e7ffc8a000a811ba8","609006691f6f4e337c17f836","609d35a8a36d8cafcab62f78","326.9049999999115","","","","37","","","","key","16.659645569619805","680","328.5","true","-1","142.10963711999997","4.0265318400000005","9","-1","1","","","","","","","","","","","","",""
"psychophysics","115","385930","0.0-10.0-0.27","56153d5e7ffc8a000a811ba8","609006691f6f4e337c17f836","609d35a8a36d8cafcab62f78","695.5249999992084","","","","37","","","","key","16.66139603960374","680","328.5","true","1","142.10963711999997","3.2212254720000004","10","1","-1","","","","","","","","","","","","",""
"psychophysics","116","387267","0.0-10.0-0.28","56153d5e7ffc8a000a811ba8","609006691f6f4e337c17f836","609d35a8a36d8cafcab62f78","331.31499999947846","","","","39","","","","key","16.65764556961986","680","328.5","true","1","145.33086259199996","3.2212254720000004","10","-1","1","","","","","","","","","","","","",""
"psychophysics","117","388609","0.0-10.0-0.29","56153d5e7ffc8a000a811ba8","609006691f6f4e337c17f836","609d35a8a36d8cafcab62f78","325.66000000044005","","","","39","","","","key","16.66102499999979","680","328.5","true","1","145.33086259199996","2.5769803776000004","11","-1","-1","","","","","","","","","","","","",""
"psychophysics","118","390264","0.0-10.0-0.30","56153d5e7ffc8a000a811ba8","609006691f6f4e337c17f836","609d35a8a36d8cafcab62f78","647.6700000002747","","","","39","","","","key","16.660122448979397","680","328.5","true","1","142.75388221439997","2.5769803776000004","11","-1","-1","","","","","","","","","","","","",""
"psychophysics","119","391945","0.0-10.0-0.31","56153d5e7ffc8a000a811ba8","609006691f6f4e337c17f836","609d35a8a36d8cafcab62f78","673.5250000001397","","","","39","","","","key","16.662050000000164","680","328.5","true","1","142.75388221439997","2.5769803776000004","11","-1","-1","","","","","","","","","","","","",""
"psychophysics","120","393233","0.0-10.0-0.32","56153d5e7ffc8a000a811ba8","609006691f6f4e337c17f836","609d35a8a36d8cafcab62f78","283.40500000014435","","","","37","","","","key","16.660552631579584","680","328.5","true","-1","140.17690183679997","2.5769803776000004","11","-1","-1","","","","","","","","","","","","",""
"psychophysics","121","394304","0.0-10.0-0.33","56153d5e7ffc8a000a811ba8","609006691f6f4e337c17f836","609d35a8a36d8cafcab62f78","60.05999999982305","","","","37","","","","key","16.65784375000021","680","328.5","true","-1","140.17690183679997","2.5769803776000004","11","-1","-1","","","","","","","","","","","","",""
"psychophysics","122","396001","0.0-10.0-0.34","56153d5e7ffc8a000a811ba8","609006691f6f4e337c17f836","609d35a8a36d8cafcab62f78","684.2799999995041","","","","37","","","","key","16.661699999999836","680","328.5","true","1","137.59992145919998","2.0615843020800004","12","1","-1","","","","","","","","","","","","",""
"psychophysics","123","397224","0.0-10.0-0.35","56153d5e7ffc8a000a811ba8","609006691f6f4e337c17f836","609d35a8a36d8cafcab62f78","215.15499999985332","","","","37","","","","key","16.663452054794927","680","328.5","true","-1","139.66150576127998","2.0615843020800004","12","-1","1","","","","","","","","","","","","",""
"psychophysics","124","398913","0.0-10.0-0.36","56153d5e7ffc8a000a811ba8","609006691f6f4e337c17f836","609d35a8a36d8cafcab62f78","681.6899999994785","","","","39","","","","key","16.66021999999997","680","328.5","true","1","139.66150576127998","1.6492674416640005","13","-1","-1","","","","","","","","","","","","",""
"psychophysics","125","400774","0.0-10.0-0.37","56153d5e7ffc8a000a811ba8","609006691f6f4e337c17f836","609d35a8a36d8cafcab62f78","838.0300000007846","","","","37","","","","key","16.660810810811125","680","328.5","true","-1","138.012238319616","1.6492674416640005","13","-1","-1","","","","","","","","","","","","",""
"psychophysics","126","402311","0.0-10.0-0.38","56153d5e7ffc8a000a811ba8","609006691f6f4e337c17f836","609d35a8a36d8cafcab62f78","530.6049999999232","","","","39","","","","key","16.661087912087748","680","328.5","true","1","138.012238319616","1.6492674416640005","13","-1","-1","","","","","","","","","","","","",""
"psychophysics","127","403806","0.0-10.0-0.39","56153d5e7ffc8a000a811ba8","609006691f6f4e337c17f836","609d35a8a36d8cafcab62f78","492.33999999886146","","","","39","","","","key","16.659348314607076","680","328.5","true","-1","136.362970877952","1.3194139533312006","14","1","-1","","","","","","","","","","","","",""
"html-keyboard-response","128","415712","0.0-11.0","56153d5e7ffc8a000a811ba8","609006691f6f4e337c17f836","609d35a8a36d8cafcab62f78","11903.369999999995","<p>Well Done !</p><p>Prepare for a new block.</p><p>DON'T EXIT THE FULL SCREEN MODE</p><p>Press the Spacebar to start.</p>","","","32","","","","","","","","","","","","","","","true","140.54240355368958","","","","","","","","","","",""
"psychophysics","129","416718","0.0-12.0-0.0","56153d5e7ffc8a000a811ba8","609006691f6f4e337c17f836","609d35a8a36d8cafcab62f78","0.5750000000116415","","","","39","","","","key","16.662796610169178","680","328.5","true","1","180","30","0","-1","","","","","","","","","","","","","",""
"psychophysics","130","419101","0.0-12.0-0.1","56153d5e7ffc8a000a811ba8","609006691f6f4e337c17f836","609d35a8a36d8cafcab62f78","1380.660000000731","","","","39","","","","key","16.660908450704138","680","328.5","true","1","180","30","0","-1","-1","","","","","","","","","","","","",""
"psychophysics","131","420310","0.0-12.0-0.2","56153d5e7ffc8a000a811ba8","609006691f6f4e337c17f836","609d35a8a36d8cafcab62f78","206.0700000001816","","","","37","","","","key","16.659014084507568","680","328.5","true","-1","150","30","0","-1","-1","","","","","","","","","","","","",""
"psychophysics","132","421405","0.0-12.0-0.3","56153d5e7ffc8a000a811ba8","609006691f6f4e337c17f836","609d35a8a36d8cafcab62f78","90.445000001695","","","","37","","","","key","16.649692307692916","680","328.5","true","-1","150","30","0","-1","-1","","","","","","","","","","","","",""
"psychophysics","133","422942","0.0-12.0-0.4","56153d5e7ffc8a000a811ba8","609006691f6f4e337c17f836","609d35a8a36d8cafcab62f78","534.6250000002328","","","","37","","","","key","16.660219780219318","680","328.5","true","1","129","24","1","1","-1","","","","","","","","","","","","",""
"psychophysics","134","424199","0.0-12.0-0.5","56153d5e7ffc8a000a811ba8","609006691f6f4e337c17f836","609d35a8a36d8cafcab62f78","253.7600000014063","","","","37","","","","key","16.659906666666114","680","328.5","true","-1","153","24","1","-1","1","","","","","","","","","","","","",""
"psychophysics","135","425348","0.0-12.0-0.6","56153d5e7ffc8a000a811ba8","609006691f6f4e337c17f836","609d35a8a36d8cafcab62f78","146.07000000070548","","","","39","","","","key","16.656808823529417","680","328.5","true","1","153","19.2","2","-1","-1","","","","","","","","","","","","",""
"psychophysics","136","426533","0.0-12.0-0.7","56153d5e7ffc8a000a811ba8","609006691f6f4e337c17f836","609d35a8a36d8cafcab62f78","181.45999999984633","","","","39","","","","key","16.656714285713885","680","328.5","true","-1","133.8","15.36","3","1","-1","","","","","","","","","","","","",""
"psychophysics","137","427788","0.0-12.0-0.8","56153d5e7ffc8a000a811ba8","609006691f6f4e337c17f836","609d35a8a36d8cafcab62f78","251.13500000041677","","","","39","","","","key","16.65691891891844","680","328.5","true","1","149.16000000000003","15.36","3","-1","1","","","","","","","","","","","","",""
"psychophysics","138","429019","0.0-12.0-0.9","56153d5e7ffc8a000a811ba8","609006691f6f4e337c17f836","609d35a8a36d8cafcab62f78","226.89999999967404","","","","37","","","","key","16.656273972602683","680","328.5","true","-1","149.16000000000003","12.287999999999998","4","-1","-1","","","","","","","","","","","","",""
"psychophysics","139","430230","0.0-12.0-0.10","56153d5e7ffc8a000a811ba8","609006691f6f4e337c17f836","609d35a8a36d8cafcab62f78","206.46000000124332","","","","39","","","","key","16.65995833333323","680","328.5","true","1","136.872","12.287999999999998","4","-1","-1","","","","","","","","","","","","",""
"psychophysics","140","431708","0.0-12.0-0.11","56153d5e7ffc8a000a811ba8","609006691f6f4e337c17f836","609d35a8a36d8cafcab62f78","475.5750000004191","","","","39","","","","key","16.656977011494327","680","328.5","true","1","136.872","12.287999999999998","4","-1","-1","","","","","","","","","","","","",""
"psychophysics","141","433067","0.0-12.0-0.12","56153d5e7ffc8a000a811ba8","609006691f6f4e337c17f836","609d35a8a36d8cafcab62f78","354.7799999996787","","","","39","","","","key","16.660358024691376","680","328.5","true","-1","129","9.8304","5","1","-1","","","","","","","","","","","","",""
"psychophysics","142","434478","0.0-12.0-0.13","56153d5e7ffc8a000a811ba8","609006691f6f4e337c17f836","609d35a8a36d8cafcab62f78","407.8799999988405","","","","39","","","","key","16.65933333333357","680","328.5","true","-1","138.8304","9.8304","5","1","1","","","","","","","","","","","","",""
"psychophysics","143","435763","0.0-12.0-0.14","56153d5e7ffc8a000a811ba8","609006691f6f4e337c17f836","609d35a8a36d8cafcab62f78","280.01000000041677","","","","37","","","","key","16.658013157895","680","328.5","true","-1","148.6608","9.8304","5","-1","1","","","","","","","","","","","","",""
"psychophysics","144","437128","0.0-12.0-0.15","56153d5e7ffc8a000a811ba8","609006691f6f4e337c17f836","609d35a8a36d8cafcab62f78","361.0850000004284","","","","37","","","","key","16.65980246913602","680","328.5","true","-1","148.6608","7.864319999999999","6","-1","-1","","","","","","","","","","","","",""
"psychophysics","145","438547","0.0-12.0-0.16","56153d5e7ffc8a000a811ba8","609006691f6f4e337c17f836","609d35a8a36d8cafcab62f78","414.99000000109663","","","","39","","","","key","16.657797619047674","680","328.5","true","1","140.79648","7.864319999999999","6","-1","-1","","","","","","","","","","","","",""
"psychophysics","146","439931","0.0-12.0-0.17","56153d5e7ffc8a000a811ba8","609006691f6f4e337c17f836","609d35a8a36d8cafcab62f78","381.9650000004913","","","","39","","","","key","16.6571463414634","680","328.5","true","1","140.79648","7.864319999999999","6","-1","-1","","","","","","","","","","","","",""
"psychophysics","147","441498","0.0-12.0-0.18","56153d5e7ffc8a000a811ba8","609006691f6f4e337c17f836","609d35a8a36d8cafcab62f78","563.9749999991036","","","","39","","","","key","16.65881720430065","680","328.5","true","1","132.93216","7.864319999999999","6","-1","-1","","","","","","","","","","","","",""
"psychophysics","148","442970","0.0-12.0-0.19","56153d5e7ffc8a000a811ba8","609006691f6f4e337c17f836","609d35a8a36d8cafcab62f78","468.65500000061","","","","39","","","","key","16.658977011493647","680","328.5","true","1","132.93216","7.864319999999999","6","-1","-1","","","","","","","","","","","","",""
"psychophysics","149","444525","0.0-12.0-0.20","56153d5e7ffc8a000a811ba8","609006691f6f4e337c17f836","609d35a8a36d8cafcab62f78","553.2949999996927","","","","39","","","","key","16.660698924731257","680","328.5","true","1","129","7.864319999999999","6","-1","-1","","","","","","","","","","","","",""
"psychophysics","150","445962","0.0-12.0-0.21","56153d5e7ffc8a000a811ba8","609006691f6f4e337c17f836","609d35a8a36d8cafcab62f78","431.6149999994668","","","","39","","","","key","16.658411764705498","680","328.5","true","1","129","7.864319999999999","6","-1","-1","","","","","","","","","","","","",""
"psychophysics","151","447410","0.0-12.0-0.22","56153d5e7ffc8a000a811ba8","609006691f6f4e337c17f836","609d35a8a36d8cafcab62f78","445.454999999085","","","","37","","","","key","16.657755813953266","680","328.5","true","1","129","6.291456","7","1","-1","","","","","","","","","","","","",""
"psychophysics","152","448897","0.0-12.0-0.23","56153d5e7ffc8a000a811ba8","609006691f6f4e337c17f836","609d35a8a36d8cafcab62f78","483.210000000312","","","","39","","","","key","16.6586249999997","680","328.5","true","-1","135.291456","6.291456","7","1","1","","","","","","","","","","","","",""
"psychophysics","153","450233","0.0-12.0-0.24","56153d5e7ffc8a000a811ba8","609006691f6f4e337c17f836","609d35a8a36d8cafcab62f78","332.33000000112224","","","","39","","","","key","16.657721518987607","680","328.5","true","1","141.58291200000002","6.291456","7","-1","1","","","","","","","","","","","","",""
"psychophysics","154","451609","0.0-12.0-0.25","56153d5e7ffc8a000a811ba8","609006691f6f4e337c17f836","609d35a8a36d8cafcab62f78","369.5799999986775","","","","39","","","","key","16.658951219512012","680","328.5","true","1","141.58291200000002","5.033164800000001","8","-1","-1","","","","","","","","","","","","",""
"psychophysics","155","452728","0.0-12.0-0.26","56153d5e7ffc8a000a811ba8","609006691f6f4e337c17f836","609d35a8a36d8cafcab62f78","111.14999999880092","","","","37","","","","key","16.659621212120825","680","328.5","true","-1","136.5497472","5.033164800000001","8","-1","-1","","","","","","","","","","","","",""
"psychophysics","156","454456","0.0-12.0-0.27","56153d5e7ffc8a000a811ba8","609006691f6f4e337c17f836","609d35a8a36d8cafcab62f78","722.0650000017486","","","","37","","","","key","16.649689320387836","680","328.5","true","1","136.5497472","4.0265318400000005","9","1","-1","","","","","","","","","","","","",""
"psychophysics","157","455896","0.0-12.0-0.28","56153d5e7ffc8a000a811ba8","609006691f6f4e337c17f836","609d35a8a36d8cafcab62f78","428.9050000006682","","","","39","","","","key","16.66156470588244","680","328.5","true","1","140.57627904","4.0265318400000005","9","-1","1","","","","","","","","","","","","",""
"psychophysics","158","456987","0.0-12.0-0.29","56153d5e7ffc8a000a811ba8","609006691f6f4e337c17f836","609d35a8a36d8cafcab62f78","86.07999999914318","","","","37","","","","key","16.66390769230739","680","328.5","true","-1","140.57627904","3.2212254720000004","10","-1","-1","","","","","","","","","","","","",""
"psychophysics","159","458402","0.0-12.0-0.30","56153d5e7ffc8a000a811ba8","609006691f6f4e337c17f836","609d35a8a36d8cafcab62f78","407.6399999994319","","","","37","","","","key","16.661012048192788","680","328.5","true","-1","137.35505356800002","3.2212254720000004","10","-1","-1","","","","","","","","","","","","",""
"psychophysics","160","459712","0.0-12.0-0.31","56153d5e7ffc8a000a811ba8","609006691f6f4e337c17f836","609d35a8a36d8cafcab62f78","296.2449999995879","","","","37","","","","key","16.651807692307884","680","328.5","true","-1","137.35505356800002","3.2212254720000004","10","-1","-1","","","","","","","","","","","","",""
"psychophysics","161","461230","0.0-12.0-0.32","56153d5e7ffc8a000a811ba8","609006691f6f4e337c17f836","609d35a8a36d8cafcab62f78","514.4499999987311","","","","37","","","","key","16.657088888888634","680","328.5","true","-1","134.133828096","3.2212254720000004","10","-1","-1","","","","","","","","","","","","",""
"psychophysics","162","462640","0.0-12.0-0.33","56153d5e7ffc8a000a811ba8","609006691f6f4e337c17f836","609d35a8a36d8cafcab62f78","403.46499999944353","","","","39","","","","key","16.66226190476196","680","328.5","true","1","134.133828096","3.2212254720000004","10","-1","-1","","","","","","","","","","","","",""
"psychophysics","163","464062","0.0-12.0-0.34","56153d5e7ffc8a000a811ba8","609006691f6f4e337c17f836","609d35a8a36d8cafcab62f78","414.68499999970663","","","","39","","","","key","16.658976190476096","680","328.5","true","-1","130.912602624","2.5769803776000004","11","1","-1","","","","","","","","","","","","",""
"psychophysics","164","465543","0.0-12.0-0.35","56153d5e7ffc8a000a811ba8","609006691f6f4e337c17f836","609d35a8a36d8cafcab62f78","475.84999999887077","","","","39","","","","key","16.662556818181738","680","328.5","true","-1","133.48958300159998","2.5769803776000004","11","1","1","","","","","","","","","","","","",""
"psychophysics","165","466833","0.0-12.0-0.36","56153d5e7ffc8a000a811ba8","609006691f6f4e337c17f836","609d35a8a36d8cafcab62f78","285.09499999927357","","","","37","","","","key","16.660592105262605","680","328.5","true","-1","136.06656337919998","2.5769803776000004","11","-1","1","","","","","","","","","","","","",""
"psychophysics","166","468358","0.0-12.0-0.37","56153d5e7ffc8a000a811ba8","609006691f6f4e337c17f836","609d35a8a36d8cafcab62f78","511.16999999975087","","","","37","","","","key","16.654736263736325","680","328.5","true","-1","136.06656337919998","2.0615843020800004","12","-1","-1","","","","","","","","","","","","",""
"psychophysics","167","469791","0.0-12.0-0.38","56153d5e7ffc8a000a811ba8","609006691f6f4e337c17f836","609d35a8a36d8cafcab62f78","428.3200000008801","","","","37","","","","key","16.661399999999798","680","328.5","true","-1","134.00497907711997","2.0615843020800004","12","-1","-1","","","","","","","","","","","","",""
"psychophysics","168","471318","0.0-12.0-0.39","56153d5e7ffc8a000a811ba8","609006691f6f4e337c17f836","609d35a8a36d8cafcab62f78","520.8299999994342","","","","37","","","","key","16.659659340659125","680","328.5","true","1","134.00497907711997","1.6492674416640005","13","1","-1","","","","","","","","","","","","",""
"html-keyboard-response","169","480311","0.0-13.0","56153d5e7ffc8a000a811ba8","609006691f6f4e337c17f836","609d35a8a36d8cafcab62f78","8991.024999999325","<p>Well Done !</p><p>Prepare for a new block.</p><p>DON'T EXIT THE FULL SCREEN MODE</p><p>Press the Spacebar to start.</p>","","","32","","","","","","","","","","","","","","","true","136.22386655641603","","","","","","","","","","",""
"html-keyboard-response","170","480422","0.0-14.0","56153d5e7ffc8a000a811ba8","609006691f6f4e337c17f836","609d35a8a36d8cafcab62f78","null","","","","null","","","","","","","","","","","","","","","","","138.3149938630656","true","148.62998772613122","","","","","","","",""
"instructions","171","522834","0.0-15.0","56153d5e7ffc8a000a811ba8","609006691f6f4e337c17f836","609d35a8a36d8cafcab62f78","42410.99000000034","","","","","","","[{""page_index"":0,""viewing_time"":34738.42499999958},{""page_index"":1,""viewing_time"":3327.255000000121},{""page_index"":2,""viewing_time"":4344.269999999611}]","","","","","","","","","","","","","","","","","","","","","","","",""
"psychophysics","172","525854","0.0-16.0-0.0","56153d5e7ffc8a000a811ba8","609006691f6f4e337c17f836","609d35a8a36d8cafcab62f78","null","","","","null","","","","key","16.6586721311476","680","328.5","","","","","","","","","","","","","","","","","","","",""
"psychophysics","173","526364","0.0-16.0-1.0","56153d5e7ffc8a000a811ba8","609006691f6f4e337c17f836","609d35a8a36d8cafcab62f78","null","","","","null","","","","key","16.658689655174886","680","328.5","","","","","","","","","","","","","149","1","0","false","","","",""
"psychophysics","174","527952","0.0-16.0-2.0","56153d5e7ffc8a000a811ba8","609006691f6f4e337c17f836","609d35a8a36d8cafcab62f78","1576.5799999990268","","","","90","","","","key","16.665755319148996","680","328.5","","","","","","","","","","","","","","","","","","","",""
"psychophysics","175","528963","0.0-16.0-0.1","56153d5e7ffc8a000a811ba8","609006691f6f4e337c17f836","609d35a8a36d8cafcab62f78","null","","","","null","","","","key","16.66159999999994","680","328.5","","","","","","","","","","","","","","","","","","","",""
"psychophysics","176","529468","0.0-16.0-1.1","56153d5e7ffc8a000a811ba8","609006691f6f4e337c17f836","609d35a8a36d8cafcab62f78","null","","","","null","","","","key","16.66296666666943","680","328.5","","","","","","","","","","","","","149","1","3","false","","","",""
"psychophysics","177","530271","0.0-16.0-2.1","56153d5e7ffc8a000a811ba8","609006691f6f4e337c17f836","609d35a8a36d8cafcab62f78","798.7049999992596","","","","90","","","","key","16.66063829787333","680","328.5","","","","","","","","","","","","","","","","","","","",""
"psychophysics","178","531281","0.0-16.0-0.2","56153d5e7ffc8a000a811ba8","609006691f6f4e337c17f836","609d35a8a36d8cafcab62f78","null","","","","null","","","","key","16.66203389830603","680","328.5","","","","","","","","","","","","","","","","","","","",""
"psychophysics","179","531792","0.0-16.0-1.2","56153d5e7ffc8a000a811ba8","609006691f6f4e337c17f836","609d35a8a36d8cafcab62f78","null","","","","null","","","","key","16.661833333332712","680","328.5","","","","","","","","","","","","","149","1","5","false","","","",""
"psychophysics","180","532053","0.0-16.0-2.2","56153d5e7ffc8a000a811ba8","609006691f6f4e337c17f836","609d35a8a36d8cafcab62f78","255.57999999902677","","","","77","","","","key","16.647199999998943","680","328.5","","","","","","","","","","","","","","","","","","","",""
"psychophysics","181","533056","0.0-16.0-0.3","56153d5e7ffc8a000a811ba8","609006691f6f4e337c17f836","609d35a8a36d8cafcab62f78","null","","","","null","","","","key","16.662271186439085","680","328.5","","","","","","","","","","","","","","","","","","","",""
"psychophysics","182","533563","0.0-16.0-1.3","56153d5e7ffc8a000a811ba8","609006691f6f4e337c17f836","609d35a8a36d8cafcab62f78","null","","","","null","","","","key","16.658241379311598","680","328.5","","","","","","","","","","","","","149","-1","2","false","","","",""
"psychophysics","183","534070","0.0-16.0-2.3","56153d5e7ffc8a000a811ba8","609006691f6f4e337c17f836","609d35a8a36d8cafcab62f78","500.14999999979045","","","","90","","","","key","16.6604666666671","680","328.5","","","","","","","","","","","","","","","","","","","",""
"psychophysics","184","535080","0.0-16.0-0.4","56153d5e7ffc8a000a811ba8","609006691f6f4e337c17f836","609d35a8a36d8cafcab62f78","null","","","","null","","","","key","16.660830508475588","680","328.5","","","","","","","","","","","","","","","","","","","",""
"psychophysics","185","535595","0.0-16.0-1.4","56153d5e7ffc8a000a811ba8","609006691f6f4e337c17f836","609d35a8a36d8cafcab62f78","null","","","","null","","","","key","16.663066666666417","680","328.5","","","","","","","","","","","","","149","-1","4","false","","","",""
"psychophysics","186","536021","0.0-16.0-2.4","56153d5e7ffc8a000a811ba8","609006691f6f4e337c17f836","609d35a8a36d8cafcab62f78","417.39000000047963","","","","77","","","","key","16.66280000000261","680","328.5","","","","","","","","","","","","","","","","","","","",""
"psychophysics","187","537028","0.0-16.0-0.5","56153d5e7ffc8a000a811ba8","609006691f6f4e337c17f836","609d35a8a36d8cafcab62f78","null","","","","null","","","","key","16.661355932203705","680","328.5","","","","","","","","","","","","","","","","","","","",""
"psychophysics","188","537541","0.0-16.0-1.5","56153d5e7ffc8a000a811ba8","609006691f6f4e337c17f836","609d35a8a36d8cafcab62f78","null","","","","null","","","","key","16.665500000002794","680","328.5","","","","","","","","","","","","","149","1","2","false","","","",""
"psychophysics","189","537925","0.0-16.0-2.5","56153d5e7ffc8a000a811ba8","609006691f6f4e337c17f836","609d35a8a36d8cafcab62f78","380.98500000161584","","","","90","","","","key","16.658545454546005","680","328.5","","","","","","","","","","","","","","","","","","","",""
"psychophysics","190","538933","0.0-16.0-0.6","56153d5e7ffc8a000a811ba8","609006691f6f4e337c17f836","609d35a8a36d8cafcab62f78","null","","","","null","","","","key","16.661699999998866","680","328.5","","","","","","","","","","","","","","","","","","","",""
"psychophysics","191","539444","0.0-16.0-1.6","56153d5e7ffc8a000a811ba8","609006691f6f4e337c17f836","609d35a8a36d8cafcab62f78","null","","","","null","","","","key","16.661827586209885","680","328.5","","","","","","","","","","","","","149","-1","3","false","","","",""
"psychophysics","192","539848","0.0-16.0-2.6","56153d5e7ffc8a000a811ba8","609006691f6f4e337c17f836","609d35a8a36d8cafcab62f78","377.44000000029337","","","","90","","","","key","16.660130434780907","680","328.5","","","","","","","","","","","","","","","","","","","",""
"psychophysics","193","540861","0.0-16.0-0.7","56153d5e7ffc8a000a811ba8","609006691f6f4e337c17f836","609d35a8a36d8cafcab62f78","null","","","","null","","","","key","16.660550000000512","680","328.5","","","","","","","","","","","","","","","","","","","",""
"psychophysics","194","541377","0.0-16.0-1.7","56153d5e7ffc8a000a811ba8","609006691f6f4e337c17f836","609d35a8a36d8cafcab62f78","null","","","","null","","","","key","16.66159999999994","680","328.5","","","","","","","","","","","","","149","-1","0","false","","","",""
"psychophysics","195","541584","0.0-16.0-2.7","56153d5e7ffc8a000a811ba8","609006691f6f4e337c17f836","609d35a8a36d8cafcab62f78","197.82500000100117","","","","90","","","","key","16.65966666667373","680","328.5","","","","","","","","","","","","","","","","","","","",""
"psychophysics","196","542589","0.0-16.0-0.8","56153d5e7ffc8a000a811ba8","609006691f6f4e337c17f836","609d35a8a36d8cafcab62f78","null","","","","null","","","","key","16.661389830508426","680","328.5","","","","","","","","","","","","","","","","","","","",""
"psychophysics","197","543094","0.0-16.0-1.8","56153d5e7ffc8a000a811ba8","609006691f6f4e337c17f836","609d35a8a36d8cafcab62f78","null","","","","null","","","","key","16.65851724137761","680","328.5","","","","","","","","","","","","","149","-1","6","false","","","",""
"psychophysics","198","543333","0.0-16.0-2.8","56153d5e7ffc8a000a811ba8","609006691f6f4e337c17f836","609d35a8a36d8cafcab62f78","213.29500000132248","","","","77","","","","key","16.662500000001664","680","328.5","","","","","","","","","","","","","","","","","","","",""
"psychophysics","199","544343","0.0-16.0-0.9","56153d5e7ffc8a000a811ba8","609006691f6f4e337c17f836","609d35a8a36d8cafcab62f78","null","","","","null","","","","key","16.662389830506598","680","328.5","","","","","","","","","","","","","","","","","","","",""
"psychophysics","200","544858","0.0-16.0-1.9","56153d5e7ffc8a000a811ba8","609006691f6f4e337c17f836","609d35a8a36d8cafcab62f78","null","","","","null","","","","key","16.662166666666355","680","328.5","","","","","","","","","","","","","149","-1","5","false","","","",""
"psychophysics","201","545149","0.0-16.0-2.9","56153d5e7ffc8a000a811ba8","609006691f6f4e337c17f836","609d35a8a36d8cafcab62f78","282.66500000061933","","","","77","","","","key","16.660437500002445","680","328.5","","","","","","","","","","","","","","","","","","","",""
"psychophysics","202","546152","0.0-16.0-0.10","56153d5e7ffc8a000a811ba8","609006691f6f4e337c17f836","609d35a8a36d8cafcab62f78","null","","","","null","","","","key","16.661466666668034","680","328.5","","","","","","","","","","","","","","","","","","","",""
"psychophysics","203","546659","0.0-16.0-1.10","56153d5e7ffc8a000a811ba8","609006691f6f4e337c17f836","609d35a8a36d8cafcab62f78","null","","","","null","","","","key","16.66148275861934","680","328.5","","","","","","","","","","","","","149","1","6","false","","","",""
"psychophysics","204","547108","0.0-16.0-2.10","56153d5e7ffc8a000a811ba8","609006691f6f4e337c17f836","609d35a8a36d8cafcab62f78","440.4450000001816","","","","77","","","","key","16.662192307694706","680","328.5","","","","","","","","","","","","","","","","","","","",""
"psychophysics","205","548118","0.0-16.0-0.11","56153d5e7ffc8a000a811ba8","609006691f6f4e337c17f836","609d35a8a36d8cafcab62f78","null","","","","null","","","","key","16.66165000000037","680","328.5","","","","","","","","","","","","","","","","","","","",""
"psychophysics","206","548626","0.0-16.0-1.11","56153d5e7ffc8a000a811ba8","609006691f6f4e337c17f836","609d35a8a36d8cafcab62f78","null","","","","null","","","","key","16.66020689654999","680","328.5","","","","","","","","","","","","","149","1","4","false","","","",""
"psychophysics","207","548814","0.0-16.0-2.11","56153d5e7ffc8a000a811ba8","609006691f6f4e337c17f836","609d35a8a36d8cafcab62f78","178.87999999942258","","","","77","","","","key","16.664199999999255","680","328.5","","","","","","","","","","","","","","","","","","","",""
"psychophysics","208","549825","0.0-16.0-0.12","56153d5e7ffc8a000a811ba8","609006691f6f4e337c17f836","609d35a8a36d8cafcab62f78","null","","","","null","","","","key","16.66093333333265","680","328.5","","","","","","","","","","","","","","","","","","","",""
"psychophysics","209","550342","0.0-16.0-1.12","56153d5e7ffc8a000a811ba8","609006691f6f4e337c17f836","609d35a8a36d8cafcab62f78","null","","","","null","","","","key","16.662566666665953","680","328.5","","","","","","","","","","","","","149","-1","3","false","","","",""
"psychophysics","210","550636","0.0-16.0-2.12","56153d5e7ffc8a000a811ba8","609006691f6f4e337c17f836","609d35a8a36d8cafcab62f78","286.4399999998277","","","","90","","","","key","16.646647058824517","680","328.5","","","","","","","","","","","","","","","","","","","",""
"psychophysics","211","551642","0.0-16.0-0.13","56153d5e7ffc8a000a811ba8","609006691f6f4e337c17f836","609d35a8a36d8cafcab62f78","null","","","","null","","","","key","16.662593220338874","680","328.5","","","","","","","","","","","","","","","","","","","",""
"psychophysics","212","552149","0.0-16.0-1.13","56153d5e7ffc8a000a811ba8","609006691f6f4e337c17f836","609d35a8a36d8cafcab62f78","null","","","","null","","","","key","16.659266666664433","680","328.5","","","","","","","","","","","","","149","-1","5","false","","","",""
"psychophysics","213","552523","0.0-16.0-2.13","56153d5e7ffc8a000a811ba8","609006691f6f4e337c17f836","609d35a8a36d8cafcab62f78","371.59500000055414","","","","77","","","","key","16.664666666665912","680","328.5","","","","","","","","","","","","","","","","","","","",""
"psychophysics","214","553539","0.0-16.0-0.14","56153d5e7ffc8a000a811ba8","609006691f6f4e337c17f836","609d35a8a36d8cafcab62f78","null","","","","null","","","","key","16.661733333333782","680","328.5","","","","","","","","","","","","","","","","","","","",""
"psychophysics","215","554045","0.0-16.0-1.14","56153d5e7ffc8a000a811ba8","609006691f6f4e337c17f836","609d35a8a36d8cafcab62f78","null","","","","null","","","","key","16.65956666666704","680","328.5","","","","","","","","","","","","","149","-1","6","false","","","",""
"psychophysics","216","554507","0.0-16.0-2.14","56153d5e7ffc8a000a811ba8","609006691f6f4e337c17f836","609d35a8a36d8cafcab62f78","458.1399999987334","","","","77","","","","key","16.66288461538408","680","328.5","","","","","","","","","","","","","","","","","","","",""
"psychophysics","217","555520","0.0-16.0-0.15","56153d5e7ffc8a000a811ba8","609006691f6f4e337c17f836","609d35a8a36d8cafcab62f78","null","","","","null","","","","key","16.661466666666094","680","328.5","","","","","","","","","","","","","","","","","","","",""
"psychophysics","218","556025","0.0-16.0-1.15","56153d5e7ffc8a000a811ba8","609006691f6f4e337c17f836","609d35a8a36d8cafcab62f78","null","","","","null","","","","key","16.66075862069004","680","328.5","","","","","","","","","","","","","149","1","5","false","","","",""
"psychophysics","219","556171","0.0-16.0-2.15","56153d5e7ffc8a000a811ba8","609006691f6f4e337c17f836","609d35a8a36d8cafcab62f78","137.79500000050757","","","","77","","","","key","16.66187500000524","680","328.5","","","","","","","","","","","","","","","","","","","",""
"psychophysics","220","557174","0.0-16.0-0.16","56153d5e7ffc8a000a811ba8","609006691f6f4e337c17f836","609d35a8a36d8cafcab62f78","null","","","","null","","","","key","16.65993220338961","680","328.5","","","","","","","","","","","","","","","","","","","",""
"psychophysics","221","557691","0.0-16.0-1.16","56153d5e7ffc8a000a811ba8","609006691f6f4e337c17f836","609d35a8a36d8cafcab62f78","null","","","","null","","","","key","16.66343333333498","680","328.5","","","","","","","","","","","","","149","-1","0","false","","","",""
"psychophysics","222","558044","0.0-16.0-2.16","56153d5e7ffc8a000a811ba8","609006691f6f4e337c17f836","609d35a8a36d8cafcab62f78","345.20499999960884","","","","90","","","","key","16.661900000000607","680","328.5","","","","","","","","","","","","","","","","","","","",""
"psychophysics","223","559048","0.0-16.0-0.17","56153d5e7ffc8a000a811ba8","609006691f6f4e337c17f836","609d35a8a36d8cafcab62f78","null","","","","null","","","","key","16.663099999999396","680","328.5","","","","","","","","","","","","","","","","","","","",""
"psychophysics","224","559556","0.0-16.0-1.17","56153d5e7ffc8a000a811ba8","609006691f6f4e337c17f836","609d35a8a36d8cafcab62f78","null","","","","null","","","","key","16.65882758620789","680","328.5","","","","","","","","","","","","","149","-1","2","false","","","",""
"psychophysics","225","559770","0.0-16.0-2.17","56153d5e7ffc8a000a811ba8","609006691f6f4e337c17f836","609d35a8a36d8cafcab62f78","204.27999999991152","","","","90","","","","key","16.6635833333324","680","328.5","","","","","","","","","","","","","","","","","","","",""
"psychophysics","226","560773","0.0-16.0-0.18","56153d5e7ffc8a000a811ba8","609006691f6f4e337c17f836","609d35a8a36d8cafcab62f78","null","","","","null","","","","key","16.659559322033726","680","328.5","","","","","","","","","","","","","","","","","","","",""
"psychophysics","227","561284","0.0-16.0-1.18","56153d5e7ffc8a000a811ba8","609006691f6f4e337c17f836","609d35a8a36d8cafcab62f78","null","","","","null","","","","key","16.660899999997735","680","328.5","","","","","","","","","","","","","149","1","2","false","","","",""
"psychophysics","228","562131","0.0-16.0-2.18","56153d5e7ffc8a000a811ba8","609006691f6f4e337c17f836","609d35a8a36d8cafcab62f78","843.3999999997905","","","","90","","","","key","16.66097999999998","680","328.5","","","","","","","","","","","","","","","","","","","",""
"psychophysics","229","563138","0.0-16.0-0.19","56153d5e7ffc8a000a811ba8","609006691f6f4e337c17f836","609d35a8a36d8cafcab62f78","null","","","","null","","","","key","16.661101694915335","680","328.5","","","","","","","","","","","","","","","","","","","",""
"psychophysics","230","563648","0.0-16.0-1.19","56153d5e7ffc8a000a811ba8","609006691f6f4e337c17f836","609d35a8a36d8cafcab62f78","null","","","","null","","","","key","16.6588333333338","680","328.5","","","","","","","","","","","","","149","1","3","false","","","",""
"psychophysics","231","563846","0.0-16.0-2.19","56153d5e7ffc8a000a811ba8","609006691f6f4e337c17f836","609d35a8a36d8cafcab62f78","171.87000000011176","","","","90","","","","key","16.652181818181734","680","328.5","","","","","","","","","","","","","","","","","","","",""
"psychophysics","232","564855","0.0-16.0-0.20","56153d5e7ffc8a000a811ba8","609006691f6f4e337c17f836","609d35a8a36d8cafcab62f78","null","","","","null","","","","key","16.659084745763675","680","328.5","","","","","","","","","","","","","","","","","","","",""
"psychophysics","233","565368","0.0-16.0-1.20","56153d5e7ffc8a000a811ba8","609006691f6f4e337c17f836","609d35a8a36d8cafcab62f78","null","","","","null","","","","key","16.66229999999826","680","328.5","","","","","","","","","","","","","149","1","4","false","","","",""
"psychophysics","234","565602","0.0-16.0-2.20","56153d5e7ffc8a000a811ba8","609006691f6f4e337c17f836","609d35a8a36d8cafcab62f78","228.31000000040513","","","","77","","","","key","16.657461538463114","680","328.5","","","","","","","","","","","","","","","","","","","",""
"psychophysics","235","566604","0.0-16.0-0.21","56153d5e7ffc8a000a811ba8","609006691f6f4e337c17f836","609d35a8a36d8cafcab62f78","null","","","","null","","","","key","16.661525423727316","680","328.5","","","","","","","","","","","","","","","","","","","",""
"psychophysics","236","567110","0.0-16.0-1.21","56153d5e7ffc8a000a811ba8","609006691f6f4e337c17f836","609d35a8a36d8cafcab62f78","null","","","","null","","","","key","16.660633333333923","680","328.5","","","","","","","","","","","","","149","1","6","false","","","",""
"psychophysics","237","567313","0.0-16.0-2.21","56153d5e7ffc8a000a811ba8","609006691f6f4e337c17f836","609d35a8a36d8cafcab62f78","200.41499999933876","","","","77","","","","key","16.660000000000846","680","328.5","","","","","","","","","","","","","","","","","","","",""
"psychophysics","238","568322","0.0-16.0-0.22","56153d5e7ffc8a000a811ba8","609006691f6f4e337c17f836","609d35a8a36d8cafcab62f78","null","","","","null","","","","key","16.661372881357053","680","328.5","","","","","","","","","","","","","","","","","","","",""
"psychophysics","239","568838","0.0-16.0-1.22","56153d5e7ffc8a000a811ba8","609006691f6f4e337c17f836","609d35a8a36d8cafcab62f78","null","","","","null","","","","key","16.663166666667287","680","328.5","","","","","","","","","","","","","149","1","0","false","","","",""
"psychophysics","240","569162","0.0-16.0-2.22","56153d5e7ffc8a000a811ba8","609006691f6f4e337c17f836","609d35a8a36d8cafcab62f78","315.6249999993015","","","","90","","","","key","16.657263157895375","680","328.5","","","","","","","","","","","","","","","","","","","",""
"psychophysics","241","570170","0.0-16.0-0.23","56153d5e7ffc8a000a811ba8","609006691f6f4e337c17f836","609d35a8a36d8cafcab62f78","null","","","","null","","","","key","16.661135593220056","680","328.5","","","","","","","","","","","","","","","","","","","",""
"psychophysics","242","570687","0.0-16.0-1.23","56153d5e7ffc8a000a811ba8","609006691f6f4e337c17f836","609d35a8a36d8cafcab62f78","null","","","","null","","","","key","16.66239999999913","680","328.5","","","","","","","","","","","","","149","-1","4","false","","","",""
"psychophysics","243","570968","0.0-16.0-2.23","56153d5e7ffc8a000a811ba8","609006691f6f4e337c17f836","609d35a8a36d8cafcab62f78","273.1500000009546","","","","77","","","","key","16.659937500000524","680","328.5","","","","","","","","","","","","","","","","","","","",""
"html-keyboard-response","244","582770","0.0-17.0","56153d5e7ffc8a000a811ba8","609006691f6f4e337c17f836","609d35a8a36d8cafcab62f78","11799.729999998817","<p>Well Done !</p><p>Training Complete. Press the spacebar to start.</p><p>DON'T EXIT THE FULL SCREEN MODE</p>","","","32","","","","","","","","","","","","","","","","","","","","","","","","","","",""
"psychophysics","245","585806","0.0-18.0-0.0","56153d5e7ffc8a000a811ba8","609006691f6f4e337c17f836","609d35a8a36d8cafcab62f78","null","","","","null","","","","key","16.65506557377101","680","328.5","","","","","","","","","","","","","","","","","","","",""
"psychophysics","246","586316","0.0-18.0-1.0","56153d5e7ffc8a000a811ba8","609006691f6f4e337c17f836","609d35a8a36d8cafcab62f78","null","","","","null","","","","key","16.669482758621974","680","328.5","","","","","","","","","","","","","149","-1","5","true","","","",""
"psychophysics","247","586575","0.0-18.0-2.0","56153d5e7ffc8a000a811ba8","609006691f6f4e337c17f836","609d35a8a36d8cafcab62f78","250.02999999921303","","","","90","","","","key","16.664933333328616","680","328.5","","","","","","","","","","","","","","","","","","","",""
"psychophysics","248","587582","0.0-18.0-0.1","56153d5e7ffc8a000a811ba8","609006691f6f4e337c17f836","609d35a8a36d8cafcab62f78","null","","","","null","","","","key","16.660661016950005","680","328.5","","","","","","","","","","","","","","","","","","","",""
"psychophysics","249","588093","0.0-18.0-1.1","56153d5e7ffc8a000a811ba8","609006691f6f4e337c17f836","609d35a8a36d8cafcab62f78","null","","","","null","","","","key","16.66290000000348","680","328.5","","","","","","","","","","","","","149","-1","2","true","","","",""
"psychophysics","250","588590","0.0-18.0-2.1","56153d5e7ffc8a000a811ba8","609006691f6f4e337c17f836","609d35a8a36d8cafcab62f78","495.0450000014389","","","","90","","","","key","16.663275862068485","680","328.5","","","","","","","","","","","","","","","","","","","",""
"psychophysics","251","589596","0.0-18.0-0.2","56153d5e7ffc8a000a811ba8","609006691f6f4e337c17f836","609d35a8a36d8cafcab62f78","null","","","","null","","","","key","16.66266101695029","680","328.5","","","","","","","","","","","","","","","","","","","",""
"psychophysics","252","590098","0.0-18.0-1.2","56153d5e7ffc8a000a811ba8","609006691f6f4e337c17f836","609d35a8a36d8cafcab62f78","null","","","","null","","","","key","16.660482758620017","680","328.5","","","","","","","","","","","","","149","1","2","true","","","",""
"psychophysics","253","590422","0.0-18.0-2.2","56153d5e7ffc8a000a811ba8","609006691f6f4e337c17f836","609d35a8a36d8cafcab62f78","315.45000000006985","","","","90","","","","key","16.662631578945653","680","328.5","","","","","","","","","","","","","","","","","","","",""
"psychophysics","254","591432","0.0-18.0-0.3","56153d5e7ffc8a000a811ba8","609006691f6f4e337c17f836","609d35a8a36d8cafcab62f78","null","","","","null","","","","key","16.661389830508426","680","328.5","","","","","","","","","","","","","","","","","","","",""
"psychophysics","255","591941","0.0-18.0-1.3","56153d5e7ffc8a000a811ba8","609006691f6f4e337c17f836","609d35a8a36d8cafcab62f78","null","","","","null","","","","key","16.666966666665395","680","328.5","","","","","","","","","","","","","149","1","0","true","","","",""
"psychophysics","256","592173","0.0-18.0-2.3","56153d5e7ffc8a000a811ba8","609006691f6f4e337c17f836","609d35a8a36d8cafcab62f78","229.6000000005588","","","","77","","","","key","16.657307692301963","680","328.5","","","","","","","","","","","","","","","","","","","",""
"psychophysics","257","593181","0.0-18.0-0.4","56153d5e7ffc8a000a811ba8","609006691f6f4e337c17f836","609d35a8a36d8cafcab62f78","null","","","","null","","","","key","16.66230508474578","680","328.5","","","","","","","","","","","","","","","","","","","",""
"psychophysics","258","593696","0.0-18.0-1.4","56153d5e7ffc8a000a811ba8","609006691f6f4e337c17f836","609d35a8a36d8cafcab62f78","null","","","","null","","","","key","16.669633333334545","680","328.5","","","","","","","","","","","","","149","-1","0","true","","","",""
"psychophysics","259","593967","0.0-18.0-2.4","56153d5e7ffc8a000a811ba8","609006691f6f4e337c17f836","609d35a8a36d8cafcab62f78","239.89499999885447","","","","90","","","","key","16.659866666661888","680","328.5","","","","","","","","","","","","","","","","","","","",""
"psychophysics","260","594975","0.0-18.0-0.5","56153d5e7ffc8a000a811ba8","609006691f6f4e337c17f836","609d35a8a36d8cafcab62f78","null","","","","null","","","","key","16.658533333333132","680","328.5","","","","","","","","","","","","","","","","","","","",""
"psychophysics","261","595480","0.0-18.0-1.5","56153d5e7ffc8a000a811ba8","609006691f6f4e337c17f836","609d35a8a36d8cafcab62f78","null","","","","null","","","","key","16.66427586206781","680","328.5","","","","","","","","","","","","","149","1","3","true","","","",""
"psychophysics","262","596197","0.0-18.0-2.5","56153d5e7ffc8a000a811ba8","609006691f6f4e337c17f836","609d35a8a36d8cafcab62f78","707.4550000015879","","","","77","","","","key","16.661976190475148","680","328.5","","","","","","","","","","","","","","","","","","","",""
"psychophysics","263","597201","0.0-18.0-0.6","56153d5e7ffc8a000a811ba8","609006691f6f4e337c17f836","609d35a8a36d8cafcab62f78","null","","","","null","","","","key","16.661383333334623","680","328.5","","","","","","","","","","","","","","","","","","","",""
"psychophysics","264","597708","0.0-18.0-1.6","56153d5e7ffc8a000a811ba8","609006691f6f4e337c17f836","609d35a8a36d8cafcab62f78","null","","","","null","","","","key","16.662172413792398","680","328.5","","","","","","","","","","","","","149","1","6","true","","","",""
"psychophysics","265","597934","0.0-18.0-2.6","56153d5e7ffc8a000a811ba8","609006691f6f4e337c17f836","609d35a8a36d8cafcab62f78","222.81500000099186","","","","77","","","","key","16.66423076922253","680","328.5","","","","","","","","","","","","","","","","","","","",""
"psychophysics","266","598938","0.0-18.0-0.7","56153d5e7ffc8a000a811ba8","609006691f6f4e337c17f836","609d35a8a36d8cafcab62f78","null","","","","null","","","","key","16.66269491525501","680","328.5","","","","","","","","","","","","","","","","","","","",""
"psychophysics","267","599446","0.0-18.0-1.7","56153d5e7ffc8a000a811ba8","609006691f6f4e337c17f836","609d35a8a36d8cafcab62f78","null","","","","null","","","","key","16.66317241379574","680","328.5","","","","","","","","","","","","","149","-1","3","true","","","",""
"psychophysics","268","599655","0.0-18.0-2.7","56153d5e7ffc8a000a811ba8","609006691f6f4e337c17f836","609d35a8a36d8cafcab62f78","201.89500000013504","","","","90","","","","key","16.679636363638565","680","328.5","","","","","","","","","","","","","","","","","","","",""
"psychophysics","269","600662","0.0-18.0-0.8","56153d5e7ffc8a000a811ba8","609006691f6f4e337c17f836","609d35a8a36d8cafcab62f78","null","","","","null","","","","key","16.662999999998526","680","328.5","","","","","","","","","","","","","","","","","","","",""
"psychophysics","270","601176","0.0-18.0-1.8","56153d5e7ffc8a000a811ba8","609006691f6f4e337c17f836","609d35a8a36d8cafcab62f78","null","","","","null","","","","key","16.662100000000404","680","328.5","","","","","","","","","","","","","149","1","4","true","","","",""
"psychophysics","271","601860","0.0-18.0-2.8","56153d5e7ffc8a000a811ba8","609006691f6f4e337c17f836","609d35a8a36d8cafcab62f78","675.225000000908","","","","77","","","","key","16.660800000000744","680","328.5","","","","","","","","","","","","","","","","","","","",""
"psychophysics","272","602868","0.0-18.0-0.9","56153d5e7ffc8a000a811ba8","609006691f6f4e337c17f836","609d35a8a36d8cafcab62f78","null","","","","null","","","","key","16.66175000000124","680","328.5","","","","","","","","","","","","","","","","","","","",""
"psychophysics","273","603378","0.0-18.0-1.9","56153d5e7ffc8a000a811ba8","609006691f6f4e337c17f836","609d35a8a36d8cafcab62f78","null","","","","null","","","","key","16.661999999999132","680","328.5","","","","","","","","","","","","","149","1","5","true","","","",""
"psychophysics","274","603617","0.0-18.0-2.9","56153d5e7ffc8a000a811ba8","609006691f6f4e337c17f836","609d35a8a36d8cafcab62f78","224.39000000117812","","","","77","","","","key","16.667642857147648","680","328.5","","","","","","","","","","","","","","","","","","","",""
"psychophysics","275","604628","0.0-18.0-0.10","56153d5e7ffc8a000a811ba8","609006691f6f4e337c17f836","609d35a8a36d8cafcab62f78","null","","","","null","","","","key","16.6612033898295","680","328.5","","","","","","","","","","","","","","","","","","","",""
"psychophysics","276","605139","0.0-18.0-1.10","56153d5e7ffc8a000a811ba8","609006691f6f4e337c17f836","609d35a8a36d8cafcab62f78","null","","","","null","","","","key","16.663566666666885","680","328.5","","","","","","","","","","","","","149","-1","6","true","","","",""
"psychophysics","277","605428","0.0-18.0-2.10","56153d5e7ffc8a000a811ba8","609006691f6f4e337c17f836","609d35a8a36d8cafcab62f78","285.08500000135973","","","","77","","","","key","16.662687500000175","680","328.5","","","","","","","","","","","","","","","","","","","",""
"psychophysics","278","606433","0.0-18.0-0.11","56153d5e7ffc8a000a811ba8","609006691f6f4e337c17f836","609d35a8a36d8cafcab62f78","null","","","","null","","","","key","16.659916666666202","680","328.5","","","","","","","","","","","","","","","","","","","",""
"psychophysics","279","606944","0.0-18.0-1.11","56153d5e7ffc8a000a811ba8","609006691f6f4e337c17f836","609d35a8a36d8cafcab62f78","null","","","","null","","","","key","16.666689655173506","680","328.5","","","","","","","","","","","","","149","-1","4","true","","","",""
"psychophysics","280","607043","0.0-18.0-2.11","56153d5e7ffc8a000a811ba8","609006691f6f4e337c17f836","609d35a8a36d8cafcab62f78","92.87500000023283","","","","77","","","","key","16.662999999988823","680","328.5","","","","","","","","","","","","","","","","","","","",""
"psychophysics","281","608060","0.0-18.0-0.12","56153d5e7ffc8a000a811ba8","609006691f6f4e337c17f836","609d35a8a36d8cafcab62f78","null","","","","null","","","","key","16.661916666666123","680","328.5","","","","","","","","","","","","","","","","","","","",""
"psychophysics","282","608574","0.0-18.0-1.12","56153d5e7ffc8a000a811ba8","609006691f6f4e337c17f836","609d35a8a36d8cafcab62f78","null","","","","null","","","","key","16.66433333333116","680","328.5","","","","","","","","","","","","","149","-1","0","true","","","",""
"psychophysics","283","608891","0.0-18.0-2.12","56153d5e7ffc8a000a811ba8","609006691f6f4e337c17f836","609d35a8a36d8cafcab62f78","308.06000000122003","","","","90","","","","key","16.660555555556332","680","328.5","","","","","","","","","","","","","","","","","","","",""
"psychophysics","284","609898","0.0-18.0-0.13","56153d5e7ffc8a000a811ba8","609006691f6f4e337c17f836","609d35a8a36d8cafcab62f78","null","","","","null","","","","key","16.6608666666667","680","328.5","","","","","","","","","","","","","","","","","","","",""
"psychophysics","285","610408","0.0-18.0-1.13","56153d5e7ffc8a000a811ba8","609006691f6f4e337c17f836","609d35a8a36d8cafcab62f78","null","","","","null","","","","key","16.674275862069095","680","328.5","","","","","","","","","","","","","149","1","2","true","","","",""
"psychophysics","286","610819","0.0-18.0-2.13","56153d5e7ffc8a000a811ba8","609006691f6f4e337c17f836","609d35a8a36d8cafcab62f78","401.83999999868684","","","","90","","","","key","16.660499999998137","680","328.5","","","","","","","","","","","","","","","","","","","",""
"psychophysics","287","611826","0.0-18.0-0.14","56153d5e7ffc8a000a811ba8","609006691f6f4e337c17f836","609d35a8a36d8cafcab62f78","null","","","","null","","","","key","16.662169491524917","680","328.5","","","","","","","","","","","","","","","","","","","",""
"psychophysics","288","612342","0.0-18.0-1.14","56153d5e7ffc8a000a811ba8","609006691f6f4e337c17f836","609d35a8a36d8cafcab62f78","null","","","","null","","","","key","16.6625","680","328.5","","","","","","","","","","","","","149","-1","2","true","","","",""
"psychophysics","289","612754","0.0-18.0-2.14","56153d5e7ffc8a000a811ba8","609006691f6f4e337c17f836","609d35a8a36d8cafcab62f78","396.5049999988405","","","","90","","","","key","16.659333333334263","680","328.5","","","","","","","","","","","","","","","","","","","",""
"psychophysics","290","613759","0.0-18.0-0.15","56153d5e7ffc8a000a811ba8","609006691f6f4e337c17f836","609d35a8a36d8cafcab62f78","null","","","","null","","","","key","16.662271186441057","680","328.5","","","","","","","","","","","","","","","","","","","",""
"psychophysics","291","614274","0.0-18.0-1.15","56153d5e7ffc8a000a811ba8","609006691f6f4e337c17f836","609d35a8a36d8cafcab62f78","null","","","","null","","","","key","16.665033333333366","680","328.5","","","","","","","","","","","","","149","1","4","true","","","",""
"psychophysics","292","614419","0.0-18.0-2.15","56153d5e7ffc8a000a811ba8","609006691f6f4e337c17f836","609d35a8a36d8cafcab62f78","136.47500000114087","","","","77","","","","key","16.659499999994296","680","328.5","","","","","","","","","","","","","","","","","","","",""
"psychophysics","293","615425","0.0-18.0-0.16","56153d5e7ffc8a000a811ba8","609006691f6f4e337c17f836","609d35a8a36d8cafcab62f78","null","","","","null","","","","key","16.66020338983133","680","328.5","","","","","","","","","","","","","","","","","","","",""
"psychophysics","294","615930","0.0-18.0-1.16","56153d5e7ffc8a000a811ba8","609006691f6f4e337c17f836","609d35a8a36d8cafcab62f78","null","","","","null","","","","key","16.665933333333427","680","328.5","","","","","","","","","","","","","149","1","5","true","","","",""
"psychophysics","295","616181","0.0-18.0-2.16","56153d5e7ffc8a000a811ba8","609006691f6f4e337c17f836","609d35a8a36d8cafcab62f78","245.52500000037253","","","","77","","","","key","16.665428571427974","680","328.5","","","","","","","","","","","","","","","","","","","",""
"psychophysics","296","617191","0.0-18.0-0.17","56153d5e7ffc8a000a811ba8","609006691f6f4e337c17f836","609d35a8a36d8cafcab62f78","null","","","","null","","","","key","16.660559322033865","680","328.5","","","","","","","","","","","","","","","","","","","",""
"psychophysics","297","617695","0.0-18.0-1.17","56153d5e7ffc8a000a811ba8","609006691f6f4e337c17f836","609d35a8a36d8cafcab62f78","null","","","","null","","","","key","16.663899999996648","680","328.5","","","","","","","","","","","","","149","-1","6","true","","","",""
"psychophysics","298","618011","0.0-18.0-2.17","56153d5e7ffc8a000a811ba8","609006691f6f4e337c17f836","609d35a8a36d8cafcab62f78","311.32000000064727","","","","77","","","","key","16.657941176473877","680","328.5","","","","","","","","","","","","","","","","","","","",""
"psychophysics","299","619019","0.0-18.0-0.18","56153d5e7ffc8a000a811ba8","609006691f6f4e337c17f836","609d35a8a36d8cafcab62f78","null","","","","null","","","","key","16.663349999999628","680","328.5","","","","","","","","","","","","","","","","","","","",""
"psychophysics","300","619524","0.0-18.0-1.18","56153d5e7ffc8a000a811ba8","609006691f6f4e337c17f836","609d35a8a36d8cafcab62f78","null","","","","null","","","","key","16.660620689657033","680","328.5","","","","","","","","","","","","","149","1","0","true","","","",""
"psychophysics","301","619764","0.0-18.0-2.18","56153d5e7ffc8a000a811ba8","609006691f6f4e337c17f836","609d35a8a36d8cafcab62f78","217.00000000058208","","","","90","","","","key","16.65592857142578","680","328.5","","","","","","","","","","","","","","","","","","","",""
"psychophysics","302","620774","0.0-18.0-0.19","56153d5e7ffc8a000a811ba8","609006691f6f4e337c17f836","609d35a8a36d8cafcab62f78","null","","","","null","","","","key","16.66225423728771","680","328.5","","","","","","","","","","","","","","","","","","","",""
"psychophysics","303","621287","0.0-18.0-1.19","56153d5e7ffc8a000a811ba8","609006691f6f4e337c17f836","609d35a8a36d8cafcab62f78","null","","","","null","","","","key","16.66433333333116","680","328.5","","","","","","","","","","","","","149","-1","3","true","","","",""
"psychophysics","304","621586","0.0-18.0-2.19","56153d5e7ffc8a000a811ba8","609006691f6f4e337c17f836","609d35a8a36d8cafcab62f78","290.6299999994226","","","","90","","","","key","16.661411764709662","680","328.5","","","","","","","","","","","","","","","","","","","",""
"psychophysics","305","622590","0.0-18.0-0.20","56153d5e7ffc8a000a811ba8","609006691f6f4e337c17f836","609d35a8a36d8cafcab62f78","null","","","","null","","","","key","16.659101694915048","680","328.5","","","","","","","","","","","","","","","","","","","",""
"psychophysics","306","623106","0.0-18.0-1.20","56153d5e7ffc8a000a811ba8","609006691f6f4e337c17f836","609d35a8a36d8cafcab62f78","null","","","","null","","","","key","16.6625","680","328.5","","","","","","","","","","","","","149","-1","5","true","","","",""
"psychophysics","307","623417","0.0-18.0-2.20","56153d5e7ffc8a000a811ba8","609006691f6f4e337c17f836","609d35a8a36d8cafcab62f78","303.7299999996321","","","","77","","","","key","16.66249999999612","680","328.5","","","","","","","","","","","","","","","","","","","",""
"psychophysics","308","624443","0.0-18.0-0.21","56153d5e7ffc8a000a811ba8","609006691f6f4e337c17f836","609d35a8a36d8cafcab62f78","null","","","","null","","","","key","16.660311475409515","680","328.5","","","","","","","","","","","","","","","","","","","",""
"psychophysics","309","624956","0.0-18.0-1.21","56153d5e7ffc8a000a811ba8","609006691f6f4e337c17f836","609d35a8a36d8cafcab62f78","null","","","","null","","","","key","16.663689655171513","680","328.5","","","","","","","","","","","","","149","1","6","true","","","",""
"psychophysics","310","625379","0.0-18.0-2.21","56153d5e7ffc8a000a811ba8","609006691f6f4e337c17f836","609d35a8a36d8cafcab62f78","413.3899999996647","","","","77","","","","key","16.663040000000038","680","328.5","","","","","","","","","","","","","","","","","","","",""
"psychophysics","311","626382","0.0-18.0-0.22","56153d5e7ffc8a000a811ba8","609006691f6f4e337c17f836","609d35a8a36d8cafcab62f78","null","","","","null","","","","key","16.661389830508426","680","328.5","","","","","","","","","","","","","","","","","","","",""
"psychophysics","312","626889","0.0-18.0-1.22","56153d5e7ffc8a000a811ba8","609006691f6f4e337c17f836","609d35a8a36d8cafcab62f78","null","","","","null","","","","key","16.660482758620017","680","328.5","","","","","","","","","","","","","149","1","3","true","","","",""
"psychophysics","313","627393","0.0-18.0-2.22","56153d5e7ffc8a000a811ba8","609006691f6f4e337c17f836","609d35a8a36d8cafcab62f78","496.224999998929","","","","90","","","","key","16.659799999999812","680","328.5","","","","","","","","","","","","","","","","","","","",""
"psychophysics","314","628395","0.0-18.0-0.23","56153d5e7ffc8a000a811ba8","609006691f6f4e337c17f836","609d35a8a36d8cafcab62f78","null","","","","null","","","","key","16.66252542372943","680","328.5","","","","","","","","","","","","","","","","","","","",""
"psychophysics","315","628905","0.0-18.0-1.23","56153d5e7ffc8a000a811ba8","609006691f6f4e337c17f836","609d35a8a36d8cafcab62f78","null","","","","null","","","","key","16.6608620689668","680","328.5","","","","","","","","","","","","","149","-1","4","true","","","",""
"psychophysics","316","629297","0.0-18.0-2.23","56153d5e7ffc8a000a811ba8","609006691f6f4e337c17f836","609d35a8a36d8cafcab62f78","383.620000000461","","","","77","","","","key","16.66069565217375","680","328.5","","","","","","","","","","","","","","","","","","","",""
"psychophysics","317","630305","0.0-18.0-0.24","56153d5e7ffc8a000a811ba8","609006691f6f4e337c17f836","609d35a8a36d8cafcab62f78","null","","","","null","","","","key","16.66133898305233","680","328.5","","","","","","","","","","","","","","","","","","","",""
"psychophysics","318","630824","0.0-18.0-1.24","56153d5e7ffc8a000a811ba8","609006691f6f4e337c17f836","609d35a8a36d8cafcab62f78","null","","","","null","","","","key","16.662433333330167","680","328.5","","","","","","","","","","","","","149","1","3","true","","","",""
"psychophysics","319","631058","0.0-18.0-2.24","56153d5e7ffc8a000a811ba8","609006691f6f4e337c17f836","609d35a8a36d8cafcab62f78","226.8000000002794","","","","77","","","","key","16.660769230766725","680","328.5","","","","","","","","","","","","","","","","","","","",""
"psychophysics","320","632064","0.0-18.0-0.25","56153d5e7ffc8a000a811ba8","609006691f6f4e337c17f836","609d35a8a36d8cafcab62f78","null","","","","null","","","","key","16.660883333332215","680","328.5","","","","","","","","","","","","","","","","","","","",""
"psychophysics","321","632587","0.0-18.0-1.25","56153d5e7ffc8a000a811ba8","609006691f6f4e337c17f836","609d35a8a36d8cafcab62f78","null","","","","null","","","","key","16.660333333331316","680","328.5","","","","","","","","","","","","","149","-1","6","true","","","",""
"psychophysics","322","632946","0.0-18.0-2.25","56153d5e7ffc8a000a811ba8","609006691f6f4e337c17f836","609d35a8a36d8cafcab62f78","350.11500000115484","","","","77","","","","key","16.659619047616918","680","328.5","","","","","","","","","","","","","","","","","","","",""
"psychophysics","323","633953","0.0-18.0-0.26","56153d5e7ffc8a000a811ba8","609006691f6f4e337c17f836","609d35a8a36d8cafcab62f78","null","","","","null","","","","key","16.663813559322666","680","328.5","","","","","","","","","","","","","","","","","","","",""
"psychophysics","324","634458","0.0-18.0-1.26","56153d5e7ffc8a000a811ba8","609006691f6f4e337c17f836","609d35a8a36d8cafcab62f78","null","","","","null","","","","key","16.663066666666417","680","328.5","","","","","","","","","","","","","149","-1","0","true","","","",""
"psychophysics","325","634722","0.0-18.0-2.26","56153d5e7ffc8a000a811ba8","609006691f6f4e337c17f836","609d35a8a36d8cafcab62f78","259.26999999862164","","","","90","","","","key","16.659357142859204","680","328.5","","","","","","","","","","","","","","","","","","","",""
"psychophysics","326","635752","0.0-18.0-0.27","56153d5e7ffc8a000a811ba8","609006691f6f4e337c17f836","609d35a8a36d8cafcab62f78","null","","","","null","","","","key","16.660508196722702","680","328.5","","","","","","","","","","","","","","","","","","","",""
