"trial_type","trial_index","time_elapsed","internal_node_id","PROLIFIC_PID","STUDY_ID","SESSION_ID","rt","stimulus","button_pressed","success","key_press","responses","isData","view_history","response_type","avg_frame_time","center_x","center_y","isSC","stim_side","trial_luminance","step_size","nReversal","correct","prev_ans","isThreshold","SC_threshold","final_threshold","isLuminance","FF_luminance","luminance","stimSide","ISInt","isFF","question_order","isSPQ","isCAPS","isAQ"
"pavlovia","0","29","0.0-0.0","608969bcf752a60363fd8ddd","609006691f6f4e337c17f836","609d36243827d6732706d129","","","","","","","","","","","","","","","","","","","","","","","","","","","","","","","",""
"html-button-response","1","3148","0.0-1.0","608969bcf752a60363fd8ddd","609006691f6f4e337c17f836","609d36243827d6732706d129","3117.065000347793","<div style='background-color: white; width:60%; margin: auto; padding: 50px; text-align: justify; text-justify: inter-word; margin-bottom: 20px;'><h1 style='text-align: center;'>Consent Form</h1><p>Please read this consent form carefully before deciding whether you would like to participate in this study. You have to be 18 years old or older to participate to this study.</p><p style='text-decoration: underline;'>Participation is voluntary:</p><p>It is your choice whether or not to participate in this research. If you choose to participate, you may change your mind and leave the study at any time. Refusal to participate or stopping your participation will involve no penalty or loss of benefits to which you are otherwise entitled.</p><p style='text-decoration: underline;'>Purpose of the Study:</p><p>To understand the mechanisms underlying human perception.</p><p style='text-decoration: underline;'>What you will do in this study:</p><p>You will be presented with a series of visual images and then you will press buttons on the keyboard of your computer to respond to simple questions about the images (e.g. Were one or two images presented?). In addition, you will be asked to complete a questionnaire concerning your beliefs and everyday mental and perceptual experiences.'</p><p style='text-decoration: underline;'> Time Required:</p><p>The study will take 40 minutes to complete. </p><p style='text-decoration: underline;'>Risks:</p><p>There are no anticipated risks associated with participating in this study that are beyond those experienced in everyday life. </p><p style='text-decoration: underline;'>Benefits:</p><p>There are no benefits to you in participating in the study. However, this study may lead to a better understanding of how different kinds of visual information are used.</p><p style='text-decoration: underline;'>Compensation:</p><p>You will be paid US$6.6/hour. </p><p style='text-decoration: underline;'>Privacy and Confidentiality:</p><p>Your participation in this study will be anonymous. No personal information about your name or identity will be asked or recorded. This anonymous data will be stored for several years and may be used for a variety of research purposes. The overall results of the study may be published, or the data files may be shared with other researchers, but your identity will not be revealed in any way. The online services we are using for this study may temporarily store your data, but this data will be downloaded and then promptly deleted from those services.Your data will not be permanently associated with your name, IP address, or any other identifiable information (e.g., your information will only be connected to your payment, not to any of your responses), though they may be temporarily stored together before we download and separate them. Even so, no guarantee of internet survey security can be given because, although unlikely, transmissions can be intercepted and IP addresses can be identified. The anonymous data may be shared publicly (for example, in conjunction with a resulting academic publication).</p><p style='text-decoration: underline;'>Participation and Withdrawal:</p><p>Your participation in this study is completely voluntary. You may stop responding to the stimuli or stop answering questions if you so choose and without penalty by exiting the full screen mode, closing this tab of your browser or redirecting it to a different website.</p><p style='text-decoration: underline;'>Contact Info of the Researcher: </p><p>If you have questions about this study, or if you would like to talk to the research team, please contact David Melcher (david.melcher@nyu.edu, md5050@nyu.edu) at the Perception and Active Cognition Laboratory, New York University Abu Dhabi, Computational Research Building, Saadiyat Island, Abu Dhabi, UAE.This research has been reviewed by the New York University Abu Dhabi Institutional Review Board (NYUAD IRB). To contact about your rights in this research, for questions, suggestions, or complaints that are not addressed by the researchers, please email IRBnyuad@nyu.edu, or call the NYUAD IRB at +971 2 628 4313. </p></div>","0","","","","","","","","","","","","","","","","","","","","","","","","","","","","",""
"fullscreen","2","4619","0.0-2.0","608969bcf752a60363fd8ddd","609006691f6f4e337c17f836","609d36243827d6732706d129","","","","true","","","","","","","","","","","","","","","","","","","","","","","","","","","",""
"html-keyboard-response","3","5828","0.0-3.0","608969bcf752a60363fd8ddd","609006691f6f4e337c17f836","609d36243827d6732706d129","1206.5849998034537","<p>Welcome !</p><p>READ CAREFULLY THE FOLLOWING INDICATIONS:</p><p>From this moment you have ~40 minutes to complete the experiment.</p><p>During the experiment you will be prompted to take several breaks. Each break should not last longer than 2-3 minutes.</p><p>Make sure that your computer is plugged in and it's not running on battery power, even if the battery is already fully charged.</p><p>Turn off your phone and music, make sure that you are in a quiet room and that you will not be distracted for the next hour.</p><p>Failure to comply with the instructions and indications provided during the experiment will most likely result in the rejection of your data.<p>Press the spacebar to start.</p>","","","32","","","","","","","","","","","","","","","","","","","","","","","","","","",""
"survey-html-form","4","10408","0.0-4.0","608969bcf752a60363fd8ddd","609006691f6f4e337c17f836","609d36243827d6732706d129","4579.384999815375","","","","","{""age"":""26"",""sex"":""F""}","true","","","","","","","","","","","","","","","","","","","","","","","","",""
"instructions","5","22458","0.0-5.0","608969bcf752a60363fd8ddd","609006691f6f4e337c17f836","609d36243827d6732706d129","12048.69499988854","","","","","","","[{""page_index"":0,""viewing_time"":2668.2250001467764},{""page_index"":1,""viewing_time"":4170.084999874234},{""page_index"":2,""viewing_time"":5209.944999776781}]","","","","","","","","","","","","","","","","","","","","","","","",""
"psychophysics","6","23936","0.0-6.0-0.0","608969bcf752a60363fd8ddd","609006691f6f4e337c17f836","609d36243827d6732706d129","462.66999980434775","","","","39","","","","key","16.658797752808965","616","305","true","1","180","30","0","-1","","","","","","","","","","","","","",""
"psychophysics","7","24955","0.0-6.0-0.1","608969bcf752a60363fd8ddd","609006691f6f4e337c17f836","609d36243827d6732706d129","10.495000053197145","","","","39","","","","key","16.661199999999976","616","305","true","1","180","30","0","-1","-1","","","","","","","","","","","","",""
"psychophysics","8","28188","0.0-6.0-0.2","608969bcf752a60363fd8ddd","609006691f6f4e337c17f836","609d36243827d6732706d129","2227.1900000050664","","","","37","","","","key","16.662435233160632","616","305","true","-1","150","30","0","-1","-1","","","","","","","","","","","","",""
"psychophysics","9","30168","0.0-6.0-0.3","608969bcf752a60363fd8ddd","609006691f6f4e337c17f836","609d36243827d6732706d129","974.2449996992946","","","","37","","","","key","16.66177966101692","616","305","true","-1","150","30","0","-1","-1","","","","","","","","","","","","",""
"psychophysics","10","32356","0.0-6.0-0.4","608969bcf752a60363fd8ddd","609006691f6f4e337c17f836","609d36243827d6732706d129","1186.2899996340275","","","","37","","","","key","16.662061538461533","616","305","true","-1","129","30","0","-1","-1","","","","","","","","","","","","",""
"psychophysics","11","34250","0.0-6.0-0.5","608969bcf752a60363fd8ddd","609006691f6f4e337c17f836","609d36243827d6732706d129","891.2499998696148","","","","37","","","","key","16.661495575221206","616","305","true","1","129","24","1","1","-1","","","","","","","","","","","","",""
"psychophysics","12","35335","0.0-6.0-0.6","608969bcf752a60363fd8ddd","609006691f6f4e337c17f836","609d36243827d6732706d129","82.21999974921346","","","","39","","","","key","16.66167187499991","616","305","true","1","153","24","1","-1","1","","","","","","","","","","","","",""
"psychophysics","13","36448","0.0-6.0-0.7","608969bcf752a60363fd8ddd","609006691f6f4e337c17f836","609d36243827d6732706d129","111.20999976992607","","","","37","","","","key","16.66125757575763","616","305","true","-1","153","19.2","2","-1","-1","","","","","","","","","","","","",""
"psychophysics","14","37981","0.0-6.0-0.8","608969bcf752a60363fd8ddd","609006691f6f4e337c17f836","609d36243827d6732706d129","512.6350000500679","","","","39","","","","key","16.661065934066006","616","305","true","1","133.8","19.2","2","-1","-1","","","","","","","","","","","","",""
"psychophysics","15","39464","0.0-6.0-0.9","608969bcf752a60363fd8ddd","609006691f6f4e337c17f836","609d36243827d6732706d129","479.77500036358833","","","","39","","","","key","16.662545454545498","616","305","true","1","133.8","19.2","2","-1","-1","","","","","","","","","","","","",""
"psychophysics","16","41164","0.0-6.0-0.10","608969bcf752a60363fd8ddd","609006691f6f4e337c17f836","609d36243827d6732706d129","696.5850000269711","","","","37","","","","key","16.662009900990146","616","305","true","1","129","15.36","3","1","-1","","","","","","","","","","","","",""
"psychophysics","17","42470","0.0-6.0-0.11","608969bcf752a60363fd8ddd","609006691f6f4e337c17f836","609d36243827d6732706d129","303.055000025779","","","","37","","","","key","16.66168831168837","616","305","true","-1","144.36","15.36","3","-1","1","","","","","","","","","","","","",""
"psychophysics","18","43835","0.0-6.0-0.12","608969bcf752a60363fd8ddd","609006691f6f4e337c17f836","609d36243827d6732706d129","363.9299999922514","","","","37","","","","key","16.661567901234562","616","305","true","-1","144.36","12.287999999999998","4","-1","-1","","","","","","","","","","","","",""
"psychophysics","19","45729","0.0-6.0-0.13","608969bcf752a60363fd8ddd","609006691f6f4e337c17f836","609d36243827d6732706d129","892.2700001858175","","","","37","","","","key","16.66192035398229","616","305","true","-1","132.072","12.287999999999998","4","-1","-1","","","","","","","","","","","","",""
"psychophysics","20","46912","0.0-6.0-0.14","608969bcf752a60363fd8ddd","609006691f6f4e337c17f836","609d36243827d6732706d129","180.00000016763806","","","","39","","","","key","16.66248571428566","616","305","true","1","132.072","12.287999999999998","4","-1","-1","","","","","","","","","","","","",""
"psychophysics","21","48513","0.0-6.0-0.15","608969bcf752a60363fd8ddd","609006691f6f4e337c17f836","609d36243827d6732706d129","597.6849999278784","","","","39","","","","key","16.66223157894741","616","305","true","-1","129","9.8304","5","1","-1","","","","","","","","","","","","",""
"psychophysics","22","49879","0.0-6.0-0.16","608969bcf752a60363fd8ddd","609006691f6f4e337c17f836","609d36243827d6732706d129","363.35500003769994","","","","37","","","","key","16.662012345679006","616","305","true","-1","138.8304","9.8304","5","-1","1","","","","","","","","","","","","",""
"psychophysics","23","50984","0.0-6.0-0.17","608969bcf752a60363fd8ddd","609006691f6f4e337c17f836","609d36243827d6732706d129","101.46999964490533","","","","39","","","","key","16.662123076923084","616","305","true","1","138.8304","7.864319999999999","6","-1","-1","","","","","","","","","","","","",""
"psychophysics","24","52394","0.0-6.0-0.18","608969bcf752a60363fd8ddd","609006691f6f4e337c17f836","609d36243827d6732706d129","408.2349999807775","","","","37","","","","key","16.662095238095258","616","305","true","-1","130.96608","7.864319999999999","6","-1","-1","","","","","","","","","","","","",""
"psychophysics","25","53795","0.0-6.0-0.19","608969bcf752a60363fd8ddd","609006691f6f4e337c17f836","609d36243827d6732706d129","398.01499992609024","","","","37","","","","key","16.661289156626534","616","305","true","1","130.96608","6.291456","7","1","-1","","","","","","","","","","","","",""
"psychophysics","26","54833","0.0-6.0-0.20","608969bcf752a60363fd8ddd","609006691f6f4e337c17f836","609d36243827d6732706d129","35.69999989122152","","","","39","","","","key","16.66162295081962","616","305","true","1","137.25753600000002","6.291456","7","-1","1","","","","","","","","","","","","",""
"psychophysics","27","55885","0.0-6.0-0.21","608969bcf752a60363fd8ddd","609006691f6f4e337c17f836","609d36243827d6732706d129","50.580000039190054","","","","39","","","","key","16.662306451612935","616","305","true","1","137.25753600000002","5.033164800000001","8","-1","-1","","","","","","","","","","","","",""
"psychophysics","28","57342","0.0-6.0-0.22","608969bcf752a60363fd8ddd","609006691f6f4e337c17f836","609d36243827d6732706d129","450.3000001423061","","","","39","","","","key","16.66260919540235","616","305","true","-1","132.2243712","4.0265318400000005","9","1","-1","","","","","","","","","","","","",""
"psychophysics","29","58476","0.0-6.0-0.23","608969bcf752a60363fd8ddd","609006691f6f4e337c17f836","609d36243827d6732706d129","130.68500021472573","","","","39","","","","key","16.9146666666667","616","305","true","1","136.25090304","4.0265318400000005","9","-1","1","","","","","","","","","","","","",""
"psychophysics","30","59611","0.0-6.0-0.24","608969bcf752a60363fd8ddd","609006691f6f4e337c17f836","609d36243827d6732706d129","132.0750000886619","","","","39","","","","key","16.661716417910434","616","305","true","1","136.25090304","3.2212254720000004","10","-1","-1","","","","","","","","","","","","",""
"psychophysics","31","61029","0.0-6.0-0.25","608969bcf752a60363fd8ddd","609006691f6f4e337c17f836","609d36243827d6732706d129","414.7149999625981","","","","37","","","","key","16.66204761904763","616","305","true","-1","133.029677568","3.2212254720000004","10","-1","-1","","","","","","","","","","","","",""
"psychophysics","32","62208","0.0-6.0-0.26","608969bcf752a60363fd8ddd","609006691f6f4e337c17f836","609d36243827d6732706d129","178.15000005066395","","","","37","","","","key","16.661957142857137","616","305","true","-1","133.029677568","3.2212254720000004","10","-1","-1","","","","","","","","","","","","",""
"psychophysics","33","63940","0.0-6.0-0.27","608969bcf752a60363fd8ddd","609006691f6f4e337c17f836","609d36243827d6732706d129","724.2850000038743","","","","37","","","","key","16.661922330097088","616","305","true","1","129.808452096","2.5769803776000004","11","1","-1","","","","","","","","","","","","",""
"psychophysics","34","65309","0.0-6.0-0.28","608969bcf752a60363fd8ddd","609006691f6f4e337c17f836","609d36243827d6732706d129","365.34000001847744","","","","37","","","","key","16.66080246913591","616","305","true","-1","132.3854324736","2.5769803776000004","11","-1","1","","","","","","","","","","","","",""
"psychophysics","35","66506","0.0-6.0-0.29","608969bcf752a60363fd8ddd","609006691f6f4e337c17f836","609d36243827d6732706d129","193.99000005796552","","","","37","","","","key","16.661830985915362","616","305","true","-1","132.3854324736","2.0615843020800004","12","-1","-1","","","","","","","","","","","","",""
"psychophysics","36","68112","0.0-6.0-0.30","608969bcf752a60363fd8ddd","609006691f6f4e337c17f836","609d36243827d6732706d129","597.1050001680851","","","","37","","","","key","16.661852631578835","616","305","true","1","130.32384817151998","1.6492674416640005","13","1","-1","","","","","","","","","","","","",""
"psychophysics","37","69308","0.0-6.0-0.31","608969bcf752a60363fd8ddd","609006691f6f4e337c17f836","609d36243827d6732706d129","195.25500014424324","","","","39","","","","key","16.66025352112672","616","305","true","-1","131.97311561318398","1.6492674416640005","13","1","1","","","","","","","","","","","","",""
"psychophysics","38","70371","0.0-6.0-0.32","608969bcf752a60363fd8ddd","609006691f6f4e337c17f836","609d36243827d6732706d129","61.53000006452203","","","","39","","","","key","16.661936507936584","616","305","true","1","133.62238305484797","1.6492674416640005","13","-1","1","","","","","","","","","","","","",""
"psychophysics","39","71494","0.0-6.0-0.33","608969bcf752a60363fd8ddd","609006691f6f4e337c17f836","609d36243827d6732706d129","121.04499991983175","","","","37","","","","key","16.661878787878916","616","305","true","-1","133.62238305484797","1.3194139533312006","14","-1","-1","","","","","","","","","","","","",""
"psychophysics","40","72644","0.0-6.0-0.34","608969bcf752a60363fd8ddd","609006691f6f4e337c17f836","609d36243827d6732706d129","147.59999979287386","","","","37","","","","key","16.66198529411764","616","305","true","-1","132.30296910151677","1.3194139533312006","14","-1","-1","","","","","","","","","","","","",""
"psychophysics","41","74408","0.0-6.0-0.35","608969bcf752a60363fd8ddd","609006691f6f4e337c17f836","609d36243827d6732706d129","762.34499970451","","","","37","","","","key","16.661800000000014","616","305","true","-1","132.30296910151677","1.3194139533312006","14","-1","-1","","","","","","","","","","","","",""
"psychophysics","42","75786","0.0-6.0-0.36","608969bcf752a60363fd8ddd","609006691f6f4e337c17f836","609d36243827d6732706d129","375.34500006586313","","","","39","","","","key","16.662365853658518","616","305","true","1","130.98355514818556","1.3194139533312006","14","-1","-1","","","","","","","","","","","","",""
"psychophysics","43","77070","0.0-6.0-0.37","608969bcf752a60363fd8ddd","609006691f6f4e337c17f836","609d36243827d6732706d129","280.3000002168119","","","","39","","","","key","16.661644736842153","616","305","true","-1","130.98355514818556","1.0555311626649604","15","1","-1","","","","","","","","","","","","",""
"psychophysics","44","78353","0.0-6.0-0.38","608969bcf752a60363fd8ddd","609006691f6f4e337c17f836","609d36243827d6732706d129","279.7650001011789","","","","37","","","","key","16.66177631578945","616","305","true","1","132.0390863108505","1.0555311626649604","15","1","1","","","","","","","","","","","","",""
"psychophysics","45","81143","0.0-6.0-0.39","608969bcf752a60363fd8ddd","609006691f6f4e337c17f836","609d36243827d6732706d129","1788.4249999187887","","","","39","","","","key","16.662078313253094","616","305","true","1","133.09461747351546","1.0555311626649604","15","-1","1","","","","","","","","","","","","",""
"html-keyboard-response","46","85627","0.0-7.0","608969bcf752a60363fd8ddd","609006691f6f4e337c17f836","609d36243827d6732706d129","4482.5599999167025","<p>Well Done !</p><p>Prepare for a new block.</p><p>DON'T EXIT THE FULL SCREEN MODE</p><p>Press the Spacebar to start.</p>","","","32","","","","","","","","","","","","","","","true","132.12581029049136","","","","","","","","","","",""
"psychophysics","47","86753","0.0-8.0-0.0","608969bcf752a60363fd8ddd","609006691f6f4e337c17f836","609d36243827d6732706d129","122.76999978348613","","","","37","","","","key","16.651454545454534","616","305","true","-1","180","30","0","-1","","","","","","","","","","","","","",""
"psychophysics","48","89167","0.0-8.0-0.1","608969bcf752a60363fd8ddd","609006691f6f4e337c17f836","609d36243827d6732706d129","1411.8749997578561","","","","39","","","","key","16.662006896551688","616","305","true","-1","180","30","0","1","-1","","","","","","","","","","","","",""
"psychophysics","49","90265","0.0-8.0-0.2","608969bcf752a60363fd8ddd","609006691f6f4e337c17f836","609d36243827d6732706d129","96.53500001877546","","","","39","","","","key","16.662138461538305","616","305","true","1","210","30","0","-1","1","","","","","","","","","","","","",""
"psychophysics","50","91651","0.0-8.0-0.3","608969bcf752a60363fd8ddd","609006691f6f4e337c17f836","609d36243827d6732706d129","382.53500033169985","","","","39","","","","key","16.66207317073163","616","305","true","1","210","24","1","-1","-1","","","","","","","","","","","","",""
"psychophysics","51","92984","0.0-8.0-0.4","608969bcf752a60363fd8ddd","609006691f6f4e337c17f836","609d36243827d6732706d129","330.51500003784895","","","","39","","","","key","16.662658227848176","616","305","true","1","186","24","1","-1","-1","","","","","","","","","","","","",""
"psychophysics","52","94331","0.0-8.0-0.5","608969bcf752a60363fd8ddd","609006691f6f4e337c17f836","609d36243827d6732706d129","344.20499997213483","","","","39","","","","key","16.66143749999992","616","305","true","1","186","24","1","-1","-1","","","","","","","","","","","","",""
"psychophysics","53","95687","0.0-8.0-0.6","608969bcf752a60363fd8ddd","609006691f6f4e337c17f836","609d36243827d6732706d129","353.20999985560775","","","","39","","","","key","16.66188749999983","616","305","true","1","162","24","1","-1","-1","","","","","","","","","","","","",""
"psychophysics","54","97004","0.0-8.0-0.7","608969bcf752a60363fd8ddd","609006691f6f4e337c17f836","609d36243827d6732706d129","315.98500022664666","","","","37","","","","key","16.661910256410266","616","305","true","-1","162","24","1","-1","-1","","","","","","","","","","","","",""
"psychophysics","55","98334","0.0-8.0-0.8","608969bcf752a60363fd8ddd","609006691f6f4e337c17f836","609d36243827d6732706d129","328.42000015079975","","","","37","","","","key","16.66174683544311","616","305","true","-1","138","24","1","-1","-1","","","","","","","","","","","","",""
"psychophysics","56","99536","0.0-8.0-0.9","608969bcf752a60363fd8ddd","609006691f6f4e337c17f836","609d36243827d6732706d129","200.61499997973442","","","","37","","","","key","16.661225352112677","616","305","true","-1","138","24","1","-1","-1","","","","","","","","","","","","",""
"psychophysics","57","101346","0.0-8.0-0.10","608969bcf752a60363fd8ddd","609006691f6f4e337c17f836","609d36243827d6732706d129","809.235000051558","","","","37","","","","key","16.66163888888884","616","305","true","1","129","19.2","2","1","-1","","","","","","","","","","","","",""
"psychophysics","58","102417","0.0-8.0-0.11","608969bcf752a60363fd8ddd","609006691f6f4e337c17f836","609d36243827d6732706d129","68.41000029817224","","","","39","","","","key","16.66247619047603","616","305","true","1","148.2","19.2","2","-1","1","","","","","","","","","","","","",""
"psychophysics","59","103462","0.0-8.0-0.12","608969bcf752a60363fd8ddd","609006691f6f4e337c17f836","609d36243827d6732706d129","42.90999984368682","","","","39","","","","key","16.66306451612904","616","305","true","1","148.2","15.36","3","-1","-1","","","","","","","","","","","","",""
"psychophysics","60","104580","0.0-8.0-0.13","608969bcf752a60363fd8ddd","609006691f6f4e337c17f836","609d36243827d6732706d129","115.34500028938055","","","","39","","","","key","16.6636212121212","616","305","true","1","132.83999999999997","15.36","3","-1","-1","","","","","","","","","","","","",""
"psychophysics","61","105748","0.0-8.0-0.14","608969bcf752a60363fd8ddd","609006691f6f4e337c17f836","609d36243827d6732706d129","165.14499997720122","","","","39","","","","key","16.66198550724632","616","305","true","1","132.83999999999997","15.36","3","-1","-1","","","","","","","","","","","","",""
"psychophysics","62","106832","0.0-8.0-0.15","608969bcf752a60363fd8ddd","609006691f6f4e337c17f836","609d36243827d6732706d129","78.78499990329146","","","","37","","","","key","16.661609375000126","616","305","true","-1","129","15.36","3","-1","-1","","","","","","","","","","","","",""
"psychophysics","63","108468","0.0-8.0-0.16","608969bcf752a60363fd8ddd","609006691f6f4e337c17f836","609d36243827d6732706d129","634.2199998907745","","","","37","","","","key","16.66136082474229","616","305","true","-1","129","15.36","3","-1","-1","","","","","","","","","","","","",""
"psychophysics","64","110230","0.0-8.0-0.17","608969bcf752a60363fd8ddd","609006691f6f4e337c17f836","609d36243827d6732706d129","759.9149998277426","","","","37","","","","key","16.66187619047622","616","305","true","-1","129","15.36","3","-1","-1","","","","","","","","","","","","",""
"psychophysics","65","111731","0.0-8.0-0.18","608969bcf752a60363fd8ddd","609006691f6f4e337c17f836","609d36243827d6732706d129","498.27999994158745","","","","39","","","","key","16.661955056179824","616","305","true","-1","129","12.287999999999998","4","1","-1","","","","","","","","","","","","",""
"psychophysics","66","113210","0.0-8.0-0.19","608969bcf752a60363fd8ddd","609006691f6f4e337c17f836","609d36243827d6732706d129","477.3899996653199","","","","37","","","","key","16.66185227272713","616","305","true","-1","141.288","12.287999999999998","4","-1","1","","","","","","","","","","","","",""
"psychophysics","67","114642","0.0-8.0-0.20","608969bcf752a60363fd8ddd","609006691f6f4e337c17f836","609d36243827d6732706d129","427.99000022932887","","","","37","","","","key","16.661882352941113","616","305","true","-1","141.288","9.8304","5","-1","-1","","","","","","","","","","","","",""
"psychophysics","68","116128","0.0-8.0-0.21","608969bcf752a60363fd8ddd","609006691f6f4e337c17f836","609d36243827d6732706d129","483.10500010848045","","","","37","","","","key","16.661829545454484","616","305","true","-1","131.4576","9.8304","5","-1","-1","","","","","","","","","","","","",""
"psychophysics","69","117558","0.0-8.0-0.22","608969bcf752a60363fd8ddd","609006691f6f4e337c17f836","609d36243827d6732706d129","427.9749998822808","","","","39","","","","key","16.661588235294126","616","305","true","-1","131.4576","7.864319999999999","6","1","-1","","","","","","","","","","","","",""
"psychophysics","70","118924","0.0-8.0-0.23","608969bcf752a60363fd8ddd","609006691f6f4e337c17f836","609d36243827d6732706d129","364.18999964371324","","","","37","","","","key","16.662358024691333","616","305","true","-1","139.32192","7.864319999999999","6","-1","1","","","","","","","","","","","","",""
"psychophysics","71","120260","0.0-8.0-0.24","608969bcf752a60363fd8ddd","609006691f6f4e337c17f836","609d36243827d6732706d129","331.1449997127056","","","","39","","","","key","16.66229113924046","616","305","true","1","139.32192","6.291456","7","-1","-1","","","","","","","","","","","","",""
"psychophysics","72","121491","0.0-8.0-0.25","608969bcf752a60363fd8ddd","609006691f6f4e337c17f836","609d36243827d6732706d129","229.6250001527369","","","","39","","","","key","16.6620136986302","616","305","true","1","133.030464","6.291456","7","-1","-1","","","","","","","","","","","","",""
"psychophysics","73","122698","0.0-8.0-0.26","608969bcf752a60363fd8ddd","609006691f6f4e337c17f836","609d36243827d6732706d129","203.26999993994832","","","","37","","","","key","16.662478873239333","616","305","true","-1","133.030464","6.291456","7","-1","-1","","","","","","","","","","","","",""
"psychophysics","74","124124","0.0-8.0-0.27","608969bcf752a60363fd8ddd","609006691f6f4e337c17f836","609d36243827d6732706d129","422.9150000028312","","","","37","","","","key","16.661976470588193","616","305","true","-1","129","6.291456","7","-1","-1","","","","","","","","","","","","",""
"psychophysics","75","125563","0.0-8.0-0.28","608969bcf752a60363fd8ddd","609006691f6f4e337c17f836","609d36243827d6732706d129","436.48499995470047","","","","37","","","","key","16.662505882352878","616","305","true","-1","129","6.291456","7","-1","-1","","","","","","","","","","","","",""
"psychophysics","76","126961","0.0-8.0-0.29","608969bcf752a60363fd8ddd","609006691f6f4e337c17f836","609d36243827d6732706d129","395.6050002016127","","","","39","","","","key","16.661481927710913","616","305","true","-1","129","5.033164800000001","8","1","-1","","","","","","","","","","","","",""
"psychophysics","77","128039","0.0-8.0-0.30","608969bcf752a60363fd8ddd","609006691f6f4e337c17f836","609d36243827d6732706d129","77.18000002205372","","","","39","","","","key","16.662171875000013","616","305","true","1","134.0331648","5.033164800000001","8","-1","1","","","","","","","","","","","","",""
"psychophysics","78","129571","0.0-8.0-0.31","608969bcf752a60363fd8ddd","609006691f6f4e337c17f836","609d36243827d6732706d129","528.9300000295043","","","","37","","","","key","16.66143956043947","616","305","true","-1","134.0331648","4.0265318400000005","9","-1","-1","","","","","","","","","","","","",""
"psychophysics","79","130939","0.0-8.0-0.32","608969bcf752a60363fd8ddd","609006691f6f4e337c17f836","609d36243827d6732706d129","365.0249997153878","","","","39","","","","key","16.66275308641963","616","305","true","1","130.00663296000002","4.0265318400000005","9","-1","-1","","","","","","","","","","","","",""
"psychophysics","80","132204","0.0-8.0-0.33","608969bcf752a60363fd8ddd","609006691f6f4e337c17f836","609d36243827d6732706d129","261.7150000296533","","","","37","","","","key","16.662440000000256","616","305","true","1","130.00663296000002","3.2212254720000004","10","1","-1","","","","","","","","","","","","",""
"psychophysics","81","133544","0.0-8.0-0.34","608969bcf752a60363fd8ddd","609006691f6f4e337c17f836","609d36243827d6732706d129","336.22000040486455","","","","37","","","","key","16.661227848101554","616","305","true","1","133.227858432","3.2212254720000004","10","1","1","","","","","","","","","","","","",""
"psychophysics","82","134688","0.0-8.0-0.35","608969bcf752a60363fd8ddd","609006691f6f4e337c17f836","609d36243827d6732706d129","141.84000017121434","","","","39","","","","key","16.66176470588235","616","305","true","1","136.44908390400002","3.2212254720000004","10","-1","1","","","","","","","","","","","","",""
"psychophysics","83","135986","0.0-8.0-0.36","608969bcf752a60363fd8ddd","609006691f6f4e337c17f836","609d36243827d6732706d129","295.9300000220537","","","","39","","","","key","16.661831168830926","616","305","true","1","136.44908390400002","2.5769803776000004","11","-1","-1","","","","","","","","","","","","",""
"psychophysics","84","137237","0.0-8.0-0.37","608969bcf752a60363fd8ddd","609006691f6f4e337c17f836","609d36243827d6732706d129","247.5649998523295","","","","37","","","","key","16.661189189188992","616","305","true","-1","133.87210352640002","2.5769803776000004","11","-1","-1","","","","","","","","","","","","",""
"psychophysics","85","138425","0.0-8.0-0.38","608969bcf752a60363fd8ddd","609006691f6f4e337c17f836","609d36243827d6732706d129","180.21999998018146","","","","39","","","","key","16.6625","616","305","true","1","133.87210352640002","2.5769803776000004","11","-1","-1","","","","","","","","","","","","",""
"psychophysics","86","140042","0.0-8.0-0.39","608969bcf752a60363fd8ddd","609006691f6f4e337c17f836","609d36243827d6732706d129","615.1549997739494","","","","37","","","","key","16.662375000000186","616","305","true","1","131.29512314880003","2.0615843020800004","12","1","-1","","","","","","","","","","","","",""
"html-keyboard-response","87","172728","0.0-9.0","608969bcf752a60363fd8ddd","609006691f6f4e337c17f836","609d36243827d6732706d129","32685.36499980837","<p>Well Done !</p><p>Prepare for a new block.</p><p>DON'T EXIT THE FULL SCREEN MODE</p><p>Press the Spacebar to start.</p>","","","32","","","","","","","","","","","","","","","true","132.42039199744","","","","","","","","","","",""
"psychophysics","88","175725","0.0-10.0-0.0","608969bcf752a60363fd8ddd","609006691f6f4e337c17f836","609d36243827d6732706d129","1993.724999949336","","","","37","","","","key","16.63843333333336","616","305","true","-1","180","30","0","-1","","","","","","","","","","","","","",""
"psychophysics","89","177674","0.0-10.0-0.1","608969bcf752a60363fd8ddd","609006691f6f4e337c17f836","609d36243827d6732706d129","947.5350002758205","","","","39","","","","key","16.661862068965373","616","305","true","1","180","30","0","-1","-1","","","","","","","","","","","","",""
"psychophysics","90","179081","0.0-10.0-0.2","608969bcf752a60363fd8ddd","609006691f6f4e337c17f836","609d36243827d6732706d129","404.55499989911914","","","","39","","","","key","16.662421686746985","616","305","true","1","150","30","0","-1","-1","","","","","","","","","","","","",""
"psychophysics","91","180624","0.0-10.0-0.3","608969bcf752a60363fd8ddd","609006691f6f4e337c17f836","609d36243827d6732706d129","540.3849999420345","","","","37","","","","key","16.66270652173926","616","305","true","-1","150","30","0","-1","-1","","","","","","","","","","","","",""
"psychophysics","92","182090","0.0-10.0-0.4","608969bcf752a60363fd8ddd","609006691f6f4e337c17f836","609d36243827d6732706d129","462.9899999126792","","","","37","","","","key","16.66117241379307","616","305","true","1","129","24","1","1","-1","","","","","","","","","","","","",""
"psychophysics","93","183474","0.0-10.0-0.5","608969bcf752a60363fd8ddd","609006691f6f4e337c17f836","609d36243827d6732706d129","380.6199999526143","","","","39","","","","key","16.661182926828964","616","305","true","1","153","24","1","-1","1","","","","","","","","","","","","",""
"psychophysics","94","184793","0.0-10.0-0.6","608969bcf752a60363fd8ddd","609006691f6f4e337c17f836","609d36243827d6732706d129","314.8000002838671","","","","37","","","","key","16.661705128205284","616","305","true","-1","153","19.2","2","-1","-1","","","","","","","","","","","","",""
"psychophysics","95","186164","0.0-10.0-0.7","608969bcf752a60363fd8ddd","609006691f6f4e337c17f836","609d36243827d6732706d129","370.0749999843538","","","","37","","","","key","16.661370370370324","616","305","true","-1","133.8","19.2","2","-1","-1","","","","","","","","","","","","",""
"psychophysics","96","187561","0.0-10.0-0.8","608969bcf752a60363fd8ddd","609006691f6f4e337c17f836","609d36243827d6732706d129","390.11000003665686","","","","37","","","","key","16.662337349397788","616","305","true","-1","133.8","19.2","2","-1","-1","","","","","","","","","","","","",""
"psychophysics","97","188938","0.0-10.0-0.9","608969bcf752a60363fd8ddd","609006691f6f4e337c17f836","609d36243827d6732706d129","376.2300000526011","","","","39","","","","key","16.661658536585648","616","305","true","1","129","19.2","2","-1","-1","","","","","","","","","","","","",""
"psychophysics","98","190405","0.0-10.0-0.10","608969bcf752a60363fd8ddd","609006691f6f4e337c17f836","609d36243827d6732706d129","463.2700001820922","","","","39","","","","key","16.662034482758724","616","305","true","1","129","19.2","2","-1","-1","","","","","","","","","","","","",""
"psychophysics","99","191938","0.0-10.0-0.11","608969bcf752a60363fd8ddd","609006691f6f4e337c17f836","609d36243827d6732706d129","530.2899996750057","","","","37","","","","key","16.66204395604411","616","305","true","1","129","15.36","3","1","-1","","","","","","","","","","","","",""
"psychophysics","100","193287","0.0-10.0-0.12","608969bcf752a60363fd8ddd","609006691f6f4e337c17f836","609d36243827d6732706d129","346.649999730289","","","","39","","","","key","16.66189999999988","616","305","true","1","144.36","15.36","3","-1","1","","","","","","","","","","","","",""
"psychophysics","101","194625","0.0-10.0-0.13","608969bcf752a60363fd8ddd","609006691f6f4e337c17f836","609d36243827d6732706d129","334.9199998192489","","","","37","","","","key","16.661227848101188","616","305","true","-1","144.36","12.287999999999998","4","-1","-1","","","","","","","","","","","","",""
"psychophysics","102","195895","0.0-10.0-0.14","608969bcf752a60363fd8ddd","609006691f6f4e337c17f836","609d36243827d6732706d129","268.9849999733269","","","","39","","","","key","16.662159999999762","616","305","true","1","132.072","12.287999999999998","4","-1","-1","","","","","","","","","","","","",""
"psychophysics","103","197221","0.0-10.0-0.15","608969bcf752a60363fd8ddd","609006691f6f4e337c17f836","609d36243827d6732706d129","319.6250000037253","","","","37","","","","key","16.661746835442926","616","305","true","1","132.072","9.8304","5","1","-1","","","","","","","","","","","","",""
"psychophysics","104","198552","0.0-10.0-0.16","608969bcf752a60363fd8ddd","609006691f6f4e337c17f836","609d36243827d6732706d129","329.6700003556907","","","","37","","","","key","16.660936708860852","616","305","true","-1","141.9024","9.8304","5","-1","1","","","","","","","","","","","","",""
"psychophysics","105","199918","0.0-10.0-0.17","608969bcf752a60363fd8ddd","609006691f6f4e337c17f836","609d36243827d6732706d129","362.1749999001622","","","","37","","","","key","16.661864197530917","616","305","true","-1","141.9024","7.864319999999999","6","-1","-1","","","","","","","","","","","","",""
"psychophysics","106","201238","0.0-10.0-0.18","608969bcf752a60363fd8ddd","609006691f6f4e337c17f836","609d36243827d6732706d129","317.26499972864985","","","","37","","","","key","16.66161538461538","616","305","true","-1","134.03808","7.864319999999999","6","-1","-1","","","","","","","","","","","","",""
"psychophysics","107","202601","0.0-10.0-0.19","608969bcf752a60363fd8ddd","609006691f6f4e337c17f836","609d36243827d6732706d129","361.8649998679757","","","","37","","","","key","16.66150617283944","616","305","true","-1","134.03808","7.864319999999999","6","-1","-1","","","","","","","","","","","","",""
"psychophysics","108","203991","0.0-10.0-0.20","608969bcf752a60363fd8ddd","609006691f6f4e337c17f836","609d36243827d6732706d129","387.0250000618398","","","","39","","","","key","16.662573170731775","616","305","true","1","129","7.864319999999999","6","-1","-1","","","","","","","","","","","","",""
"psychophysics","109","205219","0.0-10.0-0.21","608969bcf752a60363fd8ddd","609006691f6f4e337c17f836","609d36243827d6732706d129","226.86500009149313","","","","39","","","","key","16.66297260273969","616","305","true","1","129","7.864319999999999","6","-1","-1","","","","","","","","","","","","",""
"psychophysics","110","206552","0.0-10.0-0.22","608969bcf752a60363fd8ddd","609006691f6f4e337c17f836","609d36243827d6732706d129","329.5149998739362","","","","39","","","","key","16.661936708860456","616","305","true","-1","129","6.291456","7","1","-1","","","","","","","","","","","","",""
"psychophysics","111","207753","0.0-10.0-0.23","608969bcf752a60363fd8ddd","609006691f6f4e337c17f836","609d36243827d6732706d129","199.3499998934567","","","","37","","","","key","16.66281690140842","616","305","true","-1","135.291456","6.291456","7","-1","1","","","","","","","","","","","","",""
"psychophysics","112","209051","0.0-10.0-0.24","608969bcf752a60363fd8ddd","609006691f6f4e337c17f836","609d36243827d6732706d129","295.93499982729554","","","","37","","","","key","16.661766233766308","616","305","true","-1","135.291456","5.033164800000001","8","-1","-1","","","","","","","","","","","","",""
"psychophysics","113","210635","0.0-10.0-0.25","608969bcf752a60363fd8ddd","609006691f6f4e337c17f836","609d36243827d6732706d129","581.7300002090633","","","","37","","","","key","16.662382978723667","616","305","true","-1","130.2582912","5.033164800000001","8","-1","-1","","","","","","","","","","","","",""
"psychophysics","114","211981","0.0-10.0-0.26","608969bcf752a60363fd8ddd","609006691f6f4e337c17f836","609d36243827d6732706d129","344.71500013023615","","","","39","","","","key","16.66103750000002","616","305","true","1","130.2582912","5.033164800000001","8","-1","-1","","","","","","","","","","","","",""
"psychophysics","115","213301","0.0-10.0-0.27","608969bcf752a60363fd8ddd","609006691f6f4e337c17f836","609d36243827d6732706d129","316.17000000551343","","","","39","","","","key","16.66179487179481","616","305","true","-1","129","4.0265318400000005","9","1","-1","","","","","","","","","","","","",""
"psychophysics","116","214518","0.0-10.0-0.28","608969bcf752a60363fd8ddd","609006691f6f4e337c17f836","609d36243827d6732706d129","214.92499997839332","","","","39","","","","key","16.66241666666651","616","305","true","1","133.02653184","4.0265318400000005","9","-1","1","","","","","","","","","","","","",""
"psychophysics","117","215601","0.0-10.0-0.29","608969bcf752a60363fd8ddd","609006691f6f4e337c17f836","609d36243827d6732706d129","81.3099998049438","","","","39","","","","key","16.66115624999975","616","305","true","1","133.02653184","3.2212254720000004","10","-1","-1","","","","","","","","","","","","",""
"psychophysics","118","217130","0.0-10.0-0.30","608969bcf752a60363fd8ddd","609006691f6f4e337c17f836","609d36243827d6732706d129","527.2099999710917","","","","37","","","","key","16.661747252747062","616","305","true","1","129.805306368","2.5769803776000004","11","1","-1","","","","","","","","","","","","",""
"psychophysics","119","218514","0.0-10.0-0.31","608969bcf752a60363fd8ddd","609006691f6f4e337c17f836","609d36243827d6732706d129","379.87999990582466","","","","37","","","","key","16.660756097560984","616","305","true","1","132.3822867456","2.5769803776000004","11","1","1","","","","","","","","","","","","",""
"psychophysics","120","219853","0.0-10.0-0.32","608969bcf752a60363fd8ddd","609006691f6f4e337c17f836","609d36243827d6732706d129","335.6200000271201","","","","37","","","","key","16.660797468354538","616","305","true","-1","134.9592671232","2.5769803776000004","11","-1","1","","","","","","","","","","","","",""
"psychophysics","121","221154","0.0-10.0-0.33","608969bcf752a60363fd8ddd","609006691f6f4e337c17f836","609d36243827d6732706d129","300.0349998474121","","","","37","","","","key","16.66180519480523","616","305","true","-1","134.9592671232","2.0615843020800004","12","-1","-1","","","","","","","","","","","","",""
"psychophysics","122","222466","0.0-10.0-0.34","608969bcf752a60363fd8ddd","609006691f6f4e337c17f836","609d36243827d6732706d129","305.18499994650483","","","","39","","","","key","16.661217948717724","616","305","true","1","132.89768282112","2.0615843020800004","12","-1","-1","","","","","","","","","","","","",""
"psychophysics","123","223811","0.0-10.0-0.35","608969bcf752a60363fd8ddd","609006691f6f4e337c17f836","609d36243827d6732706d129","343.9499996602535","","","","39","","","","key","16.66270000000004","616","305","true","1","132.89768282112","2.0615843020800004","12","-1","-1","","","","","","","","","","","","",""
"psychophysics","124","224961","0.0-10.0-0.36","608969bcf752a60363fd8ddd","609006691f6f4e337c17f836","609d36243827d6732706d129","147.49500015750527","","","","39","","","","key","16.661426470588435","616","305","true","1","130.83609851903998","2.0615843020800004","12","-1","-1","","","","","","","","","","","","",""
"psychophysics","125","226580","0.0-10.0-0.37","608969bcf752a60363fd8ddd","609006691f6f4e337c17f836","609d36243827d6732706d129","616.9950002804399","","","","37","","","","key","16.662177083333216","616","305","true","-1","130.83609851903998","2.0615843020800004","12","-1","-1","","","","","","","","","","","","",""
"psychophysics","126","227977","0.0-10.0-0.38","608969bcf752a60363fd8ddd","609006691f6f4e337c17f836","609d36243827d6732706d129","394.60999984294176","","","","37","","","","key","16.662650602409638","616","305","true","-1","129","2.0615843020800004","12","-1","-1","","","","","","","","","","","","",""
"psychophysics","127","229449","0.0-10.0-0.39","608969bcf752a60363fd8ddd","609006691f6f4e337c17f836","609d36243827d6732706d129","469.0400003455579","","","","37","","","","key","16.661160919539988","616","305","true","-1","129","2.0615843020800004","12","-1","-1","","","","","","","","","","","","",""
"html-keyboard-response","128","231821","0.0-11.0","608969bcf752a60363fd8ddd","609006691f6f4e337c17f836","609d36243827d6732706d129","2371.56999995932","<p>Well Done !</p><p>Prepare for a new block.</p><p>DON'T EXIT THE FULL SCREEN MODE</p><p>Press the Spacebar to start.</p>","","","32","","","","","","","","","","","","","","","true","131.542889074688","","","","","","","","","","",""
"psychophysics","129","234498","0.0-12.0-0.0","608969bcf752a60363fd8ddd","609006691f6f4e337c17f836","609d36243827d6732706d129","1674.5550003834069","","","","39","","","","key","16.87121518987343","616","305","true","1","180","30","0","-1","","","","","","","","","","","","","",""
"psychophysics","130","236057","0.0-12.0-0.1","608969bcf752a60363fd8ddd","609006691f6f4e337c17f836","609d36243827d6732706d129","557.289999909699","","","","37","","","","key","16.6627311827956","616","305","true","-1","180","30","0","-1","-1","","","","","","","","","","","","",""
"psychophysics","131","237527","0.0-12.0-0.2","608969bcf752a60363fd8ddd","609006691f6f4e337c17f836","609d36243827d6732706d129","467.4399998039007","","","","39","","","","key","16.661988505747384","616","305","true","1","150","30","0","-1","-1","","","","","","","","","","","","",""
"psychophysics","132","238945","0.0-12.0-0.3","608969bcf752a60363fd8ddd","609006691f6f4e337c17f836","609d36243827d6732706d129","417.41500003263354","","","","39","","","","key","16.66161904761906","616","305","true","1","150","30","0","-1","-1","","","","","","","","","","","","",""
"psychophysics","133","240472","0.0-12.0-0.4","608969bcf752a60363fd8ddd","609006691f6f4e337c17f836","609d36243827d6732706d129","525.870000012219","","","","37","","","","key","16.661945054944987","616","305","true","-1","129","30","0","-1","-1","","","","","","","","","","","","",""
"psychophysics","134","241947","0.0-12.0-0.5","608969bcf752a60363fd8ddd","609006691f6f4e337c17f836","609d36243827d6732706d129","472.16999996453524","","","","37","","","","key","16.66067816091945","616","305","true","1","129","24","1","1","-1","","","","","","","","","","","","",""
"psychophysics","135","243462","0.0-12.0-0.6","608969bcf752a60363fd8ddd","609006691f6f4e337c17f836","609d36243827d6732706d129","506.66499976068735","","","","39","","","","key","16.661266666666616","616","305","true","1","153","24","1","-1","1","","","","","","","","","","","","",""
"psychophysics","136","244865","0.0-12.0-0.7","608969bcf752a60363fd8ddd","609006691f6f4e337c17f836","609d36243827d6732706d129","393.9800001680851","","","","39","","","","key","16.661746987951666","616","305","true","1","153","19.2","2","-1","-1","","","","","","","","","","","","",""
"psychophysics","137","246371","0.0-12.0-0.8","608969bcf752a60363fd8ddd","609006691f6f4e337c17f836","609d36243827d6732706d129","500.4699998535216","","","","39","","","","key","16.66193333333326","616","305","true","1","133.8","19.2","2","-1","-1","","","","","","","","","","","","",""
"psychophysics","138","248438","0.0-12.0-0.9","608969bcf752a60363fd8ddd","609006691f6f4e337c17f836","609d36243827d6732706d129","1063.7650000862777","","","","37","","","","key","16.662455284552756","616","305","true","1","133.8","15.36","3","1","-1","","","","","","","","","","","","",""
"psychophysics","139","249653","0.0-12.0-0.10","608969bcf752a60363fd8ddd","609006691f6f4e337c17f836","609d36243827d6732706d129","206.92000025883317","","","","37","","","","key","16.66037499999988","616","305","true","-1","149.16000000000003","15.36","3","-1","1","","","","","","","","","","","","",""
"psychophysics","140","251023","0.0-12.0-0.11","608969bcf752a60363fd8ddd","609006691f6f4e337c17f836","609d36243827d6732706d129","367.1200000680983","","","","39","","","","key","16.6618395061728","616","305","true","1","149.16000000000003","12.287999999999998","4","-1","-1","","","","","","","","","","","","",""
"psychophysics","141","252452","0.0-12.0-0.12","608969bcf752a60363fd8ddd","609006691f6f4e337c17f836","609d36243827d6732706d129","427.6950000785291","","","","39","","","","key","16.661917647058896","616","305","true","1","136.872","12.287999999999998","4","-1","-1","","","","","","","","","","","","",""
"psychophysics","142","253787","0.0-12.0-0.13","608969bcf752a60363fd8ddd","609006691f6f4e337c17f836","609d36243827d6732706d129","331.8750001490116","","","","37","","","","key","16.661746835442926","616","305","true","-1","136.872","12.287999999999998","4","-1","-1","","","","","","","","","","","","",""
"psychophysics","143","255721","0.0-12.0-0.14","608969bcf752a60363fd8ddd","609006691f6f4e337c17f836","609d36243827d6732706d129","930.7600003667176","","","","37","","","","key","16.66221739130434","616","305","true","-1","129","12.287999999999998","4","-1","-1","","","","","","","","","","","","",""
"psychophysics","144","257123","0.0-12.0-0.15","608969bcf752a60363fd8ddd","609006691f6f4e337c17f836","609d36243827d6732706d129","400.28000017628074","","","","37","","","","key","16.66240243902451","616","305","true","-1","129","12.287999999999998","4","-1","-1","","","","","","","","","","","","",""
"psychophysics","145","258471","0.0-12.0-0.16","608969bcf752a60363fd8ddd","609006691f6f4e337c17f836","609d36243827d6732706d129","347.06000005826354","","","","39","","","","key","16.661962962963038","616","305","true","-1","129","9.8304","5","1","-1","","","","","","","","","","","","",""
"psychophysics","146","259901","0.0-12.0-0.17","608969bcf752a60363fd8ddd","609006691f6f4e337c17f836","609d36243827d6732706d129","427.70000034943223","","","","39","","","","key","16.66254117647049","616","305","true","1","138.8304","9.8304","5","-1","1","","","","","","","","","","","","",""
"psychophysics","147","261269","0.0-12.0-0.18","608969bcf752a60363fd8ddd","609006691f6f4e337c17f836","609d36243827d6732706d129","365.08999997749925","","","","37","","","","key","16.66269135802487","616","305","true","-1","138.8304","7.864319999999999","6","-1","-1","","","","","","","","","","","","",""
"psychophysics","148","262671","0.0-12.0-0.19","608969bcf752a60363fd8ddd","609006691f6f4e337c17f836","609d36243827d6732706d129","399.9649998731911","","","","39","","","","key","16.662457831325263","616","305","true","-1","130.96608","6.291456","7","1","-1","","","","","","","","","","","","",""
"psychophysics","149","264049","0.0-12.0-0.20","608969bcf752a60363fd8ddd","609006691f6f4e337c17f836","609d36243827d6732706d129","377.53499997779727","","","","37","","","","key","16.662158536585615","616","305","true","-1","137.25753600000002","6.291456","7","-1","1","","","","","","","","","","","","",""
"psychophysics","150","265399","0.0-12.0-0.21","608969bcf752a60363fd8ddd","609006691f6f4e337c17f836","609d36243827d6732706d129","346.27499990165234","","","","39","","","","key","16.661887500000013","616","305","true","1","137.25753600000002","5.033164800000001","8","-1","-1","","","","","","","","","","","","",""
"psychophysics","151","266798","0.0-12.0-0.22","608969bcf752a60363fd8ddd","609006691f6f4e337c17f836","609d36243827d6732706d129","396.2250002659857","","","","39","","","","key","16.66208433734915","616","305","true","1","132.2243712","5.033164800000001","8","-1","-1","","","","","","","","","","","","",""
"psychophysics","152","268217","0.0-12.0-0.23","608969bcf752a60363fd8ddd","609006691f6f4e337c17f836","609d36243827d6732706d129","415.4199999757111","","","","39","","","","key","16.663095238095377","616","305","true","1","132.2243712","5.033164800000001","8","-1","-1","","","","","","","","","","","","",""
"psychophysics","153","269567","0.0-12.0-0.24","608969bcf752a60363fd8ddd","609006691f6f4e337c17f836","609d36243827d6732706d129","342.8549999371171","","","","39","","","","key","16.661850000000413","616","305","true","1","129","5.033164800000001","8","-1","-1","","","","","","","","","","","","",""
"psychophysics","154","270773","0.0-12.0-0.25","608969bcf752a60363fd8ddd","609006691f6f4e337c17f836","609d36243827d6732706d129","204.5850004069507","","","","37","","","","key","16.662380281689867","616","305","true","-1","129","5.033164800000001","8","-1","-1","","","","","","","","","","","","",""
"psychophysics","155","272185","0.0-12.0-0.26","608969bcf752a60363fd8ddd","609006691f6f4e337c17f836","609d36243827d6732706d129","405.92500008642673","","","","37","","","","key","16.66213095238033","616","305","true","-1","129","5.033164800000001","8","-1","-1","","","","","","","","","","","","",""
"psychophysics","156","273720","0.0-12.0-0.27","608969bcf752a60363fd8ddd","609006691f6f4e337c17f836","609d36243827d6732706d129","534.2950001358986","","","","37","","","","key","16.662362637362893","616","305","true","-1","129","5.033164800000001","8","-1","-1","","","","","","","","","","","","",""
"psychophysics","157","275179","0.0-12.0-0.28","608969bcf752a60363fd8ddd","609006691f6f4e337c17f836","609d36243827d6732706d129","457.03000016510487","","","","39","","","","key","16.660747126436622","616","305","true","-1","129","4.0265318400000005","9","1","-1","","","","","","","","","","","","",""
"psychophysics","158","276645","0.0-12.0-0.29","608969bcf752a60363fd8ddd","609006691f6f4e337c17f836","609d36243827d6732706d129","462.94499980285764","","","","37","","","","key","16.66226436781641","616","305","true","1","133.02653184","4.0265318400000005","9","1","1","","","","","","","","","","","","",""
"psychophysics","159","278078","0.0-12.0-0.30","608969bcf752a60363fd8ddd","609006691f6f4e337c17f836","609d36243827d6732706d129","428.67499962449074","","","","37","","","","key","16.661576470588198","616","305","true","-1","137.05306367999998","4.0265318400000005","9","-1","1","","","","","","","","","","","","",""
"psychophysics","160","279495","0.0-12.0-0.31","608969bcf752a60363fd8ddd","609006691f6f4e337c17f836","609d36243827d6732706d129","414.809999987483","","","","37","","","","key","16.661321428571163","616","305","true","-1","137.05306367999998","3.2212254720000004","10","-1","-1","","","","","","","","","","","","",""
"psychophysics","161","280799","0.0-12.0-0.32","608969bcf752a60363fd8ddd","609006691f6f4e337c17f836","609d36243827d6732706d129","301.07499985024333","","","","39","","","","key","16.662428571428354","616","305","true","1","133.83183820799997","3.2212254720000004","10","-1","-1","","","","","","","","","","","","",""
"psychophysics","162","282151","0.0-12.0-0.33","608969bcf752a60363fd8ddd","609006691f6f4e337c17f836","609d36243827d6732706d129","350.3450001589954","","","","39","","","","key","16.66276249999937","616","305","true","1","133.83183820799997","3.2212254720000004","10","-1","-1","","","","","","","","","","","","",""
"psychophysics","163","283493","0.0-12.0-0.34","608969bcf752a60363fd8ddd","609006691f6f4e337c17f836","609d36243827d6732706d129","340.31999995931983","","","","37","","","","key","16.661412500000004","616","305","true","-1","130.61061273599995","3.2212254720000004","10","-1","-1","","","","","","","","","","","","",""
"psychophysics","164","285096","0.0-12.0-0.35","608969bcf752a60363fd8ddd","609006691f6f4e337c17f836","609d36243827d6732706d129","600.2050000242889","","","","39","","","","key","16.661736842105164","616","305","true","-1","130.61061273599995","2.5769803776000004","11","1","-1","","","","","","","","","","","","",""
"psychophysics","165","286497","0.0-12.0-0.36","608969bcf752a60363fd8ddd","609006691f6f4e337c17f836","609d36243827d6732706d129","400.21999971941113","","","","39","","","","key","16.662879518071943","616","305","true","1","133.18759311359995","2.5769803776000004","11","-1","1","","","","","","","","","","","","",""
"psychophysics","166","287892","0.0-12.0-0.37","608969bcf752a60363fd8ddd","609006691f6f4e337c17f836","609d36243827d6732706d129","393.23499985039234","","","","39","","","","key","16.66080722891577","616","305","true","1","133.18759311359995","2.0615843020800004","12","-1","-1","","","","","","","","","","","","",""
"psychophysics","167","289242","0.0-12.0-0.38","608969bcf752a60363fd8ddd","609006691f6f4e337c17f836","609d36243827d6732706d129","346.0699999704957","","","","37","","","","key","16.662749999999505","616","305","true","-1","131.12600881151994","2.0615843020800004","12","-1","-1","","","","","","","","","","","","",""
"psychophysics","168","290624","0.0-12.0-0.39","608969bcf752a60363fd8ddd","609006691f6f4e337c17f836","609d36243827d6732706d129","379.73999977111816","","","","37","","","","key","16.6616097560973","616","305","true","-1","131.12600881151994","2.0615843020800004","12","-1","-1","","","","","","","","","","","","",""
"html-keyboard-response","169","292266","0.0-13.0","608969bcf752a60363fd8ddd","609006691f6f4e337c17f836","609d36243827d6732706d129","1639.9600002914667","<p>Well Done !</p><p>Prepare for a new block.</p><p>DON'T EXIT THE FULL SCREEN MODE</p><p>Press the Spacebar to start.</p>","","","32","","","","","","","","","","","","","","","true","132.04298432921595","","","","","","","","","","",""
"html-keyboard-response","170","292380","0.0-14.0","608969bcf752a60363fd8ddd","609006691f6f4e337c17f836","609d36243827d6732706d129","null","","","","null","","","","","","","","","","","","","","","","","132.03301892295883","true","136.06603784591766","","","","","","","",""
"instructions","171","341798","0.0-15.0","608969bcf752a60363fd8ddd","609006691f6f4e337c17f836","609d36243827d6732706d129","49416.45999997854","","","","","","","[{""page_index"":0,""viewing_time"":45604.325000196695},{""page_index"":1,""viewing_time"":1699.5449997484684},{""page_index"":2,""viewing_time"":2112.2750001959503}]","","","","","","","","","","","","","","","","","","","","","","","",""
"psychophysics","172","344802","0.0-16.0-0.0","608969bcf752a60363fd8ddd","609006691f6f4e337c17f836","609d36243827d6732706d129","null","","","","null","","","","key","16.647000000000116","616","305","","","","","","","","","","","","","","","","","","","",""
"psychophysics","173","345308","0.0-16.0-1.0","608969bcf752a60363fd8ddd","609006691f6f4e337c17f836","609d36243827d6732706d129","null","","","","null","","","","key","16.663100000001336","616","305","","","","","","","","","","","","","136","1","6","false","","","",""
"psychophysics","174","347744","0.0-16.0-2.0","608969bcf752a60363fd8ddd","609006691f6f4e337c17f836","609d36243827d6732706d129","2431.3050000928342","","","","77","","","","key","16.661117241379067","616","305","","","","","","","","","","","","","","","","","","","",""
"psychophysics","175","348745","0.0-16.0-0.1","608969bcf752a60363fd8ddd","609006691f6f4e337c17f836","609d36243827d6732706d129","null","","","","null","","","","key","16.660949152542113","616","305","","","","","","","","","","","","","","","","","","","",""
"psychophysics","176","349247","0.0-16.0-1.1","608969bcf752a60363fd8ddd","609006691f6f4e337c17f836","609d36243827d6732706d129","null","","","","null","","","","key","16.66186206896412","616","305","","","","","","","","","","","","","136","-1","0","false","","","",""
"psychophysics","177","350041","0.0-16.0-2.1","608969bcf752a60363fd8ddd","609006691f6f4e337c17f836","609d36243827d6732706d129","791.5499997325242","","","","77","","","","key","16.660744680850915","616","305","","","","","","","","","","","","","","","","","","","",""
"psychophysics","178","351044","0.0-16.0-0.2","608969bcf752a60363fd8ddd","609006691f6f4e337c17f836","609d36243827d6732706d129","null","","","","null","","","","key","16.661423728814135","616","305","","","","","","","","","","","","","","","","","","","",""
"psychophysics","179","351546","0.0-16.0-1.2","608969bcf752a60363fd8ddd","609006691f6f4e337c17f836","609d36243827d6732706d129","null","","","","null","","","","key","16.661310344826077","616","305","","","","","","","","","","","","","136","-1","5","false","","","",""
"psychophysics","180","352224","0.0-16.0-2.2","608969bcf752a60363fd8ddd","609006691f6f4e337c17f836","609d36243827d6732706d129","675.1099997200072","","","","77","","","","key","16.661599999999453","616","305","","","","","","","","","","","","","","","","","","","",""
"psychophysics","181","353226","0.0-16.0-0.3","608969bcf752a60363fd8ddd","609006691f6f4e337c17f836","609d36243827d6732706d129","null","","","","null","","","","key","16.662322033899127","616","305","","","","","","","","","","","","","","","","","","","",""
"psychophysics","182","353728","0.0-16.0-1.3","608969bcf752a60363fd8ddd","609006691f6f4e337c17f836","609d36243827d6732706d129","null","","","","null","","","","key","16.658931034482645","616","305","","","","","","","","","","","","","136","1","5","false","","","",""
"psychophysics","183","354640","0.0-16.0-2.3","608969bcf752a60363fd8ddd","609006691f6f4e337c17f836","609d36243827d6732706d129","908.5949999280274","","","","77","","","","key","16.661333333333324","616","305","","","","","","","","","","","","","","","","","","","",""
"psychophysics","184","355643","0.0-16.0-0.4","608969bcf752a60363fd8ddd","609006691f6f4e337c17f836","609d36243827d6732706d129","null","","","","null","","","","key","16.662067796609765","616","305","","","","","","","","","","","","","","","","","","","",""
"psychophysics","185","356145","0.0-16.0-1.4","608969bcf752a60363fd8ddd","609006691f6f4e337c17f836","609d36243827d6732706d129","null","","","","null","","","","key","16.66079310344829","616","305","","","","","","","","","","","","","136","1","4","false","","","",""
"psychophysics","186","357012","0.0-16.0-2.4","608969bcf752a60363fd8ddd","609006691f6f4e337c17f836","609d36243827d6732706d129","864.7750001400709","","","","77","","","","key","16.66301960784225","616","305","","","","","","","","","","","","","","","","","","","",""
"psychophysics","187","358013","0.0-16.0-0.5","608969bcf752a60363fd8ddd","609006691f6f4e337c17f836","609d36243827d6732706d129","null","","","","null","","","","key","16.66199999999934","616","305","","","","","","","","","","","","","","","","","","","",""
"psychophysics","188","358515","0.0-16.0-1.5","608969bcf752a60363fd8ddd","609006691f6f4e337c17f836","609d36243827d6732706d129","null","","","","null","","","","key","16.659827586207218","616","305","","","","","","","","","","","","","136","1","2","false","","","",""
"psychophysics","189","359674","0.0-16.0-2.5","608969bcf752a60363fd8ddd","609006691f6f4e337c17f836","609d36243827d6732706d129","1149.259999860078","","","","90","","","","key","16.661101449275073","616","305","","","","","","","","","","","","","","","","","","","",""
"psychophysics","190","360675","0.0-16.0-0.6","608969bcf752a60363fd8ddd","609006691f6f4e337c17f836","609d36243827d6732706d129","null","","","","null","","","","key","16.661932203389895","616","305","","","","","","","","","","","","","","","","","","","",""
"psychophysics","191","361177","0.0-16.0-1.6","608969bcf752a60363fd8ddd","609006691f6f4e337c17f836","609d36243827d6732706d129","null","","","","null","","","","key","16.662586206897434","616","305","","","","","","","","","","","","","136","-1","2","false","","","",""
"psychophysics","192","361643","0.0-16.0-2.6","608969bcf752a60363fd8ddd","609006691f6f4e337c17f836","609d36243827d6732706d129","463.9949998818338","","","","90","","","","key","16.66048148148305","616","305","","","","","","","","","","","","","","","","","","","",""
"psychophysics","193","362645","0.0-16.0-0.7","608969bcf752a60363fd8ddd","609006691f6f4e337c17f836","609d36243827d6732706d129","null","","","","null","","","","key","16.661355932203705","616","305","","","","","","","","","","","","","","","","","","","",""
"psychophysics","194","363146","0.0-16.0-1.7","608969bcf752a60363fd8ddd","609006691f6f4e337c17f836","609d36243827d6732706d129","null","","","","null","","","","key","16.662965517240206","616","305","","","","","","","","","","","","","136","-1","6","false","","","",""
"psychophysics","195","363712","0.0-16.0-2.7","608969bcf752a60363fd8ddd","609006691f6f4e337c17f836","609d36243827d6732706d129","555.980000179261","","","","77","","","","key","16.66169696969728","616","305","","","","","","","","","","","","","","","","","","","",""
"psychophysics","196","364719","0.0-16.0-0.8","608969bcf752a60363fd8ddd","609006691f6f4e337c17f836","609d36243827d6732706d129","null","","","","null","","","","key","16.66278333333321","616","305","","","","","","","","","","","","","","","","","","","",""
"psychophysics","197","365223","0.0-16.0-1.8","608969bcf752a60363fd8ddd","609006691f6f4e337c17f836","609d36243827d6732706d129","null","","","","null","","","","key","16.65899999999915","616","305","","","","","","","","","","","","","136","1","0","false","","","",""
"psychophysics","198","365737","0.0-16.0-2.8","608969bcf752a60363fd8ddd","609006691f6f4e337c17f836","609d36243827d6732706d129","511.8849999271333","","","","90","","","","key","16.661999999999534","616","305","","","","","","","","","","","","","","","","","","","",""
"psychophysics","199","366739","0.0-16.0-0.9","608969bcf752a60363fd8ddd","609006691f6f4e337c17f836","609d36243827d6732706d129","null","","","","null","","","","key","16.661830508474743","616","305","","","","","","","","","","","","","","","","","","","",""
"psychophysics","200","367240","0.0-16.0-1.9","608969bcf752a60363fd8ddd","609006691f6f4e337c17f836","609d36243827d6732706d129","null","","","","null","","","","key","16.661758620689366","616","305","","","","","","","","","","","","","136","1","3","false","","","",""
"psychophysics","201","367604","0.0-16.0-2.9","608969bcf752a60363fd8ddd","609006691f6f4e337c17f836","609d36243827d6732706d129","361.20499996468425","","","","77","","","","key","16.66128571428791","616","305","","","","","","","","","","","","","","","","","","","",""
"psychophysics","202","368605","0.0-16.0-0.10","608969bcf752a60363fd8ddd","609006691f6f4e337c17f836","609d36243827d6732706d129","null","","","","null","","","","key","16.661033898304904","616","305","","","","","","","","","","","","","","","","","","","",""
"psychophysics","203","369107","0.0-16.0-1.10","608969bcf752a60363fd8ddd","609006691f6f4e337c17f836","609d36243827d6732706d129","null","","","","null","","","","key","16.6660344827587","616","305","","","","","","","","","","","","","136","-1","4","false","","","",""
"psychophysics","204","370136","0.0-16.0-2.10","608969bcf752a60363fd8ddd","609006691f6f4e337c17f836","609d36243827d6732706d129","1026.8800002522767","","","","77","","","","key","16.661918032786534","616","305","","","","","","","","","","","","","","","","","","","",""
"psychophysics","205","371139","0.0-16.0-0.11","608969bcf752a60363fd8ddd","609006691f6f4e337c17f836","609d36243827d6732706d129","null","","","","null","","","","key","16.66116949152576","616","305","","","","","","","","","","","","","","","","","","","",""
"psychophysics","206","371640","0.0-16.0-1.11","608969bcf752a60363fd8ddd","609006691f6f4e337c17f836","609d36243827d6732706d129","null","","","","null","","","","key","16.660413793103512","616","305","","","","","","","","","","","","","136","-1","3","false","","","",""
"psychophysics","207","372051","0.0-16.0-2.11","608969bcf752a60363fd8ddd","609006691f6f4e337c17f836","609d36243827d6732706d129","407.6499999500811","","","","90","","","","key","16.656083333332692","616","305","","","","","","","","","","","","","","","","","","","",""
"psychophysics","208","373054","0.0-16.0-0.12","608969bcf752a60363fd8ddd","609006691f6f4e337c17f836","609d36243827d6732706d129","null","","","","null","","","","key","16.66150847457594","616","305","","","","","","","","","","","","","","","","","","","",""
"psychophysics","209","373555","0.0-16.0-1.12","608969bcf752a60363fd8ddd","609006691f6f4e337c17f836","609d36243827d6732706d129","null","","","","null","","","","key","16.65941379310218","616","305","","","","","","","","","","","","","136","1","0","false","","","",""
"psychophysics","210","374056","0.0-16.0-2.12","608969bcf752a60363fd8ddd","609006691f6f4e337c17f836","609d36243827d6732706d129","499.00999991223216","","","","90","","","","key","16.660482758620017","616","305","","","","","","","","","","","","","","","","","","","",""
"psychophysics","211","375058","0.0-16.0-0.13","608969bcf752a60363fd8ddd","609006691f6f4e337c17f836","609d36243827d6732706d129","null","","","","null","","","","key","16.661457627118857","616","305","","","","","","","","","","","","","","","","","","","",""
"psychophysics","212","375559","0.0-16.0-1.13","608969bcf752a60363fd8ddd","609006691f6f4e337c17f836","609d36243827d6732706d129","null","","","","null","","","","key","16.660999999999806","616","305","","","","","","","","","","","","","136","-1","2","false","","","",""
"psychophysics","213","375940","0.0-16.0-2.13","608969bcf752a60363fd8ddd","609006691f6f4e337c17f836","609d36243827d6732706d129","370.67499989643693","","","","90","","","","key","16.66281818181795","616","305","","","","","","","","","","","","","","","","","","","",""
"psychophysics","214","376942","0.0-16.0-0.14","608969bcf752a60363fd8ddd","609006691f6f4e337c17f836","609d36243827d6732706d129","null","","","","null","","","","key","16.660627118644296","616","305","","","","","","","","","","","","","","","","","","","",""
"psychophysics","215","377449","0.0-16.0-1.14","608969bcf752a60363fd8ddd","609006691f6f4e337c17f836","609d36243827d6732706d129","null","","","","null","","","","key","16.663400000000063","616","305","","","","","","","","","","","","","136","1","4","false","","","",""
"psychophysics","216","377927","0.0-16.0-2.14","608969bcf752a60363fd8ddd","609006691f6f4e337c17f836","609d36243827d6732706d129","473.9199997857213","","","","90","","","","key","16.662111111110317","616","305","","","","","","","","","","","","","","","","","","","",""
"psychophysics","217","378932","0.0-16.0-0.15","608969bcf752a60363fd8ddd","609006691f6f4e337c17f836","609d36243827d6732706d129","null","","","","null","","","","key","16.661466666667064","616","305","","","","","","","","","","","","","","","","","","","",""
"psychophysics","218","379436","0.0-16.0-1.15","608969bcf752a60363fd8ddd","609006691f6f4e337c17f836","609d36243827d6732706d129","null","","","","null","","","","key","16.665379310343898","616","305","","","","","","","","","","","","","136","-1","0","false","","","",""
"psychophysics","219","379918","0.0-16.0-2.15","608969bcf752a60363fd8ddd","609006691f6f4e337c17f836","609d36243827d6732706d129","479.8799999989569","","","","90","","","","key","16.66335714285794","616","305","","","","","","","","","","","","","","","","","","","",""
"psychophysics","220","380920","0.0-16.0-0.16","608969bcf752a60363fd8ddd","609006691f6f4e337c17f836","609d36243827d6732706d129","null","","","","null","","","","key","16.661949152542256","616","305","","","","","","","","","","","","","","","","","","","",""
"psychophysics","221","381421","0.0-16.0-1.16","608969bcf752a60363fd8ddd","609006691f6f4e337c17f836","609d36243827d6732706d129","null","","","","null","","","","key","16.661724137931113","616","305","","","","","","","","","","","","","136","-1","4","false","","","",""
"psychophysics","222","381952","0.0-16.0-2.16","608969bcf752a60363fd8ddd","609006691f6f4e337c17f836","609d36243827d6732706d129","528.2250000163913","","","","77","","","","key","16.659096774192633","616","305","","","","","","","","","","","","","","","","","","","",""
"psychophysics","223","382953","0.0-16.0-0.17","608969bcf752a60363fd8ddd","609006691f6f4e337c17f836","609d36243827d6732706d129","null","","","","null","","","","key","16.66157627118637","616","305","","","","","","","","","","","","","","","","","","","",""
"psychophysics","224","383455","0.0-16.0-1.17","608969bcf752a60363fd8ddd","609006691f6f4e337c17f836","609d36243827d6732706d129","null","","","","null","","","","key","16.65948275862069","616","305","","","","","","","","","","","","","136","-1","5","false","","","",""
"psychophysics","225","383852","0.0-16.0-2.17","608969bcf752a60363fd8ddd","609006691f6f4e337c17f836","609d36243827d6732706d129","394.71999974921346","","","","77","","","","key","16.658608695651587","616","305","","","","","","","","","","","","","","","","","","","",""
"psychophysics","226","384854","0.0-16.0-0.18","608969bcf752a60363fd8ddd","609006691f6f4e337c17f836","609d36243827d6732706d129","null","","","","null","","","","key","16.661440677966496","616","305","","","","","","","","","","","","","","","","","","","",""
"psychophysics","227","385355","0.0-16.0-1.18","608969bcf752a60363fd8ddd","609006691f6f4e337c17f836","609d36243827d6732706d129","null","","","","null","","","","key","16.663551724138507","616","305","","","","","","","","","","","","","136","1","6","false","","","",""
"psychophysics","228","385714","0.0-16.0-2.18","608969bcf752a60363fd8ddd","609006691f6f4e337c17f836","609d36243827d6732706d129","348.32500014454126","","","","77","","","","key","16.65976190476379","616","305","","","","","","","","","","","","","","","","","","","",""
"psychophysics","229","386717","0.0-16.0-0.19","608969bcf752a60363fd8ddd","609006691f6f4e337c17f836","609d36243827d6732706d129","null","","","","null","","","","key","16.66244067796664","616","305","","","","","","","","","","","","","","","","","","","",""
"psychophysics","230","387218","0.0-16.0-1.19","608969bcf752a60363fd8ddd","609006691f6f4e337c17f836","609d36243827d6732706d129","null","","","","null","","","","key","16.664586206896086","616","305","","","","","","","","","","","","","136","1","5","false","","","",""
"psychophysics","231","387924","0.0-16.0-2.19","608969bcf752a60363fd8ddd","609006691f6f4e337c17f836","609d36243827d6732706d129","703.0150000937283","","","","90","","","","key","16.660707317072635","616","305","","","","","","","","","","","","","","","","","","","",""
"psychophysics","232","388929","0.0-16.0-0.20","608969bcf752a60363fd8ddd","609006691f6f4e337c17f836","609d36243827d6732706d129","null","","","","null","","","","key","16.66131666666673","616","305","","","","","","","","","","","","","","","","","","","",""
"psychophysics","233","389432","0.0-16.0-1.20","608969bcf752a60363fd8ddd","609006691f6f4e337c17f836","609d36243827d6732706d129","null","","","","null","","","","key","16.660896551723045","616","305","","","","","","","","","","","","","136","-1","6","false","","","",""
"psychophysics","234","389914","0.0-16.0-2.20","608969bcf752a60363fd8ddd","609006691f6f4e337c17f836","609d36243827d6732706d129","479.2349999770522","","","","77","","","","key","16.66171428571397","616","305","","","","","","","","","","","","","","","","","","","",""
"psychophysics","235","390917","0.0-16.0-0.21","608969bcf752a60363fd8ddd","609006691f6f4e337c17f836","609d36243827d6732706d129","null","","","","null","","","","key","16.663372881356352","616","305","","","","","","","","","","","","","","","","","","","",""
"psychophysics","236","391418","0.0-16.0-1.21","608969bcf752a60363fd8ddd","609006691f6f4e337c17f836","609d36243827d6732706d129","null","","","","null","","","","key","16.662517241378925","616","305","","","","","","","","","","","","","136","1","2","false","","","",""
"psychophysics","237","391799","0.0-16.0-2.21","608969bcf752a60363fd8ddd","609006691f6f4e337c17f836","609d36243827d6732706d129","376.83500023558736","","","","90","","","","key","16.661909090910658","616","305","","","","","","","","","","","","","","","","","","","",""
"psychophysics","238","392801","0.0-16.0-0.22","608969bcf752a60363fd8ddd","609006691f6f4e337c17f836","609d36243827d6732706d129","null","","","","null","","","","key","16.661847457627104","616","305","","","","","","","","","","","","","","","","","","","",""
"psychophysics","239","393303","0.0-16.0-1.22","608969bcf752a60363fd8ddd","609006691f6f4e337c17f836","609d36243827d6732706d129","null","","","","null","","","","key","16.661413793102838","616","305","","","","","","","","","","","","","136","-1","3","false","","","",""
"psychophysics","240","393766","0.0-16.0-2.22","608969bcf752a60363fd8ddd","609006691f6f4e337c17f836","609d36243827d6732706d129","461.3950001075864","","","","90","","","","key","16.661037037039122","616","305","","","","","","","","","","","","","","","","","","","",""
"psychophysics","241","394767","0.0-16.0-0.23","608969bcf752a60363fd8ddd","609006691f6f4e337c17f836","609d36243827d6732706d129","null","","","","null","","","","key","16.66091525423739","616","305","","","","","","","","","","","","","","","","","","","",""
"psychophysics","242","395269","0.0-16.0-1.23","608969bcf752a60363fd8ddd","609006691f6f4e337c17f836","609d36243827d6732706d129","null","","","","null","","","","key","16.66031034482675","616","305","","","","","","","","","","","","","136","1","3","false","","","",""
"psychophysics","243","395778","0.0-16.0-2.23","608969bcf752a60363fd8ddd","609006691f6f4e337c17f836","609d36243827d6732706d129","506.81000016629696","","","","90","","","","key","16.660733333332853","616","305","","","","","","","","","","","","","","","","","","","",""
"html-keyboard-response","244","399708","0.0-17.0","608969bcf752a60363fd8ddd","609006691f6f4e337c17f836","609d36243827d6732706d129","3928.844999987632","<p>Well Done !</p><p>Training Complete. Press the spacebar to start.</p><p>DON'T EXIT THE FULL SCREEN MODE</p>","","","32","","","","","","","","","","","","","","","","","","","","","","","","","","",""
"psychophysics","245","402711","0.0-18.0-0.0","608969bcf752a60363fd8ddd","609006691f6f4e337c17f836","609d36243827d6732706d129","null","","","","null","","","","key","16.648216666666364","616","305","","","","","","","","","","","","","","","","","","","",""
"psychophysics","246","403213","0.0-18.0-1.0","608969bcf752a60363fd8ddd","609006691f6f4e337c17f836","609d36243827d6732706d129","null","","","","null","","","","key","16.66065517241328","616","305","","","","","","","","","","","","","136","1","4","true","","","",""
"psychophysics","247","403761","0.0-18.0-2.0","608969bcf752a60363fd8ddd","609006691f6f4e337c17f836","609d36243827d6732706d129","544.9150004424155","","","","90","","","","key","16.660718749999432","616","305","","","","","","","","","","","","","","","","","","","",""
"psychophysics","248","404762","0.0-18.0-0.1","608969bcf752a60363fd8ddd","609006691f6f4e337c17f836","609d36243827d6732706d129","null","","","","null","","","","key","16.66238983050857","616","305","","","","","","","","","","","","","","","","","","","",""
"psychophysics","249","405264","0.0-18.0-1.1","608969bcf752a60363fd8ddd","609006691f6f4e337c17f836","609d36243827d6732706d129","null","","","","null","","","","key","16.662931034481957","616","305","","","","","","","","","","","","","136","1","6","true","","","",""
"psychophysics","250","405736","0.0-18.0-2.1","608969bcf752a60363fd8ddd","609006691f6f4e337c17f836","609d36243827d6732706d129","469.9249998666346","","","","77","","","","key","16.659037037038985","616","305","","","","","","","","","","","","","","","","","","","",""
"psychophysics","251","406740","0.0-18.0-0.2","608969bcf752a60363fd8ddd","609006691f6f4e337c17f836","609d36243827d6732706d129","null","","","","null","","","","key","16.662183333333815","616","305","","","","","","","","","","","","","","","","","","","",""
"psychophysics","252","407242","0.0-18.0-1.2","608969bcf752a60363fd8ddd","609006691f6f4e337c17f836","609d36243827d6732706d129","null","","","","null","","","","key","16.661206896551324","616","305","","","","","","","","","","","","","136","1","2","true","","","",""
"psychophysics","253","407958","0.0-18.0-2.2","608969bcf752a60363fd8ddd","609006691f6f4e337c17f836","609d36243827d6732706d129","713.0350000225008","","","","90","","","","key","16.661857142857375","616","305","","","","","","","","","","","","","","","","","","","",""
"psychophysics","254","408967","0.0-18.0-0.3","608969bcf752a60363fd8ddd","609006691f6f4e337c17f836","609d36243827d6732706d129","null","","","","null","","","","key","16.66150847457594","616","305","","","","","","","","","","","","","","","","","","","",""
"psychophysics","255","409473","0.0-18.0-1.3","608969bcf752a60363fd8ddd","609006691f6f4e337c17f836","609d36243827d6732706d129","null","","","","null","","","","key","16.660600000000947","616","305","","","","","","","","","","","","","136","1","3","true","","","",""
"psychophysics","256","410034","0.0-18.0-2.3","608969bcf752a60363fd8ddd","609006691f6f4e337c17f836","609d36243827d6732706d129","556.5550001338124","","","","77","","","","key","16.66399999999885","616","305","","","","","","","","","","","","","","","","","","","",""
"psychophysics","257","411039","0.0-18.0-0.4","608969bcf752a60363fd8ddd","609006691f6f4e337c17f836","609d36243827d6732706d129","null","","","","null","","","","key","16.661800000000706","616","305","","","","","","","","","","","","","","","","","","","",""
"psychophysics","258","411543","0.0-18.0-1.4","608969bcf752a60363fd8ddd","609006691f6f4e337c17f836","609d36243827d6732706d129","null","","","","null","","","","key","16.659344827585677","616","305","","","","","","","","","","","","","136","-1","4","true","","","",""
"psychophysics","259","411925","0.0-18.0-2.4","608969bcf752a60363fd8ddd","609006691f6f4e337c17f836","609d36243827d6732706d129","379.4450000859797","","","","77","","","","key","16.661545454545625","616","305","","","","","","","","","","","","","","","","","","","",""
"psychophysics","260","412926","0.0-18.0-0.5","608969bcf752a60363fd8ddd","609006691f6f4e337c17f836","609d36243827d6732706d129","null","","","","null","","","","key","16.660779661017518","616","305","","","","","","","","","","","","","","","","","","","",""
"psychophysics","261","413428","0.0-18.0-1.5","608969bcf752a60363fd8ddd","609006691f6f4e337c17f836","609d36243827d6732706d129","null","","","","null","","","","key","16.66186206896412","616","305","","","","","","","","","","","","","136","-1","0","true","","","",""
"psychophysics","262","413647","0.0-18.0-2.5","608969bcf752a60363fd8ddd","609006691f6f4e337c17f836","609d36243827d6732706d129","217.1050002798438","","","","90","","","","key","16.66349999999996","616","305","","","","","","","","","","","","","","","","","","","",""
"psychophysics","263","414649","0.0-18.0-0.6","608969bcf752a60363fd8ddd","609006691f6f4e337c17f836","609d36243827d6732706d129","null","","","","null","","","","key","16.662457627118012","616","305","","","","","","","","","","","","","","","","","","","",""
"psychophysics","264","415155","0.0-18.0-1.6","608969bcf752a60363fd8ddd","609006691f6f4e337c17f836","609d36243827d6732706d129","null","","","","null","","","","key","16.66293333333257","616","305","","","","","","","","","","","","","136","1","5","true","","","",""
"psychophysics","265","415376","0.0-18.0-2.6","608969bcf752a60363fd8ddd","609006691f6f4e337c17f836","609d36243827d6732706d129","218.20000000298023","","","","77","","","","key","16.662083333333914","616","305","","","","","","","","","","","","","","","","","","","",""
"psychophysics","266","416378","0.0-18.0-0.7","608969bcf752a60363fd8ddd","609006691f6f4e337c17f836","609d36243827d6732706d129","null","","","","null","","","","key","16.6616440677968","616","305","","","","","","","","","","","","","","","","","","","",""
"psychophysics","267","416879","0.0-18.0-1.7","608969bcf752a60363fd8ddd","609006691f6f4e337c17f836","609d36243827d6732706d129","null","","","","null","","","","key","16.660172413791738","616","305","","","","","","","","","","","","","136","-1","6","true","","","",""
"psychophysics","268","417495","0.0-18.0-2.7","608969bcf752a60363fd8ddd","609006691f6f4e337c17f836","609d36243827d6732706d129","605.1750001497567","","","","90","","","","key","16.662111111111397","616","305","","","","","","","","","","","","","","","","","","","",""
"psychophysics","269","418510","0.0-18.0-0.8","608969bcf752a60363fd8ddd","609006691f6f4e337c17f836","609d36243827d6732706d129","null","","","","null","","","","key","16.661300000000242","616","305","","","","","","","","","","","","","","","","","","","",""
"psychophysics","270","419012","0.0-18.0-1.8","608969bcf752a60363fd8ddd","609006691f6f4e337c17f836","609d36243827d6732706d129","null","","","","null","","","","key","16.661620689654352","616","305","","","","","","","","","","","","","136","-1","5","true","","","",""
"psychophysics","271","419493","0.0-18.0-2.8","608969bcf752a60363fd8ddd","609006691f6f4e337c17f836","609d36243827d6732706d129","479.13500014692545","","","","77","","","","key","16.6632857142852","616","305","","","","","","","","","","","","","","","","","","","",""
"psychophysics","272","420495","0.0-18.0-0.9","608969bcf752a60363fd8ddd","609006691f6f4e337c17f836","609d36243827d6732706d129","null","","","","null","","","","key","16.66318644067742","616","305","","","","","","","","","","","","","","","","","","","",""
"psychophysics","273","421002","0.0-18.0-1.9","608969bcf752a60363fd8ddd","609006691f6f4e337c17f836","609d36243827d6732706d129","null","","","","null","","","","key","16.660500000000077","616","305","","","","","","","","","","","","","136","-1","2","true","","","",""
"psychophysics","274","421353","0.0-18.0-2.9","608969bcf752a60363fd8ddd","609006691f6f4e337c17f836","609d36243827d6732706d129","347.2750000655651","","","","90","","","","key","16.661799999998767","616","305","","","","","","","","","","","","","","","","","","","",""
"psychophysics","275","422355","0.0-18.0-0.10","608969bcf752a60363fd8ddd","609006691f6f4e337c17f836","609d36243827d6732706d129","null","","","","null","","","","key","16.66306779660991","616","305","","","","","","","","","","","","","","","","","","","",""
"psychophysics","276","422858","0.0-18.0-1.10","608969bcf752a60363fd8ddd","609006691f6f4e337c17f836","609d36243827d6732706d129","null","","","","null","","","","key","16.663413793103498","616","305","","","","","","","","","","","","","136","-1","3","true","","","",""
"psychophysics","277","423290","0.0-18.0-2.10","608969bcf752a60363fd8ddd","609006691f6f4e337c17f836","609d36243827d6732706d129","430.5350002832711","","","","90","","","","key","16.66408000000054","616","305","","","","","","","","","","","","","","","","","","","",""
"psychophysics","278","424291","0.0-18.0-0.11","608969bcf752a60363fd8ddd","609006691f6f4e337c17f836","609d36243827d6732706d129","null","","","","null","","","","key","16.662576271186513","616","305","","","","","","","","","","","","","","","","","","","",""
"psychophysics","279","424792","0.0-18.0-1.11","608969bcf752a60363fd8ddd","609006691f6f4e337c17f836","609d36243827d6732706d129","null","","","","null","","","","key","16.66368965517352","616","305","","","","","","","","","","","","","136","1","0","true","","","",""
"psychophysics","280","425275","0.0-18.0-2.11","608969bcf752a60363fd8ddd","609006691f6f4e337c17f836","609d36243827d6732706d129","480.92000000178814","","","","90","","","","key","16.66128571428583","616","305","","","","","","","","","","","","","","","","","","","",""
"psychophysics","281","426277","0.0-18.0-0.12","608969bcf752a60363fd8ddd","609006691f6f4e337c17f836","609d36243827d6732706d129","null","","","","null","","","","key","16.660576271187214","616","305","","","","","","","","","","","","","","","","","","","",""
"psychophysics","282","426783","0.0-18.0-1.12","608969bcf752a60363fd8ddd","609006691f6f4e337c17f836","609d36243827d6732706d129","null","","","","null","","","","key","16.662199999999334","616","305","","","","","","","","","","","","","136","1","4","true","","","",""
"psychophysics","283","427169","0.0-18.0-2.12","608969bcf752a60363fd8ddd","609006691f6f4e337c17f836","609d36243827d6732706d129","382.7400002628565","","","","77","","","","key","16.65909090909091","616","305","","","","","","","","","","","","","","","","","","","",""
"psychophysics","284","428172","0.0-18.0-0.13","608969bcf752a60363fd8ddd","609006691f6f4e337c17f836","609d36243827d6732706d129","null","","","","null","","","","key","16.661796610169034","616","305","","","","","","","","","","","","","","","","","","","",""
"psychophysics","285","428673","0.0-18.0-1.13","608969bcf752a60363fd8ddd","609006691f6f4e337c17f836","609d36243827d6732706d129","null","","","","null","","","","key","16.660448275861764","616","305","","","","","","","","","","","","","136","1","0","true","","","",""
"psychophysics","286","429139","0.0-18.0-2.13","608969bcf752a60363fd8ddd","609006691f6f4e337c17f836","609d36243827d6732706d129","463.8849999755621","","","","90","","","","key","16.6598148148149","616","305","","","","","","","","","","","","","","","","","","","",""
"psychophysics","287","430156","0.0-18.0-0.14","608969bcf752a60363fd8ddd","609006691f6f4e337c17f836","609d36243827d6732706d129","null","","","","null","","","","key","16.66156666666696","616","305","","","","","","","","","","","","","","","","","","","",""
"psychophysics","288","430657","0.0-18.0-1.14","608969bcf752a60363fd8ddd","609006691f6f4e337c17f836","609d36243827d6732706d129","null","","","","null","","","","key","16.66155172413785","616","305","","","","","","","","","","","","","136","-1","6","true","","","",""
"psychophysics","289","430918","0.0-18.0-2.14","608969bcf752a60363fd8ddd","609006691f6f4e337c17f836","609d36243827d6732706d129","248.30999970436096","","","","77","","","","key","16.662333333333176","616","305","","","","","","","","","","","","","","","","","","","",""
"psychophysics","290","431919","0.0-18.0-0.15","608969bcf752a60363fd8ddd","609006691f6f4e337c17f836","609d36243827d6732706d129","null","","","","null","","","","key","16.661050847457265","616","305","","","","","","","","","","","","","","","","","","","",""
"psychophysics","291","432421","0.0-18.0-1.15","608969bcf752a60363fd8ddd","609006691f6f4e337c17f836","609d36243827d6732706d129","null","","","","null","","","","key","16.66155172413785","616","305","","","","","","","","","","","","","136","-1","3","true","","","",""
"psychophysics","292","432866","0.0-18.0-2.15","608969bcf752a60363fd8ddd","609006691f6f4e337c17f836","609d36243827d6732706d129","442.174999974668","","","","90","","","","key","16.663038461538516","616","305","","","","","","","","","","","","","","","","","","","",""
"psychophysics","293","433869","0.0-18.0-0.16","608969bcf752a60363fd8ddd","609006691f6f4e337c17f836","609d36243827d6732706d129","null","","","","null","","","","key","16.66232203389814","616","305","","","","","","","","","","","","","","","","","","","",""
"psychophysics","294","434371","0.0-18.0-1.16","608969bcf752a60363fd8ddd","609006691f6f4e337c17f836","609d36243827d6732706d129","null","","","","null","","","","key","16.661344827586337","616","305","","","","","","","","","","","","","136","-1","0","true","","","",""
"psychophysics","295","434621","0.0-18.0-2.16","608969bcf752a60363fd8ddd","609006691f6f4e337c17f836","609d36243827d6732706d129","247.86000000312924","","","","90","","","","key","16.665785714285448","616","305","","","","","","","","","","","","","","","","","","","",""
"psychophysics","296","435621","0.0-18.0-0.17","608969bcf752a60363fd8ddd","609006691f6f4e337c17f836","609d36243827d6732706d129","null","","","","null","","","","key","16.662711864406386","616","305","","","","","","","","","","","","","","","","","","","",""
"psychophysics","297","436122","0.0-18.0-1.17","608969bcf752a60363fd8ddd","609006691f6f4e337c17f836","609d36243827d6732706d129","null","","","","null","","","","key","16.66044827586377","616","305","","","","","","","","","","","","","136","1","5","true","","","",""
"psychophysics","298","436671","0.0-18.0-2.17","608969bcf752a60363fd8ddd","609006691f6f4e337c17f836","609d36243827d6732706d129","546.2299999780953","","","","77","","","","key","16.66368750000038","616","305","","","","","","","","","","","","","","","","","","","",""
"psychophysics","299","437672","0.0-18.0-0.18","608969bcf752a60363fd8ddd","609006691f6f4e337c17f836","609d36243827d6732706d129","null","","","","null","","","","key","16.661898305084186","616","305","","","","","","","","","","","","","","","","","","","",""
"psychophysics","300","438173","0.0-18.0-1.18","608969bcf752a60363fd8ddd","609006691f6f4e337c17f836","609d36243827d6732706d129","null","","","","null","","","","key","16.66065517241328","616","305","","","","","","","","","","","","","136","1","6","true","","","",""
"psychophysics","301","438698","0.0-18.0-2.18","608969bcf752a60363fd8ddd","609006691f6f4e337c17f836","609d36243827d6732706d129","522.6349998265505","","","","77","","","","key","16.663999999999145","616","305","","","","","","","","","","","","","","","","","","","",""
"psychophysics","302","439701","0.0-18.0-0.19","608969bcf752a60363fd8ddd","609006691f6f4e337c17f836","609d36243827d6732706d129","null","","","","null","","","","key","16.661067796609625","616","305","","","","","","","","","","","","","","","","","","","",""
"psychophysics","303","440203","0.0-18.0-1.19","608969bcf752a60363fd8ddd","609006691f6f4e337c17f836","609d36243827d6732706d129","null","","","","null","","","","key","16.661206896551324","616","305","","","","","","","","","","","","","136","1","2","true","","","",""
"psychophysics","304","440517","0.0-18.0-2.19","608969bcf752a60363fd8ddd","609006691f6f4e337c17f836","609d36243827d6732706d129","310.95500010997057","","","","90","","","","key","16.662555555554313","616","305","","","","","","","","","","","","","","","","","","","",""
"psychophysics","305","441519","0.0-18.0-0.20","608969bcf752a60363fd8ddd","609006691f6f4e337c17f836","609d36243827d6732706d129","null","","","","null","","","","key","16.661423728814135","616","305","","","","","","","","","","","","","","","","","","","",""
"psychophysics","306","442020","0.0-18.0-1.20","608969bcf752a60363fd8ddd","609006691f6f4e337c17f836","609d36243827d6732706d129","null","","","","null","","","","key","16.66155172413785","616","305","","","","","","","","","","","","","136","1","3","true","","","",""
"psychophysics","307","442297","0.0-18.0-2.20","608969bcf752a60363fd8ddd","609006691f6f4e337c17f836","609d36243827d6732706d129","273.1099999509752","","","","90","","","","key","16.659562499997264","616","305","","","","","","","","","","","","","","","","","","","",""
"psychophysics","308","443299","0.0-18.0-0.21","608969bcf752a60363fd8ddd","609006691f6f4e337c17f836","609d36243827d6732706d129","null","","","","null","","","","key","16.662966101694757","616","305","","","","","","","","","","","","","","","","","","","",""
"psychophysics","309","443802","0.0-18.0-1.21","608969bcf752a60363fd8ddd","609006691f6f4e337c17f836","609d36243827d6732706d129","null","","","","null","","","","key","16.659275862069173","616","305","","","","","","","","","","","","","136","-1","5","true","","","",""
"psychophysics","310","444133","0.0-18.0-2.21","608969bcf752a60363fd8ddd","609006691f6f4e337c17f836","609d36243827d6732706d129","327.8399999253452","","","","90","","","","key","16.66121052631704","616","305","","","","","","","","","","","","","","","","","","","",""
"psychophysics","311","445135","0.0-18.0-0.22","608969bcf752a60363fd8ddd","609006691f6f4e337c17f836","609d36243827d6732706d129","null","","","","null","","","","key","16.661694915253882","616","305","","","","","","","","","","","","","","","","","","","",""
"psychophysics","312","445636","0.0-18.0-1.22","608969bcf752a60363fd8ddd","609006691f6f4e337c17f836","609d36243827d6732706d129","null","","","","null","","","","key","16.660689655173538","616","305","","","","","","","","","","","","","136","-1","4","true","","","",""
"psychophysics","313","446187","0.0-18.0-2.22","608969bcf752a60363fd8ddd","609006691f6f4e337c17f836","609d36243827d6732706d129","549.0299998782575","","","","77","","","","key","16.662031249999927","616","305","","","","","","","","","","","","","","","","","","","",""
"psychophysics","314","447188","0.0-18.0-0.23","608969bcf752a60363fd8ddd","609006691f6f4e337c17f836","609d36243827d6732706d129","null","","","","null","","","","key","16.66232203389814","616","305","","","","","","","","","","","","","","","","","","","",""
"psychophysics","315","447695","0.0-18.0-1.23","608969bcf752a60363fd8ddd","609006691f6f4e337c17f836","609d36243827d6732706d129","null","","","","null","","","","key","16.662100000000404","616","305","","","","","","","","","","","","","136","-1","2","true","","","",""
"psychophysics","316","448245","0.0-18.0-2.23","608969bcf752a60363fd8ddd","609006691f6f4e337c17f836","609d36243827d6732706d129","546.4099999517202","","","","90","","","","key","16.65990625000086","616","305","","","","","","","","","","","","","","","","","","","",""
"psychophysics","317","449247","0.0-18.0-0.24","608969bcf752a60363fd8ddd","609006691f6f4e337c17f836","609d36243827d6732706d129","null","","","","null","","","","key","16.660525423729144","616","305","","","","","","","","","","","","","","","","","","","",""
"psychophysics","318","449749","0.0-18.0-1.24","608969bcf752a60363fd8ddd","609006691f6f4e337c17f836","609d36243827d6732706d129","null","","","","null","","","","key","16.66279310344895","616","305","","","","","","","","","","","","","136","-1","3","true","","","",""
"psychophysics","319","450202","0.0-18.0-2.24","608969bcf752a60363fd8ddd","609006691f6f4e337c17f836","609d36243827d6732706d129","450.9449996985495","","","","77","","","","key","16.661807692307494","616","305","","","","","","","","","","","","","","","","","","","",""
"psychophysics","320","451203","0.0-18.0-0.25","608969bcf752a60363fd8ddd","609006691f6f4e337c17f836","609d36243827d6732706d129","null","","","","null","","","","key","16.662694915254026","616","305","","","","","","","","","","","","","","","","","","","",""
"psychophysics","321","451709","0.0-18.0-1.25","608969bcf752a60363fd8ddd","609006691f6f4e337c17f836","609d36243827d6732706d129","null","","","","null","","","","key","16.66359999999986","616","305","","","","","","","","","","","","","136","-1","6","true","","","",""
"psychophysics","322","452096","0.0-18.0-2.25","608969bcf752a60363fd8ddd","609006691f6f4e337c17f836","609d36243827d6732706d129","382.3600001633167","","","","77","","","","key","16.664818181817694","616","305","","","","","","","","","","","","","","","","","","","",""
"psychophysics","323","453099","0.0-18.0-0.26","608969bcf752a60363fd8ddd","609006691f6f4e337c17f836","609d36243827d6732706d129","null","","","","null","","","","key","16.66172881355959","616","305","","","","","","","","","","","","","","","","","","","",""
"psychophysics","324","453600","0.0-18.0-1.26","608969bcf752a60363fd8ddd","609006691f6f4e337c17f836","609d36243827d6732706d129","null","","","","null","","","","key","16.66193103448263","616","305","","","","","","","","","","","","","136","1","3","true","","","",""
"psychophysics","325","453930","0.0-18.0-2.26","608969bcf752a60363fd8ddd","609006691f6f4e337c17f836","609d36243827d6732706d129","327.86000007763505","","","","77","","","","key","16.662157894737135","616","305","","","","","","","","","","","","","","","","","","","",""
"psychophysics","326","454931","0.0-18.0-0.27","608969bcf752a60363fd8ddd","609006691f6f4e337c17f836","609d36243827d6732706d129","null","","","","null","","","","key","16.661813559322383","616","305","","","","","","","","","","","","","","","","","","","",""
"psychophysics","327","455433","0.0-18.0-1.27","608969bcf752a60363fd8ddd","609006691f6f4e337c17f836","609d36243827d6732706d129","null","","","","null","","","","key","16.66031034482675","616","305","","","","","","","","","","","","","136","-1","5","true","","","",""
"psychophysics","328","456114","0.0-18.0-2.27","608969bcf752a60363fd8ddd","609006691f6f4e337c17f836","609d36243827d6732706d129","662.8149999305606","","","","90","","","","key","16.66052500000078","616","305","","","","","","","","","","","","","","","","","","","",""
"psychophysics","329","457116","0.0-18.0-0.28","608969bcf752a60363fd8ddd","609006691f6f4e337c17f836","609d36243827d6732706d129","null","","","","null","","","","key","16.66198305084796","616","305","","","","","","","","","","","","","","","","","","","",""
"psychophysics","330","457618","0.0-18.0-1.28","608969bcf752a60363fd8ddd","609006691f6f4e337c17f836","609d36243827d6732706d129","null","","","","null","","","","key","16.66348275862","616","305","","","","","","","","","","","","","136","1","0","true","","","",""
"psychophysics","331","457909","0.0-18.0-2.28","608969bcf752a60363fd8ddd","609006691f6f4e337c17f836","609d36243827d6732706d129","288.59500028192997","","","","77","","","","key","16.661411764702816","616","305","","","","","","","","","","","","","","","","","","","",""
