"trial_type","trial_index","time_elapsed","internal_node_id","PROLIFIC_PID","STUDY_ID","SESSION_ID","rt","stimulus","button_pressed","success","key_press","responses","isData","view_history","response_type","avg_frame_time","center_x","center_y","isSC","stim_side","trial_luminance","step_size","nReversal","correct","prev_ans","isThreshold","SC_threshold","final_threshold","isLuminance","FF_luminance","luminance","stimSide","ISInt","isFF","question_order","isSPQ","isCAPS","isAQ"
"pavlovia","0","4","0.0-0.0","5eb2983b6d99fc00082beab8","609006691f6f4e337c17f836","609d37f215850c1f9353bfd9","","","","","","","","","","","","","","","","","","","","","","","","","","","","","","","",""
"html-button-response","1","25084","0.0-1.0","5eb2983b6d99fc00082beab8","609006691f6f4e337c17f836","609d37f215850c1f9353bfd9","25078.510000006645","<div style='background-color: white; width:60%; margin: auto; padding: 50px; text-align: justify; text-justify: inter-word; margin-bottom: 20px;'><h1 style='text-align: center;'>Consent Form</h1><p>Please read this consent form carefully before deciding whether you would like to participate in this study. You have to be 18 years old or older to participate to this study.</p><p style='text-decoration: underline;'>Participation is voluntary:</p><p>It is your choice whether or not to participate in this research. If you choose to participate, you may change your mind and leave the study at any time. Refusal to participate or stopping your participation will involve no penalty or loss of benefits to which you are otherwise entitled.</p><p style='text-decoration: underline;'>Purpose of the Study:</p><p>To understand the mechanisms underlying human perception.</p><p style='text-decoration: underline;'>What you will do in this study:</p><p>You will be presented with a series of visual images and then you will press buttons on the keyboard of your computer to respond to simple questions about the images (e.g. Were one or two images presented?). In addition, you will be asked to complete a questionnaire concerning your beliefs and everyday mental and perceptual experiences.'</p><p style='text-decoration: underline;'> Time Required:</p><p>The study will take 40 minutes to complete. </p><p style='text-decoration: underline;'>Risks:</p><p>There are no anticipated risks associated with participating in this study that are beyond those experienced in everyday life. </p><p style='text-decoration: underline;'>Benefits:</p><p>There are no benefits to you in participating in the study. However, this study may lead to a better understanding of how different kinds of visual information are used.</p><p style='text-decoration: underline;'>Compensation:</p><p>You will be paid US$6.6/hour. </p><p style='text-decoration: underline;'>Privacy and Confidentiality:</p><p>Your participation in this study will be anonymous. No personal information about your name or identity will be asked or recorded. This anonymous data will be stored for several years and may be used for a variety of research purposes. The overall results of the study may be published, or the data files may be shared with other researchers, but your identity will not be revealed in any way. The online services we are using for this study may temporarily store your data, but this data will be downloaded and then promptly deleted from those services.Your data will not be permanently associated with your name, IP address, or any other identifiable information (e.g., your information will only be connected to your payment, not to any of your responses), though they may be temporarily stored together before we download and separate them. Even so, no guarantee of internet survey security can be given because, although unlikely, transmissions can be intercepted and IP addresses can be identified. The anonymous data may be shared publicly (for example, in conjunction with a resulting academic publication).</p><p style='text-decoration: underline;'>Participation and Withdrawal:</p><p>Your participation in this study is completely voluntary. You may stop responding to the stimuli or stop answering questions if you so choose and without penalty by exiting the full screen mode, closing this tab of your browser or redirecting it to a different website.</p><p style='text-decoration: underline;'>Contact Info of the Researcher: </p><p>If you have questions about this study, or if you would like to talk to the research team, please contact David Melcher (david.melcher@nyu.edu, md5050@nyu.edu) at the Perception and Active Cognition Laboratory, New York University Abu Dhabi, Computational Research Building, Saadiyat Island, Abu Dhabi, UAE.This research has been reviewed by the New York University Abu Dhabi Institutional Review Board (NYUAD IRB). To contact about your rights in this research, for questions, suggestions, or complaints that are not addressed by the researchers, please email IRBnyuad@nyu.edu, or call the NYUAD IRB at +971 2 628 4313. </p></div>","0","","","","","","","","","","","","","","","","","","","","","","","","","","","","",""
"fullscreen","2","26941","0.0-2.0","5eb2983b6d99fc00082beab8","609006691f6f4e337c17f836","609d37f215850c1f9353bfd9","","","","true","","","","","","","","","","","","","","","","","","","","","","","","","","","",""
"html-keyboard-response","3","43933","0.0-3.0","5eb2983b6d99fc00082beab8","609006691f6f4e337c17f836","609d37f215850c1f9353bfd9","16990.320000011707","<p>Welcome !</p><p>READ CAREFULLY THE FOLLOWING INDICATIONS:</p><p>From this moment you have ~40 minutes to complete the experiment.</p><p>During the experiment you will be prompted to take several breaks. Each break should not last longer than 2-3 minutes.</p><p>Make sure that your computer is plugged in and it's not running on battery power, even if the battery is already fully charged.</p><p>Turn off your phone and music, make sure that you are in a quiet room and that you will not be distracted for the next hour.</p><p>Failure to comply with the instructions and indications provided during the experiment will most likely result in the rejection of your data.<p>Press the spacebar to start.</p>","","","32","","","","","","","","","","","","","","","","","","","","","","","","","","",""
"survey-html-form","4","50740","0.0-4.0","5eb2983b6d99fc00082beab8","609006691f6f4e337c17f836","609d37f215850c1f9353bfd9","6805.1850000047125","","","","","{""age"":""41"",""sex"":""F""}","true","","","","","","","","","","","","","","","","","","","","","","","","",""
"instructions","5","83053","0.0-5.0","5eb2983b6d99fc00082beab8","609006691f6f4e337c17f836","609d37f215850c1f9353bfd9","32312.274999989313","","","","","","","[{""page_index"":0,""viewing_time"":21122.074999992037},{""page_index"":1,""viewing_time"":6534.685000005993},{""page_index"":2,""viewing_time"":4655.019999991055}]","","","","","","","","","","","","","","","","","","","","","","","",""
"psychophysics","6","85297","0.0-6.0-0.0","5eb2983b6d99fc00082beab8","609006691f6f4e337c17f836","609d37f215850c1f9353bfd9","1237.3800000059418","","","","39","","","","key","16.66949629629628","768","361","true","1","180","30","0","-1","","","","","","","","","","","","","",""
"psychophysics","7","86605","0.0-6.0-0.1","5eb2983b6d99fc00082beab8","609006691f6f4e337c17f836","609d37f215850c1f9353bfd9","304.45999999938067","","","","39","","","","key","16.67207792207792","768","361","true","1","180","30","0","-1","-1","","","","","","","","","","","","",""
"psychophysics","8","88866","0.0-6.0-0.2","5eb2983b6d99fc00082beab8","609006691f6f4e337c17f836","609d37f215850c1f9353bfd9","1255.699999994249","","","","39","","","","key","16.672562962962978","768","361","true","1","150","30","0","-1","-1","","","","","","","","","","","","",""
"psychophysics","9","90340","0.0-6.0-0.3","5eb2983b6d99fc00082beab8","609006691f6f4e337c17f836","609d37f215850c1f9353bfd9","466.56000000075437","","","","39","","","","key","16.671908045977077","768","361","true","1","150","30","0","-1","-1","","","","","","","","","","","","",""
"psychophysics","10","92303","0.0-6.0-0.4","5eb2983b6d99fc00082beab8","609006691f6f4e337c17f836","609d37f215850c1f9353bfd9","957.8049999981886","","","","37","","","","key","16.672170940170943","768","361","true","-1","129","30","0","-1","-1","","","","","","","","","","","","",""
"psychophysics","11","94416","0.0-6.0-0.5","5eb2983b6d99fc00082beab8","609006691f6f4e337c17f836","609d37f215850c1f9353bfd9","1103.59499999322","","","","37","","","","key","16.67230158730164","768","361","true","1","129","24","1","1","-1","","","","","","","","","","","","",""
"psychophysics","12","95628","0.0-6.0-0.6","5eb2983b6d99fc00082beab8","609006691f6f4e337c17f836","609d37f215850c1f9353bfd9","207.19499999540858","","","","37","","","","key","16.672929577464664","768","361","true","-1","153","24","1","-1","1","","","","","","","","","","","","",""
"psychophysics","13","96704","0.0-6.0-0.7","5eb2983b6d99fc00082beab8","609006691f6f4e337c17f836","609d37f215850c1f9353bfd9","73.23999999789521","","","","37","","","","key","16.67293749999999","768","361","true","-1","153","19.2","2","-1","-1","","","","","","","","","","","","",""
"psychophysics","14","97768","0.0-6.0-0.8","5eb2983b6d99fc00082beab8","609006691f6f4e337c17f836","609d37f215850c1f9353bfd9","54.32499999005813","","","","39","","","","key","16.67168253968264","768","361","true","1","133.8","19.2","2","-1","-1","","","","","","","","","","","","",""
"psychophysics","15","98817","0.0-6.0-0.9","5eb2983b6d99fc00082beab8","609006691f6f4e337c17f836","609d37f215850c1f9353bfd9","36.22499998891726","","","","39","","","","key","16.672000000000068","768","361","true","1","133.8","19.2","2","-1","-1","","","","","","","","","","","","",""
"psychophysics","16","100689","0.0-6.0-0.10","5eb2983b6d99fc00082beab8","609006691f6f4e337c17f836","609d37f215850c1f9353bfd9","858.2800000003772","","","","37","","","","key","16.672369369369253","768","361","true","-1","129","19.2","2","-1","-1","","","","","","","","","","","","",""
"psychophysics","17","104185","0.0-6.0-0.11","5eb2983b6d99fc00082beab8","609006691f6f4e337c17f836","609d37f215850c1f9353bfd9","2486.8049999931827","","","","39","","","","key","16.67272727272723","768","361","true","-1","129","15.36","3","1","-1","","","","","","","","","","","","",""
"psychophysics","18","105357","0.0-6.0-0.12","5eb2983b6d99fc00082beab8","609006691f6f4e337c17f836","609d37f215850c1f9353bfd9","160.09000000485685","","","","37","","","","key","16.672710144927557","768","361","true","-1","144.36","15.36","3","-1","1","","","","","","","","","","","","",""
"psychophysics","19","108004","0.0-6.0-0.13","5eb2983b6d99fc00082beab8","609006691f6f4e337c17f836","609d37f215850c1f9353bfd9","1637.1300000027986","","","","39","","","","key","16.672113924050652","768","361","true","1","144.36","12.287999999999998","4","-1","-1","","","","","","","","","","","","",""
"psychophysics","20","109093","0.0-6.0-0.14","5eb2983b6d99fc00082beab8","609006691f6f4e337c17f836","609d37f215850c1f9353bfd9","84.79000000806991","","","","37","","","","key","16.67212500000005","768","361","true","-1","132.072","12.287999999999998","4","-1","-1","","","","","","","","","","","","",""
"psychophysics","21","110212","0.0-6.0-0.15","5eb2983b6d99fc00082beab8","609006691f6f4e337c17f836","609d37f215850c1f9353bfd9","115.64999999245629","","","","39","","","","key","16.67184848484855","768","361","true","1","132.072","12.287999999999998","4","-1","-1","","","","","","","","","","","","",""
"psychophysics","22","112997","0.0-6.0-0.16","5eb2983b6d99fc00082beab8","609006691f6f4e337c17f836","609d37f215850c1f9353bfd9","1778.4099999989849","","","","39","","","","key","16.67232530120482","768","361","true","-1","129","9.8304","5","1","-1","","","","","","","","","","","","",""
"psychophysics","23","114070","0.0-6.0-0.17","5eb2983b6d99fc00082beab8","609006691f6f4e337c17f836","609d37f215850c1f9353bfd9","66.40999999945052","","","","39","","","","key","16.67207936507937","768","361","true","1","138.8304","9.8304","5","-1","1","","","","","","","","","","","","",""
"psychophysics","24","116740","0.0-6.0-0.18","5eb2983b6d99fc00082beab8","609006691f6f4e337c17f836","609d37f215850c1f9353bfd9","1656.620000008843","","","","37","","","","key","16.672537499999997","768","361","true","-1","138.8304","7.864319999999999","6","-1","-1","","","","","","","","","","","","",""
"psychophysics","25","119109","0.0-6.0-0.19","5eb2983b6d99fc00082beab8","609006691f6f4e337c17f836","609d37f215850c1f9353bfd9","1354.5350000058534","","","","39","","","","key","16.672418439716324","768","361","true","1","130.96608","7.864319999999999","6","-1","-1","","","","","","","","","","","","",""
"psychophysics","26","121280","0.0-6.0-0.20","5eb2983b6d99fc00082beab8","609006691f6f4e337c17f836","609d37f215850c1f9353bfd9","1166.2350000115111","","","","39","","","","key","16.67278294573647","768","361","true","1","130.96608","7.864319999999999","6","-1","-1","","","","","","","","","","","","",""
"psychophysics","27","123179","0.0-6.0-0.21","5eb2983b6d99fc00082beab8","609006691f6f4e337c17f836","609d37f215850c1f9353bfd9","897.064999997383","","","","37","","","","key","16.67297345132745","768","361","true","-1","129","7.864319999999999","6","-1","-1","","","","","","","","","","","","",""
"psychophysics","28","124908","0.0-6.0-0.22","5eb2983b6d99fc00082beab8","609006691f6f4e337c17f836","609d37f215850c1f9353bfd9","723.7500000046566","","","","37","","","","key","16.672640776699094","768","361","true","1","129","6.291456","7","1","-1","","","","","","","","","","","","",""
"psychophysics","29","126036","0.0-6.0-0.23","5eb2983b6d99fc00082beab8","609006691f6f4e337c17f836","609d37f215850c1f9353bfd9","115.36999999952968","","","","37","","","","key","16.672121212121223","768","361","true","-1","135.291456","6.291456","7","-1","1","","","","","","","","","","","","",""
"psychophysics","30","127876","0.0-6.0-0.24","5eb2983b6d99fc00082beab8","609006691f6f4e337c17f836","609d37f215850c1f9353bfd9","834.8499999992782","","","","39","","","","key","16.672527272727297","768","361","true","1","135.291456","5.033164800000001","8","-1","-1","","","","","","","","","","","","",""
"psychophysics","31","129570","0.0-6.0-0.25","5eb2983b6d99fc00082beab8","609006691f6f4e337c17f836","609d37f215850c1f9353bfd9","678.0449999932898","","","","39","","","","key","16.672290000000068","768","361","true","1","130.2582912","5.033164800000001","8","-1","-1","","","","","","","","","","","","",""
"psychophysics","32","131322","0.0-6.0-0.26","5eb2983b6d99fc00082beab8","609006691f6f4e337c17f836","609d37f215850c1f9353bfd9","746.1600000096951","","","","37","","","","key","16.67228846153851","768","361","true","-1","130.2582912","5.033164800000001","8","-1","-1","","","","","","","","","","","","",""
"psychophysics","33","132915","0.0-6.0-0.27","5eb2983b6d99fc00082beab8","609006691f6f4e337c17f836","609d37f215850c1f9353bfd9","589.1200000041863","","","","37","","","","key","16.672399999999968","768","361","true","-1","129","5.033164800000001","8","-1","-1","","","","","","","","","","","","",""
"psychophysics","34","134652","0.0-6.0-0.28","5eb2983b6d99fc00082beab8","609006691f6f4e337c17f836","609d37f215850c1f9353bfd9","734.9649999960093","","","","37","","","","key","16.67196116504854","768","361","true","-1","129","5.033164800000001","8","-1","-1","","","","","","","","","","","","",""
"psychophysics","35","136417","0.0-6.0-0.29","5eb2983b6d99fc00082beab8","609006691f6f4e337c17f836","609d37f215850c1f9353bfd9","761.979999995674","","","","39","","","","key","16.672419047618973","768","361","true","1","129","5.033164800000001","8","-1","-1","","","","","","","","","","","","",""
"psychophysics","36","138557","0.0-6.0-0.30","5eb2983b6d99fc00082beab8","609006691f6f4e337c17f836","609d37f215850c1f9353bfd9","1136.7349999927683","","","","39","","","","key","16.67224409448819","768","361","true","1","129","5.033164800000001","8","-1","-1","","","","","","","","","","","","",""
"psychophysics","37","140044","0.0-6.0-0.31","5eb2983b6d99fc00082beab8","609006691f6f4e337c17f836","609d37f215850c1f9353bfd9","482.03499999362975","","","","39","","","","key","16.67218181818151","768","361","true","1","129","5.033164800000001","8","-1","-1","","","","","","","","","","","","",""
"psychophysics","38","141843","0.0-6.0-0.32","5eb2983b6d99fc00082beab8","609006691f6f4e337c17f836","609d37f215850c1f9353bfd9","796.5949999925215","","","","39","","","","key","16.672401869159014","768","361","true","1","129","5.033164800000001","8","-1","-1","","","","","","","","","","","","",""
"psychophysics","39","143363","0.0-6.0-0.33","5eb2983b6d99fc00082beab8","609006691f6f4e337c17f836","609d37f215850c1f9353bfd9","516.0150000010617","","","","37","","","","key","16.67230000000014","768","361","true","-1","129","5.033164800000001","8","-1","-1","","","","","","","","","","","","",""
"psychophysics","40","145254","0.0-6.0-0.34","5eb2983b6d99fc00082beab8","609006691f6f4e337c17f836","609d37f215850c1f9353bfd9","888.5900000022957","","","","39","","","","key","16.67232743362856","768","361","true","1","129","5.033164800000001","8","-1","-1","","","","","","","","","","","","",""
"psychophysics","41","146664","0.0-6.0-0.35","5eb2983b6d99fc00082beab8","609006691f6f4e337c17f836","609d37f215850c1f9353bfd9","408.75999999116175","","","","37","","","","key","16.672012048192794","768","361","true","-1","129","5.033164800000001","8","-1","-1","","","","","","","","","","","","",""
"psychophysics","42","148208","0.0-6.0-0.36","5eb2983b6d99fc00082beab8","609006691f6f4e337c17f836","609d37f215850c1f9353bfd9","541.5400000056252","","","","37","","","","key","16.672108695651886","768","361","true","-1","129","5.033164800000001","8","-1","-1","","","","","","","","","","","","",""
"psychophysics","43","150583","0.0-6.0-0.37","5eb2983b6d99fc00082beab8","609006691f6f4e337c17f836","609d37f215850c1f9353bfd9","1367.0699999929639","","","","39","","","","key","16.672170212766048","768","361","true","-1","129","4.0265318400000005","9","1","-1","","","","","","","","","","","","",""
"psychophysics","44","151924","0.0-6.0-0.38","5eb2983b6d99fc00082beab8","609006691f6f4e337c17f836","609d37f215850c1f9353bfd9","333.41000000655185","","","","37","","","","key","16.67251249999972","768","361","true","-1","133.02653184","4.0265318400000005","9","-1","1","","","","","","","","","","","","",""
"psychophysics","45","153203","0.0-6.0-0.39","5eb2983b6d99fc00082beab8","609006691f6f4e337c17f836","609d37f215850c1f9353bfd9","269.48500001162756","","","","37","","","","key","16.671513157894783","768","361","true","-1","133.02653184","3.2212254720000004","10","-1","-1","","","","","","","","","","","","",""
"html-keyboard-response","46","159008","0.0-7.0","5eb2983b6d99fc00082beab8","609006691f6f4e337c17f836","609d37f215850c1f9353bfd9","5803.149999992456","<p>Well Done !</p><p>Prepare for a new block.</p><p>DON'T EXIT THE FULL SCREEN MODE</p><p>Press the Spacebar to start.</p>","","","32","","","","","","","","","","","","","","","true","129.704643072","","","","","","","","","","",""
"psychophysics","47","161305","0.0-8.0-0.0","5eb2983b6d99fc00082beab8","609006691f6f4e337c17f836","609d37f215850c1f9353bfd9","1293.6749999935273","","","","39","","","","key","16.672159420289866","768","361","true","1","180","30","0","-1","","","","","","","","","","","","","",""
"psychophysics","48","162429","0.0-8.0-0.1","5eb2983b6d99fc00082beab8","609006691f6f4e337c17f836","609d37f215850c1f9353bfd9","122.01000000641216","","","","37","","","","key","16.672742424242614","768","361","true","-1","180","30","0","-1","-1","","","","","","","","","","","","",""
"psychophysics","49","163662","0.0-8.0-0.2","5eb2983b6d99fc00082beab8","609006691f6f4e337c17f836","609d37f215850c1f9353bfd9","230.1900000020396","","","","37","","","","key","16.671931506849408","768","361","true","-1","150","30","0","-1","-1","","","","","","","","","","","","",""
"psychophysics","50","165082","0.0-8.0-0.3","5eb2983b6d99fc00082beab8","609006691f6f4e337c17f836","609d37f215850c1f9353bfd9","417.64500000863336","","","","37","","","","key","16.67183333333343","768","361","true","-1","150","30","0","-1","-1","","","","","","","","","","","","",""
"psychophysics","51","166944","0.0-8.0-0.4","5eb2983b6d99fc00082beab8","609006691f6f4e337c17f836","609d37f215850c1f9353bfd9","860.3650000004563","","","","39","","","","key","16.672180180180124","768","361","true","-1","129","24","1","1","-1","","","","","","","","","","","","",""
"psychophysics","52","168328","0.0-8.0-0.5","5eb2983b6d99fc00082beab8","609006691f6f4e337c17f836","609d37f215850c1f9353bfd9","381.5549999999348","","","","37","","","","key","16.671999999999905","768","361","true","-1","153","24","1","-1","1","","","","","","","","","","","","",""
"psychophysics","53","169828","0.0-8.0-0.6","5eb2983b6d99fc00082beab8","609006691f6f4e337c17f836","609d37f215850c1f9353bfd9","498.2199999940349","","","","37","","","","key","16.671842696629152","768","361","true","-1","153","19.2","2","-1","-1","","","","","","","","","","","","",""
"psychophysics","54","171424","0.0-8.0-0.7","5eb2983b6d99fc00082beab8","609006691f6f4e337c17f836","609d37f215850c1f9353bfd9","593.8549999991665","","","","37","","","","key","16.673191489361688","768","361","true","-1","133.8","19.2","2","-1","-1","","","","","","","","","","","","",""
"psychophysics","55","172737","0.0-8.0-0.8","5eb2983b6d99fc00082beab8","609006691f6f4e337c17f836","609d37f215850c1f9353bfd9","310.80999999539927","","","","39","","","","key","16.6722692307693","768","361","true","1","133.8","19.2","2","-1","-1","","","","","","","","","","","","",""
"psychophysics","56","174946","0.0-8.0-0.9","5eb2983b6d99fc00082beab8","609006691f6f4e337c17f836","609d37f215850c1f9353bfd9","1205.8599999872968","","","","39","","","","key","16.672553030303046","768","361","true","1","129","19.2","2","-1","-1","","","","","","","","","","","","",""
"psychophysics","57","176711","0.0-8.0-0.10","5eb2983b6d99fc00082beab8","609006691f6f4e337c17f836","609d37f215850c1f9353bfd9","760.7850000058534","","","","37","","","","key","16.672485714285756","768","361","true","-1","129","19.2","2","-1","-1","","","","","","","","","","","","",""
"psychophysics","58","178292","0.0-8.0-0.11","5eb2983b6d99fc00082beab8","609006691f6f4e337c17f836","609d37f215850c1f9353bfd9","578.7100000015926","","","","39","","","","key","16.67239784946232","768","361","true","1","129","19.2","2","-1","-1","","","","","","","","","","","","",""
"psychophysics","59","180051","0.0-8.0-0.12","5eb2983b6d99fc00082beab8","609006691f6f4e337c17f836","609d37f215850c1f9353bfd9","756.9349999976112","","","","39","","","","key","16.672676190476132","768","361","true","1","129","19.2","2","-1","-1","","","","","","","","","","","","",""
"psychophysics","60","182369","0.0-8.0-0.13","5eb2983b6d99fc00082beab8","609006691f6f4e337c17f836","609d37f215850c1f9353bfd9","1315.9950000117533","","","","37","","","","key","16.672608695652226","768","361","true","-1","129","19.2","2","-1","-1","","","","","","","","","","","","",""
"psychophysics","61","183724","0.0-8.0-0.14","5eb2983b6d99fc00082beab8","609006691f6f4e337c17f836","609d37f215850c1f9353bfd9","352.0599999901606","","","","39","","","","key","16.67233750000014","768","361","true","-1","129","15.36","3","1","-1","","","","","","","","","","","","",""
"psychophysics","62","185103","0.0-8.0-0.15","5eb2983b6d99fc00082beab8","609006691f6f4e337c17f836","609d37f215850c1f9353bfd9","375.8650000090711","","","","39","","","","key","16.67243902439006","768","361","true","1","144.36","15.36","3","-1","1","","","","","","","","","","","","",""
"psychophysics","63","186723","0.0-8.0-0.16","5eb2983b6d99fc00082beab8","609006691f6f4e337c17f836","609d37f215850c1f9353bfd9","618.3700000110548","","","","39","","","","key","16.67235416666669","768","361","true","1","144.36","12.287999999999998","4","-1","-1","","","","","","","","","","","","",""
"psychophysics","64","188031","0.0-8.0-0.17","5eb2983b6d99fc00082beab8","609006691f6f4e337c17f836","609d37f215850c1f9353bfd9","305.4600000032224","","","","37","","","","key","16.67246753246752","768","361","true","-1","132.072","12.287999999999998","4","-1","-1","","","","","","","","","","","","",""
"psychophysics","65","189309","0.0-8.0-0.18","5eb2983b6d99fc00082beab8","609006691f6f4e337c17f836","609d37f215850c1f9353bfd9","276.2149999907706","","","","39","","","","key","16.671973684210617","768","361","true","1","132.072","12.287999999999998","4","-1","-1","","","","","","","","","","","","",""
"psychophysics","66","191166","0.0-8.0-0.19","5eb2983b6d99fc00082beab8","609006691f6f4e337c17f836","609d37f215850c1f9353bfd9","854.7550000075717","","","","39","","","","key","16.672666666666643","768","361","true","1","129","12.287999999999998","4","-1","-1","","","","","","","","","","","","",""
"psychophysics","67","192958","0.0-8.0-0.20","5eb2983b6d99fc00082beab8","609006691f6f4e337c17f836","609d37f215850c1f9353bfd9","788.459999996121","","","","37","","","","key","16.67288679245284","768","361","true","-1","129","12.287999999999998","4","-1","-1","","","","","","","","","","","","",""
"psychophysics","68","194960","0.0-8.0-0.21","5eb2983b6d99fc00082beab8","609006691f6f4e337c17f836","609d37f215850c1f9353bfd9","999.3749999994179","","","","37","","","","key","16.672596638655374","768","361","true","-1","129","12.287999999999998","4","-1","-1","","","","","","","","","","","","",""
"psychophysics","69","196679","0.0-8.0-0.22","5eb2983b6d99fc00082beab8","609006691f6f4e337c17f836","609d37f215850c1f9353bfd9","716.614999997546","","","","37","","","","key","16.67214705882361","768","361","true","1","129","9.8304","5","1","-1","","","","","","","","","","","","",""
"psychophysics","70","197979","0.0-8.0-0.23","5eb2983b6d99fc00082beab8","609006691f6f4e337c17f836","609d37f215850c1f9353bfd9","297.950000007404","","","","39","","","","key","16.673116883117096","768","361","true","1","138.8304","9.8304","5","-1","1","","","","","","","","","","","","",""
"psychophysics","71","199304","0.0-8.0-0.24","5eb2983b6d99fc00082beab8","609006691f6f4e337c17f836","609d37f215850c1f9353bfd9","323.60000000335276","","","","39","","","","key","16.67227848101248","768","361","true","1","138.8304","7.864319999999999","6","-1","-1","","","","","","","","","","","","",""
"psychophysics","72","200511","0.0-8.0-0.25","5eb2983b6d99fc00082beab8","609006691f6f4e337c17f836","609d37f215850c1f9353bfd9","204.2749999964144","","","","37","","","","key","16.672112676056354","768","361","true","-1","130.96608","7.864319999999999","6","-1","-1","","","","","","","","","","","","",""
"psychophysics","73","201641","0.0-8.0-0.26","5eb2983b6d99fc00082beab8","609006691f6f4e337c17f836","609d37f215850c1f9353bfd9","125.39500001003034","","","","39","","","","key","16.672194029850477","768","361","true","1","130.96608","7.864319999999999","6","-1","-1","","","","","","","","","","","","",""
"psychophysics","74","203717","0.0-8.0-0.27","5eb2983b6d99fc00082beab8","609006691f6f4e337c17f836","609d37f215850c1f9353bfd9","1072.3399999988033","","","","37","","","","key","16.671951219512383","768","361","true","-1","129","7.864319999999999","6","-1","-1","","","","","","","","","","","","",""
"psychophysics","75","205196","0.0-8.0-0.28","5eb2983b6d99fc00082beab8","609006691f6f4e337c17f836","609d37f215850c1f9353bfd9","477.5999999983469","","","","37","","","","key","16.67229545454558","768","361","true","1","129","6.291456","7","1","-1","","","","","","","","","","","","",""
"psychophysics","76","206495","0.0-8.0-0.29","5eb2983b6d99fc00082beab8","609006691f6f4e337c17f836","609d37f215850c1f9353bfd9","294.86499998893123","","","","37","","","","key","16.672766233766044","768","361","true","-1","135.291456","6.291456","7","-1","1","","","","","","","","","","","","",""
"psychophysics","77","207744","0.0-8.0-0.30","5eb2983b6d99fc00082beab8","609006691f6f4e337c17f836","609d37f215850c1f9353bfd9","247.06999999762047","","","","39","","","","key","16.67214864864867","768","361","true","1","135.291456","5.033164800000001","8","-1","-1","","","","","","","","","","","","",""
"psychophysics","78","209369","0.0-8.0-0.31","5eb2983b6d99fc00082beab8","609006691f6f4e337c17f836","609d37f215850c1f9353bfd9","622.4150000052759","","","","39","","","","key","16.672479166666562","768","361","true","1","130.2582912","5.033164800000001","8","-1","-1","","","","","","","","","","","","",""
"psychophysics","79","210734","0.0-8.0-0.32","5eb2983b6d99fc00082beab8","609006691f6f4e337c17f836","609d37f215850c1f9353bfd9","363.31000000063796","","","","37","","","","key","16.6726419753086","768","361","true","1","130.2582912","4.0265318400000005","9","1","-1","","","","","","","","","","","","",""
"psychophysics","80","212623","0.0-8.0-0.33","5eb2983b6d99fc00082beab8","609006691f6f4e337c17f836","609d37f215850c1f9353bfd9","885.8449999970617","","","","37","","","","key","16.67298214285724","768","361","true","-1","134.28482304","4.0265318400000005","9","-1","1","","","","","","","","","","","","",""
"psychophysics","81","213923","0.0-8.0-0.34","5eb2983b6d99fc00082beab8","609006691f6f4e337c17f836","609d37f215850c1f9353bfd9","297.8550000116229","","","","39","","","","key","16.67246753246752","768","361","true","1","134.28482304","3.2212254720000004","10","-1","-1","","","","","","","","","","","","",""
"psychophysics","82","215234","0.0-8.0-0.35","5eb2983b6d99fc00082beab8","609006691f6f4e337c17f836","609d37f215850c1f9353bfd9","309.0249999950174","","","","39","","","","key","16.67224358974356","768","361","true","1","131.06359756799998","3.2212254720000004","10","-1","-1","","","","","","","","","","","","",""
"psychophysics","83","216592","0.0-8.0-0.36","5eb2983b6d99fc00082beab8","609006691f6f4e337c17f836","609d37f215850c1f9353bfd9","356.5600000001723","","","","39","","","","key","16.672493827160604","768","361","true","1","131.06359756799998","3.2212254720000004","10","-1","-1","","","","","","","","","","","","",""
"psychophysics","84","217995","0.0-8.0-0.37","5eb2983b6d99fc00082beab8","609006691f6f4e337c17f836","609d37f215850c1f9353bfd9","399.94499999738764","","","","37","","","","key","16.673385542168713","768","361","true","-1","129","3.2212254720000004","10","-1","-1","","","","","","","","","","","","",""
"psychophysics","85","219485","0.0-8.0-0.38","5eb2983b6d99fc00082beab8","609006691f6f4e337c17f836","609d37f215850c1f9353bfd9","489.2850000032922","","","","37","","","","key","16.672715909090833","768","361","true","-1","129","3.2212254720000004","10","-1","-1","","","","","","","","","","","","",""
"psychophysics","86","220870","0.0-8.0-0.39","5eb2983b6d99fc00082beab8","609006691f6f4e337c17f836","609d37f215850c1f9353bfd9","382.19499999831896","","","","39","","","","key","16.671987804878082","768","361","true","-1","129","2.5769803776000004","11","1","-1","","","","","","","","","","","","",""
"html-keyboard-response","87","227878","0.0-9.0","5eb2983b6d99fc00082beab8","609006691f6f4e337c17f836","609d37f215850c1f9353bfd9","7007.380000010016","<p>Well Done !</p><p>Prepare for a new block.</p><p>DON'T EXIT THE FULL SCREEN MODE</p><p>Press the Spacebar to start.</p>","","","32","","","","","","","","","","","","","","","true","131.2485663744","","","","","","","","","","",""
"psychophysics","88","228971","0.0-10.0-0.0","5eb2983b6d99fc00082beab8","609006691f6f4e337c17f836","609d37f215850c1f9353bfd9","88.52000000479165","","","","37","","","","key","16.717169230769372","768","361","true","-1","180","30","0","-1","","","","","","","","","","","","","",""
"psychophysics","89","230789","0.0-10.0-0.1","5eb2983b6d99fc00082beab8","609006691f6f4e337c17f836","609d37f215850c1f9353bfd9","816.7900000116788","","","","37","","","","key","16.67186111111099","768","361","true","-1","180","30","0","-1","-1","","","","","","","","","","","","",""
"psychophysics","90","232084","0.0-10.0-0.2","5eb2983b6d99fc00082beab8","609006691f6f4e337c17f836","609d37f215850c1f9353bfd9","292.9700000095181","","","","39","","","","key","16.673038961038873","768","361","true","1","150","30","0","-1","-1","","","","","","","","","","","","",""
"psychophysics","91","233386","0.0-10.0-0.3","5eb2983b6d99fc00082beab8","609006691f6f4e337c17f836","609d37f215850c1f9353bfd9","298.4500000020489","","","","39","","","","key","16.671987012986854","768","361","true","1","150","30","0","-1","-1","","","","","","","","","","","","",""
"psychophysics","92","234770","0.0-10.0-0.4","5eb2983b6d99fc00082beab8","609006691f6f4e337c17f836","609d37f215850c1f9353bfd9","381.43500000296626","","","","39","","","","key","16.672195121951162","768","361","true","-1","129","24","1","1","-1","","","","","","","","","","","","",""
"psychophysics","93","236072","0.0-10.0-0.5","5eb2983b6d99fc00082beab8","609006691f6f4e337c17f836","609d37f215850c1f9353bfd9","300.49500000313856","","","","37","","","","key","16.672272727272908","768","361","true","-1","153","24","1","-1","1","","","","","","","","","","","","",""
"psychophysics","94","237456","0.0-10.0-0.6","5eb2983b6d99fc00082beab8","609006691f6f4e337c17f836","609d37f215850c1f9353bfd9","382.34499999089167","","","","37","","","","key","16.671695121951196","768","361","true","-1","153","19.2","2","-1","-1","","","","","","","","","","","","",""
"psychophysics","95","238761","0.0-10.0-0.7","5eb2983b6d99fc00082beab8","609006691f6f4e337c17f836","609d37f215850c1f9353bfd9","302.9800000076648","","","","39","","","","key","16.671701298701553","768","361","true","1","133.8","19.2","2","-1","-1","","","","","","","","","","","","",""
"psychophysics","96","240064","0.0-10.0-0.8","5eb2983b6d99fc00082beab8","609006691f6f4e337c17f836","609d37f215850c1f9353bfd9","300.3349999926286","","","","39","","","","key","16.672012987012927","768","361","true","1","133.8","19.2","2","-1","-1","","","","","","","","","","","","",""
"psychophysics","97","241606","0.0-10.0-0.9","5eb2983b6d99fc00082beab8","609006691f6f4e337c17f836","609d37f215850c1f9353bfd9","540.0000000081491","","","","39","","","","key","16.672576086956607","768","361","true","1","129","19.2","2","-1","-1","","","","","","","","","","","","",""
"psychophysics","98","243477","0.0-10.0-0.10","5eb2983b6d99fc00082beab8","609006691f6f4e337c17f836","609d37f215850c1f9353bfd9","868.7599999975646","","","","37","","","","key","16.672567567567558","768","361","true","1","129","15.36","3","1","-1","","","","","","","","","","","","",""
"psychophysics","99","244806","0.0-10.0-0.11","5eb2983b6d99fc00082beab8","609006691f6f4e337c17f836","609d37f215850c1f9353bfd9","327.7200000011362","","","","37","","","","key","16.672000000000228","768","361","true","-1","144.36","15.36","3","-1","1","","","","","","","","","","","","",""
"psychophysics","100","246166","0.0-10.0-0.12","5eb2983b6d99fc00082beab8","609006691f6f4e337c17f836","609d37f215850c1f9353bfd9","357.5800000107847","","","","37","","","","key","16.672712500000124","768","361","true","-1","144.36","12.287999999999998","4","-1","-1","","","","","","","","","","","","",""
"psychophysics","101","247571","0.0-10.0-0.13","5eb2983b6d99fc00082beab8","609006691f6f4e337c17f836","609d37f215850c1f9353bfd9","403.0449999991106","","","","39","","","","key","16.672380952381076","768","361","true","-1","132.072","9.8304","5","1","-1","","","","","","","","","","","","",""
"psychophysics","102","249545","0.0-10.0-0.14","5eb2983b6d99fc00082beab8","609006691f6f4e337c17f836","609d37f215850c1f9353bfd9","970.9900000016205","","","","39","","","","key","16.672803418803362","768","361","true","1","141.9024","9.8304","5","-1","1","","","","","","","","","","","","",""
"psychophysics","103","250916","0.0-10.0-0.15","5eb2983b6d99fc00082beab8","609006691f6f4e337c17f836","609d37f215850c1f9353bfd9","368.6350000061793","","","","39","","","","key","16.67195061728377","768","361","true","1","141.9024","7.864319999999999","6","-1","-1","","","","","","","","","","","","",""
"psychophysics","104","252332","0.0-10.0-0.16","5eb2983b6d99fc00082beab8","609006691f6f4e337c17f836","609d37f215850c1f9353bfd9","412.689999997383","","","","39","","","","key","16.672154761904885","768","361","true","1","134.03808","7.864319999999999","6","-1","-1","","","","","","","","","","","","",""
"psychophysics","105","253611","0.0-10.0-0.17","5eb2983b6d99fc00082beab8","609006691f6f4e337c17f836","609d37f215850c1f9353bfd9","276.54000000620726","","","","37","","","","key","16.67160526315772","768","361","true","-1","134.03808","7.864319999999999","6","-1","-1","","","","","","","","","","","","",""
"psychophysics","106","254974","0.0-10.0-0.18","5eb2983b6d99fc00082beab8","609006691f6f4e337c17f836","609d37f215850c1f9353bfd9","360.81499999272637","","","","39","","","","key","16.67198765432077","768","361","true","-1","129","6.291456","7","1","-1","","","","","","","","","","","","",""
"psychophysics","107","256287","0.0-10.0-0.19","5eb2983b6d99fc00082beab8","609006691f6f4e337c17f836","609d37f215850c1f9353bfd9","310.18000000040047","","","","37","","","","key","16.672896103896033","768","361","true","-1","135.291456","6.291456","7","-1","1","","","","","","","","","","","","",""
"psychophysics","108","257774","0.0-10.0-0.20","5eb2983b6d99fc00082beab8","609006691f6f4e337c17f836","609d37f215850c1f9353bfd9","485.6350000045495","","","","37","","","","key","16.672056179775222","768","361","true","-1","135.291456","5.033164800000001","8","-1","-1","","","","","","","","","","","","",""
"psychophysics","109","259293","0.0-10.0-0.21","5eb2983b6d99fc00082beab8","609006691f6f4e337c17f836","609d37f215850c1f9353bfd9","515.1499999919906","","","","37","","","","key","16.672811111111272","768","361","true","1","130.2582912","4.0265318400000005","9","1","-1","","","","","","","","","","","","",""
"psychophysics","110","260730","0.0-10.0-0.22","5eb2983b6d99fc00082beab8","609006691f6f4e337c17f836","609d37f215850c1f9353bfd9","434.95000000984874","","","","37","","","","key","16.67262352941154","768","361","true","-1","134.28482304","4.0265318400000005","9","-1","1","","","","","","","","","","","","",""
"psychophysics","111","261981","0.0-10.0-0.23","5eb2983b6d99fc00082beab8","609006691f6f4e337c17f836","609d37f215850c1f9353bfd9","248.52500000270084","","","","39","","","","key","16.672040540540145","768","361","true","1","134.28482304","3.2212254720000004","10","-1","-1","","","","","","","","","","","","",""
"psychophysics","112","263320","0.0-10.0-0.24","5eb2983b6d99fc00082beab8","609006691f6f4e337c17f836","609d37f215850c1f9353bfd9","337.0250000007218","","","","37","","","","key","16.671582278480923","768","361","true","-1","131.06359756799998","3.2212254720000004","10","-1","-1","","","","","","","","","","","","",""
"psychophysics","113","264725","0.0-10.0-0.25","5eb2983b6d99fc00082beab8","609006691f6f4e337c17f836","609d37f215850c1f9353bfd9","401.89000000827946","","","","37","","","","key","16.671951807228883","768","361","true","-1","131.06359756799998","3.2212254720000004","10","-1","-1","","","","","","","","","","","","",""
"psychophysics","114","266725","0.0-10.0-0.26","5eb2983b6d99fc00082beab8","609006691f6f4e337c17f836","609d37f215850c1f9353bfd9","998.1499999994412","","","","39","","","","key","16.672344537815295","768","361","true","1","129","3.2212254720000004","10","-1","-1","","","","","","","","","","","","",""
"psychophysics","115","268228","0.0-10.0-0.27","5eb2983b6d99fc00082beab8","609006691f6f4e337c17f836","609d37f215850c1f9353bfd9","501.8649999983609","","","","39","","","","key","16.672333333333437","768","361","true","1","129","3.2212254720000004","10","-1","-1","","","","","","","","","","","","",""
"psychophysics","116","269739","0.0-10.0-0.28","5eb2983b6d99fc00082beab8","609006691f6f4e337c17f836","609d37f215850c1f9353bfd9","507.5049999868497","","","","37","","","","key","16.672876404494367","768","361","true","-1","129","3.2212254720000004","10","-1","-1","","","","","","","","","","","","",""
"psychophysics","117","272060","0.0-10.0-0.29","5eb2983b6d99fc00082beab8","609006691f6f4e337c17f836","609d37f215850c1f9353bfd9","1320.0499999948079","","","","37","","","","key","16.672340579710113","768","361","true","-1","129","3.2212254720000004","10","-1","-1","","","","","","","","","","","","",""
"psychophysics","118","273605","0.0-10.0-0.30","5eb2983b6d99fc00082beab8","609006691f6f4e337c17f836","609d37f215850c1f9353bfd9","541.2099999957718","","","","37","","","","key","16.67211956521762","768","361","true","1","129","2.5769803776000004","11","1","-1","","","","","","","","","","","","",""
"psychophysics","119","274991","0.0-10.0-0.31","5eb2983b6d99fc00082beab8","609006691f6f4e337c17f836","609d37f215850c1f9353bfd9","382.9049999912968","","","","39","","","","key","16.67157317073192","768","361","true","1","131.5769803776","2.5769803776000004","11","-1","1","","","","","","","","","","","","",""
"psychophysics","120","276301","0.0-10.0-0.32","5eb2983b6d99fc00082beab8","609006691f6f4e337c17f836","609d37f215850c1f9353bfd9","308.5049999936018","","","","39","","","","key","16.67246153846216","768","361","true","1","131.5769803776","2.0615843020800004","12","-1","-1","","","","","","","","","","","","",""
"psychophysics","121","277853","0.0-10.0-0.33","5eb2983b6d99fc00082beab8","609006691f6f4e337c17f836","609d37f215850c1f9353bfd9","550.2049999922747","","","","37","","","","key","16.672673913043464","768","361","true","1","129.51539607552","1.6492674416640005","13","1","-1","","","","","","","","","","","","",""
"psychophysics","122","279206","0.0-10.0-0.34","5eb2983b6d99fc00082beab8","609006691f6f4e337c17f836","609d37f215850c1f9353bfd9","351.8999999942025","","","","37","","","","key","16.672324999999546","768","361","true","-1","131.16466351718398","1.6492674416640005","13","-1","1","","","","","","","","","","","","",""
"psychophysics","123","280472","0.0-10.0-0.35","5eb2983b6d99fc00082beab8","609006691f6f4e337c17f836","609d37f215850c1f9353bfd9","263.7600000016391","","","","39","","","","key","16.671733333333396","768","361","true","1","131.16466351718398","1.3194139533312006","14","-1","-1","","","","","","","","","","","","",""
"psychophysics","124","282021","0.0-10.0-0.36","5eb2983b6d99fc00082beab8","609006691f6f4e337c17f836","609d37f215850c1f9353bfd9","547.3449999990407","","","","37","","","","key","16.67197826086941","768","361","true","-1","129.84524956385278","1.3194139533312006","14","-1","-1","","","","","","","","","","","","",""
"psychophysics","125","283397","0.0-10.0-0.37","5eb2983b6d99fc00082beab8","609006691f6f4e337c17f836","609d37f215850c1f9353bfd9","373.5900000028778","","","","39","","","","key","16.67190123456789","768","361","true","1","129.84524956385278","1.3194139533312006","14","-1","-1","","","","","","","","","","","","",""
"psychophysics","126","284906","0.0-10.0-0.38","5eb2983b6d99fc00082beab8","609006691f6f4e337c17f836","609d37f215850c1f9353bfd9","507.41000000562053","","","","39","","","","key","16.672233333333214","768","361","true","1","129","1.3194139533312006","14","-1","-1","","","","","","","","","","","","",""
"psychophysics","127","286280","0.0-10.0-0.39","5eb2983b6d99fc00082beab8","609006691f6f4e337c17f836","609d37f215850c1f9353bfd9","371.4049999980489","","","","37","","","","key","16.67190123456789","768","361","true","-1","129","1.3194139533312006","14","-1","-1","","","","","","","","","","","","",""
"html-keyboard-response","128","289229","0.0-11.0","5eb2983b6d99fc00082beab8","609006691f6f4e337c17f836","609d37f215850c1f9353bfd9","2947.40499999898","<p>Well Done !</p><p>Prepare for a new block.</p><p>DON'T EXIT THE FULL SCREEN MODE</p><p>Press the Spacebar to start.</p>","","","32","","","","","","","","","","","","","","","true","129.91685203738623","","","","","","","","","","",""
"psychophysics","129","290390","0.0-12.0-0.0","5eb2983b6d99fc00082beab8","609006691f6f4e337c17f836","609d37f215850c1f9353bfd9","158.3950000058394","","","","37","","","","key","16.690899999999342","768","361","true","-1","180","30","0","-1","","","","","","","","","","","","","",""
"psychophysics","130","292073","0.0-12.0-0.1","5eb2983b6d99fc00082beab8","609006691f6f4e337c17f836","609d37f215850c1f9353bfd9","681.4049999957206","","","","39","","","","key","16.671909999999915","768","361","true","1","180","30","0","-1","-1","","","","","","","","","","","","",""
"psychophysics","131","293455","0.0-12.0-0.2","5eb2983b6d99fc00082beab8","609006691f6f4e337c17f836","609d37f215850c1f9353bfd9","380.00499999907333","","","","37","","","","key","16.672426829268595","768","361","true","-1","150","30","0","-1","-1","","","","","","","","","","","","",""
"psychophysics","132","294708","0.0-12.0-0.3","5eb2983b6d99fc00082beab8","609006691f6f4e337c17f836","609d37f215850c1f9353bfd9","250.02999999560416","","","","39","","","","key","16.672189189188774","768","361","true","1","150","30","0","-1","-1","","","","","","","","","","","","",""
"psychophysics","133","296489","0.0-12.0-0.4","5eb2983b6d99fc00082beab8","609006691f6f4e337c17f836","609d37f215850c1f9353bfd9","779.5600000099512","","","","37","","","","key","16.67331132075457","768","361","true","1","129","24","1","1","-1","","","","","","","","","","","","",""
"psychophysics","134","297831","0.0-12.0-0.5","5eb2983b6d99fc00082beab8","609006691f6f4e337c17f836","609d37f215850c1f9353bfd9","339.7699999914039","","","","37","","","","key","16.672746835443004","768","361","true","-1","153","24","1","-1","1","","","","","","","","","","","","",""
"psychophysics","135","299277","0.0-12.0-0.6","5eb2983b6d99fc00082beab8","609006691f6f4e337c17f836","609d37f215850c1f9353bfd9","443.0549999960931","","","","37","","","","key","16.672441860465305","768","361","true","-1","153","19.2","2","-1","-1","","","","","","","","","","","","",""
"psychophysics","136","300537","0.0-12.0-0.7","5eb2983b6d99fc00082beab8","609006691f6f4e337c17f836","609d37f215850c1f9353bfd9","257.78500000888016","","","","39","","","","key","16.671635135135148","768","361","true","1","133.8","19.2","2","-1","-1","","","","","","","","","","","","",""
"psychophysics","137","301833","0.0-12.0-0.8","5eb2983b6d99fc00082beab8","609006691f6f4e337c17f836","609d37f215850c1f9353bfd9","293.93500000878703","","","","37","","","","key","16.672467532467138","768","361","true","-1","133.8","19.2","2","-1","-1","","","","","","","","","","","","",""
"psychophysics","138","303885","0.0-12.0-0.9","5eb2983b6d99fc00082beab8","609006691f6f4e337c17f836","609d37f215850c1f9353bfd9","1049.1999999940163","","","","37","","","","key","16.672368852458856","768","361","true","1","129","15.36","3","1","-1","","","","","","","","","","","","",""
"psychophysics","139","305231","0.0-12.0-0.10","5eb2983b6d99fc00082beab8","609006691f6f4e337c17f836","609d37f215850c1f9353bfd9","343.98499999952037","","","","37","","","","key","16.672812500000145","768","361","true","-1","144.36","15.36","3","-1","1","","","","","","","","","","","","",""
"psychophysics","140","306638","0.0-12.0-0.11","5eb2983b6d99fc00082beab8","609006691f6f4e337c17f836","609d37f215850c1f9353bfd9","404.9149999918882","","","","37","","","","key","16.672530120482012","768","361","true","-1","144.36","12.287999999999998","4","-1","-1","","","","","","","","","","","","",""
"psychophysics","141","308055","0.0-12.0-0.12","5eb2983b6d99fc00082beab8","609006691f6f4e337c17f836","609d37f215850c1f9353bfd9","414.2250000004424","","","","37","","","","key","16.672440476191003","768","361","true","-1","132.072","12.287999999999998","4","-1","-1","","","","","","","","","","","","",""
"psychophysics","142","309324","0.0-12.0-0.13","5eb2983b6d99fc00082beab8","609006691f6f4e337c17f836","609d37f215850c1f9353bfd9","266.9049999967683","","","","39","","","","key","16.672493333333016","768","361","true","1","132.072","12.287999999999998","4","-1","-1","","","","","","","","","","","","",""
"psychophysics","143","310714","0.0-12.0-0.14","5eb2983b6d99fc00082beab8","609006691f6f4e337c17f836","609d37f215850c1f9353bfd9","388.82000000739936","","","","39","","","","key","16.67248192771074","768","361","true","1","129","12.287999999999998","4","-1","-1","","","","","","","","","","","","",""
"psychophysics","144","312175","0.0-12.0-0.15","5eb2983b6d99fc00082beab8","609006691f6f4e337c17f836","609d37f215850c1f9353bfd9","457.7699999936158","","","","37","","","","key","16.673220930232524","768","361","true","1","129","9.8304","5","1","-1","","","","","","","","","","","","",""
"psychophysics","145","313552","0.0-12.0-0.16","5eb2983b6d99fc00082beab8","609006691f6f4e337c17f836","609d37f215850c1f9353bfd9","374.8749999940628","","","","39","","","","key","16.6727560975613","768","361","true","1","138.8304","9.8304","5","-1","1","","","","","","","","","","","","",""
"psychophysics","146","315030","0.0-12.0-0.17","5eb2983b6d99fc00082beab8","609006691f6f4e337c17f836","609d37f215850c1f9353bfd9","475.414999993518","","","","39","","","","key","16.672500000000582","768","361","true","1","138.8304","7.864319999999999","6","-1","-1","","","","","","","","","","","","",""
"psychophysics","147","316955","0.0-12.0-0.18","5eb2983b6d99fc00082beab8","609006691f6f4e337c17f836","609d37f215850c1f9353bfd9","923.8799999875482","","","","39","","","","key","16.672684210526203","768","361","true","-1","130.96608","6.291456","7","1","-1","","","","","","","","","","","","",""
"psychophysics","148","318223","0.0-12.0-0.19","5eb2983b6d99fc00082beab8","609006691f6f4e337c17f836","609d37f215850c1f9353bfd9","264.790000001085","","","","37","","","","key","16.672213333332913","768","361","true","-1","137.25753600000002","6.291456","7","-1","1","","","","","","","","","","","","",""
"psychophysics","149","319601","0.0-12.0-0.20","5eb2983b6d99fc00082beab8","609006691f6f4e337c17f836","609d37f215850c1f9353bfd9","375.7900000055088","","","","39","","","","key","16.672487804877697","768","361","true","1","137.25753600000002","5.033164800000001","8","-1","-1","","","","","","","","","","","","",""
"psychophysics","150","320883","0.0-12.0-0.21","5eb2983b6d99fc00082beab8","609006691f6f4e337c17f836","609d37f215850c1f9353bfd9","279.15000000211876","","","","39","","","","key","16.67261842105271","768","361","true","1","132.2243712","5.033164800000001","8","-1","-1","","","","","","","","","","","","",""
"psychophysics","151","322176","0.0-12.0-0.22","5eb2983b6d99fc00082beab8","609006691f6f4e337c17f836","609d37f215850c1f9353bfd9","291.8249999929685","","","","39","","","","key","16.672750000000203","768","361","true","1","132.2243712","5.033164800000001","8","-1","-1","","","","","","","","","","","","",""
"psychophysics","152","323842","0.0-12.0-0.23","5eb2983b6d99fc00082beab8","609006691f6f4e337c17f836","609d37f215850c1f9353bfd9","662.6550000073621","","","","39","","","","key","16.672191919192127","768","361","true","1","129","5.033164800000001","8","-1","-1","","","","","","","","","","","","",""
"psychophysics","153","325085","0.0-12.0-0.24","5eb2983b6d99fc00082beab8","609006691f6f4e337c17f836","609d37f215850c1f9353bfd9","241.12500000046566","","","","37","","","","key","16.672527027026927","768","361","true","-1","129","5.033164800000001","8","-1","-1","","","","","","","","","","","","",""
"psychophysics","154","326348","0.0-12.0-0.25","5eb2983b6d99fc00082beab8","609006691f6f4e337c17f836","609d37f215850c1f9353bfd9","260.93499999842606","","","","37","","","","key","16.672594594594557","768","361","true","-1","129","5.033164800000001","8","-1","-1","","","","","","","","","","","","",""
"psychophysics","155","327853","0.0-12.0-0.26","5eb2983b6d99fc00082beab8","609006691f6f4e337c17f836","609d37f215850c1f9353bfd9","503.38000000920147","","","","37","","","","key","16.672477777778276","768","361","true","-1","129","5.033164800000001","8","-1","-1","","","","","","","","","","","","",""
"psychophysics","156","329157","0.0-12.0-0.27","5eb2983b6d99fc00082beab8","609006691f6f4e337c17f836","609d37f215850c1f9353bfd9","301.34499999985565","","","","39","","","","key","16.672220779220762","768","361","true","-1","129","4.0265318400000005","9","1","-1","","","","","","","","","","","","",""
"psychophysics","157","330475","0.0-12.0-0.28","5eb2983b6d99fc00082beab8","609006691f6f4e337c17f836","609d37f215850c1f9353bfd9","316.1600000021281","","","","39","","","","key","16.673089743589607","768","361","true","1","133.02653184","4.0265318400000005","9","-1","1","","","","","","","","","","","","",""
"psychophysics","158","331777","0.0-12.0-0.29","5eb2983b6d99fc00082beab8","609006691f6f4e337c17f836","609d37f215850c1f9353bfd9","300.17999999108724","","","","37","","","","key","16.672155844155764","768","361","true","-1","133.02653184","3.2212254720000004","10","-1","-1","","","","","","","","","","","","",""
"psychophysics","159","333094","0.0-12.0-0.30","5eb2983b6d99fc00082beab8","609006691f6f4e337c17f836","609d37f215850c1f9353bfd9","314.2450000013923","","","","39","","","","key","16.67179487179517","768","361","true","1","129.805306368","3.2212254720000004","10","-1","-1","","","","","","","","","","","","",""
"psychophysics","160","334624","0.0-12.0-0.31","5eb2983b6d99fc00082beab8","609006691f6f4e337c17f836","609d37f215850c1f9353bfd9","527.6599999924656","","","","39","","","","key","16.672384615384356","768","361","true","-1","129.805306368","2.5769803776000004","11","1","-1","","","","","","","","","","","","",""
"psychophysics","161","335975","0.0-12.0-0.32","5eb2983b6d99fc00082beab8","609006691f6f4e337c17f836","609d37f215850c1f9353bfd9","348.75999999349006","","","","37","","","","key","16.672437499999795","768","361","true","1","132.3822867456","2.5769803776000004","11","1","1","","","","","","","","","","","","",""
"psychophysics","162","337198","0.0-12.0-0.33","5eb2983b6d99fc00082beab8","609006691f6f4e337c17f836","609d37f215850c1f9353bfd9","219.63500000128988","","","","37","","","","key","16.672236111111285","768","361","true","-1","134.9592671232","2.5769803776000004","11","-1","1","","","","","","","","","","","","",""
"psychophysics","163","338403","0.0-12.0-0.34","5eb2983b6d99fc00082beab8","609006691f6f4e337c17f836","609d37f215850c1f9353bfd9","201.76500000525266","","","","39","","","","key","16.671943661972428","768","361","true","1","134.9592671232","2.0615843020800004","12","-1","-1","","","","","","","","","","","","",""
"psychophysics","164","339623","0.0-12.0-0.35","5eb2983b6d99fc00082beab8","609006691f6f4e337c17f836","609d37f215850c1f9353bfd9","218.41000000131316","","","","39","","","","key","16.67187671232905","768","361","true","1","132.89768282112","2.0615843020800004","12","-1","-1","","","","","","","","","","","","",""
"psychophysics","165","340898","0.0-12.0-0.36","5eb2983b6d99fc00082beab8","609006691f6f4e337c17f836","609d37f215850c1f9353bfd9","273.6599999916507","","","","37","","","","key","16.67231999999999","768","361","true","-1","132.89768282112","2.0615843020800004","12","-1","-1","","","","","","","","","","","","",""
"psychophysics","166","342217","0.0-12.0-0.37","5eb2983b6d99fc00082beab8","609006691f6f4e337c17f836","609d37f215850c1f9353bfd9","316.9599999964703","","","","37","","","","key","16.672230769230875","768","361","true","-1","130.83609851903998","2.0615843020800004","12","-1","-1","","","","","","","","","","","","",""
"psychophysics","167","343471","0.0-12.0-0.38","5eb2983b6d99fc00082beab8","609006691f6f4e337c17f836","609d37f215850c1f9353bfd9","251.2949999945704","","","","39","","","","key","16.673297297297598","768","361","true","1","130.83609851903998","2.0615843020800004","12","-1","-1","","","","","","","","","","","","",""
"psychophysics","168","344721","0.0-12.0-0.39","5eb2983b6d99fc00082beab8","609006691f6f4e337c17f836","609d37f215850c1f9353bfd9","248.0199999990873","","","","39","","","","key","16.672540540540297","768","361","true","-1","129","1.6492674416640005","13","1","-1","","","","","","","","","","","","",""
"html-keyboard-response","169","353498","0.0-13.0","5eb2983b6d99fc00082beab8","609006691f6f4e337c17f836","609d37f215850c1f9353bfd9","8775.250000006054","<p>Well Done !</p><p>Prepare for a new block.</p><p>DON'T EXIT THE FULL SCREEN MODE</p><p>Press the Spacebar to start.</p>","","","32","","","","","","","","","","","","","","","true","131.428804005888","","","","","","","","","","",""
"html-keyboard-response","170","353606","0.0-14.0","5eb2983b6d99fc00082beab8","609006691f6f4e337c17f836","609d37f215850c1f9353bfd9","null","","","","null","","","","","","","","","","","","","","","","","130.57471637241855","true","133.1494327448371","","","","","","","",""
"instructions","171","388575","0.0-15.0","5eb2983b6d99fc00082beab8","609006691f6f4e337c17f836","609d37f215850c1f9353bfd9","34967.3749999929","","","","","","","[{""page_index"":0,""viewing_time"":29272.394999992684},{""page_index"":1,""viewing_time"":1792.4550000025192},{""page_index"":2,""viewing_time"":3902.254999993602}]","","","","","","","","","","","","","","","","","","","","","","","",""
"psychophysics","172","391580","0.0-16.0-0.0","5eb2983b6d99fc00082beab8","609006691f6f4e337c17f836","609d37f215850c1f9353bfd9","null","","","","null","","","","key","16.676633333333303","768","361","","","","","","","","","","","","","","","","","","","",""
"psychophysics","173","392084","0.0-16.0-1.0","5eb2983b6d99fc00082beab8","609006691f6f4e337c17f836","609d37f215850c1f9353bfd9","null","","","","null","","","","key","16.67137931034587","768","361","","","","","","","","","","","","","133","-1","2","false","","","",""
"psychophysics","174","392732","0.0-16.0-2.0","5eb2983b6d99fc00082beab8","609006691f6f4e337c17f836","609d37f215850c1f9353bfd9","645.0049999984913","","","","90","","","","key","16.671342105263122","768","361","","","","","","","","","","","","","","","","","","","",""
"psychophysics","175","393735","0.0-16.0-0.1","5eb2983b6d99fc00082beab8","609006691f6f4e337c17f836","609d37f215850c1f9353bfd9","null","","","","null","","","","key","16.671491525424013","768","361","","","","","","","","","","","","","","","","","","","",""
"psychophysics","176","394237","0.0-16.0-1.1","5eb2983b6d99fc00082beab8","609006691f6f4e337c17f836","609d37f215850c1f9353bfd9","null","","","","null","","","","key","16.671758620688642","768","361","","","","","","","","","","","","","133","-1","5","false","","","",""
"psychophysics","177","394677","0.0-16.0-2.1","5eb2983b6d99fc00082beab8","609006691f6f4e337c17f836","609d37f215850c1f9353bfd9","436.37999999918975","","","","77","","","","key","16.671807692307855","768","361","","","","","","","","","","","","","","","","","","","",""
"psychophysics","178","395680","0.0-16.0-0.2","5eb2983b6d99fc00082beab8","609006691f6f4e337c17f836","609d37f215850c1f9353bfd9","null","","","","null","","","","key","16.672474576270808","768","361","","","","","","","","","","","","","","","","","","","",""
"psychophysics","179","396182","0.0-16.0-1.2","5eb2983b6d99fc00082beab8","609006691f6f4e337c17f836","609d37f215850c1f9353bfd9","null","","","","null","","","","key","16.67137931034587","768","361","","","","","","","","","","","","","133","1","5","false","","","",""
"psychophysics","180","396945","0.0-16.0-2.2","5eb2983b6d99fc00082beab8","609006691f6f4e337c17f836","609d37f215850c1f9353bfd9","759.8699999944074","","","","77","","","","key","16.671466666666998","768","361","","","","","","","","","","","","","","","","","","","",""
"psychophysics","181","397947","0.0-16.0-0.3","5eb2983b6d99fc00082beab8","609006691f6f4e337c17f836","609d37f215850c1f9353bfd9","null","","","","null","","","","key","16.673457627118587","768","361","","","","","","","","","","","","","","","","","","","",""
"psychophysics","182","398448","0.0-16.0-1.3","5eb2983b6d99fc00082beab8","609006691f6f4e337c17f836","609d37f215850c1f9353bfd9","null","","","","null","","","","key","16.67206896551692","768","361","","","","","","","","","","","","","133","-1","3","false","","","",""
"psychophysics","183","399323","0.0-16.0-2.3","5eb2983b6d99fc00082beab8","609006691f6f4e337c17f836","609d37f215850c1f9353bfd9","872.9400000011083","","","","90","","","","key","16.672411764705984","768","361","","","","","","","","","","","","","","","","","","","",""
"psychophysics","184","400326","0.0-16.0-0.4","5eb2983b6d99fc00082beab8","609006691f6f4e337c17f836","609d37f215850c1f9353bfd9","null","","","","null","","","","key","16.6717457627114","768","361","","","","","","","","","","","","","","","","","","","",""
"psychophysics","185","400828","0.0-16.0-1.4","5eb2983b6d99fc00082beab8","609006691f6f4e337c17f836","609d37f215850c1f9353bfd9","null","","","","null","","","","key","16.673399999999674","768","361","","","","","","","","","","","","","133","1","2","false","","","",""
"psychophysics","186","401301","0.0-16.0-2.4","5eb2983b6d99fc00082beab8","609006691f6f4e337c17f836","609d37f215850c1f9353bfd9","469.6599999879254","","","","90","","","","key","16.67266666666708","768","361","","","","","","","","","","","","","","","","","","","",""
"psychophysics","187","402304","0.0-16.0-0.5","5eb2983b6d99fc00082beab8","609006691f6f4e337c17f836","609d37f215850c1f9353bfd9","null","","","","null","","","","key","16.670932203390187","768","361","","","","","","","","","","","","","","","","","","","",""
"psychophysics","188","402807","0.0-16.0-1.5","5eb2983b6d99fc00082beab8","609006691f6f4e337c17f836","609d37f215850c1f9353bfd9","null","","","","null","","","","key","16.671482758620627","768","361","","","","","","","","","","","","","133","-1","4","false","","","",""
"psychophysics","189","402955","0.0-16.0-2.5","5eb2983b6d99fc00082beab8","609006691f6f4e337c17f836","609d37f215850c1f9353bfd9","146.5850000095088","","","","77","","","","key","16.672124999997322","768","361","","","","","","","","","","","","","","","","","","","",""
"psychophysics","190","403956","0.0-16.0-0.6","5eb2983b6d99fc00082beab8","609006691f6f4e337c17f836","609d37f215850c1f9353bfd9","null","","","","null","","","","key","16.672932203389482","768","361","","","","","","","","","","","","","","","","","","","",""
"psychophysics","191","404459","0.0-16.0-1.6","5eb2983b6d99fc00082beab8","609006691f6f4e337c17f836","609d37f215850c1f9353bfd9","null","","","","null","","","","key","16.671517241378876","768","361","","","","","","","","","","","","","133","1","3","false","","","",""
"psychophysics","192","404720","0.0-16.0-2.6","5eb2983b6d99fc00082beab8","609006691f6f4e337c17f836","609d37f215850c1f9353bfd9","258.47000000067055","","","","90","","","","key","16.667666666667596","768","361","","","","","","","","","","","","","","","","","","","",""
"psychophysics","193","405723","0.0-16.0-0.7","5eb2983b6d99fc00082beab8","609006691f6f4e337c17f836","609d37f215850c1f9353bfd9","null","","","","null","","","","key","16.671661016948608","768","361","","","","","","","","","","","","","","","","","","","",""
"psychophysics","194","406225","0.0-16.0-1.7","5eb2983b6d99fc00082beab8","609006691f6f4e337c17f836","609d37f215850c1f9353bfd9","null","","","","null","","","","key","16.672103448275173","768","361","","","","","","","","","","","","","133","1","6","false","","","",""
"psychophysics","195","406446","0.0-16.0-2.7","5eb2983b6d99fc00082beab8","609006691f6f4e337c17f836","609d37f215850c1f9353bfd9","218.24499999638647","","","","77","","","","key","16.67399999999907","768","361","","","","","","","","","","","","","","","","","","","",""
"psychophysics","196","407447","0.0-16.0-0.8","5eb2983b6d99fc00082beab8","609006691f6f4e337c17f836","609d37f215850c1f9353bfd9","null","","","","null","","","","key","16.672610169491666","768","361","","","","","","","","","","","","","","","","","","","",""
"psychophysics","197","407949","0.0-16.0-1.8","5eb2983b6d99fc00082beab8","609006691f6f4e337c17f836","609d37f215850c1f9353bfd9","null","","","","null","","","","key","16.672620689654963","768","361","","","","","","","","","","","","","133","1","4","false","","","",""
"psychophysics","198","407955","0.0-16.0-2.8","5eb2983b6d99fc00082beab8","609006691f6f4e337c17f836","609d37f215850c1f9353bfd9","3.8650000060442835","","","","77","","","","key","NaN","768","361","","","","","","","","","","","","","","","","","","","",""
"psychophysics","199","408958","0.0-16.0-0.9","5eb2983b6d99fc00082beab8","609006691f6f4e337c17f836","609d37f215850c1f9353bfd9","null","","","","null","","","","key","16.67183050847419","768","361","","","","","","","","","","","","","","","","","","","",""
"psychophysics","200","409459","0.0-16.0-1.9","5eb2983b6d99fc00082beab8","609006691f6f4e337c17f836","609d37f215850c1f9353bfd9","null","","","","null","","","","key","16.672999999999742","768","361","","","","","","","","","","","","","133","1","0","false","","","",""
"psychophysics","201","409846","0.0-16.0-2.9","5eb2983b6d99fc00082beab8","609006691f6f4e337c17f836","609d37f215850c1f9353bfd9","384.8850000067614","","","","77","","","","key","16.67245454545429","768","361","","","","","","","","","","","","","","","","","","","",""
"psychophysics","202","410847","0.0-16.0-0.10","5eb2983b6d99fc00082beab8","609006691f6f4e337c17f836","609d37f215850c1f9353bfd9","null","","","","null","","","","key","16.671633333333496","768","361","","","","","","","","","","","","","","","","","","","",""
"psychophysics","203","411350","0.0-16.0-1.10","5eb2983b6d99fc00082beab8","609006691f6f4e337c17f836","609d37f215850c1f9353bfd9","null","","","","null","","","","key","16.672586206896714","768","361","","","","","","","","","","","","","133","-1","0","false","","","",""
"psychophysics","204","411766","0.0-16.0-2.10","5eb2983b6d99fc00082beab8","609006691f6f4e337c17f836","609d37f215850c1f9353bfd9","409.68499999144115","","","","77","","","","key","16.67183333333378","768","361","","","","","","","","","","","","","","","","","","","",""
"psychophysics","205","412768","0.0-16.0-0.11","5eb2983b6d99fc00082beab8","609006691f6f4e337c17f836","609d37f215850c1f9353bfd9","null","","","","null","","","","key","16.672491525424157","768","361","","","","","","","","","","","","","","","","","","","",""
"psychophysics","206","413270","0.0-16.0-1.11","5eb2983b6d99fc00082beab8","609006691f6f4e337c17f836","609d37f215850c1f9353bfd9","null","","","","null","","","","key","16.670172413793022","768","361","","","","","","","","","","","","","133","-1","6","false","","","",""
"psychophysics","207","413743","0.0-16.0-2.11","5eb2983b6d99fc00082beab8","609006691f6f4e337c17f836","609d37f215850c1f9353bfd9","471.2149999977555","","","","77","","","","key","16.67088888888894","768","361","","","","","","","","","","","","","","","","","","","",""
"psychophysics","208","414745","0.0-16.0-0.12","5eb2983b6d99fc00082beab8","609006691f6f4e337c17f836","609d37f215850c1f9353bfd9","null","","","","null","","","","key","16.672237288135783","768","361","","","","","","","","","","","","","","","","","","","",""
"psychophysics","209","415247","0.0-16.0-1.12","5eb2983b6d99fc00082beab8","609006691f6f4e337c17f836","609d37f215850c1f9353bfd9","null","","","","null","","","","key","16.67286206896473","768","361","","","","","","","","","","","","","133","-1","2","false","","","",""
"psychophysics","210","415512","0.0-16.0-2.12","5eb2983b6d99fc00082beab8","609006691f6f4e337c17f836","609d37f215850c1f9353bfd9","262.4649999925168","","","","90","","","","key","16.672466666666637","768","361","","","","","","","","","","","","","","","","","","","",""
"psychophysics","211","416514","0.0-16.0-0.13","5eb2983b6d99fc00082beab8","609006691f6f4e337c17f836","609d37f215850c1f9353bfd9","null","","","","null","","","","key","16.672237288135783","768","361","","","","","","","","","","","","","","","","","","","",""
"psychophysics","212","417016","0.0-16.0-1.13","5eb2983b6d99fc00082beab8","609006691f6f4e337c17f836","609d37f215850c1f9353bfd9","null","","","","null","","","","key","16.672999999999742","768","361","","","","","","","","","","","","","133","-1","3","false","","","",""
"psychophysics","213","417432","0.0-16.0-2.13","5eb2983b6d99fc00082beab8","609006691f6f4e337c17f836","609d37f215850c1f9353bfd9","407.92500000679865","","","","90","","","","key","16.67374999999932","768","361","","","","","","","","","","","","","","","","","","","",""
"psychophysics","214","418436","0.0-16.0-0.14","5eb2983b6d99fc00082beab8","609006691f6f4e337c17f836","609d37f215850c1f9353bfd9","null","","","","null","","","","key","16.671566666666575","768","361","","","","","","","","","","","","","","","","","","","",""
"psychophysics","215","418938","0.0-16.0-1.14","5eb2983b6d99fc00082beab8","609006691f6f4e337c17f836","609d37f215850c1f9353bfd9","null","","","","null","","","","key","16.671413793104122","768","361","","","","","","","","","","","","","133","-1","5","false","","","",""
"psychophysics","216","419107","0.0-16.0-2.14","5eb2983b6d99fc00082beab8","609006691f6f4e337c17f836","609d37f215850c1f9353bfd9","166.27999999036547","","","","77","","","","key","16.668333333334886","768","361","","","","","","","","","","","","","","","","","","","",""
"psychophysics","217","420108","0.0-16.0-0.15","5eb2983b6d99fc00082beab8","609006691f6f4e337c17f836","609d37f215850c1f9353bfd9","null","","","","null","","","","key","16.671508474576374","768","361","","","","","","","","","","","","","","","","","","","",""
"psychophysics","218","420609","0.0-16.0-1.15","5eb2983b6d99fc00082beab8","609006691f6f4e337c17f836","609d37f215850c1f9353bfd9","null","","","","null","","","","key","16.67131034482736","768","361","","","","","","","","","","","","","133","1","6","false","","","",""
"psychophysics","219","421237","0.0-16.0-2.15","5eb2983b6d99fc00082beab8","609006691f6f4e337c17f836","609d37f215850c1f9353bfd9","624.934999999823","","","","77","","","","key","16.67140540540552","768","361","","","","","","","","","","","","","","","","","","","",""
"psychophysics","220","422238","0.0-16.0-0.16","5eb2983b6d99fc00082beab8","609006691f6f4e337c17f836","609d37f215850c1f9353bfd9","null","","","","null","","","","key","16.67250847457553","768","361","","","","","","","","","","","","","","","","","","","",""
"psychophysics","221","422740","0.0-16.0-1.16","5eb2983b6d99fc00082beab8","609006691f6f4e337c17f836","609d37f215850c1f9353bfd9","null","","","","null","","","","key","16.67075862068932","768","361","","","","","","","","","","","","","133","-1","6","false","","","",""
"psychophysics","222","422986","0.0-16.0-2.16","5eb2983b6d99fc00082beab8","609006691f6f4e337c17f836","609d37f215850c1f9353bfd9","243.38999998872168","","","","90","","","","key","16.66857142857043","768","361","","","","","","","","","","","","","","","","","","","",""
"psychophysics","223","423989","0.0-16.0-0.17","5eb2983b6d99fc00082beab8","609006691f6f4e337c17f836","609d37f215850c1f9353bfd9","null","","","","null","","","","key","16.67257627118596","768","361","","","","","","","","","","","","","","","","","","","",""
"psychophysics","224","424490","0.0-16.0-1.17","5eb2983b6d99fc00082beab8","609006691f6f4e337c17f836","609d37f215850c1f9353bfd9","null","","","","null","","","","key","16.671586206897388","768","361","","","","","","","","","","","","","133","-1","0","false","","","",""
"psychophysics","225","424734","0.0-16.0-2.17","5eb2983b6d99fc00082beab8","609006691f6f4e337c17f836","609d37f215850c1f9353bfd9","242.32000000483822","","","","90","","","","key","16.6720769230742","768","361","","","","","","","","","","","","","","","","","","","",""
"psychophysics","226","425736","0.0-16.0-0.18","5eb2983b6d99fc00082beab8","609006691f6f4e337c17f836","609d37f215850c1f9353bfd9","null","","","","null","","","","key","16.67176666666734","768","361","","","","","","","","","","","","","","","","","","","",""
"psychophysics","227","426240","0.0-16.0-1.18","5eb2983b6d99fc00082beab8","609006691f6f4e337c17f836","609d37f215850c1f9353bfd9","null","","","","null","","","","key","16.67403448275933","768","361","","","","","","","","","","","","","133","1","5","false","","","",""
"psychophysics","228","426269","0.0-16.0-2.18","5eb2983b6d99fc00082beab8","609006691f6f4e337c17f836","609d37f215850c1f9353bfd9","27.304999995976686","","","","77","","","","key","NaN","768","361","","","","","","","","","","","","","","","","","","","",""
"psychophysics","229","427270","0.0-16.0-0.19","5eb2983b6d99fc00082beab8","609006691f6f4e337c17f836","609d37f215850c1f9353bfd9","null","","","","null","","","","key","16.67213333333299","768","361","","","","","","","","","","","","","","","","","","","",""
"psychophysics","230","427773","0.0-16.0-1.19","5eb2983b6d99fc00082beab8","609006691f6f4e337c17f836","609d37f215850c1f9353bfd9","null","","","","null","","","","key","16.672275862068435","768","361","","","","","","","","","","","","","133","1","4","false","","","",""
"psychophysics","231","428027","0.0-16.0-2.19","5eb2983b6d99fc00082beab8","609006691f6f4e337c17f836","609d37f215850c1f9353bfd9","247.5200000044424","","","","77","","","","key","16.667785714284815","768","361","","","","","","","","","","","","","","","","","","","",""
"psychophysics","232","429029","0.0-16.0-0.20","5eb2983b6d99fc00082beab8","609006691f6f4e337c17f836","609d37f215850c1f9353bfd9","null","","","","null","","","","key","16.671135593220487","768","361","","","","","","","","","","","","","","","","","","","",""
"psychophysics","233","429531","0.0-16.0-1.20","5eb2983b6d99fc00082beab8","609006691f6f4e337c17f836","609d37f215850c1f9353bfd9","null","","","","null","","","","key","16.67282758620648","768","361","","","","","","","","","","","","","133","1","3","false","","","",""
"psychophysics","234","430010","0.0-16.0-2.20","5eb2983b6d99fc00082beab8","609006691f6f4e337c17f836","609d37f215850c1f9353bfd9","477.0399999979418","","","","77","","","","key","16.670642857142543","768","361","","","","","","","","","","","","","","","","","","","",""
"psychophysics","235","431011","0.0-16.0-0.21","5eb2983b6d99fc00082beab8","609006691f6f4e337c17f836","609d37f215850c1f9353bfd9","null","","","","null","","","","key","16.671440677965943","768","361","","","","","","","","","","","","","","","","","","","",""
"psychophysics","236","431513","0.0-16.0-1.21","5eb2983b6d99fc00082beab8","609006691f6f4e337c17f836","609d37f215850c1f9353bfd9","null","","","","null","","","","key","16.67241379310345","768","361","","","","","","","","","","","","","133","1","2","false","","","",""
"psychophysics","237","431760","0.0-16.0-2.21","5eb2983b6d99fc00082beab8","609006691f6f4e337c17f836","609d37f215850c1f9353bfd9","244.20000000100117","","","","90","","","","key","16.671357142855413","768","361","","","","","","","","","","","","","","","","","","","",""
"psychophysics","238","432761","0.0-16.0-0.22","5eb2983b6d99fc00082beab8","609006691f6f4e337c17f836","609d37f215850c1f9353bfd9","null","","","","null","","","","key","16.671508474576374","768","361","","","","","","","","","","","","","","","","","","","",""
"psychophysics","239","433263","0.0-16.0-1.22","5eb2983b6d99fc00082beab8","609006691f6f4e337c17f836","609d37f215850c1f9353bfd9","null","","","","null","","","","key","16.671103448275847","768","361","","","","","","","","","","","","","133","1","0","false","","","",""
"psychophysics","240","433530","0.0-16.0-2.22","5eb2983b6d99fc00082beab8","609006691f6f4e337c17f836","609d37f215850c1f9353bfd9","264.934999999241","","","","77","","","","key","16.671866666665302","768","361","","","","","","","","","","","","","","","","","","","",""
"psychophysics","241","434533","0.0-16.0-0.23","5eb2983b6d99fc00082beab8","609006691f6f4e337c17f836","609d37f215850c1f9353bfd9","null","","","","null","","","","key","16.672457627118447","768","361","","","","","","","","","","","","","","","","","","","",""
"psychophysics","242","435035","0.0-16.0-1.23","5eb2983b6d99fc00082beab8","609006691f6f4e337c17f836","609d37f215850c1f9353bfd9","null","","","","null","","","","key","16.67282758620648","768","361","","","","","","","","","","","","","133","-1","4","false","","","",""
"psychophysics","243","435457","0.0-16.0-2.23","5eb2983b6d99fc00082beab8","609006691f6f4e337c17f836","609d37f215850c1f9353bfd9","420.38000001048204","","","","77","","","","key","16.671599999999163","768","361","","","","","","","","","","","","","","","","","","","",""
"html-keyboard-response","244","439581","0.0-17.0","5eb2983b6d99fc00082beab8","609006691f6f4e337c17f836","609d37f215850c1f9353bfd9","4123.179999995045","<p>Well Done !</p><p>Training Complete. Press the spacebar to start.</p><p>DON'T EXIT THE FULL SCREEN MODE</p>","","","32","","","","","","","","","","","","","","","","","","","","","","","","","","",""
"psychophysics","245","442592","0.0-18.0-0.0","5eb2983b6d99fc00082beab8","609006691f6f4e337c17f836","609d37f215850c1f9353bfd9","null","","","","null","","","","key","16.6775254237286","768","361","","","","","","","","","","","","","","","","","","","",""
"psychophysics","246","443096","0.0-18.0-1.0","5eb2983b6d99fc00082beab8","609006691f6f4e337c17f836","609d37f215850c1f9353bfd9","null","","","","null","","","","key","16.672833333333255","768","361","","","","","","","","","","","","","133","1","3","true","","","",""
"psychophysics","247","443491","0.0-18.0-2.0","5eb2983b6d99fc00082beab8","609006691f6f4e337c17f836","609d37f215850c1f9353bfd9","393.55999999679625","","","","90","","","","key","16.67036363636461","768","361","","","","","","","","","","","","","","","","","","","",""
"psychophysics","248","444493","0.0-18.0-0.1","5eb2983b6d99fc00082beab8","609006691f6f4e337c17f836","609d37f215850c1f9353bfd9","null","","","","null","","","","key","16.671383333333264","768","361","","","","","","","","","","","","","","","","","","","",""
"psychophysics","249","444996","0.0-18.0-1.1","5eb2983b6d99fc00082beab8","609006691f6f4e337c17f836","609d37f215850c1f9353bfd9","null","","","","null","","","","key","16.67127586206911","768","361","","","","","","","","","","","","","133","1","2","true","","","",""
"psychophysics","250","445187","0.0-18.0-2.1","5eb2983b6d99fc00082beab8","609006691f6f4e337c17f836","609d37f215850c1f9353bfd9","188.67000000318512","","","","90","","","","key","16.67050000000163","768","361","","","","","","","","","","","","","","","","","","","",""
"psychophysics","251","446189","0.0-18.0-0.2","5eb2983b6d99fc00082beab8","609006691f6f4e337c17f836","609d37f215850c1f9353bfd9","null","","","","null","","","","key","16.67177966101711","768","361","","","","","","","","","","","","","","","","","","","",""
"psychophysics","252","446690","0.0-18.0-1.2","5eb2983b6d99fc00082beab8","609006691f6f4e337c17f836","609d37f215850c1f9353bfd9","null","","","","null","","","","key","16.672689655171467","768","361","","","","","","","","","","","","","133","1","6","true","","","",""
"psychophysics","253","446837","0.0-18.0-2.2","5eb2983b6d99fc00082beab8","609006691f6f4e337c17f836","609d37f215850c1f9353bfd9","145.20500000799075","","","","77","","","","key","16.668999999994412","768","361","","","","","","","","","","","","","","","","","","","",""
"psychophysics","254","447838","0.0-18.0-0.3","5eb2983b6d99fc00082beab8","609006691f6f4e337c17f836","609d37f215850c1f9353bfd9","null","","","","null","","","","key","16.671152542372848","768","361","","","","","","","","","","","","","","","","","","","",""
"psychophysics","255","448341","0.0-18.0-1.3","5eb2983b6d99fc00082beab8","609006691f6f4e337c17f836","609d37f215850c1f9353bfd9","null","","","","null","","","","key","16.672689655173475","768","361","","","","","","","","","","","","","133","-1","0","true","","","",""
"psychophysics","256","448717","0.0-18.0-2.3","5eb2983b6d99fc00082beab8","609006691f6f4e337c17f836","609d37f215850c1f9353bfd9","372.78999999398366","","","","77","","","","key","16.671909090909388","768","361","","","","","","","","","","","","","","","","","","","",""
"psychophysics","257","449719","0.0-18.0-0.4","5eb2983b6d99fc00082beab8","609006691f6f4e337c17f836","609d37f215850c1f9353bfd9","null","","","","null","","","","key","16.671203389829934","768","361","","","","","","","","","","","","","","","","","","","",""
"psychophysics","258","450221","0.0-18.0-1.4","5eb2983b6d99fc00082beab8","609006691f6f4e337c17f836","609d37f215850c1f9353bfd9","null","","","","null","","","","key","16.67089655172433","768","361","","","","","","","","","","","","","133","-1","5","true","","","",""
"psychophysics","259","450393","0.0-18.0-2.4","5eb2983b6d99fc00082beab8","609006691f6f4e337c17f836","609d37f215850c1f9353bfd9","170.66000000340864","","","","77","","","","key","16.667666666668893","768","361","","","","","","","","","","","","","","","","","","","",""
"psychophysics","260","451395","0.0-18.0-0.5","5eb2983b6d99fc00082beab8","609006691f6f4e337c17f836","609d37f215850c1f9353bfd9","null","","","","null","","","","key","16.671644067796247","768","361","","","","","","","","","","","","","","","","","","","",""
"psychophysics","261","451897","0.0-18.0-1.5","5eb2983b6d99fc00082beab8","609006691f6f4e337c17f836","609d37f215850c1f9353bfd9","null","","","","null","","","","key","16.673133333331982","768","361","","","","","","","","","","","","","133","-1","6","true","","","",""
"psychophysics","262","452059","0.0-18.0-2.5","5eb2983b6d99fc00082beab8","609006691f6f4e337c17f836","609d37f215850c1f9353bfd9","158.43999999924563","","","","77","","","","key","16.672749999997905","768","361","","","","","","","","","","","","","","","","","","","",""
"psychophysics","263","453060","0.0-18.0-0.6","5eb2983b6d99fc00082beab8","609006691f6f4e337c17f836","609d37f215850c1f9353bfd9","null","","","","null","","","","key","16.67208474576256","768","361","","","","","","","","","","","","","","","","","","","",""
"psychophysics","264","453562","0.0-18.0-1.6","5eb2983b6d99fc00082beab8","609006691f6f4e337c17f836","609d37f215850c1f9353bfd9","null","","","","null","","","","key","16.67206896551893","768","361","","","","","","","","","","","","","133","1","5","true","","","",""
"psychophysics","265","453845","0.0-18.0-2.6","5eb2983b6d99fc00082beab8","609006691f6f4e337c17f836","609d37f215850c1f9353bfd9","280.27499999734573","","","","77","","","","key","16.672750000001543","768","361","","","","","","","","","","","","","","","","","","","",""
"psychophysics","266","454846","0.0-18.0-0.7","5eb2983b6d99fc00082beab8","609006691f6f4e337c17f836","609d37f215850c1f9353bfd9","null","","","","null","","","","key","16.67189830508462","768","361","","","","","","","","","","","","","","","","","","","",""
"psychophysics","267","455350","0.0-18.0-1.7","5eb2983b6d99fc00082beab8","609006691f6f4e337c17f836","609d37f215850c1f9353bfd9","null","","","","null","","","","key","16.672766666665364","768","361","","","","","","","","","","","","","133","1","4","true","","","",""
"psychophysics","268","455749","0.0-18.0-2.7","5eb2983b6d99fc00082beab8","609006691f6f4e337c17f836","609d37f215850c1f9353bfd9","396.7399999964982","","","","77","","","","key","16.67369565217371","768","361","","","","","","","","","","","","","","","","","","","",""
"psychophysics","269","456751","0.0-18.0-0.8","5eb2983b6d99fc00082beab8","609006691f6f4e337c17f836","609d37f215850c1f9353bfd9","null","","","","null","","","","key","16.672186440677713","768","361","","","","","","","","","","","","","","","","","","","",""
"psychophysics","270","457253","0.0-18.0-1.8","5eb2983b6d99fc00082beab8","609006691f6f4e337c17f836","609d37f215850c1f9353bfd9","null","","","","null","","","","key","16.67093103448258","768","361","","","","","","","","","","","","","133","-1","4","true","","","",""
"psychophysics","271","457544","0.0-18.0-2.8","5eb2983b6d99fc00082beab8","609006691f6f4e337c17f836","609d37f215850c1f9353bfd9","289.1749999980675","","","","77","","","","key","16.67156249999971","768","361","","","","","","","","","","","","","","","","","","","",""
"psychophysics","272","458546","0.0-18.0-0.9","5eb2983b6d99fc00082beab8","609006691f6f4e337c17f836","609d37f215850c1f9353bfd9","null","","","","null","","","","key","16.671745762712387","768","361","","","","","","","","","","","","","","","","","","","",""
"psychophysics","273","459048","0.0-18.0-1.9","5eb2983b6d99fc00082beab8","609006691f6f4e337c17f836","609d37f215850c1f9353bfd9","null","","","","null","","","","key","16.672482758621957","768","361","","","","","","","","","","","","","133","-1","3","true","","","",""
"psychophysics","274","459224","0.0-18.0-2.9","5eb2983b6d99fc00082beab8","609006691f6f4e337c17f836","609d37f215850c1f9353bfd9","173.49000000103842","","","","90","","","","key","16.671799999999347","768","361","","","","","","","","","","","","","","","","","","","",""
"psychophysics","275","460227","0.0-18.0-0.10","5eb2983b6d99fc00082beab8","609006691f6f4e337c17f836","609d37f215850c1f9353bfd9","null","","","","null","","","","key","16.671457627118304","768","361","","","","","","","","","","","","","","","","","","","",""
"psychophysics","276","460729","0.0-18.0-1.10","5eb2983b6d99fc00082beab8","609006691f6f4e337c17f836","609d37f215850c1f9353bfd9","null","","","","null","","","","key","16.672758620689976","768","361","","","","","","","","","","","","","133","-1","2","true","","","",""
"psychophysics","277","461004","0.0-18.0-2.10","5eb2983b6d99fc00082beab8","609006691f6f4e337c17f836","609d37f215850c1f9353bfd9","271.9050000014249","","","","90","","","","key","16.670937499999127","768","361","","","","","","","","","","","","","","","","","","","",""
"psychophysics","278","462010","0.0-18.0-0.11","5eb2983b6d99fc00082beab8","609006691f6f4e337c17f836","609d37f215850c1f9353bfd9","null","","","","null","","","","key","16.671576271185817","768","361","","","","","","","","","","","","","","","","","","","",""
"psychophysics","279","462513","0.0-18.0-1.11","5eb2983b6d99fc00082beab8","609006691f6f4e337c17f836","609d37f215850c1f9353bfd9","null","","","","null","","","","key","16.672379310345196","768","361","","","","","","","","","","","","","133","1","0","true","","","",""
"psychophysics","280","462844","0.0-18.0-2.11","5eb2983b6d99fc00082beab8","609006691f6f4e337c17f836","609d37f215850c1f9353bfd9","328.7200000049779","","","","90","","","","key","16.671894736842276","768","361","","","","","","","","","","","","","","","","","","","",""
"psychophysics","281","463847","0.0-18.0-0.12","5eb2983b6d99fc00082beab8","609006691f6f4e337c17f836","609d37f215850c1f9353bfd9","null","","","","null","","","","key","16.671305084745082","768","361","","","","","","","","","","","","","","","","","","","",""
"psychophysics","282","464349","0.0-18.0-1.12","5eb2983b6d99fc00082beab8","609006691f6f4e337c17f836","609d37f215850c1f9353bfd9","null","","","","null","","","","key","16.670965517240834","768","361","","","","","","","","","","","","","133","1","6","true","","","",""
"psychophysics","283","464425","0.0-18.0-2.12","5eb2983b6d99fc00082beab8","609006691f6f4e337c17f836","609d37f215850c1f9353bfd9","73.89499999408145","","","","77","","","","key","16.67424999999639","768","361","","","","","","","","","","","","","","","","","","","",""
"psychophysics","284","465427","0.0-18.0-0.13","5eb2983b6d99fc00082beab8","609006691f6f4e337c17f836","609d37f215850c1f9353bfd9","null","","","","null","","","","key","16.671694915254317","768","361","","","","","","","","","","","","","","","","","","","",""
"psychophysics","285","465929","0.0-18.0-1.13","5eb2983b6d99fc00082beab8","609006691f6f4e337c17f836","609d37f215850c1f9353bfd9","null","","","","null","","","","key","16.672103448275173","768","361","","","","","","","","","","","","","133","-1","4","true","","","",""
"psychophysics","286","466082","0.0-18.0-2.13","5eb2983b6d99fc00082beab8","609006691f6f4e337c17f836","609d37f215850c1f9353bfd9","150.59499999915715","","","","77","","","","key","16.668875000003027","768","361","","","","","","","","","","","","","","","","","","","",""
"psychophysics","287","467084","0.0-18.0-0.14","5eb2983b6d99fc00082beab8","609006691f6f4e337c17f836","609d37f215850c1f9353bfd9","null","","","","null","","","","key","16.671576271185817","768","361","","","","","","","","","","","","","","","","","","","",""
"psychophysics","288","467585","0.0-18.0-1.14","5eb2983b6d99fc00082beab8","609006691f6f4e337c17f836","609d37f215850c1f9353bfd9","null","","","","null","","","","key","16.672666666666434","768","361","","","","","","","","","","","","","133","-1","3","true","","","",""
"psychophysics","289","467865","0.0-18.0-2.14","5eb2983b6d99fc00082beab8","609006691f6f4e337c17f836","609d37f215850c1f9353bfd9","274.57500000309665","","","","77","","","","key","16.67346666666757","768","361","","","","","","","","","","","","","","","","","","","",""
"psychophysics","290","468867","0.0-18.0-0.15","5eb2983b6d99fc00082beab8","609006691f6f4e337c17f836","609d37f215850c1f9353bfd9","null","","","","null","","","","key","16.671457627118304","768","361","","","","","","","","","","","","","","","","","","","",""
"psychophysics","291","469368","0.0-18.0-1.15","5eb2983b6d99fc00082beab8","609006691f6f4e337c17f836","609d37f215850c1f9353bfd9","null","","","","null","","","","key","16.672758620689976","768","361","","","","","","","","","","","","","133","1","5","true","","","",""
"psychophysics","292","469638","0.0-18.0-2.15","5eb2983b6d99fc00082beab8","609006691f6f4e337c17f836","609d37f215850c1f9353bfd9","267.0300000027055","","","","77","","","","key","16.67399999999907","768","361","","","","","","","","","","","","","","","","","","","",""
"psychophysics","293","470641","0.0-18.0-0.16","5eb2983b6d99fc00082beab8","609006691f6f4e337c17f836","609d37f215850c1f9353bfd9","null","","","","null","","","","key","16.67274576271154","768","361","","","","","","","","","","","","","","","","","","","",""
"psychophysics","294","471143","0.0-18.0-1.16","5eb2983b6d99fc00082beab8","609006691f6f4e337c17f836","609d37f215850c1f9353bfd9","null","","","","null","","","","key","16.67206896551692","768","361","","","","","","","","","","","","","133","-1","0","true","","","",""
"psychophysics","295","471478","0.0-18.0-2.16","5eb2983b6d99fc00082beab8","609006691f6f4e337c17f836","609d37f215850c1f9353bfd9","333.03999999770895","","","","77","","","","key","16.672736842105607","768","361","","","","","","","","","","","","","","","","","","","",""
"psychophysics","296","472479","0.0-18.0-0.17","5eb2983b6d99fc00082beab8","609006691f6f4e337c17f836","609d37f215850c1f9353bfd9","null","","","","null","","","","key","16.671203389829934","768","361","","","","","","","","","","","","","","","","","","","",""
"psychophysics","297","472983","0.0-18.0-1.17","5eb2983b6d99fc00082beab8","609006691f6f4e337c17f836","609d37f215850c1f9353bfd9","null","","","","null","","","","key","16.671862068965403","768","361","","","","","","","","","","","","","133","1","4","true","","","",""
"psychophysics","298","473662","0.0-18.0-2.17","5eb2983b6d99fc00082beab8","609006691f6f4e337c17f836","609d37f215850c1f9353bfd9","676.2499999895226","","","","77","","","","key","16.671149999999034","768","361","","","","","","","","","","","","","","","","","","","",""
"psychophysics","299","474663","0.0-18.0-0.18","5eb2983b6d99fc00082beab8","609006691f6f4e337c17f836","609d37f215850c1f9353bfd9","null","","","","null","","","","key","16.671406779661222","768","361","","","","","","","","","","","","","","","","","","","",""
"psychophysics","300","475166","0.0-18.0-1.18","5eb2983b6d99fc00082beab8","609006691f6f4e337c17f836","609d37f215850c1f9353bfd9","null","","","","null","","","","key","16.671551724139135","768","361","","","","","","","","","","","","","133","1","0","true","","","",""
"psychophysics","301","475268","0.0-18.0-2.18","5eb2983b6d99fc00082beab8","609006691f6f4e337c17f836","609d37f215850c1f9353bfd9","98.66499999770895","","","","90","","","","key","16.671200000005776","768","361","","","","","","","","","","","","","","","","","","","",""
"psychophysics","302","476270","0.0-18.0-0.19","5eb2983b6d99fc00082beab8","609006691f6f4e337c17f836","609d37f215850c1f9353bfd9","null","","","","null","","","","key","16.67211864406827","768","361","","","","","","","","","","","","","","","","","","","",""
"psychophysics","303","476771","0.0-18.0-1.19","5eb2983b6d99fc00082beab8","609006691f6f4e337c17f836","609d37f215850c1f9353bfd9","null","","","","null","","","","key","16.672206896551934","768","361","","","","","","","","","","","","","133","-1","2","true","","","",""
"psychophysics","304","477485","0.0-18.0-2.19","5eb2983b6d99fc00082beab8","609006691f6f4e337c17f836","609d37f215850c1f9353bfd9","711.3349999999627","","","","90","","","","key","16.672976190476522","768","361","","","","","","","","","","","","","","","","","","","",""
"psychophysics","305","478487","0.0-18.0-0.20","5eb2983b6d99fc00082beab8","609006691f6f4e337c17f836","609d37f215850c1f9353bfd9","null","","","","null","","","","key","16.671593220339165","768","361","","","","","","","","","","","","","","","","","","","",""
"psychophysics","306","478989","0.0-18.0-1.20","5eb2983b6d99fc00082beab8","609006691f6f4e337c17f836","609d37f215850c1f9353bfd9","null","","","","null","","","","key","16.672466666666637","768","361","","","","","","","","","","","","","133","1","3","true","","","",""
"psychophysics","307","479073","0.0-18.0-2.20","5eb2983b6d99fc00082beab8","609006691f6f4e337c17f836","609d37f215850c1f9353bfd9","80.28999999805819","","","","90","","","","key","16.679250000001048","768","361","","","","","","","","","","","","","","","","","","","",""
"psychophysics","308","480075","0.0-18.0-0.21","5eb2983b6d99fc00082beab8","609006691f6f4e337c17f836","609d37f215850c1f9353bfd9","null","","","","null","","","","key","16.67254237288124","768","361","","","","","","","","","","","","","","","","","","","",""
"psychophysics","309","480578","0.0-18.0-1.21","5eb2983b6d99fc00082beab8","609006691f6f4e337c17f836","609d37f215850c1f9353bfd9","null","","","","null","","","","key","16.671931034483915","768","361","","","","","","","","","","","","","133","-1","6","true","","","",""
"psychophysics","310","480738","0.0-18.0-2.21","5eb2983b6d99fc00082beab8","609006691f6f4e337c17f836","609d37f215850c1f9353bfd9","158.3600000012666","","","","77","","","","key","16.66912500000035","768","361","","","","","","","","","","","","","","","","","","","",""
"psychophysics","311","481740","0.0-18.0-0.22","5eb2983b6d99fc00082beab8","609006691f6f4e337c17f836","609d37f215850c1f9353bfd9","null","","","","null","","","","key","16.67183050847419","768","361","","","","","","","","","","","","","","","","","","","",""
"psychophysics","312","482242","0.0-18.0-1.22","5eb2983b6d99fc00082beab8","609006691f6f4e337c17f836","609d37f215850c1f9353bfd9","null","","","","null","","","","key","16.672466666666637","768","361","","","","","","","","","","","","","133","-1","5","true","","","",""
"psychophysics","313","482475","0.0-18.0-2.22","5eb2983b6d99fc00082beab8","609006691f6f4e337c17f836","609d37f215850c1f9353bfd9","229.88500000792556","","","","77","","","","key","16.674384615384042","768","361","","","","","","","","","","","","","","","","","","","",""
"psychophysics","314","483476","0.0-18.0-0.23","5eb2983b6d99fc00082beab8","609006691f6f4e337c17f836","609d37f215850c1f9353bfd9","null","","","","null","","","","key","16.672525423728878","768","361","","","","","","","","","","","","","","","","","","","",""
"psychophysics","315","483979","0.0-18.0-1.23","5eb2983b6d99fc00082beab8","609006691f6f4e337c17f836","609d37f215850c1f9353bfd9","null","","","","null","","","","key","16.672241379310183","768","361","","","","","","","","","","","","","133","1","2","true","","","",""
"psychophysics","316","484420","0.0-18.0-2.23","5eb2983b6d99fc00082beab8","609006691f6f4e337c17f836","609d37f215850c1f9353bfd9","437.84500000765547","","","","90","","","","key","16.671440000000874","768","361","","","","","","","","","","","","","","","","","","","",""
"psychophysics","317","485422","0.0-18.0-0.24","5eb2983b6d99fc00082beab8","609006691f6f4e337c17f836","609d37f215850c1f9353bfd9","null","","","","null","","","","key","16.671661016949596","768","361","","","","","","","","","","","","","","","","","","","",""
"psychophysics","318","485924","0.0-18.0-1.24","5eb2983b6d99fc00082beab8","609006691f6f4e337c17f836","609d37f215850c1f9353bfd9","null","","","","null","","","","key","16.672310344828695","768","361","","","","","","","","","","","","","133","-1","6","true","","","",""
"psychophysics","319","486051","0.0-18.0-2.24","5eb2983b6d99fc00082beab8","609006691f6f4e337c17f836","609d37f215850c1f9353bfd9","124.3500000127824","","","","77","","","","key","16.673285714284116","768","361","","","","","","","","","","","","","","","","","","","",""
"psychophysics","320","487052","0.0-18.0-0.25","5eb2983b6d99fc00082beab8","609006691f6f4e337c17f836","609d37f215850c1f9353bfd9","null","","","","null","","","","key","16.671576271186805","768","361","","","","","","","","","","","","","","","","","","","",""
"psychophysics","321","487555","0.0-18.0-1.25","5eb2983b6d99fc00082beab8","609006691f6f4e337c17f836","609d37f215850c1f9353bfd9","null","","","","null","","","","key","16.671379310343863","768","361","","","","","","","","","","","","","133","1","0","true","","","",""
"psychophysics","322","487833","0.0-18.0-2.25","5eb2983b6d99fc00082beab8","609006691f6f4e337c17f836","609d37f215850c1f9353bfd9","275.1250000001164","","","","77","","","","key","16.671249999999418","768","361","","","","","","","","","","","","","","","","","","","",""
"psychophysics","323","488834","0.0-18.0-0.26","5eb2983b6d99fc00082beab8","609006691f6f4e337c17f836","609d37f215850c1f9353bfd9","null","","","","null","","","","key","16.671661016948608","768","361","","","","","","","","","","","","","","","","","","","",""
"psychophysics","324","489338","0.0-18.0-1.26","5eb2983b6d99fc00082beab8","609006691f6f4e337c17f836","609d37f215850c1f9353bfd9","null","","","","null","","","","key","16.671379310343863","768","361","","","","","","","","","","","","","133","1","2","true","","","",""
"psychophysics","325","489588","0.0-18.0-2.26","5eb2983b6d99fc00082beab8","609006691f6f4e337c17f836","609d37f215850c1f9353bfd9","248.84500000916887","","","","90","","","","key","16.670071428570996","768","361","","","","","","","","","","","","","","","","","","","",""
"psychophysics","326","490590","0.0-18.0-0.27","5eb2983b6d99fc00082beab8","609006691f6f4e337c17f836","609d37f215850c1f9353bfd9","null","","","","null","","","","key","16.67211864406827","768","361","","","","","","","","","","","","","","","","","","","",""
"psychophysics","327","491092","0.0-18.0-1.27","5eb2983b6d99fc00082beab8","609006691f6f4e337c17f836","609d37f215850c1f9353bfd9","null","","","","null","","","","key","16.670793103449576","768","361","","","","","","","","","","","","","133","-1","3","true","","","",""
"psychophysics","328","491954","0.0-18.0-2.27","5eb2983b6d99fc00082beab8","609006691f6f4e337c17f836","609d37f215850c1f9353bfd9","856.180000002496","","","","77","","","","key","16.671921568627095","768","361","","","","","","","","","","","","","","","","","","","",""
"psychophysics","329","492955","0.0-18.0-0.28","5eb2983b6d99fc00082beab8","609006691f6f4e337c17f836","609d37f215850c1f9353bfd9","null","","","","null","","","","key","16.672355932203295","768","361","","","","","","","","","","","","","","","","","","","",""
"psychophysics","330","493458","0.0-18.0-1.28","5eb2983b6d99fc00082beab8","609006691f6f4e337c17f836","609d37f215850c1f9353bfd9","null","","","","null","","","","key","16.671517241378876","768","361","","","","","","","","","","","","","133","-1","2","true","","","",""
"psychophysics","331","493764","0.0-18.0-2.28","5eb2983b6d99fc00082beab8","609006691f6f4e337c17f836","609d37f215850c1f9353bfd9","304.01499998697545","","","","90","","","","key","16.670999999998863","768","361","","","","","","","","","","","","","","","","","","","",""
"psychophysics","332","494765","0.0-18.0-0.29","5eb2983b6d99fc00082beab8","609006691f6f4e337c17f836","609d37f215850c1f9353bfd9","null","","","","null","","","","key","16.672694915254457","768","361","","","","","","","","","","","","","","","","","","","",""
