"trial_type","trial_index","time_elapsed","internal_node_id","PROLIFIC_PID","STUDY_ID","SESSION_ID","rt","stimulus","button_pressed","success","key_press","responses","isData","view_history","response_type","avg_frame_time","center_x","center_y","isSC","stim_side","trial_luminance","step_size","nReversal","correct","prev_ans","isThreshold","SC_threshold","final_threshold","isLuminance","FF_luminance","luminance","stimSide","ISInt","isFF","question_order","isSPQ","isCAPS","isAQ"
"pavlovia","0","7","0.0-0.0","5ec033bb37fc0c440c5a0534","609006691f6f4e337c17f836","609d365d258d77f325e6bac6","","","","","","","","","","","","","","","","","","","","","","","","","","","","","","","",""
"html-button-response","1","31358","0.0-1.0","5ec033bb37fc0c440c5a0534","609006691f6f4e337c17f836","609d365d258d77f325e6bac6","31347.420000005513","<div style='background-color: white; width:60%; margin: auto; padding: 50px; text-align: justify; text-justify: inter-word; margin-bottom: 20px;'><h1 style='text-align: center;'>Consent Form</h1><p>Please read this consent form carefully before deciding whether you would like to participate in this study. You have to be 18 years old or older to participate to this study.</p><p style='text-decoration: underline;'>Participation is voluntary:</p><p>It is your choice whether or not to participate in this research. If you choose to participate, you may change your mind and leave the study at any time. Refusal to participate or stopping your participation will involve no penalty or loss of benefits to which you are otherwise entitled.</p><p style='text-decoration: underline;'>Purpose of the Study:</p><p>To understand the mechanisms underlying human perception.</p><p style='text-decoration: underline;'>What you will do in this study:</p><p>You will be presented with a series of visual images and then you will press buttons on the keyboard of your computer to respond to simple questions about the images (e.g. Were one or two images presented?). In addition, you will be asked to complete a questionnaire concerning your beliefs and everyday mental and perceptual experiences.'</p><p style='text-decoration: underline;'> Time Required:</p><p>The study will take 40 minutes to complete. </p><p style='text-decoration: underline;'>Risks:</p><p>There are no anticipated risks associated with participating in this study that are beyond those experienced in everyday life. </p><p style='text-decoration: underline;'>Benefits:</p><p>There are no benefits to you in participating in the study. However, this study may lead to a better understanding of how different kinds of visual information are used.</p><p style='text-decoration: underline;'>Compensation:</p><p>You will be paid US$6.6/hour. </p><p style='text-decoration: underline;'>Privacy and Confidentiality:</p><p>Your participation in this study will be anonymous. No personal information about your name or identity will be asked or recorded. This anonymous data will be stored for several years and may be used for a variety of research purposes. The overall results of the study may be published, or the data files may be shared with other researchers, but your identity will not be revealed in any way. The online services we are using for this study may temporarily store your data, but this data will be downloaded and then promptly deleted from those services.Your data will not be permanently associated with your name, IP address, or any other identifiable information (e.g., your information will only be connected to your payment, not to any of your responses), though they may be temporarily stored together before we download and separate them. Even so, no guarantee of internet survey security can be given because, although unlikely, transmissions can be intercepted and IP addresses can be identified. The anonymous data may be shared publicly (for example, in conjunction with a resulting academic publication).</p><p style='text-decoration: underline;'>Participation and Withdrawal:</p><p>Your participation in this study is completely voluntary. You may stop responding to the stimuli or stop answering questions if you so choose and without penalty by exiting the full screen mode, closing this tab of your browser or redirecting it to a different website.</p><p style='text-decoration: underline;'>Contact Info of the Researcher: </p><p>If you have questions about this study, or if you would like to talk to the research team, please contact David Melcher (david.melcher@nyu.edu, md5050@nyu.edu) at the Perception and Active Cognition Laboratory, New York University Abu Dhabi, Computational Research Building, Saadiyat Island, Abu Dhabi, UAE.This research has been reviewed by the New York University Abu Dhabi Institutional Review Board (NYUAD IRB). To contact about your rights in this research, for questions, suggestions, or complaints that are not addressed by the researchers, please email IRBnyuad@nyu.edu, or call the NYUAD IRB at +971 2 628 4313. </p></div>","0","","","","","","","","","","","","","","","","","","","","","","","","","","","","",""
"fullscreen","2","32674","0.0-2.0","5ec033bb37fc0c440c5a0534","609006691f6f4e337c17f836","609d365d258d77f325e6bac6","","","","true","","","","","","","","","","","","","","","","","","","","","","","","","","","",""
"html-keyboard-response","3","50465","0.0-3.0","5ec033bb37fc0c440c5a0534","609006691f6f4e337c17f836","609d365d258d77f325e6bac6","17789.14500004612","<p>Welcome !</p><p>READ CAREFULLY THE FOLLOWING INDICATIONS:</p><p>From this moment you have ~40 minutes to complete the experiment.</p><p>During the experiment you will be prompted to take several breaks. Each break should not last longer than 2-3 minutes.</p><p>Make sure that your computer is plugged in and it's not running on battery power, even if the battery is already fully charged.</p><p>Turn off your phone and music, make sure that you are in a quiet room and that you will not be distracted for the next hour.</p><p>Failure to comply with the instructions and indications provided during the experiment will most likely result in the rejection of your data.<p>Press the spacebar to start.</p>","","","32","","","","","","","","","","","","","","","","","","","","","","","","","","",""
"survey-html-form","4","59750","0.0-4.0","5ec033bb37fc0c440c5a0534","609006691f6f4e337c17f836","609d365d258d77f325e6bac6","9281.704999972135","","","","","{""age"":""22"",""sex"":""F""}","true","","","","","","","","","","","","","","","","","","","","","","","","",""
"instructions","5","117787","0.0-5.0","5ec033bb37fc0c440c5a0534","609006691f6f4e337c17f836","609d365d258d77f325e6bac6","58036.79999988526","","","","","","","[{""page_index"":0,""viewing_time"":41830.56499995291},{""page_index"":1,""viewing_time"":13363.475000020117},{""page_index"":2,""viewing_time"":2842.3349999357015}]","","","","","","","","","","","","","","","","","","","","","","","",""
"psychophysics","6","122386","0.0-6.0-0.0","5ec033bb37fc0c440c5a0534","609006691f6f4e337c17f836","609d365d258d77f325e6bac6","3582.349999807775","","","","37","","","","key","16.669326086956456","340.5","323.5","true","1","180","30","0","1","","","","","","","","","","","","","",""
"psychophysics","7","123537","0.0-6.0-0.1","5ec033bb37fc0c440c5a0534","609006691f6f4e337c17f836","609d365d258d77f325e6bac6","142.8449999075383","","","","37","","","","key","16.67079411764708","340.5","323.5","true","-1","210","30","0","-1","1","","","","","","","","","","","","",""
"psychophysics","8","124595","0.0-6.0-0.2","5ec033bb37fc0c440c5a0534","609006691f6f4e337c17f836","609d365d258d77f325e6bac6","51.860000006854534","","","","37","","","","key","16.665952380952177","340.5","323.5","true","-1","210","24","1","-1","-1","","","","","","","","","","","","",""
"psychophysics","9","131033","0.0-6.0-0.3","5ec033bb37fc0c440c5a0534","609006691f6f4e337c17f836","609d365d258d77f325e6bac6","5425.1100001856685","","","","37","","","","key","16.67000519480517","340.5","323.5","true","1","186","19.2","2","1","-1","","","","","","","","","","","","",""
"psychophysics","10","135206","0.0-6.0-0.4","5ec033bb37fc0c440c5a0534","609006691f6f4e337c17f836","609d365d258d77f325e6bac6","3144.624999957159","","","","39","","","","key","16.670184738955896","340.5","323.5","true","1","205.2","19.2","2","-1","1","","","","","","","","","","","","",""
"psychophysics","11","136246","0.0-6.0-0.5","5ec033bb37fc0c440c5a0534","609006691f6f4e337c17f836","609d365d258d77f325e6bac6","30.34500009380281","","","","37","","","","key","16.671311475410025","340.5","323.5","true","-1","205.2","15.36","3","-1","-1","","","","","","","","","","","","",""
"psychophysics","12","137284","0.0-6.0-0.6","5ec033bb37fc0c440c5a0534","609006691f6f4e337c17f836","609d365d258d77f325e6bac6","30.05999978631735","","","","37","","","","key","16.671903225806386","340.5","323.5","true","-1","189.83999999999997","15.36","3","-1","-1","","","","","","","","","","","","",""
"psychophysics","13","138302","0.0-6.0-0.7","5ec033bb37fc0c440c5a0534","609006691f6f4e337c17f836","609d365d258d77f325e6bac6","4.900000058114529","","","","39","","","","key","16.670133333333556","340.5","323.5","true","1","189.83999999999997","15.36","3","-1","-1","","","","","","","","","","","","",""
"psychophysics","14","142685","0.0-6.0-0.8","5ec033bb37fc0c440c5a0534","609006691f6f4e337c17f836","609d365d258d77f325e6bac6","3371.1099999491125","","","","39","","","","key","16.669965648854916","340.5","323.5","true","-1","174.47999999999996","12.287999999999998","4","1","-1","","","","","","","","","","","","",""
"psychophysics","15","145869","0.0-6.0-0.9","5ec033bb37fc0c440c5a0534","609006691f6f4e337c17f836","609d365d258d77f325e6bac6","2171.6550001874566","","","","37","","","","key","16.66975263157893","340.5","323.5","true","1","186.76799999999997","12.287999999999998","4","1","1","","","","","","","","","","","","",""
"psychophysics","16","146888","0.0-6.0-0.10","5ec033bb37fc0c440c5a0534","609006691f6f4e337c17f836","609d365d258d77f325e6bac6","6.400000071153045","","","","37","","","","key","16.670533333333637","340.5","323.5","true","-1","199.05599999999998","12.287999999999998","4","-1","1","","","","","","","","","","","","",""
"psychophysics","17","149812","0.0-6.0-0.11","5ec033bb37fc0c440c5a0534","609006691f6f4e337c17f836","609d365d258d77f325e6bac6","1915.959999896586","","","","39","","","","key","16.67011494252877","340.5","323.5","true","-1","199.05599999999998","9.8304","5","1","-1","","","","","","","","","","","","",""
"psychophysics","18","152309","0.0-6.0-0.12","5ec033bb37fc0c440c5a0534","609006691f6f4e337c17f836","609d365d258d77f325e6bac6","1490.7700000330806","","","","37","","","","key","16.67010738255027","340.5","323.5","true","1","208.88639999999998","9.8304","5","1","1","","","","","","","","","","","","",""
"psychophysics","19","155445","0.0-6.0-0.13","5ec033bb37fc0c440c5a0534","609006691f6f4e337c17f836","609d365d258d77f325e6bac6","2127.4699999485165","","","","39","","","","key","16.670021390374302","340.5","323.5","true","-1","218.71679999999998","9.8304","5","1","1","","","","","","","","","","","","",""
"psychophysics","20","157889","0.0-6.0-0.14","5ec033bb37fc0c440c5a0534","609006691f6f4e337c17f836","609d365d258d77f325e6bac6","1439.479999942705","","","","37","","","","key","16.669815068492987","340.5","323.5","true","1","228.54719999999998","9.8304","5","1","1","","","","","","","","","","","","",""
"psychophysics","21","158968","0.0-6.0-0.15","5ec033bb37fc0c440c5a0534","609006691f6f4e337c17f836","609d365d258d77f325e6bac6","67.6150000654161","","","","39","","","","key","16.671253968253804","340.5","323.5","true","1","238.37759999999997","9.8304","5","-1","1","","","","","","","","","","","","",""
"psychophysics","22","161575","0.0-6.0-0.16","5ec033bb37fc0c440c5a0534","609006691f6f4e337c17f836","609d365d258d77f325e6bac6","1600.3750001545995","","","","39","","","","key","16.668570512820644","340.5","323.5","true","-1","238.37759999999997","7.864319999999999","6","1","-1","","","","","","","","","","","","",""
"psychophysics","23","163288","0.0-6.0-0.17","5ec033bb37fc0c440c5a0534","609006691f6f4e337c17f836","609d365d258d77f325e6bac6","702.894999878481","","","","37","","","","key","16.669225490196066","340.5","323.5","true","-1","246.24191999999996","7.864319999999999","6","-1","1","","","","","","","","","","","","",""
"psychophysics","24","164622","0.0-6.0-0.18","5ec033bb37fc0c440c5a0534","609006691f6f4e337c17f836","609d365d258d77f325e6bac6","320.43499988503754","","","","39","","","","key","16.670506329113937","340.5","323.5","true","1","246.24191999999996","6.291456","7","-1","-1","","","","","","","","","","","","",""
"psychophysics","25","165677","0.0-6.0-0.19","5ec033bb37fc0c440c5a0534","609006691f6f4e337c17f836","609d365d258d77f325e6bac6","46.39500007033348","","","","39","","","","key","16.672000000000303","340.5","323.5","true","1","239.95046399999995","6.291456","7","-1","-1","","","","","","","","","","","","",""
"psychophysics","26","166689","0.0-6.0-0.20","5ec033bb37fc0c440c5a0534","609006691f6f4e337c17f836","609d365d258d77f325e6bac6","2.489999867975712","","","","39","","","","key","16.675250000000233","340.5","323.5","true","1","239.95046399999995","6.291456","7","-1","-1","","","","","","","","","","","","",""
"psychophysics","27","168193","0.0-6.0-0.21","5ec033bb37fc0c440c5a0534","609006691f6f4e337c17f836","609d365d258d77f325e6bac6","491.7099999729544","","","","39","","","","key","16.670752808988603","340.5","323.5","true","1","233.65900799999994","6.291456","7","-1","-1","","","","","","","","","","","","",""
"psychophysics","28","170179","0.0-6.0-0.22","5ec033bb37fc0c440c5a0534","609006691f6f4e337c17f836","609d365d258d77f325e6bac6","978.9299999829382","","","","39","","","","key","16.66926271186439","340.5","323.5","true","1","233.65900799999994","6.291456","7","-1","-1","","","","","","","","","","","","",""
"psychophysics","29","171309","0.0-6.0-0.23","5ec033bb37fc0c440c5a0534","609006691f6f4e337c17f836","609d365d258d77f325e6bac6","123.37500019930303","","","","37","","","","key","16.670999999999925","340.5","323.5","true","-1","227.36755199999993","6.291456","7","-1","-1","","","","","","","","","","","","",""
"psychophysics","30","174100","0.0-6.0-0.24","5ec033bb37fc0c440c5a0534","609006691f6f4e337c17f836","609d365d258d77f325e6bac6","1780.2899999078363","","","","37","","","","key","16.669090361445715","340.5","323.5","true","-1","227.36755199999993","6.291456","7","-1","-1","","","","","","","","","","","","",""
"psychophysics","31","175140","0.0-6.0-0.25","5ec033bb37fc0c440c5a0534","609006691f6f4e337c17f836","609d365d258d77f325e6bac6","36.11999982967973","","","","39","","","","key","16.669499999999854","340.5","323.5","true","1","221.07609599999992","6.291456","7","-1","-1","","","","","","","","","","","","",""
"psychophysics","32","177307","0.0-6.0-0.26","5ec033bb37fc0c440c5a0534","609006691f6f4e337c17f836","609d365d258d77f325e6bac6","1165.3299999888986","","","","37","","","","key","16.66980620155038","340.5","323.5","true","-1","221.07609599999992","6.291456","7","-1","-1","","","","","","","","","","","","",""
"psychophysics","33","178768","0.0-6.0-0.27","5ec033bb37fc0c440c5a0534","609006691f6f4e337c17f836","609d365d258d77f325e6bac6","446.9399999361485","","","","39","","","","key","16.671139534883647","340.5","323.5","true","1","214.7846399999999","6.291456","7","-1","-1","","","","","","","","","","","","",""
"psychophysics","34","179808","0.0-6.0-0.28","5ec033bb37fc0c440c5a0534","609006691f6f4e337c17f836","609d365d258d77f325e6bac6","33.50499994121492","","","","37","","","","key","16.67461290322582","340.5","323.5","true","-1","214.7846399999999","6.291456","7","-1","-1","","","","","","","","","","","","",""
"psychophysics","35","181825","0.0-6.0-0.29","5ec033bb37fc0c440c5a0534","609006691f6f4e337c17f836","609d365d258d77f325e6bac6","1002.5200000964105","","","","37","","","","key","16.671433333333212","340.5","323.5","true","-1","208.4931839999999","6.291456","7","-1","-1","","","","","","","","","","","","",""
"psychophysics","36","183014","0.0-6.0-0.30","5ec033bb37fc0c440c5a0534","609006691f6f4e337c17f836","609d365d258d77f325e6bac6","175.52999989129603","","","","37","","","","key","16.669757142857165","340.5","323.5","true","-1","208.4931839999999","6.291456","7","-1","-1","","","","","","","","","","","","",""
"psychophysics","37","184347","0.0-6.0-0.31","5ec033bb37fc0c440c5a0534","609006691f6f4e337c17f836","609d365d258d77f325e6bac6","325.2199999988079","","","","37","","","","key","16.669886075949393","340.5","323.5","true","-1","202.2017279999999","6.291456","7","-1","-1","","","","","","","","","","","","",""
"psychophysics","38","185643","0.0-6.0-0.32","5ec033bb37fc0c440c5a0534","609006691f6f4e337c17f836","609d365d258d77f325e6bac6","287.1150001883507","","","","39","","","","key","16.668636363636182","340.5","323.5","true","1","202.2017279999999","6.291456","7","-1","-1","","","","","","","","","","","","",""
"psychophysics","39","187210","0.0-6.0-0.33","5ec033bb37fc0c440c5a0534","609006691f6f4e337c17f836","609d365d258d77f325e6bac6","553.7799999583513","","","","39","","","","key","16.66987096774204","340.5","323.5","true","1","195.91027199999988","6.291456","7","-1","-1","","","","","","","","","","","","",""
"psychophysics","40","188585","0.0-6.0-0.34","5ec033bb37fc0c440c5a0534","609006691f6f4e337c17f836","609d365d258d77f325e6bac6","369.9900000356138","","","","39","","","","key","16.66930864197504","340.5","323.5","true","1","195.91027199999988","6.291456","7","-1","-1","","","","","","","","","","","","",""
"psychophysics","41","189787","0.0-6.0-0.35","5ec033bb37fc0c440c5a0534","609006691f6f4e337c17f836","609d365d258d77f325e6bac6","196.84000010602176","","","","37","","","","key","16.672028169014187","340.5","323.5","true","-1","189.61881599999987","6.291456","7","-1","-1","","","","","","","","","","","","",""
"psychophysics","42","192128","0.0-6.0-0.36","5ec033bb37fc0c440c5a0534","609006691f6f4e337c17f836","609d365d258d77f325e6bac6","1335.8150001149625","","","","37","","","","key","16.67120714285702","340.5","323.5","true","-1","189.61881599999987","6.291456","7","-1","-1","","","","","","","","","","","","",""
"psychophysics","43","194469","0.0-6.0-0.37","5ec033bb37fc0c440c5a0534","609006691f6f4e337c17f836","609d365d258d77f325e6bac6","1328.7400000263005","","","","37","","","","key","16.66944604316557","340.5","323.5","true","-1","183.32735999999986","6.291456","7","-1","-1","","","","","","","","","","","","",""
"psychophysics","44","195828","0.0-6.0-0.38","5ec033bb37fc0c440c5a0534","609006691f6f4e337c17f836","609d365d258d77f325e6bac6","353.28999999910593","","","","39","","","","key","16.670382716049467","340.5","323.5","true","1","183.32735999999986","6.291456","7","-1","-1","","","","","","","","","","","","",""
"psychophysics","45","197117","0.0-6.0-0.39","5ec033bb37fc0c440c5a0534","609006691f6f4e337c17f836","609d365d258d77f325e6bac6","278.1100000720471","","","","39","","","","key","16.670276315789362","340.5","323.5","true","1","177.03590399999985","6.291456","7","-1","-1","","","","","","","","","","","","",""
"html-keyboard-response","46","200489","0.0-7.0","5ec033bb37fc0c440c5a0534","609006691f6f4e337c17f836","609d365d258d77f325e6bac6","3369.205000111833","<p>Well Done !</p><p>Prepare for a new block.</p><p>DON'T EXIT THE FULL SCREEN MODE</p><p>Press the Spacebar to start.</p>","","","32","","","","","","","","","","","","","","","true","200.52400639999988","","","","","","","","","","",""
"psychophysics","47","202220","0.0-8.0-0.0","5ec033bb37fc0c440c5a0534","609006691f6f4e337c17f836","609d365d258d77f325e6bac6","712.1099999640137","","","","37","","","","key","16.669884615384383","340.5","323.5","true","-1","180","30","0","-1","","","","","","","","","","","","","",""
"psychophysics","48","205317","0.0-8.0-0.1","5ec033bb37fc0c440c5a0534","609006691f6f4e337c17f836","609d365d258d77f325e6bac6","2091.6100000031292","","","","39","","","","key","16.66949189189189","340.5","323.5","true","1","180","30","0","-1","-1","","","","","","","","","","","","",""
"psychophysics","49","207191","0.0-8.0-0.2","5ec033bb37fc0c440c5a0534","609006691f6f4e337c17f836","609d365d258d77f325e6bac6","865.3700000140816","","","","37","","","","key","16.669747747747785","340.5","323.5","true","-1","150","30","0","-1","-1","","","","","","","","","","","","",""
"psychophysics","50","208209","0.0-8.0-0.3","5ec033bb37fc0c440c5a0534","609006691f6f4e337c17f836","609d365d258d77f325e6bac6","13.544999994337559","","","","39","","","","key","16.67061666666656","340.5","323.5","true","1","150","30","0","-1","-1","","","","","","","","","","","","",""
"psychophysics","51","210664","0.0-8.0-0.4","5ec033bb37fc0c440c5a0534","609006691f6f4e337c17f836","609d365d258d77f325e6bac6","1440.2199999894947","","","","39","","","","key","16.668945578231238","340.5","323.5","true","1","129","30","0","-1","-1","","","","","","","","","","","","",""
"psychophysics","52","212822","0.0-8.0-0.5","5ec033bb37fc0c440c5a0534","609006691f6f4e337c17f836","609d365d258d77f325e6bac6","1145.9000001195818","","","","37","","","","key","16.669398437499922","340.5","323.5","true","-1","129","30","0","-1","-1","","","","","","","","","","","","",""
"psychophysics","53","214953","0.0-8.0-0.6","5ec033bb37fc0c440c5a0534","609006691f6f4e337c17f836","609d365d258d77f325e6bac6","1126.1800001375377","","","","37","","","","key","16.668944881889807","340.5","323.5","true","-1","129","30","0","-1","-1","","","","","","","","","","","","",""
"psychophysics","54","216899","0.0-8.0-0.7","5ec033bb37fc0c440c5a0534","609006691f6f4e337c17f836","609d365d258d77f325e6bac6","936.9799999985844","","","","39","","","","key","16.67037931034479","340.5","323.5","true","-1","129","24","1","1","-1","","","","","","","","","","","","",""
"psychophysics","55","218303","0.0-8.0-0.8","5ec033bb37fc0c440c5a0534","609006691f6f4e337c17f836","609d365d258d77f325e6bac6","391.9649999588728","","","","37","","","","key","16.669951807228912","340.5","323.5","true","-1","153","24","1","-1","1","","","","","","","","","","","","",""
"psychophysics","56","219618","0.0-8.0-0.9","5ec033bb37fc0c440c5a0534","609006691f6f4e337c17f836","609d365d258d77f325e6bac6","306.51500006206334","","","","37","","","","key","16.66984615384643","340.5","323.5","true","-1","153","19.2","2","-1","-1","","","","","","","","","","","","",""
"psychophysics","57","222177","0.0-8.0-0.10","5ec033bb37fc0c440c5a0534","609006691f6f4e337c17f836","609d365d258d77f325e6bac6","1547.4650000687689","","","","39","","","","key","16.670098684210597","340.5","323.5","true","-1","133.8","15.36","3","1","-1","","","","","","","","","","","","",""
"psychophysics","58","223478","0.0-8.0-0.11","5ec033bb37fc0c440c5a0534","609006691f6f4e337c17f836","609d365d258d77f325e6bac6","283.1250000745058","","","","39","","","","key","16.670688311688455","340.5","323.5","true","1","149.16000000000003","15.36","3","-1","1","","","","","","","","","","","","",""
"psychophysics","59","224659","0.0-8.0-0.12","5ec033bb37fc0c440c5a0534","609006691f6f4e337c17f836","609d365d258d77f325e6bac6","173.96500008180737","","","","37","","","","key","16.668228571428752","340.5","323.5","true","-1","149.16000000000003","12.287999999999998","4","-1","-1","","","","","","","","","","","","",""
"psychophysics","60","226034","0.0-8.0-0.13","5ec033bb37fc0c440c5a0534","609006691f6f4e337c17f836","609d365d258d77f325e6bac6","371.0349998436868","","","","39","","","","key","16.671353658536667","340.5","323.5","true","1","136.872","12.287999999999998","4","-1","-1","","","","","","","","","","","","",""
"psychophysics","61","227511","0.0-8.0-0.14","5ec033bb37fc0c440c5a0534","609006691f6f4e337c17f836","609d365d258d77f325e6bac6","473.47500012256205","","","","37","","","","key","16.669597701149478","340.5","323.5","true","1","136.872","9.8304","5","1","-1","","","","","","","","","","","","",""
"psychophysics","62","228805","0.0-8.0-0.15","5ec033bb37fc0c440c5a0534","609006691f6f4e337c17f836","609d365d258d77f325e6bac6","288.2299998309463","","","","37","","","","key","16.670675324675226","340.5","323.5","true","-1","146.7024","9.8304","5","-1","1","","","","","","","","","","","","",""
"psychophysics","63","231167","0.0-8.0-0.16","5ec033bb37fc0c440c5a0534","609006691f6f4e337c17f836","609d365d258d77f325e6bac6","1357.8600001055747","","","","37","","","","key","16.669546099290695","340.5","323.5","true","-1","146.7024","7.864319999999999","6","-1","-1","","","","","","","","","","","","",""
"psychophysics","64","232414","0.0-8.0-0.17","5ec033bb37fc0c440c5a0534","609006691f6f4e337c17f836","609d365d258d77f325e6bac6","232.74499992839992","","","","39","","","","key","16.67115068493159","340.5","323.5","true","1","138.83808000000002","7.864319999999999","6","-1","-1","","","","","","","","","","","","",""
"psychophysics","65","233461","0.0-8.0-0.18","5ec033bb37fc0c440c5a0534","609006691f6f4e337c17f836","609d365d258d77f325e6bac6","35.76999995857477","","","","39","","","","key","16.670000000000133","340.5","323.5","true","1","138.83808000000002","7.864319999999999","6","-1","-1","","","","","","","","","","","","",""
"psychophysics","66","235869","0.0-8.0-0.19","5ec033bb37fc0c440c5a0534","609006691f6f4e337c17f836","609d365d258d77f325e6bac6","1403.2199999783188","","","","37","","","","key","16.67156249999991","340.5","323.5","true","1","130.97376000000003","6.291456","7","1","-1","","","","","","","","","","","","",""
"psychophysics","67","237078","0.0-8.0-0.20","5ec033bb37fc0c440c5a0534","609006691f6f4e337c17f836","609d365d258d77f325e6bac6","195.79500006511807","","","","39","","","","key","16.66961971830993","340.5","323.5","true","1","137.26521600000004","6.291456","7","-1","1","","","","","","","","","","","","",""
"psychophysics","68","238454","0.0-8.0-0.21","5ec033bb37fc0c440c5a0534","609006691f6f4e337c17f836","609d365d258d77f325e6bac6","371.66499998420477","","","","39","","","","key","16.669780487804772","340.5","323.5","true","1","137.26521600000004","5.033164800000001","8","-1","-1","","","","","","","","","","","","",""
"psychophysics","69","239852","0.0-8.0-0.22","5ec033bb37fc0c440c5a0534","609006691f6f4e337c17f836","609d365d258d77f325e6bac6","393.26999988406897","","","","37","","","","key","16.66981927710845","340.5","323.5","true","1","132.23205120000003","4.0265318400000005","9","1","-1","","","","","","","","","","","","",""
"psychophysics","70","241263","0.0-8.0-0.23","5ec033bb37fc0c440c5a0534","609006691f6f4e337c17f836","609d365d258d77f325e6bac6","405.4750001523644","","","","39","","","","key","16.670168674698925","340.5","323.5","true","1","136.25858304000002","4.0265318400000005","9","-1","1","","","","","","","","","","","","",""
"psychophysics","71","242427","0.0-8.0-0.24","5ec033bb37fc0c440c5a0534","609006691f6f4e337c17f836","609d365d258d77f325e6bac6","160.60999990440905","","","","37","","","","key","16.67021739130428","340.5","323.5","true","-1","136.25858304000002","3.2212254720000004","10","-1","-1","","","","","","","","","","","","",""
"psychophysics","72","243944","0.0-8.0-0.25","5ec033bb37fc0c440c5a0534","609006691f6f4e337c17f836","609d365d258d77f325e6bac6","510.1400001440197","","","","39","","","","key","16.669588888888637","340.5","323.5","true","-1","133.037357568","2.5769803776000004","11","1","-1","","","","","","","","","","","","",""
"psychophysics","73","245277","0.0-8.0-0.26","5ec033bb37fc0c440c5a0534","609006691f6f4e337c17f836","609d365d258d77f325e6bac6","326.96500001475215","","","","39","","","","key","16.6699240506329","340.5","323.5","true","1","135.6143379456","2.5769803776000004","11","-1","1","","","","","","","","","","","","",""
"psychophysics","74","247271","0.0-8.0-0.27","5ec033bb37fc0c440c5a0534","609006691f6f4e337c17f836","609d365d258d77f325e6bac6","984.679999994114","","","","37","","","","key","16.669823529411786","340.5","323.5","true","1","135.6143379456","2.0615843020800004","12","1","-1","","","","","","","","","","","","",""
"psychophysics","75","248606","0.0-8.0-0.28","5ec033bb37fc0c440c5a0534","609006691f6f4e337c17f836","609d365d258d77f325e6bac6","322.6749999448657","","","","37","","","","key","16.669443037974666","340.5","323.5","true","-1","137.67592224768","2.0615843020800004","12","-1","1","","","","","","","","","","","","",""
"psychophysics","76","249850","0.0-8.0-0.29","5ec033bb37fc0c440c5a0534","609006691f6f4e337c17f836","609d365d258d77f325e6bac6","231.91500012762845","","","","39","","","","key","16.67119178082196","340.5","323.5","true","1","137.67592224768","1.6492674416640005","13","-1","-1","","","","","","","","","","","","",""
"psychophysics","77","251083","0.0-8.0-0.30","5ec033bb37fc0c440c5a0534","609006691f6f4e337c17f836","609d365d258d77f325e6bac6","220.27000016532838","","","","37","","","","key","16.67065753424636","340.5","323.5","true","-1","136.026654806016","1.6492674416640005","13","-1","-1","","","","","","","","","","","","",""
"psychophysics","78","252661","0.0-8.0-0.31","5ec033bb37fc0c440c5a0534","609006691f6f4e337c17f836","609d365d258d77f325e6bac6","570.7700001075864","","","","37","","","","key","16.66952127659572","340.5","323.5","true","-1","136.026654806016","1.6492674416640005","13","-1","-1","","","","","","","","","","","","",""
"psychophysics","79","254007","0.0-8.0-0.32","5ec033bb37fc0c440c5a0534","609006691f6f4e337c17f836","609d365d258d77f325e6bac6","338.62999989651144","","","","37","","","","key","16.6713499999998","340.5","323.5","true","-1","134.37738736435202","1.6492674416640005","13","-1","-1","","","","","","","","","","","","",""
"psychophysics","80","256055","0.0-8.0-0.33","5ec033bb37fc0c440c5a0534","609006691f6f4e337c17f836","609d365d258d77f325e6bac6","1036.155000096187","","","","39","","","","key","16.67056557377056","340.5","323.5","true","1","134.37738736435202","1.6492674416640005","13","-1","-1","","","","","","","","","","","","",""
"psychophysics","81","259141","0.0-8.0-0.34","5ec033bb37fc0c440c5a0534","609006691f6f4e337c17f836","609d365d258d77f325e6bac6","2079.219999955967","","","","39","","","","key","16.669673913043326","340.5","323.5","true","-1","132.72811992268802","1.3194139533312006","14","1","-1","","","","","","","","","","","","",""
"psychophysics","82","260587","0.0-8.0-0.35","5ec033bb37fc0c440c5a0534","609006691f6f4e337c17f836","609d365d258d77f325e6bac6","437.6000000629574","","","","37","","","","key","16.66994117647067","340.5","323.5","true","-1","134.04753387601923","1.3194139533312006","14","-1","1","","","","","","","","","","","","",""
"psychophysics","83","261960","0.0-8.0-0.36","5ec033bb37fc0c440c5a0534","609006691f6f4e337c17f836","609d365d258d77f325e6bac6","356.4450000412762","","","","39","","","","key","16.670914634145802","340.5","323.5","true","1","134.04753387601923","1.0555311626649604","15","-1","-1","","","","","","","","","","","","",""
"psychophysics","84","263377","0.0-8.0-0.37","5ec033bb37fc0c440c5a0534","609006691f6f4e337c17f836","609d365d258d77f325e6bac6","410.98499996587634","","","","37","","","","key","16.667976190476026","340.5","323.5","true","1","132.99200271335428","1","16","1","-1","","","","","","","","","","","","",""
"psychophysics","85","264803","0.0-8.0-0.38","5ec033bb37fc0c440c5a0534","609006691f6f4e337c17f836","609d365d258d77f325e6bac6","415.3849999420345","","","","39","","","","key","16.66963095238108","340.5","323.5","true","1","133.99200271335428","1","16","-1","1","","","","","","","","","","","","",""
"psychophysics","86","267113","0.0-8.0-0.39","5ec033bb37fc0c440c5a0534","609006691f6f4e337c17f836","609d365d258d77f325e6bac6","1295.939999865368","","","","39","","","","key","16.670304347826352","340.5","323.5","true","-1","133.99200271335428","1","17","1","-1","","","","","","","","","","","","",""
"html-keyboard-response","87","269402","0.0-9.0","5ec033bb37fc0c440c5a0534","609006691f6f4e337c17f836","609d365d258d77f325e6bac6","2287.440000101924","<p>Well Done !</p><p>Prepare for a new block.</p><p>DON'T EXIT THE FULL SCREEN MODE</p><p>Press the Spacebar to start.</p>","","","32","","","","","","","","","","","","","","","true","134.8150105406724","","","","","","","","","","",""
"psychophysics","88","270852","0.0-10.0-0.0","5ec033bb37fc0c440c5a0534","609006691f6f4e337c17f836","609d365d258d77f325e6bac6","443.8950000330806","","","","39","","","","key","16.66956321839123","340.5","323.5","true","1","180","30","0","-1","","","","","","","","","","","","","",""
"psychophysics","89","272900","0.0-10.0-0.1","5ec033bb37fc0c440c5a0534","609006691f6f4e337c17f836","609d365d258d77f325e6bac6","1043.305000057444","","","","37","","","","key","16.671270491802954","340.5","323.5","true","-1","180","30","0","-1","-1","","","","","","","","","","","","",""
"psychophysics","90","273919","0.0-10.0-0.2","5ec033bb37fc0c440c5a0534","609006691f6f4e337c17f836","609d365d258d77f325e6bac6","13.494999846443534","","","","39","","","","key","16.66929999999993","340.5","323.5","true","1","150","30","0","-1","-1","","","","","","","","","","","","",""
"psychophysics","91","275129","0.0-10.0-0.3","5ec033bb37fc0c440c5a0534","609006691f6f4e337c17f836","609d365d258d77f325e6bac6","206.11000014469028","","","","39","","","","key","16.67079166666695","340.5","323.5","true","1","150","30","0","-1","-1","","","","","","","","","","","","",""
"psychophysics","92","277207","0.0-10.0-0.4","5ec033bb37fc0c440c5a0534","609006691f6f4e337c17f836","609d365d258d77f325e6bac6","1068.815000122413","","","","37","","","","key","16.670406504065213","340.5","323.5","true","-1","129","30","0","-1","-1","","","","","","","","","","","","",""
"psychophysics","93","278694","0.0-10.0-0.5","5ec033bb37fc0c440c5a0534","609006691f6f4e337c17f836","609d365d258d77f325e6bac6","478.03000011481345","","","","39","","","","key","16.66985393258458","340.5","323.5","true","-1","129","24","1","1","-1","","","","","","","","","","","","",""
"psychophysics","94","280029","0.0-10.0-0.6","5ec033bb37fc0c440c5a0534","609006691f6f4e337c17f836","609d365d258d77f325e6bac6","321.90999994054437","","","","39","","","","key","16.671582278480923","340.5","323.5","true","1","153","24","1","-1","1","","","","","","","","","","","","",""
"psychophysics","95","281342","0.0-10.0-0.7","5ec033bb37fc0c440c5a0534","609006691f6f4e337c17f836","609d365d258d77f325e6bac6","306.28499994054437","","","","39","","","","key","16.669818181818194","340.5","323.5","true","1","153","19.2","2","-1","-1","","","","","","","","","","","","",""
"psychophysics","96","283825","0.0-10.0-0.8","5ec033bb37fc0c440c5a0534","609006691f6f4e337c17f836","609d365d258d77f325e6bac6","1469.0399998798966","","","","37","","","","key","16.668369127516776","340.5","323.5","true","-1","133.8","19.2","2","-1","-1","","","","","","","","","","","","",""
"psychophysics","97","285864","0.0-10.0-0.9","5ec033bb37fc0c440c5a0534","609006691f6f4e337c17f836","609d365d258d77f325e6bac6","1034.4849999528378","","","","39","","","","key","16.670760330578606","340.5","323.5","true","1","133.8","19.2","2","-1","-1","","","","","","","","","","","","",""
"psychophysics","98","287484","0.0-10.0-0.10","5ec033bb37fc0c440c5a0534","609006691f6f4e337c17f836","609d365d258d77f325e6bac6","608.8950000703335","","","","37","","","","key","16.671812500000062","340.5","323.5","true","-1","129","19.2","2","-1","-1","","","","","","","","","","","","",""
"psychophysics","99","289530","0.0-10.0-0.11","5ec033bb37fc0c440c5a0534","609006691f6f4e337c17f836","609d365d258d77f325e6bac6","1038.3800000417978","","","","39","","","","key","16.670188524590454","340.5","323.5","true","-1","129","15.36","3","1","-1","","","","","","","","","","","","",""
"psychophysics","100","290904","0.0-10.0-0.12","5ec033bb37fc0c440c5a0534","609006691f6f4e337c17f836","609d365d258d77f325e6bac6","363.3400001563132","","","","39","","","","key","16.66980246913599","340.5","323.5","true","1","144.36","15.36","3","-1","1","","","","","","","","","","","","",""
"psychophysics","101","293520","0.0-10.0-0.13","5ec033bb37fc0c440c5a0534","609006691f6f4e337c17f836","609d365d258d77f325e6bac6","1611.229999922216","","","","37","","","","key","16.669153846154074","340.5","323.5","true","-1","144.36","12.287999999999998","4","-1","-1","","","","","","","","","","","","",""
"psychophysics","102","295016","0.0-10.0-0.14","5ec033bb37fc0c440c5a0534","609006691f6f4e337c17f836","609d365d258d77f325e6bac6","490.81000010482967","","","","39","","","","key","16.669674157303643","340.5","323.5","true","1","132.072","12.287999999999998","4","-1","-1","","","","","","","","","","","","",""
"psychophysics","103","296515","0.0-10.0-0.15","5ec033bb37fc0c440c5a0534","609006691f6f4e337c17f836","609d365d258d77f325e6bac6","488.94499987363815","","","","37","","","","key","16.66987640449445","340.5","323.5","true","-1","132.072","12.287999999999998","4","-1","-1","","","","","","","","","","","","",""
"psychophysics","104","298389","0.0-10.0-0.16","5ec033bb37fc0c440c5a0534","609006691f6f4e337c17f836","609d365d258d77f325e6bac6","866.9300000183284","","","","39","","","","key","16.66987387387361","340.5","323.5","true","-1","129","9.8304","5","1","-1","","","","","","","","","","","","",""
"psychophysics","105","299714","0.0-10.0-0.17","5ec033bb37fc0c440c5a0534","609006691f6f4e337c17f836","609d365d258d77f325e6bac6","319.9399998411536","","","","39","","","","key","16.66991139240445","340.5","323.5","true","1","138.8304","9.8304","5","-1","1","","","","","","","","","","","","",""
"psychophysics","106","301131","0.0-10.0-0.18","5ec033bb37fc0c440c5a0534","609006691f6f4e337c17f836","609d365d258d77f325e6bac6","402.68999990075827","","","","39","","","","key","16.673059523809656","340.5","323.5","true","1","138.8304","7.864319999999999","6","-1","-1","","","","","","","","","","","","",""
"psychophysics","107","303371","0.0-10.0-0.19","5ec033bb37fc0c440c5a0534","609006691f6f4e337c17f836","609d365d258d77f325e6bac6","1226.5449999831617","","","","37","","","","key","16.670142857142974","340.5","323.5","true","-1","130.96608","7.864319999999999","6","-1","-1","","","","","","","","","","","","",""
"psychophysics","108","304949","0.0-10.0-0.20","5ec033bb37fc0c440c5a0534","609006691f6f4e337c17f836","609d365d258d77f325e6bac6","571.3400000240654","","","","39","","","","key","16.669978723404284","340.5","323.5","true","-1","130.96608","6.291456","7","1","-1","","","","","","","","","","","","",""
"psychophysics","109","306467","0.0-10.0-0.21","5ec033bb37fc0c440c5a0534","609006691f6f4e337c17f836","609d365d258d77f325e6bac6","510.78000012785196","","","","37","","","","key","16.66965555555588","340.5","323.5","true","1","137.25753600000002","6.291456","7","1","1","","","","","","","","","","","","",""
"psychophysics","110","307772","0.0-10.0-0.22","5ec033bb37fc0c440c5a0534","609006691f6f4e337c17f836","609d365d258d77f325e6bac6","293.87000016868114","","","","39","","","","key","16.669831168831042","340.5","323.5","true","1","143.54899200000003","6.291456","7","-1","1","","","","","","","","","","","","",""
"psychophysics","111","309034","0.0-10.0-0.23","5ec033bb37fc0c440c5a0534","609006691f6f4e337c17f836","609d365d258d77f325e6bac6","254.6399999409914","","","","39","","","","key","16.670599999999784","340.5","323.5","true","1","143.54899200000003","5.033164800000001","8","-1","-1","","","","","","","","","","","","",""
"psychophysics","112","310542","0.0-10.0-0.24","5ec033bb37fc0c440c5a0534","609006691f6f4e337c17f836","609d365d258d77f325e6bac6","502.6149998884648","","","","39","","","","key","16.669797752809245","340.5","323.5","true","1","138.51582720000002","5.033164800000001","8","-1","-1","","","","","","","","","","","","",""
"psychophysics","113","311837","0.0-10.0-0.25","5ec033bb37fc0c440c5a0534","609006691f6f4e337c17f836","609d365d258d77f325e6bac6","289.1000001691282","","","","37","","","","key","16.669467532468275","340.5","323.5","true","-1","138.51582720000002","5.033164800000001","8","-1","-1","","","","","","","","","","","","",""
"psychophysics","114","313250","0.0-10.0-0.26","5ec033bb37fc0c440c5a0534","609006691f6f4e337c17f836","609d365d258d77f325e6bac6","404.0249998215586","","","","39","","","","key","16.670738095238146","340.5","323.5","true","-1","133.4826624","4.0265318400000005","9","1","-1","","","","","","","","","","","","",""
"psychophysics","115","314573","0.0-10.0-0.27","5ec033bb37fc0c440c5a0534","609006691f6f4e337c17f836","609d365d258d77f325e6bac6","315.0800000876188","","","","37","","","","key","16.669846153845683","340.5","323.5","true","-1","137.50919424","4.0265318400000005","9","-1","1","","","","","","","","","","","","",""
"psychophysics","116","315868","0.0-10.0-0.28","5ec033bb37fc0c440c5a0534","609006691f6f4e337c17f836","609d365d258d77f325e6bac6","287.3800001107156","","","","37","","","","key","16.669961038961034","340.5","323.5","true","-1","137.50919424","3.2212254720000004","10","-1","-1","","","","","","","","","","","","",""
"psychophysics","117","317283","0.0-10.0-0.29","5ec033bb37fc0c440c5a0534","609006691f6f4e337c17f836","609d365d258d77f325e6bac6","402.48499996960163","","","","37","","","","key","16.670464285714495","340.5","323.5","true","1","134.28796876799998","2.5769803776000004","11","1","-1","","","","","","","","","","","","",""
"psychophysics","118","318820","0.0-10.0-0.30","5ec033bb37fc0c440c5a0534","609006691f6f4e337c17f836","609d365d258d77f325e6bac6","532.1800000965595","","","","37","","","","key","16.671230769231354","340.5","323.5","true","-1","136.86494914559998","2.5769803776000004","11","-1","1","","","","","","","","","","","","",""
"psychophysics","119","320452","0.0-10.0-0.31","5ec033bb37fc0c440c5a0534","609006691f6f4e337c17f836","609d365d258d77f325e6bac6","620.2700000721961","","","","37","","","","key","16.669494845360738","340.5","323.5","true","-1","136.86494914559998","2.0615843020800004","12","-1","-1","","","","","","","","","","","","",""
"psychophysics","120","321813","0.0-10.0-0.32","5ec033bb37fc0c440c5a0534","609006691f6f4e337c17f836","609d365d258d77f325e6bac6","352.5600000284612","","","","39","","","","key","16.670874999999796","340.5","323.5","true","1","134.80336484351997","2.0615843020800004","12","-1","-1","","","","","","","","","","","","",""
"psychophysics","121","323219","0.0-10.0-0.33","5ec033bb37fc0c440c5a0534","609006691f6f4e337c17f836","609d365d258d77f325e6bac6","387.929999968037","","","","37","","","","key","16.67086904761908","340.5","323.5","true","1","134.80336484351997","1.6492674416640005","13","1","-1","","","","","","","","","","","","",""
"psychophysics","122","324554","0.0-10.0-0.34","5ec033bb37fc0c440c5a0534","609006691f6f4e337c17f836","609d365d258d77f325e6bac6","322.165000019595","","","","37","","","","key","16.66993670886061","340.5","323.5","true","-1","136.45263228518397","1.6492674416640005","13","-1","1","","","","","","","","","","","","",""
"psychophysics","123","326520","0.0-10.0-0.35","5ec033bb37fc0c440c5a0534","609006691f6f4e337c17f836","609d365d258d77f325e6bac6","954.935000045225","","","","37","","","","key","16.67194017093991","340.5","323.5","true","1","136.45263228518397","1.3194139533312006","14","1","-1","","","","","","","","","","","","",""
"psychophysics","124","327803","0.0-10.0-0.36","5ec033bb37fc0c440c5a0534","609006691f6f4e337c17f836","609d365d258d77f325e6bac6","270.16999991610646","","","","37","","","","key","16.669842105263104","340.5","323.5","true","-1","137.77204623851517","1.3194139533312006","14","-1","1","","","","","","","","","","","","",""
"psychophysics","125","329046","0.0-10.0-0.37","5ec033bb37fc0c440c5a0534","609006691f6f4e337c17f836","609d365d258d77f325e6bac6","233.3149998448789","","","","39","","","","key","16.670863013698604","340.5","323.5","true","1","137.77204623851517","1.0555311626649604","15","-1","-1","","","","","","","","","","","","",""
"psychophysics","126","330195","0.0-10.0-0.38","5ec033bb37fc0c440c5a0534","609006691f6f4e337c17f836","609d365d258d77f325e6bac6","146.31000021472573","","","","39","","","","key","16.670161764706684","340.5","323.5","true","1","136.71651507585023","1.0555311626649604","15","-1","-1","","","","","","","","","","","","",""
"psychophysics","127","331583","0.0-10.0-0.39","5ec033bb37fc0c440c5a0534","609006691f6f4e337c17f836","609d365d258d77f325e6bac6","382.88499996997416","","","","37","","","","key","16.668609756097574","340.5","323.5","true","-1","136.71651507585023","1.0555311626649604","15","-1","-1","","","","","","","","","","","","",""
"html-keyboard-response","128","332983","0.0-11.0","5ec033bb37fc0c440c5a0534","609006691f6f4e337c17f836","609d365d258d77f325e6bac6","1397.6300000213087","<p>Well Done !</p><p>Prepare for a new block.</p><p>DON'T EXIT THE FULL SCREEN MODE</p><p>Press the Spacebar to start.</p>","","","32","","","","","","","","","","","","","","","true","136.43492413502256","","","","","","","","","","",""
"psychophysics","129","334750","0.0-12.0-0.0","5ec033bb37fc0c440c5a0534","609006691f6f4e337c17f836","609d365d258d77f325e6bac6","761.255000019446","","","","39","","","","key","16.670571428571186","340.5","323.5","true","1","180","30","0","-1","","","","","","","","","","","","","",""
"psychophysics","130","336071","0.0-12.0-0.1","5ec033bb37fc0c440c5a0534","609006691f6f4e337c17f836","609d365d258d77f325e6bac6","317.5550000742078","","","","39","","","","key","16.66948101265854","340.5","323.5","true","1","180","30","0","-1","-1","","","","","","","","","","","","",""
"psychophysics","131","337140","0.0-12.0-0.2","5ec033bb37fc0c440c5a0534","609006691f6f4e337c17f836","609d365d258d77f325e6bac6","64.98000002466142","","","","39","","","","key","16.669936507936598","340.5","323.5","true","1","150","30","0","-1","-1","","","","","","","","","","","","",""
"psychophysics","132","338373","0.0-12.0-0.3","5ec033bb37fc0c440c5a0534","609006691f6f4e337c17f836","609d365d258d77f325e6bac6","229.32500019669533","","","","39","","","","key","16.67052054794486","340.5","323.5","true","1","150","30","0","-1","-1","","","","","","","","","","","","",""
"psychophysics","133","340013","0.0-12.0-0.4","5ec033bb37fc0c440c5a0534","609006691f6f4e337c17f836","609d365d258d77f325e6bac6","636.1150001175702","","","","37","","","","key","16.669061855670453","340.5","323.5","true","-1","129","30","0","-1","-1","","","","","","","","","","","","",""
"psychophysics","134","341907","0.0-12.0-0.5","5ec033bb37fc0c440c5a0534","609006691f6f4e337c17f836","609d365d258d77f325e6bac6","890.6400001142174","","","","39","","","","key","16.671699115044266","340.5","323.5","true","1","129","30","0","-1","-1","","","","","","","","","","","","",""
"psychophysics","135","343284","0.0-12.0-0.6","5ec033bb37fc0c440c5a0534","609006691f6f4e337c17f836","609d365d258d77f325e6bac6","372.789999935776","","","","37","","","","key","16.671086419753177","340.5","323.5","true","1","129","24","1","1","-1","","","","","","","","","","","","",""
"psychophysics","136","344506","0.0-12.0-0.7","5ec033bb37fc0c440c5a0534","609006691f6f4e337c17f836","609d365d258d77f325e6bac6","216.08499996364117","","","","37","","","","key","16.669602739725946","340.5","323.5","true","-1","153","24","1","-1","1","","","","","","","","","","","","",""
"psychophysics","137","345881","0.0-12.0-0.8","5ec033bb37fc0c440c5a0534","609006691f6f4e337c17f836","609d365d258d77f325e6bac6","371.58999987877905","","","","37","","","","key","16.669666666666874","340.5","323.5","true","-1","153","19.2","2","-1","-1","","","","","","","","","","","","",""
"psychophysics","138","347408","0.0-12.0-0.9","5ec033bb37fc0c440c5a0534","609006691f6f4e337c17f836","609d365d258d77f325e6bac6","523.9750000182539","","","","37","","","","key","16.670923076923117","340.5","323.5","true","-1","133.8","19.2","2","-1","-1","","","","","","","","","","","","",""
"psychophysics","139","348732","0.0-12.0-0.10","5ec033bb37fc0c440c5a0534","609006691f6f4e337c17f836","609d365d258d77f325e6bac6","320.76000003144145","","","","39","","","","key","16.669192307692867","340.5","323.5","true","1","133.8","19.2","2","-1","-1","","","","","","","","","","","","",""
"psychophysics","140","351208","0.0-12.0-0.11","5ec033bb37fc0c440c5a0534","609006691f6f4e337c17f836","609d365d258d77f325e6bac6","1473.2800000347197","","","","39","","","","key","16.669560810810623","340.5","323.5","true","1","129","19.2","2","-1","-1","","","","","","","","","","","","",""
"psychophysics","141","352572","0.0-12.0-0.12","5ec033bb37fc0c440c5a0534","609006691f6f4e337c17f836","609d365d258d77f325e6bac6","360.88500008918345","","","","37","","","","key","16.66901234567904","340.5","323.5","true","1","129","15.36","3","1","-1","","","","","","","","","","","","",""
"psychophysics","142","353724","0.0-12.0-0.13","5ec033bb37fc0c440c5a0534","609006691f6f4e337c17f836","609d365d258d77f325e6bac6","149.09500000067055","","","","39","","","","key","16.669602941176407","340.5","323.5","true","1","144.36","15.36","3","-1","1","","","","","","","","","","","","",""
"psychophysics","143","355078","0.0-12.0-0.14","5ec033bb37fc0c440c5a0534","609006691f6f4e337c17f836","609d365d258d77f325e6bac6","350.58500012382865","","","","39","","","","key","16.66952500000043","340.5","323.5","true","1","144.36","12.287999999999998","4","-1","-1","","","","","","","","","","","","",""
"psychophysics","144","356443","0.0-12.0-0.15","5ec033bb37fc0c440c5a0534","609006691f6f4e337c17f836","609d365d258d77f325e6bac6","362.4499998986721","","","","39","","","","key","16.669592592592156","340.5","323.5","true","-1","132.072","9.8304","5","1","-1","","","","","","","","","","","","",""
"psychophysics","145","357665","0.0-12.0-0.16","5ec033bb37fc0c440c5a0534","609006691f6f4e337c17f836","609d365d258d77f325e6bac6","219.13999994285405","","","","37","","","","key","16.669625000000654","340.5","323.5","true","-1","141.9024","9.8304","5","-1","1","","","","","","","","","","","","",""
"psychophysics","146","359163","0.0-12.0-0.17","5ec033bb37fc0c440c5a0534","609006691f6f4e337c17f836","609d365d258d77f325e6bac6","492.680000141263","","","","37","","","","key","16.671089887639948","340.5","323.5","true","-1","141.9024","7.864319999999999","6","-1","-1","","","","","","","","","","","","",""
"psychophysics","147","360588","0.0-12.0-0.18","5ec033bb37fc0c440c5a0534","609006691f6f4e337c17f836","609d365d258d77f325e6bac6","416.57000011764467","","","","37","","","","key","16.66958333333328","340.5","323.5","true","1","134.03808","6.291456","7","1","-1","","","","","","","","","","","","",""
"psychophysics","148","361821","0.0-12.0-0.19","5ec033bb37fc0c440c5a0534","609006691f6f4e337c17f836","609d365d258d77f325e6bac6","229.79999985545874","","","","37","","","","key","16.67164383561682","340.5","323.5","true","-1","140.32953600000002","6.291456","7","-1","1","","","","","","","","","","","","",""
"psychophysics","149","362979","0.0-12.0-0.20","5ec033bb37fc0c440c5a0534","609006691f6f4e337c17f836","609d365d258d77f325e6bac6","150.520000141114","","","","39","","","","key","16.668246376811545","340.5","323.5","true","1","140.32953600000002","5.033164800000001","8","-1","-1","","","","","","","","","","","","",""
"psychophysics","150","365028","0.0-12.0-0.21","5ec033bb37fc0c440c5a0534","609006691f6f4e337c17f836","609d365d258d77f325e6bac6","1046.634999802336","","","","39","","","","key","16.671278688524655","340.5","323.5","true","1","135.2963712","5.033164800000001","8","-1","-1","","","","","","","","","","","","",""
"psychophysics","151","366282","0.0-12.0-0.22","5ec033bb37fc0c440c5a0534","609006691f6f4e337c17f836","609d365d258d77f325e6bac6","242.46500013396144","","","","37","","","","key","16.670054054053697","340.5","323.5","true","-1","135.2963712","5.033164800000001","8","-1","-1","","","","","","","","","","","","",""
"psychophysics","152","367718","0.0-12.0-0.23","5ec033bb37fc0c440c5a0534","609006691f6f4e337c17f836","609d365d258d77f325e6bac6","428.23499999940395","","","","39","","","","key","16.669764705882272","340.5","323.5","true","-1","130.2632064","4.0265318400000005","9","1","-1","","","","","","","","","","","","",""
"psychophysics","153","369071","0.0-12.0-0.24","5ec033bb37fc0c440c5a0534","609006691f6f4e337c17f836","609d365d258d77f325e6bac6","347.9349999688566","","","","37","","","","key","16.66996250000011","340.5","323.5","true","-1","134.28973824","4.0265318400000005","9","-1","1","","","","","","","","","","","","",""
"psychophysics","154","370408","0.0-12.0-0.25","5ec033bb37fc0c440c5a0534","609006691f6f4e337c17f836","609d365d258d77f325e6bac6","330.26499999687076","","","","37","","","","key","16.670556962025156","340.5","323.5","true","-1","134.28973824","3.2212254720000004","10","-1","-1","","","","","","","","","","","","",""
"psychophysics","155","372547","0.0-12.0-0.26","5ec033bb37fc0c440c5a0534","609006691f6f4e337c17f836","609d365d258d77f325e6bac6","1122.4100000690669","","","","39","","","","key","16.67044531249985","340.5","323.5","true","-1","131.068512768","2.5769803776000004","11","1","-1","","","","","","","","","","","","",""
"psychophysics","156","373768","0.0-12.0-0.27","5ec033bb37fc0c440c5a0534","609006691f6f4e337c17f836","609d365d258d77f325e6bac6","210.11000010184944","","","","37","","","","key","16.668861111111053","340.5","323.5","true","-1","133.6454931456","2.5769803776000004","11","-1","1","","","","","","","","","","","","",""
"psychophysics","157","375968","0.0-12.0-0.28","5ec033bb37fc0c440c5a0534","609006691f6f4e337c17f836","609d365d258d77f325e6bac6","1192.9049999453127","","","","39","","","","key","16.67063358778628","340.5","323.5","true","1","133.6454931456","2.0615843020800004","12","-1","-1","","","","","","","","","","","","",""
"psychophysics","158","377580","0.0-12.0-0.29","5ec033bb37fc0c440c5a0534","609006691f6f4e337c17f836","609d365d258d77f325e6bac6","603.7699999287724","","","","37","","","","key","16.66910416666663","340.5","323.5","true","1","131.58390884352","1.6492674416640005","13","1","-1","","","","","","","","","","","","",""
"psychophysics","159","379230","0.0-12.0-0.30","5ec033bb37fc0c440c5a0534","609006691f6f4e337c17f836","609d365d258d77f325e6bac6","641.6249999310821","","","","37","","","","key","16.6706224489792","340.5","323.5","true","1","133.233176285184","1.6492674416640005","13","1","1","","","","","","","","","","","","",""
"psychophysics","160","380929","0.0-12.0-0.31","5ec033bb37fc0c440c5a0534","609006691f6f4e337c17f836","609d365d258d77f325e6bac6","686.9600000791252","","","","39","","","","key","16.6708217821779","340.5","323.5","true","-1","134.88244372684798","1.6492674416640005","13","1","1","","","","","","","","","","","","",""
"psychophysics","161","382067","0.0-12.0-0.32","5ec033bb37fc0c440c5a0534","609006691f6f4e337c17f836","609d365d258d77f325e6bac6","124.17500000447035","","","","39","","","","key","16.669865671641702","340.5","323.5","true","1","136.53171116851198","1.6492674416640005","13","-1","1","","","","","","","","","","","","",""
"psychophysics","162","383322","0.0-12.0-0.33","5ec033bb37fc0c440c5a0534","609006691f6f4e337c17f836","609d365d258d77f325e6bac6","245.7200000062585","","","","37","","","","key","16.67022972972985","340.5","323.5","true","-1","136.53171116851198","1.3194139533312006","14","-1","-1","","","","","","","","","","","","",""
"psychophysics","163","385183","0.0-12.0-0.34","5ec033bb37fc0c440c5a0534","609006691f6f4e337c17f836","609d365d258d77f325e6bac6","856.5350000280887","","","","37","","","","key","16.670639639639564","340.5","323.5","true","-1","135.21229721518077","1.3194139533312006","14","-1","-1","","","","","","","","","","","","",""
"psychophysics","164","387158","0.0-12.0-0.35","5ec033bb37fc0c440c5a0534","609006691f6f4e337c17f836","609d365d258d77f325e6bac6","964.8549999110401","","","","39","","","","key","16.6699658119658","340.5","323.5","true","1","135.21229721518077","1.3194139533312006","14","-1","-1","","","","","","","","","","","","",""
"psychophysics","165","389115","0.0-12.0-0.36","5ec033bb37fc0c440c5a0534","609006691f6f4e337c17f836","609d365d258d77f325e6bac6","951.2449998874217","","","","37","","","","key","16.67035897435873","340.5","323.5","true","1","133.89288326184956","1.0555311626649604","15","1","-1","","","","","","","","","","","","",""
"psychophysics","166","390438","0.0-12.0-0.37","5ec033bb37fc0c440c5a0534","609006691f6f4e337c17f836","609d365d258d77f325e6bac6","314.91499999538064","","","","37","","","","key","16.66933333333313","340.5","323.5","true","-1","134.9484144245145","1.0555311626649604","15","-1","1","","","","","","","","","","","","",""
"psychophysics","167","391842","0.0-12.0-0.38","5ec033bb37fc0c440c5a0534","609006691f6f4e337c17f836","609d365d258d77f325e6bac6","397.36999990418553","","","","37","","","","key","16.669855421686723","340.5","323.5","true","-1","134.9484144245145","1","16","-1","-1","","","","","","","","","","","","",""
"psychophysics","168","397033","0.0-12.0-0.39","5ec033bb37fc0c440c5a0534","609006691f6f4e337c17f836","609d365d258d77f325e6bac6","4185.349999926984","","","","39","","","","key","16.669935691318255","340.5","323.5","true","-1","133.9484144245145","1","17","1","-1","","","","","","","","","","","","",""
"html-keyboard-response","169","424331","0.0-13.0","5ec033bb37fc0c440c5a0534","609006691f6f4e337c17f836","609d365d258d77f325e6bac6","27297.514999983832","<p>Well Done !</p><p>Prepare for a new block.</p><p>DON'T EXIT THE FULL SCREEN MODE</p><p>Press the Spacebar to start.</p>","","","32","","","","","","","","","","","","","","","true","134.23832729716872","","","","","","","","","","",""
"html-keyboard-response","170","424444","0.0-14.0","5ec033bb37fc0c440c5a0534","609006691f6f4e337c17f836","609d365d258d77f325e6bac6","null","","","","null","","","","","","","","","","","","","","","","","151.50306709321592","true","175.00613418643184","","","","","","","",""
"instructions","171","495831","0.0-15.0","5ec033bb37fc0c440c5a0534","609006691f6f4e337c17f836","609d365d258d77f325e6bac6","71385.29999996535","","","","","","","[{""page_index"":0,""viewing_time"":25403.360000113025},{""page_index"":1,""viewing_time"":37207.71500002593},{""page_index"":2,""viewing_time"":8773.739999858662}]","","","","","","","","","","","","","","","","","","","","","","","",""
"psychophysics","172","498848","0.0-16.0-0.0","5ec033bb37fc0c440c5a0534","609006691f6f4e337c17f836","609d365d258d77f325e6bac6","null","","","","null","","","","key","16.67168333333393","340.5","323.5","","","","","","","","","","","","","","","","","","","",""
"psychophysics","173","499366","0.0-16.0-1.0","5ec033bb37fc0c440c5a0534","609006691f6f4e337c17f836","609d365d258d77f325e6bac6","null","","","","null","","","","key","16.669999999999224","340.5","323.5","","","","","","","","","","","","","175","-1","3","false","","","",""
"psychophysics","174","502275","0.0-16.0-2.0","5ec033bb37fc0c440c5a0534","609006691f6f4e337c17f836","609d365d258d77f325e6bac6","2899.9650001060218","","","","90","","","","key","16.66983333333354","340.5","323.5","","","","","","","","","","","","","","","","","","","",""
"psychophysics","175","503277","0.0-16.0-0.1","5ec033bb37fc0c440c5a0534","609006691f6f4e337c17f836","609d365d258d77f325e6bac6","null","","","","null","","","","key","16.669254237288705","340.5","323.5","","","","","","","","","","","","","","","","","","","",""
"psychophysics","176","503782","0.0-16.0-1.1","5ec033bb37fc0c440c5a0534","609006691f6f4e337c17f836","609d365d258d77f325e6bac6","null","","","","null","","","","key","16.67168965517214","340.5","323.5","","","","","","","","","","","","","175","1","2","false","","","",""
"psychophysics","177","504362","0.0-16.0-2.1","5ec033bb37fc0c440c5a0534","609006691f6f4e337c17f836","609d365d258d77f325e6bac6","573.2350000180304","","","","77","","","","key","16.667294117647756","340.5","323.5","","","","","","","","","","","","","","","","","","","",""
"psychophysics","178","505367","0.0-16.0-0.2","5ec033bb37fc0c440c5a0534","609006691f6f4e337c17f836","609d365d258d77f325e6bac6","null","","","","null","","","","key","16.669254237288705","340.5","323.5","","","","","","","","","","","","","","","","","","","",""
"psychophysics","179","505878","0.0-16.0-1.2","5ec033bb37fc0c440c5a0534","609006691f6f4e337c17f836","609d365d258d77f325e6bac6","null","","","","null","","","","key","16.66966666666752","340.5","323.5","","","","","","","","","","","","","175","-1","5","false","","","",""
"psychophysics","180","507315","0.0-16.0-2.2","5ec033bb37fc0c440c5a0534","609006691f6f4e337c17f836","609d365d258d77f325e6bac6","1433.7299999315292","","","","77","","","","key","16.66967058823485","340.5","323.5","","","","","","","","","","","","","","","","","","","",""
"psychophysics","181","508319","0.0-16.0-0.3","5ec033bb37fc0c440c5a0534","609006691f6f4e337c17f836","609d365d258d77f325e6bac6","null","","","","null","","","","key","16.670516666666177","340.5","323.5","","","","","","","","","","","","","","","","","","","",""
"psychophysics","182","508834","0.0-16.0-1.3","5ec033bb37fc0c440c5a0534","609006691f6f4e337c17f836","609d365d258d77f325e6bac6","null","","","","null","","","","key","16.66999999999976","340.5","323.5","","","","","","","","","","","","","175","-1","0","false","","","",""
"psychophysics","183","509027","0.0-16.0-2.3","5ec033bb37fc0c440c5a0534","609006691f6f4e337c17f836","609d365d258d77f325e6bac6","187.58500018157065","","","","90","","","","key","16.661454545455687","340.5","323.5","","","","","","","","","","","","","","","","","","","",""
"psychophysics","184","510034","0.0-16.0-0.4","5ec033bb37fc0c440c5a0534","609006691f6f4e337c17f836","609d365d258d77f325e6bac6","null","","","","null","","","","key","16.66793220338976","340.5","323.5","","","","","","","","","","","","","","","","","","","",""
"psychophysics","185","510538","0.0-16.0-1.4","5ec033bb37fc0c440c5a0534","609006691f6f4e337c17f836","609d365d258d77f325e6bac6","null","","","","null","","","","key","16.675166666666822","340.5","323.5","","","","","","","","","","","","","175","1","3","false","","","",""
"psychophysics","186","511705","0.0-16.0-2.4","5ec033bb37fc0c440c5a0534","609006691f6f4e337c17f836","609d365d258d77f325e6bac6","1164.0000001061708","","","","77","","","","key","16.667231884057824","340.5","323.5","","","","","","","","","","","","","","","","","","","",""
"psychophysics","187","512710","0.0-16.0-0.5","5ec033bb37fc0c440c5a0534","609006691f6f4e337c17f836","609d365d258d77f325e6bac6","null","","","","null","","","","key","16.670728813559883","340.5","323.5","","","","","","","","","","","","","","","","","","","",""
"psychophysics","188","513216","0.0-16.0-1.5","5ec033bb37fc0c440c5a0534","609006691f6f4e337c17f836","609d365d258d77f325e6bac6","null","","","","null","","","","key","16.67331034482802","340.5","323.5","","","","","","","","","","","","","175","1","6","false","","","",""
"psychophysics","189","513466","0.0-16.0-2.5","5ec033bb37fc0c440c5a0534","609006691f6f4e337c17f836","609d365d258d77f325e6bac6","243.419999955222","","","","77","","","","key","16.6760714285691","340.5","323.5","","","","","","","","","","","","","","","","","","","",""
"psychophysics","190","514470","0.0-16.0-0.6","5ec033bb37fc0c440c5a0534","609006691f6f4e337c17f836","609d365d258d77f325e6bac6","null","","","","null","","","","key","16.673649999999906","340.5","323.5","","","","","","","","","","","","","","","","","","","",""
"psychophysics","191","514975","0.0-16.0-1.6","5ec033bb37fc0c440c5a0534","609006691f6f4e337c17f836","609d365d258d77f325e6bac6","null","","","","null","","","","key","16.670655172412555","340.5","323.5","","","","","","","","","","","","","175","1","0","false","","","",""
"psychophysics","192","515307","0.0-16.0-2.6","5ec033bb37fc0c440c5a0534","609006691f6f4e337c17f836","609d365d258d77f325e6bac6","329.714999999851","","","","90","","","","key","16.665157894735643","340.5","323.5","","","","","","","","","","","","","","","","","","","",""
"psychophysics","193","516313","0.0-16.0-0.7","5ec033bb37fc0c440c5a0534","609006691f6f4e337c17f836","609d365d258d77f325e6bac6","null","","","","null","","","","key","16.671135593219503","340.5","323.5","","","","","","","","","","","","","","","","","","","",""
"psychophysics","194","516817","0.0-16.0-1.7","5ec033bb37fc0c440c5a0534","609006691f6f4e337c17f836","609d365d258d77f325e6bac6","null","","","","null","","","","key","16.669931034485263","340.5","323.5","","","","","","","","","","","","","175","1","4","false","","","",""
"psychophysics","195","516997","0.0-16.0-2.7","5ec033bb37fc0c440c5a0534","609006691f6f4e337c17f836","609d365d258d77f325e6bac6","158.04499993100762","","","","77","","","","key","16.675500000000465","340.5","323.5","","","","","","","","","","","","","","","","","","","",""
"psychophysics","196","518002","0.0-16.0-0.8","5ec033bb37fc0c440c5a0534","609006691f6f4e337c17f836","609d365d258d77f325e6bac6","null","","","","null","","","","key","16.670067796609917","340.5","323.5","","","","","","","","","","","","","","","","","","","",""
"psychophysics","197","518519","0.0-16.0-1.8","5ec033bb37fc0c440c5a0534","609006691f6f4e337c17f836","609d365d258d77f325e6bac6","null","","","","null","","","","key","16.669866666667318","340.5","323.5","","","","","","","","","","","","","175","-1","2","false","","","",""
"psychophysics","198","520795","0.0-16.0-2.8","5ec033bb37fc0c440c5a0534","609006691f6f4e337c17f836","609d365d258d77f325e6bac6","2270.079999929294","","","","90","","","","key","16.66893382352924","340.5","323.5","","","","","","","","","","","","","","","","","","","",""
"psychophysics","199","521803","0.0-16.0-0.9","5ec033bb37fc0c440c5a0534","609006691f6f4e337c17f836","609d365d258d77f325e6bac6","null","","","","null","","","","key","16.670898305084478","340.5","323.5","","","","","","","","","","","","","","","","","","","",""
"psychophysics","200","522311","0.0-16.0-1.9","5ec033bb37fc0c440c5a0534","609006691f6f4e337c17f836","609d365d258d77f325e6bac6","null","","","","null","","","","key","16.674233333331845","340.5","323.5","","","","","","","","","","","","","175","-1","4","false","","","",""
"psychophysics","201","522506","0.0-16.0-2.9","5ec033bb37fc0c440c5a0534","609006691f6f4e337c17f836","609d365d258d77f325e6bac6","192.52999988384545","","","","77","","","","key","16.669818181819707","340.5","323.5","","","","","","","","","","","","","","","","","","","",""
"psychophysics","202","523513","0.0-16.0-0.10","5ec033bb37fc0c440c5a0534","609006691f6f4e337c17f836","609d365d258d77f325e6bac6","null","","","","null","","","","key","16.67040677966108","340.5","323.5","","","","","","","","","","","","","","","","","","","",""
"psychophysics","203","524017","0.0-16.0-1.10","5ec033bb37fc0c440c5a0534","609006691f6f4e337c17f836","609d365d258d77f325e6bac6","null","","","","null","","","","key","16.6736896551728","340.5","323.5","","","","","","","","","","","","","175","1","5","false","","","",""
"psychophysics","204","524247","0.0-16.0-2.10","5ec033bb37fc0c440c5a0534","609006691f6f4e337c17f836","609d365d258d77f325e6bac6","223.10499986633658","","","","77","","","","key","16.688230769225182","340.5","323.5","","","","","","","","","","","","","","","","","","","",""
"psychophysics","205","525254","0.0-16.0-0.11","5ec033bb37fc0c440c5a0534","609006691f6f4e337c17f836","609d365d258d77f325e6bac6","null","","","","null","","","","key","16.669847457626265","340.5","323.5","","","","","","","","","","","","","","","","","","","",""
"psychophysics","206","525770","0.0-16.0-1.11","5ec033bb37fc0c440c5a0534","609006691f6f4e337c17f836","609d365d258d77f325e6bac6","null","","","","null","","","","key","16.665866666667473","340.5","323.5","","","","","","","","","","","","","175","-1","6","false","","","",""
"psychophysics","207","525894","0.0-16.0-2.11","5ec033bb37fc0c440c5a0534","609006691f6f4e337c17f836","609d365d258d77f325e6bac6","118.82999981753528","","","","77","","","","key","16.634999999992683","340.5","323.5","","","","","","","","","","","","","","","","","","","",""
"psychophysics","208","526900","0.0-16.0-0.12","5ec033bb37fc0c440c5a0534","609006691f6f4e337c17f836","609d365d258d77f325e6bac6","null","","","","null","","","","key","16.67040677966108","340.5","323.5","","","","","","","","","","","","","","","","","","","",""
"psychophysics","209","527404","0.0-16.0-1.12","5ec033bb37fc0c440c5a0534","609006691f6f4e337c17f836","609d365d258d77f325e6bac6","null","","","","null","","","","key","16.672448275863708","340.5","323.5","","","","","","","","","","","","","175","1","2","false","","","",""
"psychophysics","210","527625","0.0-16.0-2.12","5ec033bb37fc0c440c5a0534","609006691f6f4e337c17f836","609d365d258d77f325e6bac6","215.14500002376735","","","","90","","","","key","16.665692307690804","340.5","323.5","","","","","","","","","","","","","","","","","","","",""
"psychophysics","211","528627","0.0-16.0-0.13","5ec033bb37fc0c440c5a0534","609006691f6f4e337c17f836","609d365d258d77f325e6bac6","null","","","","null","","","","key","16.667220338983697","340.5","323.5","","","","","","","","","","","","","","","","","","","",""
"psychophysics","212","529132","0.0-16.0-1.13","5ec033bb37fc0c440c5a0534","609006691f6f4e337c17f836","609d365d258d77f325e6bac6","null","","","","null","","","","key","16.672206896549927","340.5","323.5","","","","","","","","","","","","","175","1","0","false","","","",""
"psychophysics","213","529388","0.0-16.0-2.13","5ec033bb37fc0c440c5a0534","609006691f6f4e337c17f836","609d365d258d77f325e6bac6","253.67000000551343","","","","90","","","","key","16.664142857147713","340.5","323.5","","","","","","","","","","","","","","","","","","","",""
"psychophysics","214","530393","0.0-16.0-0.14","5ec033bb37fc0c440c5a0534","609006691f6f4e337c17f836","609d365d258d77f325e6bac6","null","","","","null","","","","key","16.669166666667056","340.5","323.5","","","","","","","","","","","","","","","","","","","",""
"psychophysics","215","530904","0.0-16.0-1.14","5ec033bb37fc0c440c5a0534","609006691f6f4e337c17f836","609d365d258d77f325e6bac6","null","","","","null","","","","key","16.67282758620648","340.5","323.5","","","","","","","","","","","","","175","1","5","false","","","",""
"psychophysics","216","531035","0.0-16.0-2.14","5ec033bb37fc0c440c5a0534","609006691f6f4e337c17f836","609d365d258d77f325e6bac6","124.91999985650182","","","","77","","","","key","16.67471428571402","340.5","323.5","","","","","","","","","","","","","","","","","","","",""
"psychophysics","217","532038","0.0-16.0-0.15","5ec033bb37fc0c440c5a0534","609006691f6f4e337c17f836","609d365d258d77f325e6bac6","null","","","","null","","","","key","16.670338983051636","340.5","323.5","","","","","","","","","","","","","","","","","","","",""
"psychophysics","218","532548","0.0-16.0-1.15","5ec033bb37fc0c440c5a0534","609006691f6f4e337c17f836","609d365d258d77f325e6bac6","null","","","","null","","","","key","16.669200000000032","340.5","323.5","","","","","","","","","","","","","175","1","4","false","","","",""
"psychophysics","219","533020","0.0-16.0-2.15","5ec033bb37fc0c440c5a0534","609006691f6f4e337c17f836","609d365d258d77f325e6bac6","467.6699999254197","","","","77","","","","key","16.67059259258935","340.5","323.5","","","","","","","","","","","","","","","","","","","",""
"psychophysics","220","534024","0.0-16.0-0.16","5ec033bb37fc0c440c5a0534","609006691f6f4e337c17f836","609d365d258d77f325e6bac6","null","","","","null","","","","key","16.670366666667785","340.5","323.5","","","","","","","","","","","","","","","","","","","",""
"psychophysics","221","534532","0.0-16.0-1.16","5ec033bb37fc0c440c5a0534","609006691f6f4e337c17f836","609d365d258d77f325e6bac6","null","","","","null","","","","key","16.6679999999991","340.5","323.5","","","","","","","","","","","","","175","1","6","false","","","",""
"psychophysics","222","534599","0.0-16.0-2.16","5ec033bb37fc0c440c5a0534","609006691f6f4e337c17f836","609d365d258d77f325e6bac6","63.37499991059303","","","","77","","","","key","16.671666666671324","340.5","323.5","","","","","","","","","","","","","","","","","","","",""
"psychophysics","223","535605","0.0-16.0-0.17","5ec033bb37fc0c440c5a0534","609006691f6f4e337c17f836","609d365d258d77f325e6bac6","null","","","","null","","","","key","16.670661016949452","340.5","323.5","","","","","","","","","","","","","","","","","","","",""
"psychophysics","224","536112","0.0-16.0-1.17","5ec033bb37fc0c440c5a0534","609006691f6f4e337c17f836","609d365d258d77f325e6bac6","null","","","","null","","","","key","16.66973333333541","340.5","323.5","","","","","","","","","","","","","175","-1","6","false","","","",""
"psychophysics","225","536400","0.0-16.0-2.17","5ec033bb37fc0c440c5a0534","609006691f6f4e337c17f836","609d365d258d77f325e6bac6","284.3400000128895","","","","77","","","","key","16.667562499998894","340.5","323.5","","","","","","","","","","","","","","","","","","","",""
"psychophysics","226","537406","0.0-16.0-0.18","5ec033bb37fc0c440c5a0534","609006691f6f4e337c17f836","609d365d258d77f325e6bac6","null","","","","null","","","","key","16.67011864406601","340.5","323.5","","","","","","","","","","","","","","","","","","","",""
"psychophysics","227","537922","0.0-16.0-1.18","5ec033bb37fc0c440c5a0534","609006691f6f4e337c17f836","609d365d258d77f325e6bac6","null","","","","null","","","","key","16.669933333333272","340.5","323.5","","","","","","","","","","","","","175","1","3","false","","","",""
"psychophysics","228","538781","0.0-16.0-2.18","5ec033bb37fc0c440c5a0534","609006691f6f4e337c17f836","609d365d258d77f325e6bac6","853.6300000268966","","","","77","","","","key","16.67031372548994","340.5","323.5","","","","","","","","","","","","","","","","","","","",""
"psychophysics","229","539783","0.0-16.0-0.19","5ec033bb37fc0c440c5a0534","609006691f6f4e337c17f836","609d365d258d77f325e6bac6","null","","","","null","","","","key","16.66966101694931","340.5","323.5","","","","","","","","","","","","","","","","","","","",""
"psychophysics","230","540288","0.0-16.0-1.19","5ec033bb37fc0c440c5a0534","609006691f6f4e337c17f836","609d365d258d77f325e6bac6","null","","","","null","","","","key","16.666827586210527","340.5","323.5","","","","","","","","","","","","","175","-1","4","false","","","",""
"psychophysics","231","540461","0.0-16.0-2.19","5ec033bb37fc0c440c5a0534","609006691f6f4e337c17f836","609d365d258d77f325e6bac6","166.715000057593","","","","77","","","","key","16.697800000000278","340.5","323.5","","","","","","","","","","","","","","","","","","","",""
"psychophysics","232","541463","0.0-16.0-0.20","5ec033bb37fc0c440c5a0534","609006691f6f4e337c17f836","609d365d258d77f325e6bac6","null","","","","null","","","","key","16.671203389830918","340.5","323.5","","","","","","","","","","","","","","","","","","","",""
"psychophysics","233","541973","0.0-16.0-1.20","5ec033bb37fc0c440c5a0534","609006691f6f4e337c17f836","609d365d258d77f325e6bac6","null","","","","null","","","","key","16.671793103446895","340.5","323.5","","","","","","","","","","","","","175","-1","3","false","","","",""
"psychophysics","234","542017","0.0-16.0-2.20","5ec033bb37fc0c440c5a0534","609006691f6f4e337c17f836","609d365d258d77f325e6bac6","37.435000063851476","","","","77","","","","key","16.67149999999674","340.5","323.5","","","","","","","","","","","","","","","","","","","",""
"psychophysics","235","543024","0.0-16.0-0.21","5ec033bb37fc0c440c5a0534","609006691f6f4e337c17f836","609d365d258d77f325e6bac6","null","","","","null","","","","key","16.670779661016965","340.5","323.5","","","","","","","","","","","","","","","","","","","",""
"psychophysics","236","543536","0.0-16.0-1.21","5ec033bb37fc0c440c5a0534","609006691f6f4e337c17f836","609d365d258d77f325e6bac6","null","","","","null","","","","key","16.660699999999874","340.5","323.5","","","","","","","","","","","","","175","-1","0","false","","","",""
"psychophysics","237","543697","0.0-16.0-2.21","5ec033bb37fc0c440c5a0534","609006691f6f4e337c17f836","609d365d258d77f325e6bac6","158.95999991334975","","","","90","","","","key","16.678777777770946","340.5","323.5","","","","","","","","","","","","","","","","","","","",""
"psychophysics","238","544699","0.0-16.0-0.22","5ec033bb37fc0c440c5a0534","609006691f6f4e337c17f836","609d365d258d77f325e6bac6","null","","","","null","","","","key","16.669711864405407","340.5","323.5","","","","","","","","","","","","","","","","","","","",""
"psychophysics","239","545207","0.0-16.0-1.22","5ec033bb37fc0c440c5a0534","609006691f6f4e337c17f836","609d365d258d77f325e6bac6","null","","","","null","","","","key","16.672103448277177","340.5","323.5","","","","","","","","","","","","","175","-1","2","false","","","",""
"psychophysics","240","545335","0.0-16.0-2.22","5ec033bb37fc0c440c5a0534","609006691f6f4e337c17f836","609d365d258d77f325e6bac6","122.43500002659857","","","","90","","","","key","16.661857142861532","340.5","323.5","","","","","","","","","","","","","","","","","","","",""
"psychophysics","241","546341","0.0-16.0-0.23","5ec033bb37fc0c440c5a0534","609006691f6f4e337c17f836","609d365d258d77f325e6bac6","null","","","","null","","","","key","16.672305084747197","340.5","323.5","","","","","","","","","","","","","","","","","","","",""
"psychophysics","242","546847","0.0-16.0-1.23","5ec033bb37fc0c440c5a0534","609006691f6f4e337c17f836","609d365d258d77f325e6bac6","null","","","","null","","","","key","16.669800000001366","340.5","323.5","","","","","","","","","","","","","175","-1","5","false","","","",""
"psychophysics","243","547016","0.0-16.0-2.23","5ec033bb37fc0c440c5a0534","609006691f6f4e337c17f836","609d365d258d77f325e6bac6","166.81000008247793","","","","77","","","","key","16.668111111115042","340.5","323.5","","","","","","","","","","","","","","","","","","","",""
"html-keyboard-response","244","548247","0.0-17.0","5ec033bb37fc0c440c5a0534","609006691f6f4e337c17f836","609d365d258d77f325e6bac6","1228.690000018105","<p>Well Done !</p><p>Training Complete. Press the spacebar to start.</p><p>DON'T EXIT THE FULL SCREEN MODE</p>","","","32","","","","","","","","","","","","","","","","","","","","","","","","","","",""
"psychophysics","245","551263","0.0-18.0-0.0","5ec033bb37fc0c440c5a0534","609006691f6f4e337c17f836","609d365d258d77f325e6bac6","null","","","","null","","","","key","16.672650000000917","340.5","323.5","","","","","","","","","","","","","","","","","","","",""
"psychophysics","246","551767","0.0-18.0-1.0","5ec033bb37fc0c440c5a0534","609006691f6f4e337c17f836","609d365d258d77f325e6bac6","null","","","","null","","","","key","16.670000000001767","340.5","323.5","","","","","","","","","","","","","175","1","2","true","","","",""
"psychophysics","247","552686","0.0-18.0-2.0","5ec033bb37fc0c440c5a0534","609006691f6f4e337c17f836","609d365d258d77f325e6bac6","915.1600000914186","","","","90","","","","key","16.668425925927565","340.5","323.5","","","","","","","","","","","","","","","","","","","",""
"psychophysics","248","553688","0.0-18.0-0.1","5ec033bb37fc0c440c5a0534","609006691f6f4e337c17f836","609d365d258d77f325e6bac6","null","","","","null","","","","key","16.671949152542688","340.5","323.5","","","","","","","","","","","","","","","","","","","",""
"psychophysics","249","554191","0.0-18.0-1.1","5ec033bb37fc0c440c5a0534","609006691f6f4e337c17f836","609d365d258d77f325e6bac6","null","","","","null","","","","key","16.665068965517627","340.5","323.5","","","","","","","","","","","","","175","-1","4","true","","","",""
"psychophysics","250","554201","0.0-18.0-2.1","5ec033bb37fc0c440c5a0534","609006691f6f4e337c17f836","609d365d258d77f325e6bac6","7.330000167712569","","","","77","","","","key","NaN","340.5","323.5","","","","","","","","","","","","","","","","","","","",""
"psychophysics","251","555202","0.0-18.0-0.2","5ec033bb37fc0c440c5a0534","609006691f6f4e337c17f836","609d365d258d77f325e6bac6","null","","","","null","","","","key","16.672254237287156","340.5","323.5","","","","","","","","","","","","","","","","","","","",""
"psychophysics","252","555705","0.0-18.0-1.2","5ec033bb37fc0c440c5a0534","609006691f6f4e337c17f836","609d365d258d77f325e6bac6","null","","","","null","","","","key","16.670689655170808","340.5","323.5","","","","","","","","","","","","","175","1","5","true","","","",""
"psychophysics","253","556635","0.0-18.0-2.2","5ec033bb37fc0c440c5a0534","609006691f6f4e337c17f836","609d365d258d77f325e6bac6","925.9699999820441","","","","90","","","","key","16.66947272727266","340.5","323.5","","","","","","","","","","","","","","","","","","","",""
"psychophysics","254","557637","0.0-18.0-0.3","5ec033bb37fc0c440c5a0534","609006691f6f4e337c17f836","609d365d258d77f325e6bac6","null","","","","null","","","","key","16.670728813558895","340.5","323.5","","","","","","","","","","","","","","","","","","","",""
"psychophysics","255","558140","0.0-18.0-1.3","5ec033bb37fc0c440c5a0534","609006691f6f4e337c17f836","609d365d258d77f325e6bac6","null","","","","null","","","","key","16.670689655170808","340.5","323.5","","","","","","","","","","","","","175","-1","2","true","","","",""
"psychophysics","256","558275","0.0-18.0-2.3","5ec033bb37fc0c440c5a0534","609006691f6f4e337c17f836","609d365d258d77f325e6bac6","132.4100000783801","","","","90","","","","key","16.66628571428425","340.5","323.5","","","","","","","","","","","","","","","","","","","",""
"psychophysics","257","559295","0.0-18.0-0.4","5ec033bb37fc0c440c5a0534","609006691f6f4e337c17f836","609d365d258d77f325e6bac6","null","","","","null","","","","key","16.669573770492477","340.5","323.5","","","","","","","","","","","","","","","","","","","",""
"psychophysics","258","559801","0.0-18.0-1.4","5ec033bb37fc0c440c5a0534","609006691f6f4e337c17f836","609d365d258d77f325e6bac6","null","","","","null","","","","key","16.669931034481248","340.5","323.5","","","","","","","","","","","","","175","1","0","true","","","",""
"psychophysics","259","559842","0.0-18.0-2.4","5ec033bb37fc0c440c5a0534","609006691f6f4e337c17f836","609d365d258d77f325e6bac6","37.58500004187226","","","","77","","","","key","16.597999999998137","340.5","323.5","","","","","","","","","","","","","","","","","","","",""
"psychophysics","260","560858","0.0-18.0-0.5","5ec033bb37fc0c440c5a0534","609006691f6f4e337c17f836","609d365d258d77f325e6bac6","null","","","","null","","","","key","16.670233333332","340.5","323.5","","","","","","","","","","","","","","","","","","","",""
"psychophysics","261","561362","0.0-18.0-1.5","5ec033bb37fc0c440c5a0534","609006691f6f4e337c17f836","609d365d258d77f325e6bac6","null","","","","null","","","","key","16.673233333330913","340.5","323.5","","","","","","","","","","","","","175","-1","0","true","","","",""
"psychophysics","262","561702","0.0-18.0-2.5","5ec033bb37fc0c440c5a0534","609006691f6f4e337c17f836","609d365d258d77f325e6bac6","336.3950001075864","","","","90","","","","key","16.665947368417523","340.5","323.5","","","","","","","","","","","","","","","","","","","",""
"psychophysics","263","562710","0.0-18.0-0.6","5ec033bb37fc0c440c5a0534","609006691f6f4e337c17f836","609d365d258d77f325e6bac6","null","","","","null","","","","key","16.672186440677713","340.5","323.5","","","","","","","","","","","","","","","","","","","",""
"psychophysics","264","563219","0.0-18.0-1.6","5ec033bb37fc0c440c5a0534","609006691f6f4e337c17f836","609d365d258d77f325e6bac6","null","","","","null","","","","key","16.672666666664494","340.5","323.5","","","","","","","","","","","","","175","1","4","true","","","",""
"psychophysics","265","563322","0.0-18.0-2.6","5ec033bb37fc0c440c5a0534","609006691f6f4e337c17f836","609d365d258d77f325e6bac6","99.97499990276992","","","","77","","","","key","16.68079999999609","340.5","323.5","","","","","","","","","","","","","","","","","","","",""
"psychophysics","266","564327","0.0-18.0-0.7","5ec033bb37fc0c440c5a0534","609006691f6f4e337c17f836","609d365d258d77f325e6bac6","null","","","","null","","","","key","16.66952542372845","340.5","323.5","","","","","","","","","","","","","","","","","","","",""
"psychophysics","267","564842","0.0-18.0-1.7","5ec033bb37fc0c440c5a0534","609006691f6f4e337c17f836","609d365d258d77f325e6bac6","null","","","","null","","","","key","16.672666666668373","340.5","323.5","","","","","","","","","","","","","175","-1","5","true","","","",""
"psychophysics","268","565021","0.0-18.0-2.7","5ec033bb37fc0c440c5a0534","609006691f6f4e337c17f836","609d365d258d77f325e6bac6","173.01000002771616","","","","77","","","","key","16.66919999999227","340.5","323.5","","","","","","","","","","","","","","","","","","","",""
"psychophysics","269","566027","0.0-18.0-0.8","5ec033bb37fc0c440c5a0534","609006691f6f4e337c17f836","609d365d258d77f325e6bac6","null","","","","null","","","","key","16.669711864405407","340.5","323.5","","","","","","","","","","","","","","","","","","","",""
"psychophysics","270","566544","0.0-18.0-1.8","5ec033bb37fc0c440c5a0534","609006691f6f4e337c17f836","609d365d258d77f325e6bac6","null","","","","null","","","","key","16.67573333333324","340.5","323.5","","","","","","","","","","","","","175","1","6","true","","","",""
"psychophysics","271","566620","0.0-18.0-2.8","5ec033bb37fc0c440c5a0534","609006691f6f4e337c17f836","609d365d258d77f325e6bac6","68.2699999306351","","","","77","","","","key","16.690999999991618","340.5","323.5","","","","","","","","","","","","","","","","","","","",""
"psychophysics","272","567628","0.0-18.0-0.9","5ec033bb37fc0c440c5a0534","609006691f6f4e337c17f836","609d365d258d77f325e6bac6","null","","","","null","","","","key","16.67010169491464","340.5","323.5","","","","","","","","","","","","","","","","","","","",""
"psychophysics","273","568133","0.0-18.0-1.9","5ec033bb37fc0c440c5a0534","609006691f6f4e337c17f836","609d365d258d77f325e6bac6","null","","","","null","","","","key","16.670100000000094","340.5","323.5","","","","","","","","","","","","","175","-1","3","true","","","",""
"psychophysics","274","568218","0.0-18.0-2.9","5ec033bb37fc0c440c5a0534","609006691f6f4e337c17f836","609d365d258d77f325e6bac6","82.4700000230223","","","","77","","","","key","16.621749999991152","340.5","323.5","","","","","","","","","","","","","","","","","","","",""
"psychophysics","275","569228","0.0-18.0-0.10","5ec033bb37fc0c440c5a0534","609006691f6f4e337c17f836","609d365d258d77f325e6bac6","null","","","","null","","","","key","16.671203389830918","340.5","323.5","","","","","","","","","","","","","","","","","","","",""
"psychophysics","276","569733","0.0-18.0-1.10","5ec033bb37fc0c440c5a0534","609006691f6f4e337c17f836","609d365d258d77f325e6bac6","null","","","","null","","","","key","16.666533333330882","340.5","323.5","","","","","","","","","","","","","175","-1","6","true","","","",""
"psychophysics","277","573362","0.0-18.0-2.10","5ec033bb37fc0c440c5a0534","609006691f6f4e337c17f836","609d365d258d77f325e6bac6","3624.840000178665","","","","90","","","","key","16.669550925925485","340.5","323.5","","","","","","","","","","","","","","","","","","","",""
"psychophysics","278","574365","0.0-18.0-0.11","5ec033bb37fc0c440c5a0534","609006691f6f4e337c17f836","609d365d258d77f325e6bac6","null","","","","null","","","","key","16.67096666666718","340.5","323.5","","","","","","","","","","","","","","","","","","","",""
"psychophysics","279","574879","0.0-18.0-1.11","5ec033bb37fc0c440c5a0534","609006691f6f4e337c17f836","609d365d258d77f325e6bac6","null","","","","null","","","","key","16.66782758620584","340.5","323.5","","","","","","","","","","","","","175","1","3","true","","","",""
"psychophysics","280","575066","0.0-18.0-2.11","5ec033bb37fc0c440c5a0534","609006691f6f4e337c17f836","609d365d258d77f325e6bac6","180.5400000885129","","","","77","","","","key","16.667272727269765","340.5","323.5","","","","","","","","","","","","","","","","","","","",""
"psychophysics","281","576080","0.0-18.0-0.12","5ec033bb37fc0c440c5a0534","609006691f6f4e337c17f836","609d365d258d77f325e6bac6","null","","","","null","","","","key","16.669322033898148","340.5","323.5","","","","","","","","","","","","","","","","","","","",""
"psychophysics","282","576596","0.0-18.0-1.12","5ec033bb37fc0c440c5a0534","609006691f6f4e337c17f836","609d365d258d77f325e6bac6","null","","","","null","","","","key","16.66506666666828","340.5","323.5","","","","","","","","","","","","","175","1","5","true","","","",""
"psychophysics","283","576611","0.0-18.0-2.12","5ec033bb37fc0c440c5a0534","609006691f6f4e337c17f836","609d365d258d77f325e6bac6","8.299999870359898","","","","77","","","","key","NaN","340.5","323.5","","","","","","","","","","","","","","","","","","","",""
"psychophysics","284","577613","0.0-18.0-0.13","5ec033bb37fc0c440c5a0534","609006691f6f4e337c17f836","609d365d258d77f325e6bac6","null","","","","null","","","","key","16.669966666666248","340.5","323.5","","","","","","","","","","","","","","","","","","","",""
"psychophysics","285","578115","0.0-18.0-1.13","5ec033bb37fc0c440c5a0534","609006691f6f4e337c17f836","609d365d258d77f325e6bac6","null","","","","null","","","","key","16.67410344827583","340.5","323.5","","","","","","","","","","","","","175","-1","3","true","","","",""
"psychophysics","286","578323","0.0-18.0-2.13","5ec033bb37fc0c440c5a0534","609006691f6f4e337c17f836","609d365d258d77f325e6bac6","205.15999989584088","","","","90","","","","key","16.66963636362925","340.5","323.5","","","","","","","","","","","","","","","","","","","",""
"psychophysics","287","579330","0.0-18.0-0.14","5ec033bb37fc0c440c5a0534","609006691f6f4e337c17f836","609d365d258d77f325e6bac6","null","","","","null","","","","key","16.67005084745657","340.5","323.5","","","","","","","","","","","","","","","","","","","",""
"psychophysics","288","579835","0.0-18.0-1.14","5ec033bb37fc0c440c5a0534","609006691f6f4e337c17f836","609d365d258d77f325e6bac6","null","","","","null","","","","key","16.665033333333366","340.5","323.5","","","","","","","","","","","","","175","-1","6","true","","","",""
"psychophysics","289","579970","0.0-18.0-2.14","5ec033bb37fc0c440c5a0534","609006691f6f4e337c17f836","609d365d258d77f325e6bac6","128.72499995864928","","","","77","","","","key","16.6637142857071","340.5","323.5","","","","","","","","","","","","","","","","","","","",""
"psychophysics","290","580980","0.0-18.0-0.15","5ec033bb37fc0c440c5a0534","609006691f6f4e337c17f836","609d365d258d77f325e6bac6","null","","","","null","","","","key","16.6701864406794","340.5","323.5","","","","","","","","","","","","","","","","","","","",""
"psychophysics","291","581486","0.0-18.0-1.15","5ec033bb37fc0c440c5a0534","609006691f6f4e337c17f836","609d365d258d77f325e6bac6","null","","","","null","","","","key","16.671766666664432","340.5","323.5","","","","","","","","","","","","","175","1","0","true","","","",""
"psychophysics","292","581689","0.0-18.0-2.15","5ec033bb37fc0c440c5a0534","609006691f6f4e337c17f836","609d365d258d77f325e6bac6","199.73500003106892","","","","77","","","","key","16.668181818190284","340.5","323.5","","","","","","","","","","","","","","","","","","","",""
"psychophysics","293","582698","0.0-18.0-0.16","5ec033bb37fc0c440c5a0534","609006691f6f4e337c17f836","609d365d258d77f325e6bac6","null","","","","null","","","","key","16.669169491525913","340.5","323.5","","","","","","","","","","","","","","","","","","","",""
"psychophysics","294","583203","0.0-18.0-1.16","5ec033bb37fc0c440c5a0534","609006691f6f4e337c17f836","609d365d258d77f325e6bac6","null","","","","null","","","","key","16.663466666666015","340.5","323.5","","","","","","","","","","","","","175","1","2","true","","","",""
"psychophysics","295","583542","0.0-18.0-2.16","5ec033bb37fc0c440c5a0534","609006691f6f4e337c17f836","609d365d258d77f325e6bac6","336.99500001966953","","","","90","","","","key","16.673052631582035","340.5","323.5","","","","","","","","","","","","","","","","","","","",""
"psychophysics","296","584548","0.0-18.0-0.17","5ec033bb37fc0c440c5a0534","609006691f6f4e337c17f836","609d365d258d77f325e6bac6","null","","","","null","","","","key","16.671084745761434","340.5","323.5","","","","","","","","","","","","","","","","","","","",""
"psychophysics","297","585059","0.0-18.0-1.17","5ec033bb37fc0c440c5a0534","609006691f6f4e337c17f836","609d365d258d77f325e6bac6","null","","","","null","","","","key","16.671900000000218","340.5","323.5","","","","","","","","","","","","","175","-1","2","true","","","",""
"psychophysics","298","585680","0.0-18.0-2.17","5ec033bb37fc0c440c5a0534","609006691f6f4e337c17f836","609d365d258d77f325e6bac6","617.6950000226498","","","","90","","","","key","16.67113888888788","340.5","323.5","","","","","","","","","","","","","","","","","","","",""
"psychophysics","299","586684","0.0-18.0-0.18","5ec033bb37fc0c440c5a0534","609006691f6f4e337c17f836","609d365d258d77f325e6bac6","null","","","","null","","","","key","16.66994999999879","340.5","323.5","","","","","","","","","","","","","","","","","","","",""
"psychophysics","300","587195","0.0-18.0-1.18","5ec033bb37fc0c440c5a0534","609006691f6f4e337c17f836","609d365d258d77f325e6bac6","null","","","","null","","","","key","16.670068965514254","340.5","323.5","","","","","","","","","","","","","175","1","3","true","","","",""
"psychophysics","301","587328","0.0-18.0-2.18","5ec033bb37fc0c440c5a0534","609006691f6f4e337c17f836","609d365d258d77f325e6bac6","130.27500011958182","","","","77","","","","key","16.67799999998949","340.5","323.5","","","","","","","","","","","","","","","","","","","",""
"psychophysics","302","588332","0.0-18.0-0.19","5ec033bb37fc0c440c5a0534","609006691f6f4e337c17f836","609d365d258d77f325e6bac6","null","","","","null","","","","key","16.669644067795964","340.5","323.5","","","","","","","","","","","","","","","","","","","",""
"psychophysics","303","588848","0.0-18.0-1.19","5ec033bb37fc0c440c5a0534","609006691f6f4e337c17f836","609d365d258d77f325e6bac6","null","","","","null","","","","key","16.668400000000837","340.5","323.5","","","","","","","","","","","","","175","-1","5","true","","","",""
"psychophysics","304","588977","0.0-18.0-2.19","5ec033bb37fc0c440c5a0534","609006691f6f4e337c17f836","609d365d258d77f325e6bac6","122.78499989770353","","","","77","","","","key","16.672428571436154","340.5","323.5","","","","","","","","","","","","","","","","","","","",""
"psychophysics","305","589982","0.0-18.0-0.20","5ec033bb37fc0c440c5a0534","609006691f6f4e337c17f836","609d365d258d77f325e6bac6","null","","","","null","","","","key","16.670389830507734","340.5","323.5","","","","","","","","","","","","","","","","","","","",""
"psychophysics","306","590497","0.0-18.0-1.20","5ec033bb37fc0c440c5a0534","609006691f6f4e337c17f836","609d365d258d77f325e6bac6","null","","","","null","","","","key","16.671699999998477","340.5","323.5","","","","","","","","","","","","","175","1","4","true","","","",""
"psychophysics","307","590514","0.0-18.0-2.20","5ec033bb37fc0c440c5a0534","609006691f6f4e337c17f836","609d365d258d77f325e6bac6","9.799999883398414","","","","77","","","","key","NaN","340.5","323.5","","","","","","","","","","","","","","","","","","","",""
"psychophysics","308","591517","0.0-18.0-0.21","5ec033bb37fc0c440c5a0534","609006691f6f4e337c17f836","609d365d258d77f325e6bac6","null","","","","null","","","","key","16.671099999999083","340.5","323.5","","","","","","","","","","","","","","","","","","","",""
"psychophysics","309","592031","0.0-18.0-1.21","5ec033bb37fc0c440c5a0534","609006691f6f4e337c17f836","609d365d258d77f325e6bac6","null","","","","null","","","","key","16.67362068965228","340.5","323.5","","","","","","","","","","","","","175","1","6","true","","","",""
"psychophysics","310","594291","0.0-18.0-2.21","5ec033bb37fc0c440c5a0534","609006691f6f4e337c17f836","609d365d258d77f325e6bac6","2252.4699999485165","","","","90","","","","key","16.670259259259154","340.5","323.5","","","","","","","","","","","","","","","","","","","",""
"psychophysics","311","595300","0.0-18.0-0.22","5ec033bb37fc0c440c5a0534","609006691f6f4e337c17f836","609d365d258d77f325e6bac6","null","","","","null","","","","key","16.670457627117177","340.5","323.5","","","","","","","","","","","","","","","","","","","",""
"psychophysics","312","595810","0.0-18.0-1.22","5ec033bb37fc0c440c5a0534","609006691f6f4e337c17f836","609d365d258d77f325e6bac6","null","","","","null","","","","key","16.67150000000062","340.5","323.5","","","","","","","","","","","","","175","-1","0","true","","","",""
"psychophysics","313","596631","0.0-18.0-2.22","5ec033bb37fc0c440c5a0534","609006691f6f4e337c17f836","609d365d258d77f325e6bac6","817.0950000640005","","","","77","","","","key","16.669666666666064","340.5","323.5","","","","","","","","","","","","","","","","","","","",""
"psychophysics","314","597634","0.0-18.0-0.23","5ec033bb37fc0c440c5a0534","609006691f6f4e337c17f836","609d365d258d77f325e6bac6","null","","","","null","","","","key","16.66820338983049","340.5","323.5","","","","","","","","","","","","","","","","","","","",""
"psychophysics","315","598150","0.0-18.0-1.23","5ec033bb37fc0c440c5a0534","609006691f6f4e337c17f836","609d365d258d77f325e6bac6","null","","","","null","","","","key","16.664200000003135","340.5","323.5","","","","","","","","","","","","","175","-1","4","true","","","",""
"psychophysics","316","598280","0.0-18.0-2.23","5ec033bb37fc0c440c5a0534","609006691f6f4e337c17f836","609d365d258d77f325e6bac6","126.89499999396503","","","","77","","","","key","16.68714285713421","340.5","323.5","","","","","","","","","","","","","","","","","","","",""
"psychophysics","317","599284","0.0-18.0-0.24","5ec033bb37fc0c440c5a0534","609006691f6f4e337c17f836","609d365d258d77f325e6bac6","null","","","","null","","","","key","16.668983050848958","340.5","323.5","","","","","","","","","","","","","","","","","","","",""
"psychophysics","318","599789","0.0-18.0-1.24","5ec033bb37fc0c440c5a0534","609006691f6f4e337c17f836","609d365d258d77f325e6bac6","null","","","","null","","","","key","16.671299999998883","340.5","323.5","","","","","","","","","","","","","175","-1","0","true","","","",""
"psychophysics","319","599989","0.0-18.0-2.24","5ec033bb37fc0c440c5a0534","609006691f6f4e337c17f836","609d365d258d77f325e6bac6","180.1650000270456","","","","90","","","","key","16.676999999993395","340.5","323.5","","","","","","","","","","","","","","","","","","","",""
"psychophysics","320","601001","0.0-18.0-0.25","5ec033bb37fc0c440c5a0534","609006691f6f4e337c17f836","609d365d258d77f325e6bac6","null","","","","null","","","","key","16.67040677966108","340.5","323.5","","","","","","","","","","","","","","","","","","","",""
"psychophysics","321","601508","0.0-18.0-1.25","5ec033bb37fc0c440c5a0534","609006691f6f4e337c17f836","609d365d258d77f325e6bac6","null","","","","null","","","","key","16.670366666663902","340.5","323.5","","","","","","","","","","","","","175","1","2","true","","","",""
"psychophysics","322","601626","0.0-18.0-2.25","5ec033bb37fc0c440c5a0534","609006691f6f4e337c17f836","609d365d258d77f325e6bac6","114.92999992333353","","","","90","","","","key","16.661333333332248","340.5","323.5","","","","","","","","","","","","","","","","","","","",""
"psychophysics","323","602634","0.0-18.0-0.26","5ec033bb37fc0c440c5a0534","609006691f6f4e337c17f836","609d365d258d77f325e6bac6","null","","","","null","","","","key","16.670084745763265","340.5","323.5","","","","","","","","","","","","","","","","","","","",""
"psychophysics","324","603145","0.0-18.0-1.26","5ec033bb37fc0c440c5a0534","609006691f6f4e337c17f836","609d365d258d77f325e6bac6","null","","","","null","","","","key","16.6681999999991","340.5","323.5","","","","","","","","","","","","","175","1","6","true","","","",""
"psychophysics","325","603234","0.0-18.0-2.26","5ec033bb37fc0c440c5a0534","609006691f6f4e337c17f836","609d365d258d77f325e6bac6","84.07499990426004","","","","77","","","","key","16.68299999998999","340.5","323.5","","","","","","","","","","","","","","","","","","","",""
