"trial_type","trial_index","time_elapsed","internal_node_id","PROLIFIC_PID","STUDY_ID","SESSION_ID","rt","stimulus","button_pressed","success","key_press","responses","isData","view_history","response_type","avg_frame_time","center_x","center_y","isSC","stim_side","trial_luminance","step_size","nReversal","correct","prev_ans","isThreshold","SC_threshold","final_threshold","isLuminance","FF_luminance","luminance","stimSide","ISInt","isFF","question_order","isSPQ","isCAPS","isAQ"
"pavlovia","0","4","0.0-0.0","6043601ea410a630058cbe44","609006691f6f4e337c17f836","609d373e9c442dff897e69e7","","","","","","","","","","","","","","","","","","","","","","","","","","","","","","","",""
"html-button-response","1","3225","0.0-1.0","6043601ea410a630058cbe44","609006691f6f4e337c17f836","609d373e9c442dff897e69e7","3219.889999978477","<div style='background-color: white; width:60%; margin: auto; padding: 50px; text-align: justify; text-justify: inter-word; margin-bottom: 20px;'><h1 style='text-align: center;'>Consent Form</h1><p>Please read this consent form carefully before deciding whether you would like to participate in this study. You have to be 18 years old or older to participate to this study.</p><p style='text-decoration: underline;'>Participation is voluntary:</p><p>It is your choice whether or not to participate in this research. If you choose to participate, you may change your mind and leave the study at any time. Refusal to participate or stopping your participation will involve no penalty or loss of benefits to which you are otherwise entitled.</p><p style='text-decoration: underline;'>Purpose of the Study:</p><p>To understand the mechanisms underlying human perception.</p><p style='text-decoration: underline;'>What you will do in this study:</p><p>You will be presented with a series of visual images and then you will press buttons on the keyboard of your computer to respond to simple questions about the images (e.g. Were one or two images presented?). In addition, you will be asked to complete a questionnaire concerning your beliefs and everyday mental and perceptual experiences.'</p><p style='text-decoration: underline;'> Time Required:</p><p>The study will take 40 minutes to complete. </p><p style='text-decoration: underline;'>Risks:</p><p>There are no anticipated risks associated with participating in this study that are beyond those experienced in everyday life. </p><p style='text-decoration: underline;'>Benefits:</p><p>There are no benefits to you in participating in the study. However, this study may lead to a better understanding of how different kinds of visual information are used.</p><p style='text-decoration: underline;'>Compensation:</p><p>You will be paid US$6.6/hour. </p><p style='text-decoration: underline;'>Privacy and Confidentiality:</p><p>Your participation in this study will be anonymous. No personal information about your name or identity will be asked or recorded. This anonymous data will be stored for several years and may be used for a variety of research purposes. The overall results of the study may be published, or the data files may be shared with other researchers, but your identity will not be revealed in any way. The online services we are using for this study may temporarily store your data, but this data will be downloaded and then promptly deleted from those services.Your data will not be permanently associated with your name, IP address, or any other identifiable information (e.g., your information will only be connected to your payment, not to any of your responses), though they may be temporarily stored together before we download and separate them. Even so, no guarantee of internet survey security can be given because, although unlikely, transmissions can be intercepted and IP addresses can be identified. The anonymous data may be shared publicly (for example, in conjunction with a resulting academic publication).</p><p style='text-decoration: underline;'>Participation and Withdrawal:</p><p>Your participation in this study is completely voluntary. You may stop responding to the stimuli or stop answering questions if you so choose and without penalty by exiting the full screen mode, closing this tab of your browser or redirecting it to a different website.</p><p style='text-decoration: underline;'>Contact Info of the Researcher: </p><p>If you have questions about this study, or if you would like to talk to the research team, please contact David Melcher (david.melcher@nyu.edu, md5050@nyu.edu) at the Perception and Active Cognition Laboratory, New York University Abu Dhabi, Computational Research Building, Saadiyat Island, Abu Dhabi, UAE.This research has been reviewed by the New York University Abu Dhabi Institutional Review Board (NYUAD IRB). To contact about your rights in this research, for questions, suggestions, or complaints that are not addressed by the researchers, please email IRBnyuad@nyu.edu, or call the NYUAD IRB at +971 2 628 4313. </p></div>","0","","","","","","","","","","","","","","","","","","","","","","","","","","","","",""
"fullscreen","2","5763","0.0-2.0","6043601ea410a630058cbe44","609006691f6f4e337c17f836","609d373e9c442dff897e69e7","","","","true","","","","","","","","","","","","","","","","","","","","","","","","","","","",""
"html-keyboard-response","3","26132","0.0-3.0","6043601ea410a630058cbe44","609006691f6f4e337c17f836","609d373e9c442dff897e69e7","20367.344999976922","<p>Welcome !</p><p>READ CAREFULLY THE FOLLOWING INDICATIONS:</p><p>From this moment you have ~40 minutes to complete the experiment.</p><p>During the experiment you will be prompted to take several breaks. Each break should not last longer than 2-3 minutes.</p><p>Make sure that your computer is plugged in and it's not running on battery power, even if the battery is already fully charged.</p><p>Turn off your phone and music, make sure that you are in a quiet room and that you will not be distracted for the next hour.</p><p>Failure to comply with the instructions and indications provided during the experiment will most likely result in the rejection of your data.<p>Press the spacebar to start.</p>","","","32","","","","","","","","","","","","","","","","","","","","","","","","","","",""
"survey-html-form","4","31654","0.0-4.0","6043601ea410a630058cbe44","609006691f6f4e337c17f836","609d373e9c442dff897e69e7","5521.2699999974575","","","","","{""age"":""20"",""sex"":""F""}","true","","","","","","","","","","","","","","","","","","","","","","","","",""
"instructions","5","73245","0.0-5.0","6043601ea410a630058cbe44","609006691f6f4e337c17f836","609d373e9c442dff897e69e7","41589.62000001338","","","","","","","[{""page_index"":0,""viewing_time"":17946.120000007795},{""page_index"":1,""viewing_time"":19641.94000000134},{""page_index"":2,""viewing_time"":4001.185000000987}]","","","","","","","","","","","","","","","","","","","","","","","",""
"psychophysics","6","75244","0.0-6.0-0.0","6043601ea410a630058cbe44","609006691f6f4e337c17f836","609d373e9c442dff897e69e7","986.124999995809","","","","39","","","","key","16.65541666666674","640","289","true","1","180","30","0","-1","","","","","","","","","","","","","",""
"psychophysics","7","77214","0.0-6.0-0.1","6043601ea410a630058cbe44","609006691f6f4e337c17f836","609d373e9c442dff897e69e7","959.3100000056438","","","","37","","","","key","16.65428205128211","640","289","true","-1","180","30","0","-1","-1","","","","","","","","","","","","",""
"psychophysics","8","78721","0.0-6.0-0.2","6043601ea410a630058cbe44","609006691f6f4e337c17f836","609d373e9c442dff897e69e7","499.99499999103136","","","","37","","","","key","16.655943820224728","640","289","true","-1","150","30","0","-1","-1","","","","","","","","","","","","",""
"psychophysics","9","80015","0.0-6.0-0.3","6043601ea410a630058cbe44","609006691f6f4e337c17f836","609d373e9c442dff897e69e7","278.28499997849576","","","","39","","","","key","16.656831168831182","640","289","true","1","150","30","0","-1","-1","","","","","","","","","","","","",""
"psychophysics","10","82177","0.0-6.0-0.4","6043601ea410a630058cbe44","609006691f6f4e337c17f836","609d373e9c442dff897e69e7","1142.6999999966938","","","","37","","","","key","16.65599224806207","640","289","true","-1","129","30","0","-1","-1","","","","","","","","","","","","",""
"psychophysics","11","83857","0.0-6.0-0.5","6043601ea410a630058cbe44","609006691f6f4e337c17f836","609d373e9c442dff897e69e7","674.2899999953806","","","","37","","","","key","16.65546000000002","640","289","true","1","129","24","1","1","-1","","","","","","","","","","","","",""
"psychophysics","12","85199","0.0-6.0-0.6","6043601ea410a630058cbe44","609006691f6f4e337c17f836","609d373e9c442dff897e69e7","332.3600000003353","","","","39","","","","key","16.65470886075942","640","289","true","1","153","24","1","-1","1","","","","","","","","","","","","",""
"psychophysics","13","86702","0.0-6.0-0.7","6043601ea410a630058cbe44","609006691f6f4e337c17f836","609d373e9c442dff897e69e7","487.6900000090245","","","","39","","","","key","16.656555555555517","640","289","true","1","153","19.2","2","-1","-1","","","","","","","","","","","","",""
"psychophysics","14","88442","0.0-6.0-0.8","6043601ea410a630058cbe44","609006691f6f4e337c17f836","609d373e9c442dff897e69e7","728.7650000071153","","","","37","","","","key","16.65429126213585","640","289","true","1","133.8","15.36","3","1","-1","","","","","","","","","","","","",""
"psychophysics","15","89928","0.0-6.0-0.9","6043601ea410a630058cbe44","609006691f6f4e337c17f836","609d373e9c442dff897e69e7","472.4150000256486","","","","37","","","","key","16.656136363636257","640","289","true","-1","149.16000000000003","15.36","3","-1","1","","","","","","","","","","","","",""
"psychophysics","16","91578","0.0-6.0-0.10","6043601ea410a630058cbe44","609006691f6f4e337c17f836","609d373e9c442dff897e69e7","638.440000009723","","","","39","","","","key","16.655867346938717","640","289","true","1","149.16000000000003","12.287999999999998","4","-1","-1","","","","","","","","","","","","",""
"psychophysics","17","92737","0.0-6.0-0.11","6043601ea410a630058cbe44","609006691f6f4e337c17f836","609d373e9c442dff897e69e7","147.62999999220483","","","","39","","","","key","16.65711594202899","640","289","true","1","136.872","12.287999999999998","4","-1","-1","","","","","","","","","","","","",""
"psychophysics","18","93822","0.0-6.0-0.12","6043601ea410a630058cbe44","609006691f6f4e337c17f836","609d373e9c442dff897e69e7","79.78999998886138","","","","37","","","","key","16.657671875000005","640","289","true","-1","136.872","12.287999999999998","4","-1","-1","","","","","","","","","","","","",""
"psychophysics","19","96448","0.0-6.0-0.13","6043601ea410a630058cbe44","609006691f6f4e337c17f836","609d373e9c442dff897e69e7","1616.8149999866728","","","","37","","","","key","16.655337579617782","640","289","true","1","129","9.8304","5","1","-1","","","","","","","","","","","","",""
"psychophysics","20","98037","0.0-6.0-0.14","6043601ea410a630058cbe44","609006691f6f4e337c17f836","609d373e9c442dff897e69e7","580.4800000041723","","","","39","","","","key","16.65614893617021","640","289","true","1","138.8304","9.8304","5","-1","1","","","","","","","","","","","","",""
"psychophysics","21","99582","0.0-6.0-0.15","6043601ea410a630058cbe44","609006691f6f4e337c17f836","609d373e9c442dff897e69e7","529.0049999894109","","","","37","","","","key","16.6550869565217","640","289","true","-1","138.8304","7.864319999999999","6","-1","-1","","","","","","","","","","","","",""
"psychophysics","22","101691","0.0-6.0-0.16","6043601ea410a630058cbe44","609006691f6f4e337c17f836","609d373e9c442dff897e69e7","1090.8550000167452","","","","39","","","","key","16.65605555555556","640","289","true","1","130.96608","7.864319999999999","6","-1","-1","","","","","","","","","","","","",""
"psychophysics","23","103416","0.0-6.0-0.17","6043601ea410a630058cbe44","609006691f6f4e337c17f836","609d373e9c442dff897e69e7","713.8149999955203","","","","39","","","","key","16.65397058823531","640","289","true","-1","130.96608","6.291456","7","1","-1","","","","","","","","","","","","",""
"psychophysics","24","104781","0.0-6.0-0.18","6043601ea410a630058cbe44","609006691f6f4e337c17f836","609d373e9c442dff897e69e7","358.10499999206513","","","","37","","","","key","16.655777777777804","640","289","true","-1","137.25753600000002","6.291456","7","-1","1","","","","","","","","","","","","",""
"psychophysics","25","105926","0.0-6.0-0.19","6043601ea410a630058cbe44","609006691f6f4e337c17f836","609d373e9c442dff897e69e7","129.6450000081677","","","","39","","","","key","16.658367647058828","640","289","true","1","137.25753600000002","5.033164800000001","8","-1","-1","","","","","","","","","","","","",""
"psychophysics","26","107852","0.0-6.0-0.20","6043601ea410a630058cbe44","609006691f6f4e337c17f836","609d373e9c442dff897e69e7","919.5900000049733","","","","39","","","","key","16.654860869565162","640","289","true","-1","132.2243712","4.0265318400000005","9","1","-1","","","","","","","","","","","","",""
"psychophysics","27","109206","0.0-6.0-0.21","6043601ea410a630058cbe44","609006691f6f4e337c17f836","609d373e9c442dff897e69e7","340.6400000094436","","","","37","","","","key","16.654999999999927","640","289","true","-1","136.25090304","4.0265318400000005","9","-1","1","","","","","","","","","","","","",""
"psychophysics","28","110470","0.0-6.0-0.22","6043601ea410a630058cbe44","609006691f6f4e337c17f836","609d373e9c442dff897e69e7","256.78500000503846","","","","37","","","","key","16.6527866666667","640","289","true","-1","136.25090304","3.2212254720000004","10","-1","-1","","","","","","","","","","","","",""
"psychophysics","29","113249","0.0-6.0-0.23","6043601ea410a630058cbe44","609006691f6f4e337c17f836","609d373e9c442dff897e69e7","1769.1100000229198","","","","37","","","","key","16.65510843373498","640","289","true","-1","133.029677568","3.2212254720000004","10","-1","-1","","","","","","","","","","","","",""
"psychophysics","30","114417","0.0-6.0-0.24","6043601ea410a630058cbe44","609006691f6f4e337c17f836","609d373e9c442dff897e69e7","155.83499998319894","","","","39","","","","key","16.655260869565268","640","289","true","1","133.029677568","3.2212254720000004","10","-1","-1","","","","","","","","","","","","",""
"psychophysics","31","116407","0.0-6.0-0.25","6043601ea410a630058cbe44","609006691f6f4e337c17f836","609d373e9c442dff897e69e7","980.2349999954458","","","","37","","","","key","16.656211864406696","640","289","true","1","129.808452096","2.5769803776000004","11","1","-1","","","","","","","","","","","","",""
"psychophysics","32","118036","0.0-6.0-0.26","6043601ea410a630058cbe44","609006691f6f4e337c17f836","609d373e9c442dff897e69e7","610.9449999930803","","","","37","","","","key","16.654690721649533","640","289","true","-1","132.3854324736","2.5769803776000004","11","-1","1","","","","","","","","","","","","",""
"psychophysics","33","120515","0.0-6.0-0.27","6043601ea410a630058cbe44","609006691f6f4e337c17f836","609d373e9c442dff897e69e7","1458.0800000112504","","","","37","","","","key","16.65560135135132","640","289","true","-1","132.3854324736","2.0615843020800004","12","-1","-1","","","","","","","","","","","","",""
"psychophysics","34","122135","0.0-6.0-0.28","6043601ea410a630058cbe44","609006691f6f4e337c17f836","609d373e9c442dff897e69e7","612.5849999953061","","","","39","","","","key","16.65585416666666","640","289","true","-1","130.32384817151998","1.6492674416640005","13","1","-1","","","","","","","","","","","","",""
"psychophysics","35","123760","0.0-6.0-0.29","6043601ea410a630058cbe44","609006691f6f4e337c17f836","609d373e9c442dff897e69e7","610.290000011446","","","","37","","","","key","16.82918749999999","640","289","true","1","131.97311561318398","1.6492674416640005","13","1","1","","","","","","","","","","","","",""
"psychophysics","36","125325","0.0-6.0-0.30","6043601ea410a630058cbe44","609006691f6f4e337c17f836","609d373e9c442dff897e69e7","557.5049999752082","","","","37","","","","key","16.655387096774202","640","289","true","1","133.62238305484797","1.6492674416640005","13","1","1","","","","","","","","","","","","",""
"psychophysics","37","126775","0.0-6.0-0.31","6043601ea410a630058cbe44","609006691f6f4e337c17f836","609d373e9c442dff897e69e7","444.614999985788","","","","39","","","","key","16.65506976744181","640","289","true","1","135.27165049651197","1.6492674416640005","13","-1","1","","","","","","","","","","","","",""
"psychophysics","38","128169","0.0-6.0-0.32","6043601ea410a630058cbe44","609006691f6f4e337c17f836","609d373e9c442dff897e69e7","387.6100000052247","","","","37","","","","key","16.647158536585486","640","289","true","-1","135.27165049651197","1.3194139533312006","14","-1","-1","","","","","","","","","","","","",""
"psychophysics","39","129652","0.0-6.0-0.33","6043601ea410a630058cbe44","609006691f6f4e337c17f836","609d373e9c442dff897e69e7","475.9100000082981","","","","39","","","","key","16.655136363636384","640","289","true","-1","133.95223654318076","1.0555311626649604","15","1","-1","","","","","","","","","","","","",""
"psychophysics","40","131030","0.0-6.0-0.34","6043601ea410a630058cbe44","609006691f6f4e337c17f836","609d373e9c442dff897e69e7","371.26500002341345","","","","39","","","","key","16.855814814814767","640","289","true","1","135.0077677058457","1.0555311626649604","15","-1","1","","","","","","","","","","","","",""
"psychophysics","41","132380","0.0-6.0-0.35","6043601ea410a630058cbe44","609006691f6f4e337c17f836","609d373e9c442dff897e69e7","338.70500000193715","","","","39","","","","key","16.655612499999915","640","289","true","1","135.0077677058457","1","16","-1","-1","","","","","","","","","","","","",""
"psychophysics","42","133685","0.0-6.0-0.36","6043601ea410a630058cbe44","609006691f6f4e337c17f836","609d373e9c442dff897e69e7","296.3199999940116","","","","37","","","","key","16.87096103896121","640","289","true","-1","134.0077677058457","1","16","-1","-1","","","","","","","","","","","","",""
"psychophysics","43","134959","0.0-6.0-0.37","6043601ea410a630058cbe44","609006691f6f4e337c17f836","609d373e9c442dff897e69e7","272.20500001567416","","","","37","","","","key","16.656026666666538","640","289","true","-1","134.0077677058457","1","16","-1","-1","","","","","","","","","","","","",""
"psychophysics","44","136125","0.0-6.0-0.38","6043601ea410a630058cbe44","609006691f6f4e337c17f836","609d373e9c442dff897e69e7","157.33499999623746","","","","39","","","","key","16.656275362319203","640","289","true","1","133.0077677058457","1","16","-1","-1","","","","","","","","","","","","",""
"psychophysics","45","137419","0.0-6.0-0.39","6043601ea410a630058cbe44","609006691f6f4e337c17f836","609d373e9c442dff897e69e7","284.6900000004098","","","","37","","","","key","16.654480519480384","640","289","true","-1","133.0077677058457","1","16","-1","-1","","","","","","","","","","","","",""
"html-keyboard-response","46","141148","0.0-7.0","6043601ea410a630058cbe44","609006691f6f4e337c17f836","609d373e9c442dff897e69e7","3725.3700000001118","<p>Well Done !</p><p>Prepare for a new block.</p><p>DON'T EXIT THE FULL SCREEN MODE</p><p>Press the Spacebar to start.</p>","","","32","","","","","","","","","","","","","","","true","133.2693871769354","","","","","","","","","","",""
"psychophysics","47","142355","0.0-8.0-0.0","6043601ea410a630058cbe44","609006691f6f4e337c17f836","609d373e9c442dff897e69e7","201.25000001280569","","","","37","","","","key","16.658652777777913","640","289","true","-1","180","30","0","-1","","","","","","","","","","","","","",""
"psychophysics","48","143380","0.0-8.0-0.1","6043601ea410a630058cbe44","609006691f6f4e337c17f836","609d373e9c442dff897e69e7","18.235000025015324","","","","37","","","","key","16.647327868852354","640","289","true","-1","180","30","0","-1","-1","","","","","","","","","","","","",""
"psychophysics","49","144474","0.0-8.0-0.2","6043601ea410a630058cbe44","609006691f6f4e337c17f836","609d373e9c442dff897e69e7","89.03500001179054","","","","37","","","","key","16.652615384615583","640","289","true","-1","150","30","0","-1","-1","","","","","","","","","","","","",""
"psychophysics","50","145564","0.0-8.0-0.3","6043601ea410a630058cbe44","609006691f6f4e337c17f836","609d373e9c442dff897e69e7","87.64499999233522","","","","39","","","","key","16.655687499999658","640","289","true","1","150","30","0","-1","-1","","","","","","","","","","","","",""
"psychophysics","51","147125","0.0-8.0-0.4","6043601ea410a630058cbe44","609006691f6f4e337c17f836","609d373e9c442dff897e69e7","554.8349999880884","","","","39","","","","key","16.654172043010632","640","289","true","1","129","30","0","-1","-1","","","","","","","","","","","","",""
"psychophysics","52","148625","0.0-8.0-0.5","6043601ea410a630058cbe44","609006691f6f4e337c17f836","609d373e9c442dff897e69e7","495.30999999842606","","","","39","","","","key","16.65449438202247","640","289","true","-1","129","24","1","1","-1","","","","","","","","","","","","",""
"psychophysics","53","149900","0.0-8.0-0.6","6043601ea410a630058cbe44","609006691f6f4e337c17f836","609d373e9c442dff897e69e7","270.2900000149384","","","","39","","","","key","16.653013333333657","640","289","true","1","153","24","1","-1","1","","","","","","","","","","","","",""
"psychophysics","54","150930","0.0-8.0-0.7","6043601ea410a630058cbe44","609006691f6f4e337c17f836","609d373e9c442dff897e69e7","24.464999994961545","","","","39","","","","key","16.656868852458828","640","289","true","1","153","19.2","2","-1","-1","","","","","","","","","","","","",""
"psychophysics","55","151977","0.0-8.0-0.8","6043601ea410a630058cbe44","609006691f6f4e337c17f836","609d373e9c442dff897e69e7","39.314999972702935","","","","39","","","","key","16.654499999999967","640","289","true","1","133.8","19.2","2","-1","-1","","","","","","","","","","","","",""
"psychophysics","56","153218","0.0-8.0-0.9","6043601ea410a630058cbe44","609006691f6f4e337c17f836","609d373e9c442dff897e69e7","235.23500000010245","","","","39","","","","key","16.655932432432294","640","289","true","1","133.8","19.2","2","-1","-1","","","","","","","","","","","","",""
"psychophysics","57","154568","0.0-8.0-0.10","6043601ea410a630058cbe44","609006691f6f4e337c17f836","609d373e9c442dff897e69e7","344.2149999900721","","","","39","","","","key","16.653887499999836","640","289","true","1","129","19.2","2","-1","-1","","","","","","","","","","","","",""
"psychophysics","58","155867","0.0-8.0-0.11","6043601ea410a630058cbe44","609006691f6f4e337c17f836","609d373e9c442dff897e69e7","291.1350000067614","","","","39","","","","key","16.653597402597654","640","289","true","1","129","19.2","2","-1","-1","","","","","","","","","","","","",""
"psychophysics","59","157198","0.0-8.0-0.12","6043601ea410a630058cbe44","609006691f6f4e337c17f836","609d373e9c442dff897e69e7","323.7350000126753","","","","39","","","","key","16.656153846153757","640","289","true","1","129","19.2","2","-1","-1","","","","","","","","","","","","",""
"psychophysics","60","159321","0.0-8.0-0.13","6043601ea410a630058cbe44","609006691f6f4e337c17f836","609d373e9c442dff897e69e7","1117.3000000126194","","","","39","","","","key","16.654566929133896","640","289","true","1","129","19.2","2","-1","-1","","","","","","","","","","","","",""
"psychophysics","61","161116","0.0-8.0-0.14","6043601ea410a630058cbe44","609006691f6f4e337c17f836","609d373e9c442dff897e69e7","783.724999986589","","","","39","","","","key","16.6551588785048","640","289","true","-1","129","15.36","3","1","-1","","","","","","","","","","","","",""
"psychophysics","62","162435","0.0-8.0-0.15","6043601ea410a630058cbe44","609006691f6f4e337c17f836","609d373e9c442dff897e69e7","312.8100000030827","","","","39","","","","key","16.657628205127995","640","289","true","1","144.36","15.36","3","-1","1","","","","","","","","","","","","",""
"psychophysics","63","163923","0.0-8.0-0.16","6043601ea410a630058cbe44","609006691f6f4e337c17f836","609d373e9c442dff897e69e7","479.4499999843538","","","","39","","","","key","16.65454545454552","640","289","true","1","144.36","12.287999999999998","4","-1","-1","","","","","","","","","","","","",""
"psychophysics","64","165195","0.0-8.0-0.17","6043601ea410a630058cbe44","609006691f6f4e337c17f836","609d373e9c442dff897e69e7","268.0899999977555","","","","37","","","","key","16.655749999999994","640","289","true","1","132.072","9.8304","5","1","-1","","","","","","","","","","","","",""
"psychophysics","65","166479","0.0-8.0-0.18","6043601ea410a630058cbe44","609006691f6f4e337c17f836","609d373e9c442dff897e69e7","279.14999998756684","","","","37","","","","key","16.653421052631625","640","289","true","-1","141.9024","9.8304","5","-1","1","","","","","","","","","","","","",""
"psychophysics","66","167658","0.0-8.0-0.19","6043601ea410a630058cbe44","609006691f6f4e337c17f836","609d373e9c442dff897e69e7","172.2400000144262","","","","37","","","","key","16.65802857142865","640","289","true","-1","141.9024","7.864319999999999","6","-1","-1","","","","","","","","","","","","",""
"psychophysics","67","168905","0.0-8.0-0.20","6043601ea410a630058cbe44","609006691f6f4e337c17f836","609d373e9c442dff897e69e7","240.45499999192543","","","","37","","","","key","16.654575342465947","640","289","true","-1","134.03808","7.864319999999999","6","-1","-1","","","","","","","","","","","","",""
"psychophysics","68","170029","0.0-8.0-0.21","6043601ea410a630058cbe44","609006691f6f4e337c17f836","609d373e9c442dff897e69e7","118.2400000107009","","","","39","","","","key","16.65623880597005","640","289","true","1","134.03808","7.864319999999999","6","-1","-1","","","","","","","","","","","","",""
"psychophysics","69","171450","0.0-8.0-0.22","6043601ea410a630058cbe44","609006691f6f4e337c17f836","609d373e9c442dff897e69e7","416.25999999814667","","","","37","","","","key","16.653964285714512","640","289","true","-1","129","7.864319999999999","6","-1","-1","","","","","","","","","","","","",""
"psychophysics","70","172960","0.0-8.0-0.23","6043601ea410a630058cbe44","609006691f6f4e337c17f836","609d373e9c442dff897e69e7","503.0549999792129","","","","39","","","","key","16.657100000000273","640","289","true","-1","129","6.291456","7","1","-1","","","","","","","","","","","","",""
"psychophysics","71","174337","0.0-8.0-0.24","6043601ea410a630058cbe44","609006691f6f4e337c17f836","609d373e9c442dff897e69e7","370.97499999799766","","","","39","","","","key","16.66015853658503","640","289","true","1","135.291456","6.291456","7","-1","1","","","","","","","","","","","","",""
"psychophysics","72","175360","0.0-8.0-0.25","6043601ea410a630058cbe44","609006691f6f4e337c17f836","609d373e9c442dff897e69e7","16.059999994467944","","","","39","","","","key","16.6573166666664","640","289","true","1","135.291456","5.033164800000001","8","-1","-1","","","","","","","","","","","","",""
"psychophysics","73","177685","0.0-8.0-0.26","6043601ea410a630058cbe44","609006691f6f4e337c17f836","609d373e9c442dff897e69e7","1313.5250000050291","","","","37","","","","key","16.655136690647577","640","289","true","-1","130.2582912","5.033164800000001","8","-1","-1","","","","","","","","","","","","",""
"psychophysics","74","179330","0.0-8.0-0.27","6043601ea410a630058cbe44","609006691f6f4e337c17f836","609d373e9c442dff897e69e7","639.9450000026263","","","","37","","","","key","16.655298969072","640","289","true","-1","130.2582912","5.033164800000001","8","-1","-1","","","","","","","","","","","","",""
"psychophysics","75","180694","0.0-8.0-0.28","6043601ea410a630058cbe44","609006691f6f4e337c17f836","609d373e9c442dff897e69e7","358.52999999769963","","","","37","","","","key","16.654950617284033","640","289","true","-1","129","5.033164800000001","8","-1","-1","","","","","","","","","","","","",""
"psychophysics","76","182044","0.0-8.0-0.29","6043601ea410a630058cbe44","609006691f6f4e337c17f836","609d373e9c442dff897e69e7","343.8000000023749","","","","37","","","","key","16.655649999999877","640","289","true","-1","129","5.033164800000001","8","-1","-1","","","","","","","","","","","","",""
"psychophysics","77","183348","0.0-8.0-0.30","6043601ea410a630058cbe44","609006691f6f4e337c17f836","609d373e9c442dff897e69e7","296.4849999989383","","","","37","","","","key","16.65529487179503","640","289","true","1","129","4.0265318400000005","9","1","-1","","","","","","","","","","","","",""
"psychophysics","78","184690","0.0-8.0-0.31","6043601ea410a630058cbe44","609006691f6f4e337c17f836","609d373e9c442dff897e69e7","334.89499997813255","","","","39","","","","key","16.65251898734176","640","289","true","1","133.02653184","4.0265318400000005","9","-1","1","","","","","","","","","","","","",""
"psychophysics","79","186015","0.0-8.0-0.32","6043601ea410a630058cbe44","609006691f6f4e337c17f836","609d373e9c442dff897e69e7","316.8850000074599","","","","37","","","","key","16.656443037974643","640","289","true","-1","133.02653184","3.2212254720000004","10","-1","-1","","","","","","","","","","","","",""
"psychophysics","80","187450","0.0-8.0-0.33","6043601ea410a630058cbe44","609006691f6f4e337c17f836","609d373e9c442dff897e69e7","424.40499999793246","","","","37","","","","key","16.654235294117484","640","289","true","-1","129.805306368","3.2212254720000004","10","-1","-1","","","","","","","","","","","","",""
"psychophysics","81","188930","0.0-8.0-0.34","6043601ea410a630058cbe44","609006691f6f4e337c17f836","609d373e9c442dff897e69e7","475.1399999950081","","","","39","","","","key","16.653522727272502","640","289","true","-1","129.805306368","2.5769803776000004","11","1","-1","","","","","","","","","","","","",""
"psychophysics","82","190429","0.0-8.0-0.35","6043601ea410a630058cbe44","609006691f6f4e337c17f836","609d373e9c442dff897e69e7","492.8150000050664","","","","37","","","","key","16.652988764045045","640","289","true","1","132.3822867456","2.5769803776000004","11","1","1","","","","","","","","","","","","",""
"psychophysics","83","191960","0.0-8.0-0.36","6043601ea410a630058cbe44","609006691f6f4e337c17f836","609d373e9c442dff897e69e7","526.9499999994878","","","","37","","","","key","16.655296703296518","640","289","true","-1","134.9592671232","2.5769803776000004","11","-1","1","","","","","","","","","","","","",""
"psychophysics","84","193316","0.0-8.0-0.37","6043601ea410a630058cbe44","609006691f6f4e337c17f836","609d373e9c442dff897e69e7","350.16499998164363","","","","37","","","","key","16.65706250000003","640","289","true","-1","134.9592671232","2.0615843020800004","12","-1","-1","","","","","","","","","","","","",""
"psychophysics","85","194699","0.0-8.0-0.38","6043601ea410a630058cbe44","609006691f6f4e337c17f836","609d373e9c442dff897e69e7","377.89000000339","","","","37","","","","key","16.654390243902483","640","289","true","1","132.89768282112","1.6492674416640005","13","1","-1","","","","","","","","","","","","",""
"psychophysics","86","196396","0.0-8.0-0.39","6043601ea410a630058cbe44","609006691f6f4e337c17f836","609d373e9c442dff897e69e7","692.7000000141561","","","","37","","","","key","16.654999999999987","640","289","true","-1","134.54695026278398","1.6492674416640005","13","-1","1","","","","","","","","","","","","",""
"html-keyboard-response","87","197552","0.0-9.0","6043601ea410a630058cbe44","609006691f6f4e337c17f836","609d373e9c442dff897e69e7","1153.6100000084843","<p>Well Done !</p><p>Prepare for a new block.</p><p>DON'T EXIT THE FULL SCREEN MODE</p><p>Press the Spacebar to start.</p>","","","32","","","","","","","","","","","","","","","true","131.8811445927936","","","","","","","","","","",""
"psychophysics","88","198900","0.0-10.0-0.0","6043601ea410a630058cbe44","609006691f6f4e337c17f836","609d373e9c442dff897e69e7","340.4500000178814","","","","37","","","","key","16.653512499999852","640","289","true","-1","180","30","0","-1","","","","","","","","","","","","","",""
"psychophysics","89","200617","0.0-10.0-0.1","6043601ea410a630058cbe44","609006691f6f4e337c17f836","609d373e9c442dff897e69e7","711.1399999994319","","","","37","","","","key","16.657019417475823","640","289","true","-1","180","30","0","-1","-1","","","","","","","","","","","","",""
"psychophysics","90","201894","0.0-10.0-0.2","6043601ea410a630058cbe44","609006691f6f4e337c17f836","609d373e9c442dff897e69e7","272.74499999475665","","","","37","","","","key","16.652480000000214","640","289","true","-1","150","30","0","-1","-1","","","","","","","","","","","","",""
"psychophysics","91","203054","0.0-10.0-0.3","6043601ea410a630058cbe44","609006691f6f4e337c17f836","609d373e9c442dff897e69e7","153.39500000118278","","","","39","","","","key","16.65708695652142","640","289","true","1","150","30","0","-1","-1","","","","","","","","","","","","",""
"psychophysics","92","204545","0.0-10.0-0.4","6043601ea410a630058cbe44","609006691f6f4e337c17f836","609d373e9c442dff897e69e7","484.53499999595806","","","","39","","","","key","16.655806818181603","640","289","true","1","129","30","0","-1","-1","","","","","","","","","","","","",""
"psychophysics","93","205648","0.0-10.0-0.5","6043601ea410a630058cbe44","609006691f6f4e337c17f836","609d373e9c442dff897e69e7","97.24000000278465","","","","37","","","","key","16.654712121211837","640","289","true","1","129","24","1","1","-1","","","","","","","","","","","","",""
"psychophysics","94","206840","0.0-10.0-0.6","6043601ea410a630058cbe44","609006691f6f4e337c17f836","609d373e9c442dff897e69e7","185.19000001833774","","","","37","","","","key","16.656485714285683","640","289","true","-1","153","24","1","-1","1","","","","","","","","","","","","",""
"psychophysics","95","208270","0.0-10.0-0.7","6043601ea410a630058cbe44","609006691f6f4e337c17f836","609d373e9c442dff897e69e7","423.9999999990687","","","","37","","","","key","16.65723529411788","640","289","true","-1","153","19.2","2","-1","-1","","","","","","","","","","","","",""
"psychophysics","96","209485","0.0-10.0-0.8","6043601ea410a630058cbe44","609006691f6f4e337c17f836","609d373e9c442dff897e69e7","208.66500001284294","","","","39","","","","key","16.65706944444456","640","289","true","1","133.8","19.2","2","-1","-1","","","","","","","","","","","","",""
"psychophysics","97","210495","0.0-10.0-0.9","6043601ea410a630058cbe44","609006691f6f4e337c17f836","609d373e9c442dff897e69e7","3.0200000037439167","","","","37","","","","key","16.65651666666672","640","289","true","-1","133.8","19.2","2","-1","-1","","","","","","","","","","","","",""
"psychophysics","98","211845","0.0-10.0-0.10","6043601ea410a630058cbe44","609006691f6f4e337c17f836","609d373e9c442dff897e69e7","343.3249999943655","","","","37","","","","key","16.655462500000066","640","289","true","-1","129","19.2","2","-1","-1","","","","","","","","","","","","",""
"psychophysics","99","213145","0.0-10.0-0.11","6043601ea410a630058cbe44","609006691f6f4e337c17f836","609d373e9c442dff897e69e7","295.99999997299165","","","","39","","","","key","16.654987012986744","640","289","true","1","129","19.2","2","-1","-1","","","","","","","","","","","","",""
"psychophysics","100","215681","0.0-10.0-0.12","6043601ea410a630058cbe44","609006691f6f4e337c17f836","609d373e9c442dff897e69e7","1529.1300000099","","","","39","","","","key","16.654245033112566","640","289","true","-1","129","15.36","3","1","-1","","","","","","","","","","","","",""
"psychophysics","101","217200","0.0-10.0-0.13","6043601ea410a630058cbe44","609006691f6f4e337c17f836","609d373e9c442dff897e69e7","509.28999998723157","","","","37","","","","key","16.656655555555417","640","289","true","-1","144.36","15.36","3","-1","1","","","","","","","","","","","","",""
"psychophysics","102","218649","0.0-10.0-0.14","6043601ea410a630058cbe44","609006691f6f4e337c17f836","609d373e9c442dff897e69e7","441.9849999831058","","","","39","","","","key","16.65859302325576","640","289","true","1","144.36","12.287999999999998","4","-1","-1","","","","","","","","","","","","",""
"psychophysics","103","220862","0.0-10.0-0.15","6043601ea410a630058cbe44","609006691f6f4e337c17f836","609d373e9c442dff897e69e7","1206.6950000007637","","","","37","","","","key","16.65468939393935","640","289","true","-1","132.072","12.287999999999998","4","-1","-1","","","","","","","","","","","","",""
"psychophysics","104","222353","0.0-10.0-0.16","6043601ea410a630058cbe44","609006691f6f4e337c17f836","609d373e9c442dff897e69e7","481.1350000090897","","","","39","","","","key","16.657157303370717","640","289","true","1","132.072","12.287999999999998","4","-1","-1","","","","","","","","","","","","",""
"psychophysics","105","223657","0.0-10.0-0.17","6043601ea410a630058cbe44","609006691f6f4e337c17f836","609d373e9c442dff897e69e7","291.6200000036042","","","","37","","","","key","16.6549480519482","640","289","true","1","129","9.8304","5","1","-1","","","","","","","","","","","","",""
"psychophysics","106","224988","0.0-10.0-0.18","6043601ea410a630058cbe44","609006691f6f4e337c17f836","609d373e9c442dff897e69e7","324.35999999870546","","","","37","","","","key","16.656303797468333","640","289","true","-1","138.8304","9.8304","5","-1","1","","","","","","","","","","","","",""
"psychophysics","107","226325","0.0-10.0-0.19","6043601ea410a630058cbe44","609006691f6f4e337c17f836","609d373e9c442dff897e69e7","328.48999998532236","","","","37","","","","key","16.656151898734308","640","289","true","-1","138.8304","7.864319999999999","6","-1","-1","","","","","","","","","","","","",""
"psychophysics","108","228035","0.0-10.0-0.20","6043601ea410a630058cbe44","609006691f6f4e337c17f836","609d373e9c442dff897e69e7","692.6199999870732","","","","37","","","","key","16.65506862745108","640","289","true","-1","130.96608","7.864319999999999","6","-1","-1","","","","","","","","","","","","",""
"psychophysics","109","229710","0.0-10.0-0.21","6043601ea410a630058cbe44","609006691f6f4e337c17f836","609d373e9c442dff897e69e7","665.275000006659","","","","39","","","","key","16.655565656565784","640","289","true","-1","130.96608","6.291456","7","1","-1","","","","","","","","","","","","",""
"psychophysics","110","231031","0.0-10.0-0.22","6043601ea410a630058cbe44","609006691f6f4e337c17f836","609d373e9c442dff897e69e7","310.9249999979511","","","","39","","","","key","16.656797468354277","640","289","true","1","137.25753600000002","6.291456","7","-1","1","","","","","","","","","","","","",""
"psychophysics","111","232367","0.0-10.0-0.23","6043601ea410a630058cbe44","609006691f6f4e337c17f836","609d373e9c442dff897e69e7","324.95000000926666","","","","39","","","","key","16.662848101265705","640","289","true","1","137.25753600000002","5.033164800000001","8","-1","-1","","","","","","","","","","","","",""
"psychophysics","112","233648","0.0-10.0-0.24","6043601ea410a630058cbe44","609006691f6f4e337c17f836","609d373e9c442dff897e69e7","272.8250000218395","","","","39","","","","key","16.656618421052514","640","289","true","1","132.2243712","5.033164800000001","8","-1","-1","","","","","","","","","","","","",""
"psychophysics","113","235114","0.0-10.0-0.25","6043601ea410a630058cbe44","609006691f6f4e337c17f836","609d373e9c442dff897e69e7","456.2699999951292","","","","39","","","","key","16.6568505747124","640","289","true","-1","132.2243712","4.0265318400000005","9","1","-1","","","","","","","","","","","","",""
"psychophysics","114","236454","0.0-10.0-0.26","6043601ea410a630058cbe44","609006691f6f4e337c17f836","609d373e9c442dff897e69e7","331.48500000243075","","","","39","","","","key","16.645177215190024","640","289","true","1","136.25090304","4.0265318400000005","9","-1","1","","","","","","","","","","","","",""
"psychophysics","115","237741","0.0-10.0-0.27","6043601ea410a630058cbe44","609006691f6f4e337c17f836","609d373e9c442dff897e69e7","269.1000000049826","","","","37","","","","key","16.656272727273052","640","289","true","-1","136.25090304","3.2212254720000004","10","-1","-1","","","","","","","","","","","","",""
"psychophysics","116","239260","0.0-10.0-0.28","6043601ea410a630058cbe44","609006691f6f4e337c17f836","609d373e9c442dff897e69e7","508.1850000133272","","","","37","","","","key","16.65277777777778","640","289","true","-1","133.029677568","3.2212254720000004","10","-1","-1","","","","","","","","","","","","",""
"psychophysics","117","242046","0.0-10.0-0.29","6043601ea410a630058cbe44","609006691f6f4e337c17f836","609d373e9c442dff897e69e7","1779.9400000076275","","","","37","","","","key","16.654807228915686","640","289","true","1","133.029677568","2.5769803776000004","11","1","-1","","","","","","","","","","","","",""
"psychophysics","118","244521","0.0-10.0-0.30","6043601ea410a630058cbe44","609006691f6f4e337c17f836","609d373e9c442dff897e69e7","1468.2650000031572","","","","37","","","","key","16.654148648648736","640","289","true","-1","135.6066579456","2.5769803776000004","11","-1","1","","","","","","","","","","","","",""
"psychophysics","119","245586","0.0-10.0-0.31","6043601ea410a630058cbe44","609006691f6f4e337c17f836","609d373e9c442dff897e69e7","49.23500001314096","","","","39","","","","key","16.656612903225675","640","289","true","1","135.6066579456","2.0615843020800004","12","-1","-1","","","","","","","","","","","","",""
"psychophysics","120","248104","0.0-10.0-0.32","6043601ea410a630058cbe44","609006691f6f4e337c17f836","609d373e9c442dff897e69e7","1507.2050000017043","","","","37","","","","key","16.654688741721905","640","289","true","-1","133.54507364352","2.0615843020800004","12","-1","-1","","","","","","","","","","","","",""
"psychophysics","121","249465","0.0-10.0-0.33","6043601ea410a630058cbe44","609006691f6f4e337c17f836","609d373e9c442dff897e69e7","350.57000000961125","","","","39","","","","key","16.655098765432033","640","289","true","1","133.54507364352","2.0615843020800004","12","-1","-1","","","","","","","","","","","","",""
"psychophysics","122","250994","0.0-10.0-0.34","6043601ea410a630058cbe44","609006691f6f4e337c17f836","609d373e9c442dff897e69e7","514.8300000000745","","","","37","","","","key","16.65506666666673","640","289","true","1","131.48348934144","1.6492674416640005","13","1","-1","","","","","","","","","","","","",""
"psychophysics","123","252335","0.0-10.0-0.35","6043601ea410a630058cbe44","609006691f6f4e337c17f836","609d373e9c442dff897e69e7","326.3349999906495","","","","37","","","","key","16.655062499999985","640","289","true","-1","133.13275678310399","1.6492674416640005","13","-1","1","","","","","","","","","","","","",""
"psychophysics","124","254519","0.0-10.0-0.36","6043601ea410a630058cbe44","609006691f6f4e337c17f836","609d373e9c442dff897e69e7","1175.0649999885354","","","","39","","","","key","16.652807692307846","640","289","true","1","133.13275678310399","1.3194139533312006","14","-1","-1","","","","","","","","","","","","",""
"psychophysics","125","256183","0.0-10.0-0.37","6043601ea410a630058cbe44","609006691f6f4e337c17f836","609d373e9c442dff897e69e7","657.630000001518","","","","37","","","","key","16.657060606060597","640","289","true","1","131.81334282977278","1.0555311626649604","15","1","-1","","","","","","","","","","","","",""
"psychophysics","126","257498","0.0-10.0-0.38","6043601ea410a630058cbe44","609006691f6f4e337c17f836","609d373e9c442dff897e69e7","307.3350000195205","","","","39","","","","key","16.65501282051264","640","289","true","1","132.86887399243773","1.0555311626649604","15","-1","1","","","","","","","","","","","","",""
"psychophysics","127","258865","0.0-10.0-0.39","6043601ea410a630058cbe44","609006691f6f4e337c17f836","609d373e9c442dff897e69e7","359.7799999988638","","","","39","","","","key","16.655728395061747","640","289","true","1","132.86887399243773","1","16","-1","-1","","","","","","","","","","","","",""
"html-keyboard-response","128","259841","0.0-11.0","6043601ea410a630058cbe44","609006691f6f4e337c17f836","609d373e9c442dff897e69e7","973.504999972647","<p>Well Done !</p><p>Prepare for a new block.</p><p>DON'T EXIT THE FULL SCREEN MODE</p><p>Press the Spacebar to start.</p>","","","32","","","","","","","","","","","","","","","true","133.62593928776909","","","","","","","","","","",""
"psychophysics","129","261676","0.0-12.0-0.0","6043601ea410a630058cbe44","609006691f6f4e337c17f836","609d373e9c442dff897e69e7","829.1750000207685","","","","37","","","","key","16.656127272727264","640","289","true","-1","180","30","0","-1","","","","","","","","","","","","","",""
"psychophysics","130","262869","0.0-12.0-0.1","6043601ea410a630058cbe44","609006691f6f4e337c17f836","609d373e9c442dff897e69e7","188.19999997504056","","","","39","","","","key","16.655257142857383","640","289","true","1","180","30","0","-1","-1","","","","","","","","","","","","",""
"psychophysics","131","264500","0.0-12.0-0.2","6043601ea410a630058cbe44","609006691f6f4e337c17f836","609d373e9c442dff897e69e7","624.3300000205636","","","","37","","","","key","16.655989690721587","640","289","true","1","150","24","1","1","-1","","","","","","","","","","","","",""
"psychophysics","132","265761","0.0-12.0-0.3","6043601ea410a630058cbe44","609006691f6f4e337c17f836","609d373e9c442dff897e69e7","246.9299999938812","","","","39","","","","key","16.65649333333286","640","289","true","1","174","24","1","-1","1","","","","","","","","","","","","",""
"psychophysics","133","267011","0.0-12.0-0.4","6043601ea410a630058cbe44","609006691f6f4e337c17f836","609d373e9c442dff897e69e7","243.2750000152737","","","","37","","","","key","16.657094594594593","640","289","true","-1","174","19.2","2","-1","-1","","","","","","","","","","","","",""
"psychophysics","134","268021","0.0-12.0-0.5","6043601ea410a630058cbe44","609006691f6f4e337c17f836","609d373e9c442dff897e69e7","4.739999974844977","","","","37","","","","key","16.65834999999982","640","289","true","-1","154.8","19.2","2","-1","-1","","","","","","","","","","","","",""
"psychophysics","135","269720","0.0-12.0-0.6","6043601ea410a630058cbe44","609006691f6f4e337c17f836","609d373e9c442dff897e69e7","686.5050000196788","","","","37","","","","key","16.653128712871435","640","289","true","-1","154.8","19.2","2","-1","-1","","","","","","","","","","","","",""
"psychophysics","136","271129","0.0-12.0-0.7","6043601ea410a630058cbe44","609006691f6f4e337c17f836","609d373e9c442dff897e69e7","397.6649999967776","","","","39","","","","key","16.654253012047665","640","289","true","1","135.60000000000002","19.2","2","-1","-1","","","","","","","","","","","","",""
"psychophysics","137","272428","0.0-12.0-0.8","6043601ea410a630058cbe44","609006691f6f4e337c17f836","609d373e9c442dff897e69e7","281.40999999595806","","","","39","","","","key","16.6578441558439","640","289","true","1","135.60000000000002","19.2","2","-1","-1","","","","","","","","","","","","",""
"psychophysics","138","274559","0.0-12.0-0.9","6043601ea410a630058cbe44","609006691f6f4e337c17f836","609d373e9c442dff897e69e7","1113.0300000077114","","","","37","","","","key","16.65602362204726","640","289","true","1","129","15.36","3","1","-1","","","","","","","","","","","","",""
"psychophysics","139","275827","0.0-12.0-0.10","6043601ea410a630058cbe44","609006691f6f4e337c17f836","609d373e9c442dff897e69e7","223.96499998285435","","","","37","","","","key","16.65455405405452","640","289","true","-1","144.36","15.36","3","-1","1","","","","","","","","","","","","",""
"psychophysics","140","276961","0.0-12.0-0.11","6043601ea410a630058cbe44","609006691f6f4e337c17f836","609d373e9c442dff897e69e7","116.9850000005681","","","","39","","","","key","16.65633823529403","640","289","true","1","144.36","12.287999999999998","4","-1","-1","","","","","","","","","","","","",""
"psychophysics","141","278580","0.0-12.0-0.12","6043601ea410a630058cbe44","609006691f6f4e337c17f836","609d373e9c442dff897e69e7","609.6299999917392","","","","37","","","","key","16.655402061855302","640","289","true","-1","132.072","12.287999999999998","4","-1","-1","","","","","","","","","","","","",""
"psychophysics","142","280472","0.0-12.0-0.13","6043601ea410a630058cbe44","609006691f6f4e337c17f836","609d373e9c442dff897e69e7","882.00000001234","","","","37","","","","key","16.655187499999947","640","289","true","-1","132.072","12.287999999999998","4","-1","-1","","","","","","","","","","","","",""
"psychophysics","143","281765","0.0-12.0-0.14","6043601ea410a630058cbe44","609006691f6f4e337c17f836","609d373e9c442dff897e69e7","275.30000000842847","","","","39","","","","key","16.653350649350898","640","289","true","1","129","12.287999999999998","4","-1","-1","","","","","","","","","","","","",""
"psychophysics","144","283183","0.0-12.0-0.15","6043601ea410a630058cbe44","609006691f6f4e337c17f836","609d373e9c442dff897e69e7","410.88999999919906","","","","37","","","","key","16.657702380952763","640","289","true","-1","129","12.287999999999998","4","-1","-1","","","","","","","","","","","","",""
"psychophysics","145","284786","0.0-12.0-0.16","6043601ea410a630058cbe44","609006691f6f4e337c17f836","609d373e9c442dff897e69e7","581.4100000134204","","","","39","","","","key","16.653947368421054","640","289","true","1","129","12.287999999999998","4","-1","-1","","","","","","","","","","","","",""
"psychophysics","146","286030","0.0-12.0-0.17","6043601ea410a630058cbe44","609006691f6f4e337c17f836","609d373e9c442dff897e69e7","232.7099999820348","","","","37","","","","key","16.65581081081119","640","289","true","-1","129","12.287999999999998","4","-1","-1","","","","","","","","","","","","",""
"psychophysics","147","287315","0.0-12.0-0.18","6043601ea410a630058cbe44","609006691f6f4e337c17f836","609d373e9c442dff897e69e7","278.9000000047963","","","","39","","","","key","16.657197368420864","640","289","true","1","129","12.287999999999998","4","-1","-1","","","","","","","","","","","","",""
"psychophysics","148","288360","0.0-12.0-0.19","6043601ea410a630058cbe44","609006691f6f4e337c17f836","609d373e9c442dff897e69e7","27.024999988498166","","","","37","","","","key","16.656354838709962","640","289","true","-1","129","12.287999999999998","4","-1","-1","","","","","","","","","","","","",""
"psychophysics","149","289521","0.0-12.0-0.20","6043601ea410a630058cbe44","609006691f6f4e337c17f836","609d373e9c442dff897e69e7","153.1599999871105","","","","37","","","","key","16.655376811594486","640","289","true","-1","129","12.287999999999998","4","-1","-1","","","","","","","","","","","","",""
"psychophysics","150","290597","0.0-12.0-0.21","6043601ea410a630058cbe44","609006691f6f4e337c17f836","609d373e9c442dff897e69e7","63.22500001988374","","","","37","","","","key","16.65398412698414","640","289","true","-1","129","12.287999999999998","4","-1","-1","","","","","","","","","","","","",""
"psychophysics","151","292244","0.0-12.0-0.22","6043601ea410a630058cbe44","609006691f6f4e337c17f836","609d373e9c442dff897e69e7","633.2349999865983","","","","39","","","","key","16.65654081632609","640","289","true","-1","129","9.8304","5","1","-1","","","","","","","","","","","","",""
"psychophysics","152","293555","0.0-12.0-0.23","6043601ea410a630058cbe44","609006691f6f4e337c17f836","609d373e9c442dff897e69e7","299.88000000594184","","","","39","","","","key","16.656410256410407","640","289","true","1","138.8304","9.8304","5","-1","1","","","","","","","","","","","","",""
"psychophysics","153","294743","0.0-12.0-0.24","6043601ea410a630058cbe44","609006691f6f4e337c17f836","609d373e9c442dff897e69e7","178.93500000354834","","","","39","","","","key","16.65538571428541","640","289","true","1","138.8304","7.864319999999999","6","-1","-1","","","","","","","","","","","","",""
"psychophysics","154","296268","0.0-12.0-0.25","6043601ea410a630058cbe44","609006691f6f4e337c17f836","609d373e9c442dff897e69e7","517.3800000047777","","","","39","","","","key","16.65651648351603","640","289","true","1","130.96608","7.864319999999999","6","-1","-1","","","","","","","","","","","","",""
"psychophysics","155","297617","0.0-12.0-0.26","6043601ea410a630058cbe44","609006691f6f4e337c17f836","609d373e9c442dff897e69e7","338.1999999983236","","","","37","","","","key","16.654187499999534","640","289","true","-1","130.96608","7.864319999999999","6","-1","-1","","","","","","","","","","","","",""
"psychophysics","156","299131","0.0-12.0-0.27","6043601ea410a630058cbe44","609006691f6f4e337c17f836","609d373e9c442dff897e69e7","506.6999999980908","","","","37","","","","key","16.65581111111096","640","289","true","1","129","6.291456","7","1","-1","","","","","","","","","","","","",""
"psychophysics","157","300369","0.0-12.0-0.28","6043601ea410a630058cbe44","609006691f6f4e337c17f836","609d373e9c442dff897e69e7","225.2849999931641","","","","39","","","","key","16.654726027397835","640","289","true","1","135.291456","6.291456","7","-1","1","","","","","","","","","","","","",""
"psychophysics","158","301671","0.0-12.0-0.29","6043601ea410a630058cbe44","609006691f6f4e337c17f836","609d373e9c442dff897e69e7","294.5049999980256","","","","39","","","","key","16.65771428571391","640","289","true","1","135.291456","5.033164800000001","8","-1","-1","","","","","","","","","","","","",""
"psychophysics","159","303028","0.0-12.0-0.30","6043601ea410a630058cbe44","609006691f6f4e337c17f836","609d373e9c442dff897e69e7","335.7800000230782","","","","37","","","","key","16.655814814815344","640","289","true","-1","130.2582912","5.033164800000001","8","-1","-1","","","","","","","","","","","","",""
"psychophysics","160","304497","0.0-12.0-0.31","6043601ea410a630058cbe44","609006691f6f4e337c17f836","609d373e9c442dff897e69e7","456.45499997772276","","","","39","","","","key","16.654390804597373","640","289","true","1","130.2582912","5.033164800000001","8","-1","-1","","","","","","","","","","","","",""
"psychophysics","161","305761","0.0-12.0-0.32","6043601ea410a630058cbe44","609006691f6f4e337c17f836","609d373e9c442dff897e69e7","256.36499997926876","","","","37","","","","key","16.65490666666689","640","289","true","-1","129","5.033164800000001","8","-1","-1","","","","","","","","","","","","",""
"psychophysics","162","306942","0.0-12.0-0.33","6043601ea410a630058cbe44","609006691f6f4e337c17f836","609d373e9c442dff897e69e7","170.4549999849405","","","","39","","","","key","16.654357142857044","640","289","true","-1","129","4.0265318400000005","9","1","-1","","","","","","","","","","","","",""
"psychophysics","163","308017","0.0-12.0-0.34","6043601ea410a630058cbe44","609006691f6f4e337c17f836","609d373e9c442dff897e69e7","62.24999998812564","","","","37","","","","key","16.654047619047876","640","289","true","1","133.02653184","4.0265318400000005","9","1","1","","","","","","","","","","","","",""
"psychophysics","164","309038","0.0-12.0-0.35","6043601ea410a630058cbe44","609006691f6f4e337c17f836","609d373e9c442dff897e69e7","5.334999994374812","","","","39","","","","key","16.656833333332905","640","289","true","1","137.05306367999998","4.0265318400000005","9","-1","1","","","","","","","","","","","","",""
"psychophysics","165","310106","0.0-12.0-0.36","6043601ea410a630058cbe44","609006691f6f4e337c17f836","609d373e9c442dff897e69e7","54.94999999064021","","","","37","","","","key","16.648421875000167","640","289","true","-1","137.05306367999998","3.2212254720000004","10","-1","-1","","","","","","","","","","","","",""
"psychophysics","166","311173","0.0-12.0-0.37","6043601ea410a630058cbe44","609006691f6f4e337c17f836","609d373e9c442dff897e69e7","53.95000000135042","","","","37","","","","key","16.656444444443977","640","289","true","-1","133.83183820799997","3.2212254720000004","10","-1","-1","","","","","","","","","","","","",""
"psychophysics","167","312274","0.0-12.0-0.38","6043601ea410a630058cbe44","609006691f6f4e337c17f836","609d373e9c442dff897e69e7","89.03000000282191","","","","37","","","","key","16.65506153846106","640","289","true","-1","133.83183820799997","3.2212254720000004","10","-1","-1","","","","","","","","","","","","",""
"psychophysics","168","313872","0.0-12.0-0.39","6043601ea410a630058cbe44","609006691f6f4e337c17f836","609d373e9c442dff897e69e7","587.7500000060536","","","","39","","","","key","16.65449473684176","640","289","true","1","130.61061273599995","3.2212254720000004","10","-1","-1","","","","","","","","","","","","",""
"html-keyboard-response","169","315051","0.0-13.0","6043601ea410a630058cbe44","609006691f6f4e337c17f836","609d373e9c442dff897e69e7","1176.6749999951571","<p>Well Done !</p><p>Prepare for a new block.</p><p>DON'T EXIT THE FULL SCREEN MODE</p><p>Press the Spacebar to start.</p>","","","32","","","","","","","","","","","","","","","true","132.36257351679998","","","","","","","","","","",""
"html-keyboard-response","170","315161","0.0-14.0","6043601ea410a630058cbe44","609006691f6f4e337c17f836","609d373e9c442dff897e69e7","null","","","","null","","","","","","","","","","","","","","","","","132.7847611435745","true","137.56952228714903","","","","","","","",""
"instructions","171","343427","0.0-15.0","6043601ea410a630058cbe44","609006691f6f4e337c17f836","609d373e9c442dff897e69e7","28264.65000002645","","","","","","","[{""page_index"":0,""viewing_time"":19766.10000000801},{""page_index"":1,""viewing_time"":1679.6350000076927},{""page_index"":2,""viewing_time"":6818.55500000529}]","","","","","","","","","","","","","","","","","","","","","","","",""
"psychophysics","172","346436","0.0-16.0-0.0","6043601ea410a630058cbe44","609006691f6f4e337c17f836","609d373e9c442dff897e69e7","null","","","","null","","","","key","16.6521333333328","640","289","","","","","","","","","","","","","","","","","","","",""
"psychophysics","173","346941","0.0-16.0-1.0","6043601ea410a630058cbe44","609006691f6f4e337c17f836","609d373e9c442dff897e69e7","null","","","","null","","","","key","16.655517241377623","640","289","","","","","","","","","","","","","138","-1","3","false","","","",""
"psychophysics","174","347463","0.0-16.0-2.0","6043601ea410a630058cbe44","609006691f6f4e337c17f836","609d373e9c442dff897e69e7","515.3449999925215","","","","90","","","","key","16.659387096773923","640","289","","","","","","","","","","","","","","","","","","","",""
"psychophysics","175","348465","0.0-16.0-0.1","6043601ea410a630058cbe44","609006691f6f4e337c17f836","609d373e9c442dff897e69e7","null","","","","null","","","","key","16.657203389829917","640","289","","","","","","","","","","","","","","","","","","","",""
"psychophysics","176","348967","0.0-16.0-1.1","6043601ea410a630058cbe44","609006691f6f4e337c17f836","609d373e9c442dff897e69e7","null","","","","null","","","","key","16.65655172413721","640","289","","","","","","","","","","","","","138","1","4","false","","","",""
"psychophysics","177","349298","0.0-16.0-2.1","6043601ea410a630058cbe44","609006691f6f4e337c17f836","609d373e9c442dff897e69e7","327.724999981001","","","","77","","","","key","16.650315789472142","640","289","","","","","","","","","","","","","","","","","","","",""
"psychophysics","178","350301","0.0-16.0-0.2","6043601ea410a630058cbe44","609006691f6f4e337c17f836","609d373e9c442dff897e69e7","null","","","","null","","","","key","16.650999999999748","640","289","","","","","","","","","","","","","","","","","","","",""
"psychophysics","179","350804","0.0-16.0-1.2","6043601ea410a630058cbe44","609006691f6f4e337c17f836","609d373e9c442dff897e69e7","null","","","","null","","","","key","16.652827586207923","640","289","","","","","","","","","","","","","138","1","3","false","","","",""
"psychophysics","180","351337","0.0-16.0-2.2","6043601ea410a630058cbe44","609006691f6f4e337c17f836","609d373e9c442dff897e69e7","531.025000003865","","","","77","","","","key","16.653580645161245","640","289","","","","","","","","","","","","","","","","","","","",""
"psychophysics","181","352340","0.0-16.0-0.3","6043601ea410a630058cbe44","609006691f6f4e337c17f836","609d373e9c442dff897e69e7","null","","","","null","","","","key","16.65544067796663","640","289","","","","","","","","","","","","","","","","","","","",""
"psychophysics","182","352843","0.0-16.0-1.3","6043601ea410a630058cbe44","609006691f6f4e337c17f836","609d373e9c442dff897e69e7","null","","","","null","","","","key","16.657200000000497","640","289","","","","","","","","","","","","","138","1","0","false","","","",""
"psychophysics","183","353244","0.0-16.0-2.3","6043601ea410a630058cbe44","609006691f6f4e337c17f836","609d373e9c442dff897e69e7","397.08499997504987","","","","77","","","","key","16.65778260869632","640","289","","","","","","","","","","","","","","","","","","","",""
"psychophysics","184","354247","0.0-16.0-0.4","6043601ea410a630058cbe44","609006691f6f4e337c17f836","609d373e9c442dff897e69e7","null","","","","null","","","","key","16.650881355932235","640","289","","","","","","","","","","","","","","","","","","","",""
"psychophysics","185","354750","0.0-16.0-1.4","6043601ea410a630058cbe44","609006691f6f4e337c17f836","609d373e9c442dff897e69e7","null","","","","null","","","","key","16.654758620688064","640","289","","","","","","","","","","","","","138","-1","4","false","","","",""
"psychophysics","186","355113","0.0-16.0-2.4","6043601ea410a630058cbe44","609006691f6f4e337c17f836","609d373e9c442dff897e69e7","360.3799999982584","","","","77","","","","key","16.663428571427218","640","289","","","","","","","","","","","","","","","","","","","",""
"psychophysics","187","356116","0.0-16.0-0.5","6043601ea410a630058cbe44","609006691f6f4e337c17f836","609d373e9c442dff897e69e7","null","","","","null","","","","key","16.656474576271496","640","289","","","","","","","","","","","","","","","","","","","",""
"psychophysics","188","356620","0.0-16.0-1.5","6043601ea410a630058cbe44","609006691f6f4e337c17f836","609d373e9c442dff897e69e7","null","","","","null","","","","key","16.654517241380304","640","289","","","","","","","","","","","","","138","-1","0","false","","","",""
"psychophysics","189","357009","0.0-16.0-2.5","6043601ea410a630058cbe44","609006691f6f4e337c17f836","609d373e9c442dff897e69e7","378.32999997772276","","","","90","","","","key","16.650347826086268","640","289","","","","","","","","","","","","","","","","","","","",""
"psychophysics","190","358011","0.0-16.0-0.6","6043601ea410a630058cbe44","609006691f6f4e337c17f836","609d373e9c442dff897e69e7","null","","","","null","","","","key","16.65771186440666","640","289","","","","","","","","","","","","","","","","","","","",""
"psychophysics","191","358518","0.0-16.0-1.6","6043601ea410a630058cbe44","609006691f6f4e337c17f836","609d373e9c442dff897e69e7","null","","","","null","","","","key","16.65955172413719","640","289","","","","","","","","","","","","","138","1","5","false","","","",""
"psychophysics","192","358855","0.0-16.0-2.6","6043601ea410a630058cbe44","609006691f6f4e337c17f836","609d373e9c442dff897e69e7","331.9099999789614","","","","77","","","","key","16.663099999999396","640","289","","","","","","","","","","","","","","","","","","","",""
"psychophysics","193","359859","0.0-16.0-0.7","6043601ea410a630058cbe44","609006691f6f4e337c17f836","609d373e9c442dff897e69e7","null","","","","null","","","","key","16.653050847457113","640","289","","","","","","","","","","","","","","","","","","","",""
"psychophysics","194","360362","0.0-16.0-1.7","6043601ea410a630058cbe44","609006691f6f4e337c17f836","609d373e9c442dff897e69e7","null","","","","null","","","","key","16.658068965518332","640","289","","","","","","","","","","","","","138","-1","2","false","","","",""
"psychophysics","195","360814","0.0-16.0-2.7","6043601ea410a630058cbe44","609006691f6f4e337c17f836","609d373e9c442dff897e69e7","448.6599999945611","","","","90","","","","key","16.663038461538516","640","289","","","","","","","","","","","","","","","","","","","",""
"psychophysics","196","361816","0.0-16.0-0.8","6043601ea410a630058cbe44","609006691f6f4e337c17f836","609d373e9c442dff897e69e7","null","","","","null","","","","key","16.657881355932243","640","289","","","","","","","","","","","","","","","","","","","",""
"psychophysics","197","362321","0.0-16.0-1.8","6043601ea410a630058cbe44","609006691f6f4e337c17f836","609d373e9c442dff897e69e7","null","","","","null","","","","key","16.64680000000129","640","289","","","","","","","","","","","","","138","-1","5","false","","","",""
"psychophysics","198","362580","0.0-16.0-2.8","6043601ea410a630058cbe44","609006691f6f4e337c17f836","609d373e9c442dff897e69e7","255.45500000589527","","","","77","","","","key","16.65628571428741","640","289","","","","","","","","","","","","","","","","","","","",""
"psychophysics","199","363583","0.0-16.0-0.9","6043601ea410a630058cbe44","609006691f6f4e337c17f836","609d373e9c442dff897e69e7","null","","","","null","","","","key","16.654316666667","640","289","","","","","","","","","","","","","","","","","","","",""
"psychophysics","200","364088","0.0-16.0-1.9","6043601ea410a630058cbe44","609006691f6f4e337c17f836","609d373e9c442dff897e69e7","null","","","","null","","","","key","16.65748275862003","640","289","","","","","","","","","","","","","138","1","6","false","","","",""
"psychophysics","201","364512","0.0-16.0-2.9","6043601ea410a630058cbe44","609006691f6f4e337c17f836","609d373e9c442dff897e69e7","420.6300000078045","","","","77","","","","key","16.65379166666632","640","289","","","","","","","","","","","","","","","","","","","",""
"psychophysics","202","365515","0.0-16.0-0.10","6043601ea410a630058cbe44","609006691f6f4e337c17f836","609d373e9c442dff897e69e7","null","","","","null","","","","key","16.65515000000014","640","289","","","","","","","","","","","","","","","","","","","",""
"psychophysics","203","366019","0.0-16.0-1.10","6043601ea410a630058cbe44","609006691f6f4e337c17f836","609d373e9c442dff897e69e7","null","","","","null","","","","key","16.654689655171563","640","289","","","","","","","","","","","","","138","-1","6","false","","","",""
"psychophysics","204","366502","0.0-16.0-2.10","6043601ea410a630058cbe44","609006691f6f4e337c17f836","609d373e9c442dff897e69e7","480.40000000037253","","","","77","","","","key","16.654571428570698","640","289","","","","","","","","","","","","","","","","","","","",""
"psychophysics","205","367505","0.0-16.0-0.11","6043601ea410a630058cbe44","609006691f6f4e337c17f836","609d373e9c442dff897e69e7","null","","","","null","","","","key","16.65432203389799","640","289","","","","","","","","","","","","","","","","","","","",""
"psychophysics","206","368008","0.0-16.0-1.11","6043601ea410a630058cbe44","609006691f6f4e337c17f836","609d373e9c442dff897e69e7","null","","","","null","","","","key","16.656482758620704","640","289","","","","","","","","","","","","","138","1","2","false","","","",""
"psychophysics","207","368476","0.0-16.0-2.11","6043601ea410a630058cbe44","609006691f6f4e337c17f836","609d373e9c442dff897e69e7","464.00499998708256","","","","90","","","","key","16.65429629629728","640","289","","","","","","","","","","","","","","","","","","","",""
"psychophysics","208","369479","0.0-16.0-0.12","6043601ea410a630058cbe44","609006691f6f4e337c17f836","609d373e9c442dff897e69e7","null","","","","null","","","","key","16.65550000000027","640","289","","","","","","","","","","","","","","","","","","","",""
"psychophysics","209","369984","0.0-16.0-1.12","6043601ea410a630058cbe44","609006691f6f4e337c17f836","609d373e9c442dff897e69e7","null","","","","null","","","","key","16.653689655172236","640","289","","","","","","","","","","","","","138","-1","0","false","","","",""
"psychophysics","210","370498","0.0-16.0-2.12","6043601ea410a630058cbe44","609006691f6f4e337c17f836","609d373e9c442dff897e69e7","510.41000001714565","","","","77","","","","key","16.65439999999944","640","289","","","","","","","","","","","","","","","","","","","",""
"psychophysics","211","371500","0.0-16.0-0.13","6043601ea410a630058cbe44","609006691f6f4e337c17f836","609d373e9c442dff897e69e7","null","","","","null","","","","key","16.65372881355944","640","289","","","","","","","","","","","","","","","","","","","",""
"psychophysics","212","372003","0.0-16.0-1.13","6043601ea410a630058cbe44","609006691f6f4e337c17f836","609d373e9c442dff897e69e7","null","","","","null","","","","key","16.650793103449015","640","289","","","","","","","","","","","","","138","1","3","false","","","",""
"psychophysics","213","372387","0.0-16.0-2.13","6043601ea410a630058cbe44","609006691f6f4e337c17f836","609d373e9c442dff897e69e7","380.2600000053644","","","","77","","","","key","16.650136363634374","640","289","","","","","","","","","","","","","","","","","","","",""
"psychophysics","214","373393","0.0-16.0-0.14","6043601ea410a630058cbe44","609006691f6f4e337c17f836","609d373e9c442dff897e69e7","null","","","","null","","","","key","16.654833333332984","640","289","","","","","","","","","","","","","","","","","","","",""
"psychophysics","215","373906","0.0-16.0-1.14","6043601ea410a630058cbe44","609006691f6f4e337c17f836","609d373e9c442dff897e69e7","null","","","","null","","","","key","16.659655172413952","640","289","","","","","","","","","","","","","138","1","4","false","","","",""
"psychophysics","216","374272","0.0-16.0-2.14","6043601ea410a630058cbe44","609006691f6f4e337c17f836","609d373e9c442dff897e69e7","359.03500000131316","","","","77","","","","key","16.651809523807884","640","289","","","","","","","","","","","","","","","","","","","",""
"psychophysics","217","375273","0.0-16.0-0.15","6043601ea410a630058cbe44","609006691f6f4e337c17f836","609d373e9c442dff897e69e7","null","","","","null","","","","key","16.658220338983405","640","289","","","","","","","","","","","","","","","","","","","",""
"psychophysics","218","375779","0.0-16.0-1.15","6043601ea410a630058cbe44","609006691f6f4e337c17f836","609d373e9c442dff897e69e7","null","","","","null","","","","key","16.654199999999644","640","289","","","","","","","","","","","","","138","-1","6","false","","","",""
"psychophysics","219","376152","0.0-16.0-2.15","6043601ea410a630058cbe44","609006691f6f4e337c17f836","609d373e9c442dff897e69e7","369.524999987334","","","","77","","","","key","16.659190476190165","640","289","","","","","","","","","","","","","","","","","","","",""
"psychophysics","220","377155","0.0-16.0-0.16","6043601ea410a630058cbe44","609006691f6f4e337c17f836","609d373e9c442dff897e69e7","null","","","","null","","","","key","16.656830508475018","640","289","","","","","","","","","","","","","","","","","","","",""
"psychophysics","221","377664","0.0-16.0-1.16","6043601ea410a630058cbe44","609006691f6f4e337c17f836","609d373e9c442dff897e69e7","null","","","","null","","","","key","16.65633333333341","640","289","","","","","","","","","","","","","138","1","6","false","","","",""
"psychophysics","222","377993","0.0-16.0-2.16","6043601ea410a630058cbe44","609006691f6f4e337c17f836","609d373e9c442dff897e69e7","326.18500001262873","","","","77","","","","key","16.660578947367245","640","289","","","","","","","","","","","","","","","","","","","",""
"psychophysics","223","379004","0.0-16.0-0.17","6043601ea410a630058cbe44","609006691f6f4e337c17f836","609d373e9c442dff897e69e7","null","","","","null","","","","key","16.651864406780017","640","289","","","","","","","","","","","","","","","","","","","",""
"psychophysics","224","379516","0.0-16.0-1.17","6043601ea410a630058cbe44","609006691f6f4e337c17f836","609d373e9c442dff897e69e7","null","","","","null","","","","key","16.648366666666696","640","289","","","","","","","","","","","","","138","1","0","false","","","",""
"psychophysics","225","379882","0.0-16.0-2.17","6043601ea410a630058cbe44","609006691f6f4e337c17f836","609d373e9c442dff897e69e7","361.9649999891408","","","","77","","","","key","16.667476190475835","640","289","","","","","","","","","","","","","","","","","","","",""
"psychophysics","226","380886","0.0-16.0-0.18","6043601ea410a630058cbe44","609006691f6f4e337c17f836","609d373e9c442dff897e69e7","null","","","","null","","","","key","16.658610169491652","640","289","","","","","","","","","","","","","","","","","","","",""
"psychophysics","227","381402","0.0-16.0-1.18","6043601ea410a630058cbe44","609006691f6f4e337c17f836","609d373e9c442dff897e69e7","null","","","","null","","","","key","16.653166666665737","640","289","","","","","","","","","","","","","138","-1","3","false","","","",""
"psychophysics","228","381813","0.0-16.0-2.18","6043601ea410a630058cbe44","609006691f6f4e337c17f836","609d373e9c442dff897e69e7","405.1000000035856","","","","77","","","","key","16.65166666666725","640","289","","","","","","","","","","","","","","","","","","","",""
"psychophysics","229","382818","0.0-16.0-0.19","6043601ea410a630058cbe44","609006691f6f4e337c17f836","609d373e9c442dff897e69e7","null","","","","null","","","","key","16.655627118644574","640","289","","","","","","","","","","","","","","","","","","","",""
"psychophysics","230","383335","0.0-16.0-1.19","6043601ea410a630058cbe44","609006691f6f4e337c17f836","609d373e9c442dff897e69e7","null","","","","null","","","","key","16.65439999999944","640","289","","","","","","","","","","","","","138","-1","5","false","","","",""
"psychophysics","231","383708","0.0-16.0-2.19","6043601ea410a630058cbe44","609006691f6f4e337c17f836","609d373e9c442dff897e69e7","366.97499998263083","","","","77","","","","key","16.65413636363651","640","289","","","","","","","","","","","","","","","","","","","",""
"psychophysics","232","384717","0.0-16.0-0.20","6043601ea410a630058cbe44","609006691f6f4e337c17f836","609d373e9c442dff897e69e7","null","","","","null","","","","key","16.656220338983122","640","289","","","","","","","","","","","","","","","","","","","",""
"psychophysics","233","385223","0.0-16.0-1.20","6043601ea410a630058cbe44","609006691f6f4e337c17f836","609d373e9c442dff897e69e7","null","","","","null","","","","key","16.655799999999967","640","289","","","","","","","","","","","","","138","-1","4","false","","","",""
"psychophysics","234","385753","0.0-16.0-2.20","6043601ea410a630058cbe44","609006691f6f4e337c17f836","609d373e9c442dff897e69e7","526.6399999964051","","","","77","","","","key","16.65135483870906","640","289","","","","","","","","","","","","","","","","","","","",""
"psychophysics","235","386758","0.0-16.0-0.21","6043601ea410a630058cbe44","609006691f6f4e337c17f836","609d373e9c442dff897e69e7","null","","","","null","","","","key","16.653898305084034","640","289","","","","","","","","","","","","","","","","","","","",""
"psychophysics","236","387265","0.0-16.0-1.21","6043601ea410a630058cbe44","609006691f6f4e337c17f836","609d373e9c442dff897e69e7","null","","","","null","","","","key","16.653655172413984","640","289","","","","","","","","","","","","","138","1","5","false","","","",""
"psychophysics","237","387757","0.0-16.0-2.21","6043601ea410a630058cbe44","609006691f6f4e337c17f836","609d373e9c442dff897e69e7","487.20499998307787","","","","77","","","","key","16.648517241378332","640","289","","","","","","","","","","","","","","","","","","","",""
"psychophysics","238","388760","0.0-16.0-0.22","6043601ea410a630058cbe44","609006691f6f4e337c17f836","609d373e9c442dff897e69e7","null","","","","null","","","","key","16.65345762711871","640","289","","","","","","","","","","","","","","","","","","","",""
"psychophysics","239","389263","0.0-16.0-1.22","6043601ea410a630058cbe44","609006691f6f4e337c17f836","609d373e9c442dff897e69e7","null","","","","null","","","","key","16.657551724138543","640","289","","","","","","","","","","","","","138","1","2","false","","","",""
"psychophysics","240","389742","0.0-16.0-2.22","6043601ea410a630058cbe44","609006691f6f4e337c17f836","609d373e9c442dff897e69e7","474.4899999932386","","","","90","","","","key","16.64782142857231","640","289","","","","","","","","","","","","","","","","","","","",""
"psychophysics","241","390745","0.0-16.0-0.23","6043601ea410a630058cbe44","609006691f6f4e337c17f836","609d373e9c442dff897e69e7","null","","","","null","","","","key","16.656406779661065","640","289","","","","","","","","","","","","","","","","","","","",""
"psychophysics","242","391254","0.0-16.0-1.23","6043601ea410a630058cbe44","609006691f6f4e337c17f836","609d373e9c442dff897e69e7","null","","","","null","","","","key","16.654666666667133","640","289","","","","","","","","","","","","","138","-1","2","false","","","",""
"psychophysics","243","391618","0.0-16.0-2.23","6043601ea410a630058cbe44","609006691f6f4e337c17f836","609d373e9c442dff897e69e7","361.44000000786036","","","","77","","","","key","16.650047619048216","640","289","","","","","","","","","","","","","","","","","","","",""
"html-keyboard-response","244","394467","0.0-17.0","6043601ea410a630058cbe44","609006691f6f4e337c17f836","609d373e9c442dff897e69e7","2839.7300000069663","<p>Well Done !</p><p>Training Complete. Press the spacebar to start.</p><p>DON'T EXIT THE FULL SCREEN MODE</p>","","","32","","","","","","","","","","","","","","","","","","","","","","","","","","",""
"psychophysics","245","397471","0.0-18.0-0.0","6043601ea410a630058cbe44","609006691f6f4e337c17f836","609d373e9c442dff897e69e7","null","","","","null","","","","key","16.65577966101681","640","289","","","","","","","","","","","","","","","","","","","",""
"psychophysics","246","397974","0.0-18.0-1.0","6043601ea410a630058cbe44","609006691f6f4e337c17f836","609d373e9c442dff897e69e7","null","","","","null","","","","key","16.657600000000095","640","289","","","","","","","","","","","","","138","1","0","true","","","",""
"psychophysics","247","398193","0.0-18.0-2.0","6043601ea410a630058cbe44","609006691f6f4e337c17f836","609d373e9c442dff897e69e7","215.25999999721535","","","","77","","","","key","16.65449999999934","640","289","","","","","","","","","","","","","","","","","","","",""
"psychophysics","248","399194","0.0-18.0-0.1","6043601ea410a630058cbe44","609006691f6f4e337c17f836","609d373e9c442dff897e69e7","null","","","","null","","","","key","16.67949152542416","640","289","","","","","","","","","","","","","","","","","","","",""
"psychophysics","249","399710","0.0-18.0-1.1","6043601ea410a630058cbe44","609006691f6f4e337c17f836","609d373e9c442dff897e69e7","null","","","","null","","","","key","16.659310344827425","640","289","","","","","","","","","","","","","138","-1","5","true","","","",""
"psychophysics","250","399923","0.0-18.0-2.1","6043601ea410a630058cbe44","609006691f6f4e337c17f836","609d373e9c442dff897e69e7","209.5899999840185","","","","77","","","","key","16.663153846152664","640","289","","","","","","","","","","","","","","","","","","","",""
"psychophysics","251","400925","0.0-18.0-0.2","6043601ea410a630058cbe44","609006691f6f4e337c17f836","609d373e9c442dff897e69e7","null","","","","null","","","","key","16.65527118644105","640","289","","","","","","","","","","","","","","","","","","","",""
"psychophysics","252","401428","0.0-18.0-1.2","6043601ea410a630058cbe44","609006691f6f4e337c17f836","609d373e9c442dff897e69e7","null","","","","null","","","","key","16.65010344827596","640","289","","","","","","","","","","","","","138","1","3","true","","","",""
"psychophysics","253","401869","0.0-18.0-2.2","6043601ea410a630058cbe44","609006691f6f4e337c17f836","609d373e9c442dff897e69e7","438.04499998805113","","","","77","","","","key","16.65472000000067","640","289","","","","","","","","","","","","","","","","","","","",""
"psychophysics","254","402886","0.0-18.0-0.3","6043601ea410a630058cbe44","609006691f6f4e337c17f836","609d373e9c442dff897e69e7","null","","","","null","","","","key","16.65706666666665","640","289","","","","","","","","","","","","","","","","","","","",""
"psychophysics","255","403387","0.0-18.0-1.3","6043601ea410a630058cbe44","609006691f6f4e337c17f836","609d373e9c442dff897e69e7","null","","","","null","","","","key","16.659033333333596","640","289","","","","","","","","","","","","","138","-1","4","true","","","",""
"psychophysics","256","403874","0.0-18.0-2.3","6043601ea410a630058cbe44","609006691f6f4e337c17f836","609d373e9c442dff897e69e7","483.0599999986589","","","","77","","","","key","16.656464285716147","640","289","","","","","","","","","","","","","","","","","","","",""
"psychophysics","257","404885","0.0-18.0-0.4","6043601ea410a630058cbe44","609006691f6f4e337c17f836","609d373e9c442dff897e69e7","null","","","","null","","","","key","16.654813559321386","640","289","","","","","","","","","","","","","","","","","","","",""
"psychophysics","258","405399","0.0-18.0-1.4","6043601ea410a630058cbe44","609006691f6f4e337c17f836","609d373e9c442dff897e69e7","null","","","","null","","","","key","16.651166666667752","640","289","","","","","","","","","","","","","138","-1","6","true","","","",""
"psychophysics","259","405649","0.0-18.0-2.4","6043601ea410a630058cbe44","609006691f6f4e337c17f836","609d373e9c442dff897e69e7","244.58500000764616","","","","77","","","","key","16.655428571426974","640","289","","","","","","","","","","","","","","","","","","","",""
"psychophysics","260","406651","0.0-18.0-0.5","6043601ea410a630058cbe44","609006691f6f4e337c17f836","609d373e9c442dff897e69e7","null","","","","null","","","","key","16.65762711864387","640","289","","","","","","","","","","","","","","","","","","","",""
"psychophysics","261","407157","0.0-18.0-1.5","6043601ea410a630058cbe44","609006691f6f4e337c17f836","609d373e9c442dff897e69e7","null","","","","null","","","","key","16.648300000000745","640","289","","","","","","","","","","","","","138","-1","0","true","","","",""
"psychophysics","262","407568","0.0-18.0-2.5","6043601ea410a630058cbe44","609006691f6f4e337c17f836","609d373e9c442dff897e69e7","408.3749999990687","","","","77","","","","key","16.650666666668258","640","289","","","","","","","","","","","","","","","","","","","",""
"psychophysics","263","408578","0.0-18.0-0.6","6043601ea410a630058cbe44","609006691f6f4e337c17f836","609d373e9c442dff897e69e7","null","","","","null","","","","key","16.653694915253734","640","289","","","","","","","","","","","","","","","","","","","",""
"psychophysics","264","409082","0.0-18.0-1.6","6043601ea410a630058cbe44","609006691f6f4e337c17f836","609d373e9c442dff897e69e7","null","","","","null","","","","key","16.660482758620017","640","289","","","","","","","","","","","","","138","1","5","true","","","",""
"psychophysics","265","409336","0.0-18.0-2.6","6043601ea410a630058cbe44","609006691f6f4e337c17f836","609d373e9c442dff897e69e7","246.48999999044463","","","","77","","","","key","16.6386000000018","640","289","","","","","","","","","","","","","","","","","","","",""
"psychophysics","266","410346","0.0-18.0-0.7","6043601ea410a630058cbe44","609006691f6f4e337c17f836","609d373e9c442dff897e69e7","null","","","","null","","","","key","16.654457627117864","640","289","","","","","","","","","","","","","","","","","","","",""
"psychophysics","267","410860","0.0-18.0-1.7","6043601ea410a630058cbe44","609006691f6f4e337c17f836","609d373e9c442dff897e69e7","null","","","","null","","","","key","16.655666666666125","640","289","","","","","","","","","","","","","138","1","2","true","","","",""
"psychophysics","268","411189","0.0-18.0-2.7","6043601ea410a630058cbe44","609006691f6f4e337c17f836","609d373e9c442dff897e69e7","326.37500000419095","","","","90","","","","key","16.660842105262226","640","289","","","","","","","","","","","","","","","","","","","",""
"psychophysics","269","412196","0.0-18.0-0.8","6043601ea410a630058cbe44","609006691f6f4e337c17f836","609d373e9c442dff897e69e7","null","","","","null","","","","key","16.656016949152818","640","289","","","","","","","","","","","","","","","","","","","",""
"psychophysics","270","412711","0.0-18.0-1.8","6043601ea410a630058cbe44","609006691f6f4e337c17f836","609d373e9c442dff897e69e7","null","","","","null","","","","key","16.648766666666294","640","289","","","","","","","","","","","","","138","-1","3","true","","","",""
"psychophysics","271","413060","0.0-18.0-2.8","6043601ea410a630058cbe44","609006691f6f4e337c17f836","609d373e9c442dff897e69e7","340.94500000355765","","","","77","","","","key","16.65425000000105","640","289","","","","","","","","","","","","","","","","","","","",""
"psychophysics","272","414064","0.0-18.0-0.9","6043601ea410a630058cbe44","609006691f6f4e337c17f836","609d373e9c442dff897e69e7","null","","","","null","","","","key","16.657483333333705","640","289","","","","","","","","","","","","","","","","","","","",""
"psychophysics","273","414573","0.0-18.0-1.9","6043601ea410a630058cbe44","609006691f6f4e337c17f836","609d373e9c442dff897e69e7","null","","","","null","","","","key","16.65424137931028","640","289","","","","","","","","","","","","","138","-1","2","true","","","",""
"psychophysics","274","414940","0.0-18.0-2.9","6043601ea410a630058cbe44","609006691f6f4e337c17f836","609d373e9c442dff897e69e7","364.079999999376","","","","77","","","","key","16.66099999999971","640","289","","","","","","","","","","","","","","","","","","","",""
"psychophysics","275","415944","0.0-18.0-0.10","6043601ea410a630058cbe44","609006691f6f4e337c17f836","609d373e9c442dff897e69e7","null","","","","null","","","","key","16.656745762712227","640","289","","","","","","","","","","","","","","","","","","","",""
"psychophysics","276","416470","0.0-18.0-1.10","6043601ea410a630058cbe44","609006691f6f4e337c17f836","609d373e9c442dff897e69e7","null","","","","null","","","","key","16.658290322578978","640","289","","","","","","","","","","","","","138","1","4","true","","","",""
"psychophysics","277","416805","0.0-18.0-2.10","6043601ea410a630058cbe44","609006691f6f4e337c17f836","609d373e9c442dff897e69e7","331.83499998995103","","","","77","","","","key","16.658684210527053","640","289","","","","","","","","","","","","","","","","","","","",""
"psychophysics","278","417809","0.0-18.0-0.11","6043601ea410a630058cbe44","609006691f6f4e337c17f836","609d373e9c442dff897e69e7","null","","","","null","","","","key","16.65608474576226","640","289","","","","","","","","","","","","","","","","","","","",""
"psychophysics","279","418323","0.0-18.0-1.11","6043601ea410a630058cbe44","609006691f6f4e337c17f836","609d373e9c442dff897e69e7","null","","","","null","","","","key","16.653800000000047","640","289","","","","","","","","","","","","","138","1","6","true","","","",""
"psychophysics","280","418713","0.0-18.0-2.11","6043601ea410a630058cbe44","609006691f6f4e337c17f836","609d373e9c442dff897e69e7","382.63999999617226","","","","77","","","","key","16.661739130433567","640","289","","","","","","","","","","","","","","","","","","","",""
"psychophysics","281","419724","0.0-18.0-0.12","6043601ea410a630058cbe44","609006691f6f4e337c17f836","609d373e9c442dff897e69e7","null","","","","null","","","","key","16.657033898305322","640","289","","","","","","","","","","","","","","","","","","","",""
"psychophysics","282","420237","0.0-18.0-1.12","6043601ea410a630058cbe44","609006691f6f4e337c17f836","609d373e9c442dff897e69e7","null","","","","null","","","","key","16.654899999999905","640","289","","","","","","","","","","","","","138","1","2","true","","","",""
"psychophysics","283","420627","0.0-18.0-2.12","6043601ea410a630058cbe44","609006691f6f4e337c17f836","609d373e9c442dff897e69e7","363.2950000173878","","","","77","","","","key","16.65517391304172","640","289","","","","","","","","","","","","","","","","","","","",""
"psychophysics","284","421636","0.0-18.0-0.13","6043601ea410a630058cbe44","609006691f6f4e337c17f836","609d373e9c442dff897e69e7","null","","","","null","","","","key","16.65701694915296","640","289","","","","","","","","","","","","","","","","","","","",""
"psychophysics","285","422147","0.0-18.0-1.13","6043601ea410a630058cbe44","609006691f6f4e337c17f836","609d373e9c442dff897e69e7","null","","","","null","","","","key","16.654666666667133","640","289","","","","","","","","","","","","","138","-1","6","true","","","",""
"psychophysics","286","422480","0.0-18.0-2.13","6043601ea410a630058cbe44","609006691f6f4e337c17f836","609d373e9c442dff897e69e7","329.67499998630956","","","","77","","","","key","16.652473684210378","640","289","","","","","","","","","","","","","","","","","","","",""
"psychophysics","287","423484","0.0-18.0-0.14","6043601ea410a630058cbe44","609006691f6f4e337c17f836","609d373e9c442dff897e69e7","null","","","","null","","","","key","16.65208474576268","640","289","","","","","","","","","","","","","","","","","","","",""
"psychophysics","288","423988","0.0-18.0-1.14","6043601ea410a630058cbe44","609006691f6f4e337c17f836","609d373e9c442dff897e69e7","null","","","","null","","","","key","16.66317241379373","640","289","","","","","","","","","","","","","138","-1","3","true","","","",""
"psychophysics","289","424350","0.0-18.0-2.14","6043601ea410a630058cbe44","609006691f6f4e337c17f836","609d373e9c442dff897e69e7","351.53499999432825","","","","77","","","","key","16.64690476190576","640","289","","","","","","","","","","","","","","","","","","","",""
"psychophysics","290","425354","0.0-18.0-0.15","6043601ea410a630058cbe44","609006691f6f4e337c17f836","609d373e9c442dff897e69e7","null","","","","null","","","","key","16.653915254237383","640","289","","","","","","","","","","","","","","","","","","","",""
"psychophysics","291","425887","0.0-18.0-1.15","6043601ea410a630058cbe44","609006691f6f4e337c17f836","609d373e9c442dff897e69e7","null","","","","null","","","","key","16.65719354838591","640","289","","","","","","","","","","","","","138","-1","0","true","","","",""
"psychophysics","292","426261","0.0-18.0-2.15","6043601ea410a630058cbe44","609006691f6f4e337c17f836","609d373e9c442dff897e69e7","368.0549999990035","","","","77","","","","key","16.65727272727368","640","289","","","","","","","","","","","","","","","","","","","",""
"psychophysics","293","427268","0.0-18.0-0.16","6043601ea410a630058cbe44","609006691f6f4e337c17f836","609d373e9c442dff897e69e7","null","","","","null","","","","key","16.65528813559341","640","289","","","","","","","","","","","","","","","","","","","",""
"psychophysics","294","427783","0.0-18.0-1.16","6043601ea410a630058cbe44","609006691f6f4e337c17f836","609d373e9c442dff897e69e7","null","","","","null","","","","key","16.655099999999706","640","289","","","","","","","","","","","","","138","1","3","true","","","",""
"psychophysics","295","428098","0.0-18.0-2.16","6043601ea410a630058cbe44","609006691f6f4e337c17f836","609d373e9c442dff897e69e7","308.0349999945611","","","","77","","","","key","16.65544444444499","640","289","","","","","","","","","","","","","","","","","","","",""
"psychophysics","296","429101","0.0-18.0-0.17","6043601ea410a630058cbe44","609006691f6f4e337c17f836","609d373e9c442dff897e69e7","null","","","","null","","","","key","16.65738983050786","640","289","","","","","","","","","","","","","","","","","","","",""
"psychophysics","297","429609","0.0-18.0-1.17","6043601ea410a630058cbe44","609006691f6f4e337c17f836","609d373e9c442dff897e69e7","null","","","","null","","","","key","16.653633333335165","640","289","","","","","","","","","","","","","138","1","4","true","","","",""
"psychophysics","298","429941","0.0-18.0-2.17","6043601ea410a630058cbe44","609006691f6f4e337c17f836","609d373e9c442dff897e69e7","328.09500000439584","","","","77","","","","key","16.65431578947219","640","289","","","","","","","","","","","","","","","","","","","",""
"psychophysics","299","430946","0.0-18.0-0.18","6043601ea410a630058cbe44","609006691f6f4e337c17f836","609d373e9c442dff897e69e7","null","","","","null","","","","key","16.655694915254017","640","289","","","","","","","","","","","","","","","","","","","",""
"psychophysics","300","431451","0.0-18.0-1.18","6043601ea410a630058cbe44","609006691f6f4e337c17f836","609d373e9c442dff897e69e7","null","","","","null","","","","key","16.65513333333462","640","289","","","","","","","","","","","","","138","-1","2","true","","","",""
"psychophysics","301","431756","0.0-18.0-2.18","6043601ea410a630058cbe44","609006691f6f4e337c17f836","609d373e9c442dff897e69e7","301.64499999955297","","","","77","","","","key","16.651000000002302","640","289","","","","","","","","","","","","","","","","","","","",""
"psychophysics","302","432765","0.0-18.0-0.19","6043601ea410a630058cbe44","609006691f6f4e337c17f836","609d373e9c442dff897e69e7","null","","","","null","","","","key","16.651644067797353","640","289","","","","","","","","","","","","","","","","","","","",""
"psychophysics","303","433271","0.0-18.0-1.19","6043601ea410a630058cbe44","609006691f6f4e337c17f836","609d373e9c442dff897e69e7","null","","","","null","","","","key","16.65213333333377","640","289","","","","","","","","","","","","","138","-1","5","true","","","",""
"psychophysics","304","433485","0.0-18.0-2.19","6043601ea410a630058cbe44","609006691f6f4e337c17f836","609d373e9c442dff897e69e7","211.44500002264977","","","","77","","","","key","16.65883333333477","640","289","","","","","","","","","","","","","","","","","","","",""
"psychophysics","305","434514","0.0-18.0-0.20","6043601ea410a630058cbe44","609006691f6f4e337c17f836","609d373e9c442dff897e69e7","null","","","","null","","","","key","16.655016666666295","640","289","","","","","","","","","","","","","","","","","","","",""
"psychophysics","306","435019","0.0-18.0-1.20","6043601ea410a630058cbe44","609006691f6f4e337c17f836","609d373e9c442dff897e69e7","null","","","","null","","","","key","16.65696666666772","640","289","","","","","","","","","","","","","138","1","0","true","","","",""
"psychophysics","307","435321","0.0-18.0-2.20","6043601ea410a630058cbe44","609006691f6f4e337c17f836","609d373e9c442dff897e69e7","297.95999999623746","","","","77","","","","key","16.656705882352338","640","289","","","","","","","","","","","","","","","","","","","",""
"psychophysics","308","436328","0.0-18.0-0.21","6043601ea410a630058cbe44","609006691f6f4e337c17f836","609d373e9c442dff897e69e7","null","","","","null","","","","key","16.655169491525896","640","289","","","","","","","","","","","","","","","","","","","",""
"psychophysics","309","436843","0.0-18.0-1.21","6043601ea410a630058cbe44","609006691f6f4e337c17f836","609d373e9c442dff897e69e7","null","","","","null","","","","key","16.658666666666978","640","289","","","","","","","","","","","","","138","1","6","true","","","",""
"psychophysics","310","437111","0.0-18.0-2.21","6043601ea410a630058cbe44","609006691f6f4e337c17f836","609d373e9c442dff897e69e7","261.8100000254344","","","","77","","","","key","16.65240000000146","640","289","","","","","","","","","","","","","","","","","","","",""
"psychophysics","311","438118","0.0-18.0-0.22","6043601ea410a630058cbe44","609006691f6f4e337c17f836","609d373e9c442dff897e69e7","null","","","","null","","","","key","16.654600000000208","640","289","","","","","","","","","","","","","","","","","","","",""
"psychophysics","312","438628","0.0-18.0-1.22","6043601ea410a630058cbe44","609006691f6f4e337c17f836","609d373e9c442dff897e69e7","null","","","","null","","","","key","16.654724137931822","640","289","","","","","","","","","","","","","138","1","5","true","","","",""
"psychophysics","313","438898","0.0-18.0-2.22","6043601ea410a630058cbe44","609006691f6f4e337c17f836","609d373e9c442dff897e69e7","259.91500000236556","","","","77","","","","key","16.64787499999875","640","289","","","","","","","","","","","","","","","","","","","",""
"psychophysics","314","439910","0.0-18.0-0.23","6043601ea410a630058cbe44","609006691f6f4e337c17f836","609d373e9c442dff897e69e7","null","","","","null","","","","key","16.65462711864443","640","289","","","","","","","","","","","","","","","","","","","",""
"psychophysics","315","440427","0.0-18.0-1.23","6043601ea410a630058cbe44","609006691f6f4e337c17f836","609d373e9c442dff897e69e7","null","","","","null","","","","key","16.654933333332885","640","289","","","","","","","","","","","","","138","-1","4","true","","","",""
"psychophysics","316","440947","0.0-18.0-2.23","6043601ea410a630058cbe44","609006691f6f4e337c17f836","609d373e9c442dff897e69e7","513.6399999901187","","","","77","","","","key","16.650516129031235","640","289","","","","","","","","","","","","","","","","","","","",""
"psychophysics","317","441956","0.0-18.0-0.24","6043601ea410a630058cbe44","609006691f6f4e337c17f836","609d373e9c442dff897e69e7","null","","","","null","","","","key","16.653423728813987","640","289","","","","","","","","","","","","","","","","","","","",""
"psychophysics","318","442460","0.0-18.0-1.24","6043601ea410a630058cbe44","609006691f6f4e337c17f836","609d373e9c442dff897e69e7","null","","","","null","","","","key","16.660500000000077","640","289","","","","","","","","","","","","","138","-1","6","true","","","",""
"psychophysics","319","442831","0.0-18.0-2.24","6043601ea410a630058cbe44","609006691f6f4e337c17f836","609d373e9c442dff897e69e7","367.69000001368113","","","","77","","","","key","16.65566666666529","640","289","","","","","","","","","","","","","","","","","","","",""
"psychophysics","320","443840","0.0-18.0-0.25","6043601ea410a630058cbe44","609006691f6f4e337c17f836","609d373e9c442dff897e69e7","null","","","","null","","","","key","16.65193220338946","640","289","","","","","","","","","","","","","","","","","","","",""
"psychophysics","321","444345","0.0-18.0-1.25","6043601ea410a630058cbe44","609006691f6f4e337c17f836","609d373e9c442dff897e69e7","null","","","","null","","","","key","16.655166666665657","640","289","","","","","","","","","","","","","138","1","3","true","","","",""
"psychophysics","322","444738","0.0-18.0-2.25","6043601ea410a630058cbe44","609006691f6f4e337c17f836","609d373e9c442dff897e69e7","389.56499999039806","","","","77","","","","key","16.65863636363594","640","289","","","","","","","","","","","","","","","","","","","",""
"psychophysics","323","445741","0.0-18.0-0.26","6043601ea410a630058cbe44","609006691f6f4e337c17f836","609d373e9c442dff897e69e7","null","","","","null","","","","key","16.65736666666635","640","289","","","","","","","","","","","","","","","","","","","",""
"psychophysics","324","446256","0.0-18.0-1.26","6043601ea410a630058cbe44","609006691f6f4e337c17f836","609d373e9c442dff897e69e7","null","","","","null","","","","key","16.65906896551766","640","289","","","","","","","","","","","","","138","-1","2","true","","","",""
"psychophysics","325","446501","0.0-18.0-2.26","6043601ea410a630058cbe44","609006691f6f4e337c17f836","609d373e9c442dff897e69e7","237.38500001491047","","","","77","","","","key","16.644857142856512","640","289","","","","","","","","","","","","","","","","","","","",""
"psychophysics","326","447504","0.0-18.0-0.27","6043601ea410a630058cbe44","609006691f6f4e337c17f836","609d373e9c442dff897e69e7","null","","","","null","","","","key","16.655576271186504","640","289","","","","","","","","","","","","","","","","","","","",""
"psychophysics","327","448021","0.0-18.0-1.27","6043601ea410a630058cbe44","609006691f6f4e337c17f836","609d373e9c442dff897e69e7","null","","","","null","","","","key","16.66093333333459","640","289","","","","","","","","","","","","","138","-1","0","true","","","",""
"psychophysics","328","448347","0.0-18.0-2.27","6043601ea410a630058cbe44","609006691f6f4e337c17f836","609d373e9c442dff897e69e7","318.1500000064261","","","","77","","","","key","16.650684210526954","640","289","","","","","","","","","","","","","","","","","","","",""
"psychophysics","329","449353","0.0-18.0-0.28","6043601ea410a630058cbe44","609006691f6f4e337c17f836","609d373e9c442dff897e69e7","null","","","","null","","","","key","16.65589830508432","640","289","","","","","","","","","","","","","","","","","","","",""
"psychophysics","330","449860","0.0-18.0-1.28","6043601ea410a630058cbe44","609006691f6f4e337c17f836","609d373e9c442dff897e69e7","null","","","","null","","","","key","16.654033333334763","640","289","","","","","","","","","","","","","138","-1","4","true","","","",""
"psychophysics","331","450297","0.0-18.0-2.28","6043601ea410a630058cbe44","609006691f6f4e337c17f836","609d373e9c442dff897e69e7","434.2600000090897","","","","90","","","","key","16.65371999999974","640","289","","","","","","","","","","","","","","","","","","","",""
