"trial_type","trial_index","time_elapsed","internal_node_id","PROLIFIC_PID","STUDY_ID","SESSION_ID","rt","stimulus","button_pressed","success","key_press","responses","isData","view_history","response_type","avg_frame_time","center_x","center_y","isSC","stim_side","trial_luminance","step_size","nReversal","correct","prev_ans","isThreshold","SC_threshold","final_threshold","isLuminance","FF_luminance","luminance","stimSide","ISInt","isFF","question_order","isSPQ","isCAPS","isAQ"
"pavlovia","0","12","0.0-0.0","5d752c55b5b1e700015005d3","609006691f6f4e337c17f836","609d380475014d235f06eb47","","","","","","","","","","","","","","","","","","","","","","","","","","","","","","","",""
"html-button-response","1","306297","0.0-1.0","5d752c55b5b1e700015005d3","609006691f6f4e337c17f836","609d380475014d235f06eb47","306275.36499999766","<div style='background-color: white; width:60%; margin: auto; padding: 50px; text-align: justify; text-justify: inter-word; margin-bottom: 20px;'><h1 style='text-align: center;'>Consent Form</h1><p>Please read this consent form carefully before deciding whether you would like to participate in this study. You have to be 18 years old or older to participate to this study.</p><p style='text-decoration: underline;'>Participation is voluntary:</p><p>It is your choice whether or not to participate in this research. If you choose to participate, you may change your mind and leave the study at any time. Refusal to participate or stopping your participation will involve no penalty or loss of benefits to which you are otherwise entitled.</p><p style='text-decoration: underline;'>Purpose of the Study:</p><p>To understand the mechanisms underlying human perception.</p><p style='text-decoration: underline;'>What you will do in this study:</p><p>You will be presented with a series of visual images and then you will press buttons on the keyboard of your computer to respond to simple questions about the images (e.g. Were one or two images presented?). In addition, you will be asked to complete a questionnaire concerning your beliefs and everyday mental and perceptual experiences.'</p><p style='text-decoration: underline;'> Time Required:</p><p>The study will take 40 minutes to complete. </p><p style='text-decoration: underline;'>Risks:</p><p>There are no anticipated risks associated with participating in this study that are beyond those experienced in everyday life. </p><p style='text-decoration: underline;'>Benefits:</p><p>There are no benefits to you in participating in the study. However, this study may lead to a better understanding of how different kinds of visual information are used.</p><p style='text-decoration: underline;'>Compensation:</p><p>You will be paid US$6.6/hour. </p><p style='text-decoration: underline;'>Privacy and Confidentiality:</p><p>Your participation in this study will be anonymous. No personal information about your name or identity will be asked or recorded. This anonymous data will be stored for several years and may be used for a variety of research purposes. The overall results of the study may be published, or the data files may be shared with other researchers, but your identity will not be revealed in any way. The online services we are using for this study may temporarily store your data, but this data will be downloaded and then promptly deleted from those services.Your data will not be permanently associated with your name, IP address, or any other identifiable information (e.g., your information will only be connected to your payment, not to any of your responses), though they may be temporarily stored together before we download and separate them. Even so, no guarantee of internet survey security can be given because, although unlikely, transmissions can be intercepted and IP addresses can be identified. The anonymous data may be shared publicly (for example, in conjunction with a resulting academic publication).</p><p style='text-decoration: underline;'>Participation and Withdrawal:</p><p>Your participation in this study is completely voluntary. You may stop responding to the stimuli or stop answering questions if you so choose and without penalty by exiting the full screen mode, closing this tab of your browser or redirecting it to a different website.</p><p style='text-decoration: underline;'>Contact Info of the Researcher: </p><p>If you have questions about this study, or if you would like to talk to the research team, please contact David Melcher (david.melcher@nyu.edu, md5050@nyu.edu) at the Perception and Active Cognition Laboratory, New York University Abu Dhabi, Computational Research Building, Saadiyat Island, Abu Dhabi, UAE.This research has been reviewed by the New York University Abu Dhabi Institutional Review Board (NYUAD IRB). To contact about your rights in this research, for questions, suggestions, or complaints that are not addressed by the researchers, please email IRBnyuad@nyu.edu, or call the NYUAD IRB at +971 2 628 4313. </p></div>","0","","","","","","","","","","","","","","","","","","","","","","","","","","","","",""
"fullscreen","2","314852","0.0-2.0","5d752c55b5b1e700015005d3","609006691f6f4e337c17f836","609d380475014d235f06eb47","","","","true","","","","","","","","","","","","","","","","","","","","","","","","","","","",""
"html-keyboard-response","3","359959","0.0-3.0","5d752c55b5b1e700015005d3","609006691f6f4e337c17f836","609d380475014d235f06eb47","45100.579999998445","<p>Welcome !</p><p>READ CAREFULLY THE FOLLOWING INDICATIONS:</p><p>From this moment you have ~40 minutes to complete the experiment.</p><p>During the experiment you will be prompted to take several breaks. Each break should not last longer than 2-3 minutes.</p><p>Make sure that your computer is plugged in and it's not running on battery power, even if the battery is already fully charged.</p><p>Turn off your phone and music, make sure that you are in a quiet room and that you will not be distracted for the next hour.</p><p>Failure to comply with the instructions and indications provided during the experiment will most likely result in the rejection of your data.<p>Press the spacebar to start.</p>","","","32","","","","","","","","","","","","","","","","","","","","","","","","","","",""
"survey-html-form","4","371178","0.0-4.0","5d752c55b5b1e700015005d3","609006691f6f4e337c17f836","609d380475014d235f06eb47","11228.32500000007","","","","","{""age"":""36"",""sex"":""F""}","true","","","","","","","","","","","","","","","","","","","","","","","","",""
"instructions","5","441156","0.0-5.0","5d752c55b5b1e700015005d3","609006691f6f4e337c17f836","609d380475014d235f06eb47","69963.13500000176","","","","","","","[{""page_index"":0,""viewing_time"":41203.01500000275},{""page_index"":1,""viewing_time"":14863.91999999975},{""page_index"":2,""viewing_time"":13895.515000000189}]","","","","","","","","","","","","","","","","","","","","","","","",""
"psychophysics","6","443730","0.0-6.0-0.0","5d752c55b5b1e700015005d3","609006691f6f4e337c17f836","609d380475014d235f06eb47","1558.9949999994133","","","","39","","","","key","16.849677631578647","683","312.5","true","1","180","30","0","-1","","","","","","","","","","","","","",""
"psychophysics","7","445761","0.0-6.0-0.1","5d752c55b5b1e700015005d3","609006691f6f4e337c17f836","609d380475014d235f06eb47","1023.3549999975367","","","","37","","","","key","16.706495867768872","683","312.5","true","-1","180","30","0","-1","-1","","","","","","","","","","","","",""
"psychophysics","8","447812","0.0-6.0-0.2","5d752c55b5b1e700015005d3","609006691f6f4e337c17f836","609d380475014d235f06eb47","1049.2750000012456","","","","39","","","","key","16.706491803279008","683","312.5","true","1","150","30","0","-1","-1","","","","","","","","","","","","",""
"psychophysics","9","449332","0.0-6.0-0.3","5d752c55b5b1e700015005d3","609006691f6f4e337c17f836","609d380475014d235f06eb47","515.8750000009313","","","","39","","","","key","16.70656666666683","683","312.5","true","1","150","30","0","-1","-1","","","","","","","","","","","","",""
"psychophysics","10","452306","0.0-6.0-0.4","5d752c55b5b1e700015005d3","609006691f6f4e337c17f836","609d380475014d235f06eb47","1971.9249999980093","","","","37","","","","key","16.706570621469062","683","312.5","true","1","129","24","1","1","-1","","","","","","","","","","","","",""
"psychophysics","11","453745","0.0-6.0-0.5","5d752c55b5b1e700015005d3","609006691f6f4e337c17f836","609d380475014d235f06eb47","436.37500000116415","","","","39","","","","key","16.707294117647002","683","312.5","true","1","153","24","1","-1","1","","","","","","","","","","","","",""
"psychophysics","12","455299","0.0-6.0-0.6","5d752c55b5b1e700015005d3","609006691f6f4e337c17f836","609d380475014d235f06eb47","551.4100000000326","","","","37","","","","key","16.70583695652148","683","312.5","true","-1","153","19.2","2","-1","-1","","","","","","","","","","","","",""
"psychophysics","13","457473","0.0-6.0-0.7","5d752c55b5b1e700015005d3","609006691f6f4e337c17f836","609d380475014d235f06eb47","1157.8950000003097","","","","37","","","","key","16.706550387597044","683","312.5","true","-1","133.8","19.2","2","-1","-1","","","","","","","","","","","","",""
"psychophysics","14","459540","0.0-6.0-0.8","5d752c55b5b1e700015005d3","609006691f6f4e337c17f836","609d380475014d235f06eb47","1064.764999999199","","","","37","","","","key","16.706471544715512","683","312.5","true","-1","133.8","19.2","2","-1","-1","","","","","","","","","","","","",""
"psychophysics","15","461829","0.0-6.0-0.9","5d752c55b5b1e700015005d3","609006691f6f4e337c17f836","609d380475014d235f06eb47","1285.120000000461","","","","39","","","","key","16.706360294117665","683","312.5","true","-1","129","15.36","3","1","-1","","","","","","","","","","","","",""
"psychophysics","16","463251","0.0-6.0-0.10","5d752c55b5b1e700015005d3","609006691f6f4e337c17f836","609d380475014d235f06eb47","418.94499999762047","","","","37","","","","key","16.707130952381355","683","312.5","true","-1","144.36","15.36","3","-1","1","","","","","","","","","","","","",""
"psychophysics","17","464657","0.0-6.0-0.11","5d752c55b5b1e700015005d3","609006691f6f4e337c17f836","609d380475014d235f06eb47","403.23999999964144","","","","37","","","","key","16.706385542168732","683","312.5","true","-1","144.36","12.287999999999998","4","-1","-1","","","","","","","","","","","","",""
"psychophysics","18","466801","0.0-6.0-0.12","5d752c55b5b1e700015005d3","609006691f6f4e337c17f836","609d380475014d235f06eb47","1142.7999999977765","","","","39","","","","key","16.706472440944953","683","312.5","true","1","132.072","12.287999999999998","4","-1","-1","","","","","","","","","","","","",""
"psychophysics","19","468547","0.0-6.0-0.13","5d752c55b5b1e700015005d3","609006691f6f4e337c17f836","609d380475014d235f06eb47","743.1499999983935","","","","39","","","","key","16.706423076923013","683","312.5","true","1","132.072","12.287999999999998","4","-1","-1","","","","","","","","","","","","",""
"psychophysics","20","470305","0.0-6.0-0.14","5d752c55b5b1e700015005d3","609006691f6f4e337c17f836","609d380475014d235f06eb47","756.2999999973108","","","","37","","","","key","16.707134615384767","683","312.5","true","1","129","9.8304","5","1","-1","","","","","","","","","","","","",""
"psychophysics","21","472773","0.0-6.0-0.15","5d752c55b5b1e700015005d3","609006691f6f4e337c17f836","609d380475014d235f06eb47","1466.5150000000722","","","","37","","","","key","16.706013605442074","683","312.5","true","-1","138.8304","9.8304","5","-1","1","","","","","","","","","","","","",""
"psychophysics","22","474258","0.0-6.0-0.16","5d752c55b5b1e700015005d3","609006691f6f4e337c17f836","609d380475014d235f06eb47","482.7000000005355","","","","39","","","","key","16.706409090908974","683","312.5","true","1","138.8304","7.864319999999999","6","-1","-1","","","","","","","","","","","","",""
"psychophysics","23","476131","0.0-6.0-0.17","5d752c55b5b1e700015005d3","609006691f6f4e337c17f836","609d380475014d235f06eb47","870.0500000013853","","","","37","","","","key","16.70649549549525","683","312.5","true","-1","130.96608","7.864319999999999","6","-1","-1","","","","","","","","","","","","",""
"psychophysics","24","477750","0.0-6.0-0.18","5d752c55b5b1e700015005d3","609006691f6f4e337c17f836","609d380475014d235f06eb47","616.2399999994086","","","","37","","","","key","16.70622916666677","683","312.5","true","-1","130.96608","7.864319999999999","6","-1","-1","","","","","","","","","","","","",""
"psychophysics","25","479154","0.0-6.0-0.19","5d752c55b5b1e700015005d3","609006691f6f4e337c17f836","609d380475014d235f06eb47","401.11999999859836","","","","37","","","","key","16.70633734939746","683","312.5","true","1","129","6.291456","7","1","-1","","","","","","","","","","","","",""
"psychophysics","26","480528","0.0-6.0-0.20","5d752c55b5b1e700015005d3","609006691f6f4e337c17f836","609d380475014d235f06eb47","371.31000000226777","","","","39","","","","key","16.70669135802503","683","312.5","true","1","135.291456","6.291456","7","-1","1","","","","","","","","","","","","",""
"psychophysics","27","482100","0.0-6.0-0.21","5d752c55b5b1e700015005d3","609006691f6f4e337c17f836","609d380475014d235f06eb47","566.2200000006706","","","","39","","","","key","16.706075268816978","683","312.5","true","-1","135.291456","5.033164800000001","8","1","-1","","","","","","","","","","","","",""
"psychophysics","28","483444","0.0-6.0-0.22","5d752c55b5b1e700015005d3","609006691f6f4e337c17f836","609d380475014d235f06eb47","341.5850000019418","","","","37","","","","key","16.706468354430214","683","312.5","true","1","140.32462080000002","5.033164800000001","8","1","1","","","","","","","","","","","","",""
"psychophysics","29","484939","0.0-6.0-0.23","5d752c55b5b1e700015005d3","609006691f6f4e337c17f836","609d380475014d235f06eb47","492.50000000029104","","","","37","","","","key","16.706438202247433","683","312.5","true","-1","145.35778560000003","5.033164800000001","8","-1","1","","","","","","","","","","","","",""
"psychophysics","30","486276","0.0-6.0-0.24","5d752c55b5b1e700015005d3","609006691f6f4e337c17f836","609d380475014d235f06eb47","335.31999999831896","","","","37","","","","key","16.706392405063202","683","312.5","true","-1","145.35778560000003","4.0265318400000005","9","-1","-1","","","","","","","","","","","","",""
"psychophysics","31","487636","0.0-6.0-0.25","5d752c55b5b1e700015005d3","609006691f6f4e337c17f836","609d380475014d235f06eb47","357.95499999949243","","","","39","","","","key","16.70646249999991","683","312.5","true","1","141.33125376000004","4.0265318400000005","9","-1","-1","","","","","","","","","","","","",""
"psychophysics","32","489124","0.0-6.0-0.26","5d752c55b5b1e700015005d3","609006691f6f4e337c17f836","609d380475014d235f06eb47","485.9699999979348","","","","37","","","","key","16.706420454545217","683","312.5","true","-1","141.33125376000004","4.0265318400000005","9","-1","-1","","","","","","","","","","","","",""
"psychophysics","33","490585","0.0-6.0-0.27","5d752c55b5b1e700015005d3","609006691f6f4e337c17f836","609d380475014d235f06eb47","452.1199999980745","","","","39","","","","key","16.706356321838847","683","312.5","true","1","137.30472192000005","4.0265318400000005","9","-1","-1","","","","","","","","","","","","",""
"psychophysics","34","491990","0.0-6.0-0.28","5d752c55b5b1e700015005d3","609006691f6f4e337c17f836","609d380475014d235f06eb47","401.69500000053085","","","","39","","","","key","16.706361445783447","683","312.5","true","-1","137.30472192000005","3.2212254720000004","10","1","-1","","","","","","","","","","","","",""
"psychophysics","35","493316","0.0-6.0-0.29","5d752c55b5b1e700015005d3","609006691f6f4e337c17f836","609d380475014d235f06eb47","324.53499999979977","","","","37","","","","key","16.70633333333386","683","312.5","true","-1","140.52594739200003","3.2212254720000004","10","-1","1","","","","","","","","","","","","",""
"psychophysics","36","494404","0.0-6.0-0.30","5d752c55b5b1e700015005d3","609006691f6f4e337c17f836","609d380475014d235f06eb47","85.96499999833759","","","","39","","","","key","16.706406250000327","683","312.5","true","1","140.52594739200003","2.5769803776000004","11","-1","-1","","","","","","","","","","","","",""
"psychophysics","37","495515","0.0-6.0-0.31","5d752c55b5b1e700015005d3","609006691f6f4e337c17f836","609d380475014d235f06eb47","108.11000000103377","","","","39","","","","key","16.706454545454385","683","312.5","true","1","137.94896701440004","2.5769803776000004","11","-1","-1","","","","","","","","","","","","",""
"psychophysics","38","497302","0.0-6.0-0.32","5d752c55b5b1e700015005d3","609006691f6f4e337c17f836","609d380475014d235f06eb47","785.6700000010896","","","","37","","","","key","16.70642452830183","683","312.5","true","-1","137.94896701440004","2.5769803776000004","11","-1","-1","","","","","","","","","","","","",""
"psychophysics","39","499190","0.0-6.0-0.33","5d752c55b5b1e700015005d3","609006691f6f4e337c17f836","609d380475014d235f06eb47","885.7900000002701","","","","37","","","","key","16.706410714285862","683","312.5","true","-1","135.37198663680005","2.5769803776000004","11","-1","-1","","","","","","","","","","","","",""
"psychophysics","40","500758","0.0-6.0-0.34","5d752c55b5b1e700015005d3","609006691f6f4e337c17f836","609d380475014d235f06eb47","566.7749999993248","","","","39","","","","key","16.706419354838555","683","312.5","true","-1","135.37198663680005","2.0615843020800004","12","1","-1","","","","","","","","","","","","",""
"psychophysics","41","502452","0.0-6.0-0.35","5d752c55b5b1e700015005d3","609006691f6f4e337c17f836","609d380475014d235f06eb47","689.4150000007357","","","","39","","","","key","16.706139999999433","683","312.5","true","-1","137.43357093888005","2.0615843020800004","12","1","1","","","","","","","","","","","","",""
"psychophysics","42","503604","0.0-6.0-0.36","5d752c55b5b1e700015005d3","609006691f6f4e337c17f836","609d380475014d235f06eb47","150.05000000016298","","","","39","","","","key","16.705764705882757","683","312.5","true","1","139.49515524096006","2.0615843020800004","12","-1","1","","","","","","","","","","","","",""
"psychophysics","43","505060","0.0-6.0-0.37","5d752c55b5b1e700015005d3","609006691f6f4e337c17f836","609d380475014d235f06eb47","454.0649999980815","","","","37","","","","key","16.706220930232394","683","312.5","true","1","139.49515524096006","1.6492674416640005","13","1","-1","","","","","","","","","","","","",""
"psychophysics","44","506106","0.0-6.0-0.38","5d752c55b5b1e700015005d3","609006691f6f4e337c17f836","609d380475014d235f06eb47","44.6399999964633","","","","39","","","","key","16.706451612903038","683","312.5","true","1","141.14442268262405","1.6492674416640005","13","-1","1","","","","","","","","","","","","",""
"psychophysics","45","507141","0.0-6.0-0.39","5d752c55b5b1e700015005d3","609006691f6f4e337c17f836","609d380475014d235f06eb47","31.989999999466818","","","","39","","","","key","16.706442622950714","683","312.5","true","1","141.14442268262405","1.3194139533312006","14","-1","-1","","","","","","","","","","","","",""
"html-keyboard-response","46","531716","0.0-7.0","5d752c55b5b1e700015005d3","609006691f6f4e337c17f836","609d380475014d235f06eb47","24574.34500000096","<p>Well Done !</p><p>Prepare for a new block.</p><p>DON'T EXIT THE FULL SCREEN MODE</p><p>Press the Spacebar to start.</p>","","","32","","","","","","","","","","","","","","","true","138.91189868216324","","","","","","","","","","",""
"psychophysics","47","532837","0.0-8.0-0.0","5d752c55b5b1e700015005d3","609006691f6f4e337c17f836","609d380475014d235f06eb47","115.29000000155065","","","","37","","","","key","16.92384848484741","683","312.5","true","-1","180","30","0","-1","","","","","","","","","","","","","",""
"psychophysics","48","533843","0.0-8.0-0.1","5d752c55b5b1e700015005d3","609006691f6f4e337c17f836","609d380475014d235f06eb47","4.30999999656342","","","","37","","","","key","16.70486440678064","683","312.5","true","-1","180","30","0","-1","-1","","","","","","","","","","","","",""
"psychophysics","49","534979","0.0-8.0-0.2","5d752c55b5b1e700015005d3","609006691f6f4e337c17f836","609d380475014d235f06eb47","134.43999999796506","","","","39","","","","key","16.70637313432908","683","312.5","true","1","150","30","0","-1","-1","","","","","","","","","","","","",""
"psychophysics","50","536760","0.0-8.0-0.3","5d752c55b5b1e700015005d3","609006691f6f4e337c17f836","609d380475014d235f06eb47","779.5399999995716","","","","39","","","","key","16.706433962263993","683","312.5","true","1","150","30","0","-1","-1","","","","","","","","","","","","",""
"psychophysics","51","538339","0.0-8.0-0.4","5d752c55b5b1e700015005d3","609006691f6f4e337c17f836","609d380475014d235f06eb47","576.7750000013039","","","","37","","","","key","16.70636559139827","683","312.5","true","-1","129","30","0","-1","-1","","","","","","","","","","","","",""
"psychophysics","52","540211","0.0-8.0-0.5","5d752c55b5b1e700015005d3","609006691f6f4e337c17f836","609d380475014d235f06eb47","870.1900000014575","","","","37","","","","key","16.70636036036104","683","312.5","true","1","129","24","1","1","-1","","","","","","","","","","","","",""
"psychophysics","53","541625","0.0-8.0-0.6","5d752c55b5b1e700015005d3","609006691f6f4e337c17f836","609d380475014d235f06eb47","411.73499999789055","","","","39","","","","key","16.70660714285692","683","312.5","true","1","153","24","1","-1","1","","","","","","","","","","","","",""
"psychophysics","54","543013","0.0-8.0-0.7","5d752c55b5b1e700015005d3","609006691f6f4e337c17f836","609d380475014d235f06eb47","384.9849999968428","","","","39","","","","key","16.707390243901656","683","312.5","true","1","153","19.2","2","-1","-1","","","","","","","","","","","","",""
"psychophysics","55","544982","0.0-8.0-0.8","5d752c55b5b1e700015005d3","609006691f6f4e337c17f836","609d380475014d235f06eb47","966.5900000000838","","","","39","","","","key","16.7058888888892","683","312.5","true","-1","133.8","15.36","3","1","-1","","","","","","","","","","","","",""
"psychophysics","56","546388","0.0-8.0-0.9","5d752c55b5b1e700015005d3","609006691f6f4e337c17f836","609d380475014d235f06eb47","402.9450000015786","","","","39","","","","key","16.706445783132644","683","312.5","true","1","149.16000000000003","15.36","3","-1","1","","","","","","","","","","","","",""
"psychophysics","57","547796","0.0-8.0-0.10","5d752c55b5b1e700015005d3","609006691f6f4e337c17f836","609d380475014d235f06eb47","405.7650000031572","","","","39","","","","key","16.706469879517925","683","312.5","true","1","149.16000000000003","12.287999999999998","4","-1","-1","","","","","","","","","","","","",""
"psychophysics","58","549477","0.0-8.0-0.11","5d752c55b5b1e700015005d3","609006691f6f4e337c17f836","609d380475014d235f06eb47","679.2550000027986","","","","37","","","","key","16.705870000000576","683","312.5","true","-1","136.872","12.287999999999998","4","-1","-1","","","","","","","","","","","","",""
"psychophysics","59","551397","0.0-8.0-0.12","5d752c55b5b1e700015005d3","609006691f6f4e337c17f836","609d380475014d235f06eb47","917.3900000023423","","","","37","","","","key","16.706421052631637","683","312.5","true","-1","136.872","12.287999999999998","4","-1","-1","","","","","","","","","","","","",""
"psychophysics","60","553124","0.0-8.0-0.13","5d752c55b5b1e700015005d3","609006691f6f4e337c17f836","609d380475014d235f06eb47","723.8949999992037","","","","39","","","","key","16.70646078431381","683","312.5","true","-1","129","9.8304","5","1","-1","","","","","","","","","","","","",""
"psychophysics","61","554596","0.0-8.0-0.14","5d752c55b5b1e700015005d3","609006691f6f4e337c17f836","609d380475014d235f06eb47","469.3999999980442","","","","39","","","","key","16.706390804597767","683","312.5","true","1","138.8304","9.8304","5","-1","1","","","","","","","","","","","","",""
"psychophysics","62","556516","0.0-8.0-0.15","5d752c55b5b1e700015005d3","609006691f6f4e337c17f836","609d380475014d235f06eb47","918.2350000010338","","","","37","","","","key","16.706447368421337","683","312.5","true","1","138.8304","7.864319999999999","6","1","-1","","","","","","","","","","","","",""
"psychophysics","63","557972","0.0-8.0-0.16","5d752c55b5b1e700015005d3","609006691f6f4e337c17f836","609d380475014d235f06eb47","454.0750000013504","","","","39","","","","key","16.706476744185853","683","312.5","true","1","146.69472","7.864319999999999","6","-1","1","","","","","","","","","","","","",""
"psychophysics","64","559416","0.0-8.0-0.17","5d752c55b5b1e700015005d3","609006691f6f4e337c17f836","609d380475014d235f06eb47","442.5950000004377","","","","39","","","","key","16.70634883720845","683","312.5","true","1","146.69472","6.291456","7","-1","-1","","","","","","","","","","","","",""
"psychophysics","65","560804","0.0-8.0-0.18","5d752c55b5b1e700015005d3","609006691f6f4e337c17f836","609d380475014d235f06eb47","385.7400000015041","","","","37","","","","key","16.706792682926057","683","312.5","true","-1","140.40326399999998","6.291456","7","-1","-1","","","","","","","","","","","","",""
"psychophysics","66","562228","0.0-8.0-0.19","5d752c55b5b1e700015005d3","609006691f6f4e337c17f836","609d380475014d235f06eb47","421.72500000020955","","","","39","","","","key","16.706107142856734","683","312.5","true","1","140.40326399999998","6.291456","7","-1","-1","","","","","","","","","","","","",""
"psychophysics","67","563812","0.0-8.0-0.20","5d752c55b5b1e700015005d3","609006691f6f4e337c17f836","609d380475014d235f06eb47","582.26499999722","","","","37","","","","key","16.70645744680858","683","312.5","true","1","134.11180799999997","5.033164800000001","8","1","-1","","","","","","","","","","","","",""
"psychophysics","68","565220","0.0-8.0-0.21","5d752c55b5b1e700015005d3","609006691f6f4e337c17f836","609d380475014d235f06eb47","405.73000000219326","","","","39","","","","key","16.706349397591506","683","312.5","true","-1","139.14497279999998","5.033164800000001","8","1","1","","","","","","","","","","","","",""
"psychophysics","69","566583","0.0-8.0-0.22","5d752c55b5b1e700015005d3","609006691f6f4e337c17f836","609d380475014d235f06eb47","360.9200000028359","","","","37","","","","key","16.706444444443836","683","312.5","true","-1","144.17813759999999","5.033164800000001","8","-1","1","","","","","","","","","","","","",""
"psychophysics","70","567972","0.0-8.0-0.23","5d752c55b5b1e700015005d3","609006691f6f4e337c17f836","609d380475014d235f06eb47","384.6900000026217","","","","37","","","","key","16.706621951219148","683","312.5","true","-1","144.17813759999999","4.0265318400000005","9","-1","-1","","","","","","","","","","","","",""
"psychophysics","71","569364","0.0-8.0-0.24","5d752c55b5b1e700015005d3","609006691f6f4e337c17f836","609d380475014d235f06eb47","389.5799999991432","","","","37","","","","key","16.70647560975588","683","312.5","true","-1","140.15160576","4.0265318400000005","9","-1","-1","","","","","","","","","","","","",""
"psychophysics","72","570916","0.0-8.0-0.25","5d752c55b5b1e700015005d3","609006691f6f4e337c17f836","609d380475014d235f06eb47","549.4199999993434","","","","37","","","","key","16.7061086956528","683","312.5","true","-1","140.15160576","4.0265318400000005","9","-1","-1","","","","","","","","","","","","",""
"psychophysics","73","572500","0.0-8.0-0.26","5d752c55b5b1e700015005d3","609006691f6f4e337c17f836","609d380475014d235f06eb47","580.4950000019744","","","","39","","","","key","16.70641489361631","683","312.5","true","-1","136.12507392","3.2212254720000004","10","1","-1","","","","","","","","","","","","",""
"psychophysics","74","574069","0.0-8.0-0.27","5d752c55b5b1e700015005d3","609006691f6f4e337c17f836","609d380475014d235f06eb47","567.7150000010151","","","","39","","","","key","16.706645161290254","683","312.5","true","1","139.346299392","3.2212254720000004","10","-1","1","","","","","","","","","","","","",""
"psychophysics","75","575589","0.0-8.0-0.28","5d752c55b5b1e700015005d3","609006691f6f4e337c17f836","609d380475014d235f06eb47","517.9600000010105","","","","37","","","","key","16.707111111111267","683","312.5","true","-1","139.346299392","2.5769803776000004","11","-1","-1","","","","","","","","","","","","",""
"psychophysics","76","577208","0.0-8.0-0.29","5d752c55b5b1e700015005d3","609006691f6f4e337c17f836","609d380475014d235f06eb47","616.9800000024261","","","","39","","","","key","16.70642708333374","683","312.5","true","1","136.7693190144","2.5769803776000004","11","-1","-1","","","","","","","","","","","","",""
"psychophysics","77","578803","0.0-8.0-0.30","5d752c55b5b1e700015005d3","609006691f6f4e337c17f836","609d380475014d235f06eb47","591.4149999989895","","","","37","","","","key","16.70645744680858","683","312.5","true","1","136.7693190144","2.0615843020800004","12","1","-1","","","","","","","","","","","","",""
"psychophysics","78","580675","0.0-8.0-0.31","5d752c55b5b1e700015005d3","609006691f6f4e337c17f836","609d380475014d235f06eb47","869.9099999975879","","","","39","","","","key","16.70643243243234","683","312.5","true","1","138.83090331648","2.0615843020800004","12","-1","1","","","","","","","","","","","","",""
"psychophysics","79","582487","0.0-8.0-0.32","5d752c55b5b1e700015005d3","609006691f6f4e337c17f836","609d380475014d235f06eb47","809.8700000010431","","","","39","","","","key","16.706490740740534","683","312.5","true","-1","138.83090331648","1.6492674416640005","13","1","-1","","","","","","","","","","","","",""
"psychophysics","80","584116","0.0-8.0-0.33","5d752c55b5b1e700015005d3","609006691f6f4e337c17f836","609d380475014d235f06eb47","623.0050000012852","","","","37","","","","key","16.706270833333594","683","312.5","true","-1","140.480170758144","1.6492674416640005","13","-1","1","","","","","","","","","","","","",""
"psychophysics","81","585780","0.0-8.0-0.34","5d752c55b5b1e700015005d3","609006691f6f4e337c17f836","609d380475014d235f06eb47","662.4700000028824","","","","37","","","","key","16.706464646465257","683","312.5","true","-1","140.480170758144","1.3194139533312006","14","-1","-1","","","","","","","","","","","","",""
"psychophysics","82","587736","0.0-8.0-0.35","5d752c55b5b1e700015005d3","609006691f6f4e337c17f836","609d380475014d235f06eb47","952.8650000029011","","","","39","","","","key","16.706448275861852","683","312.5","true","1","139.1607568048128","1.3194139533312006","14","-1","-1","","","","","","","","","","","","",""
"psychophysics","83","589427","0.0-8.0-0.36","5d752c55b5b1e700015005d3","609006691f6f4e337c17f836","609d380475014d235f06eb47","689.9149999989895","","","","39","","","","key","16.706380000000355","683","312.5","true","1","139.1607568048128","1.3194139533312006","14","-1","-1","","","","","","","","","","","","",""
"psychophysics","84","591363","0.0-8.0-0.37","5d752c55b5b1e700015005d3","609006691f6f4e337c17f836","609d380475014d235f06eb47","934.3450000016019","","","","39","","","","key","16.70622608695665","683","312.5","true","-1","137.84134285148158","1.0555311626649604","15","1","-1","","","","","","","","","","","","",""
"psychophysics","85","592883","0.0-8.0-0.38","5d752c55b5b1e700015005d3","609006691f6f4e337c17f836","609d380475014d235f06eb47","518.099999997532","","","","37","","","","key","16.705244444443895","683","312.5","true","-1","138.89687401414653","1.0555311626649604","15","-1","1","","","","","","","","","","","","",""
"psychophysics","86","594371","0.0-8.0-0.39","5d752c55b5b1e700015005d3","609006691f6f4e337c17f836","609d380475014d235f06eb47","486.4049999996787","","","","39","","","","key","16.706579545454588","683","312.5","true","1","138.89687401414653","1","16","-1","-1","","","","","","","","","","","","",""
"html-keyboard-response","87","597732","0.0-9.0","5d752c55b5b1e700015005d3","609006691f6f4e337c17f836","609d380475014d235f06eb47","3359.1200000009267","<p>Well Done !</p><p>Prepare for a new block.</p><p>DON'T EXIT THE FULL SCREEN MODE</p><p>Press the Spacebar to start.</p>","","","32","","","","","","","","","","","","","","","true","138.73911127542988","","","","","","","","","","",""
"psychophysics","88","599203","0.0-10.0-0.0","5d752c55b5b1e700015005d3","609006691f6f4e337c17f836","609d380475014d235f06eb47","467.1699999999255","","","","37","","","","key","16.712659090909504","683","312.5","true","-1","180","30","0","-1","","","","","","","","","","","","","",""
"psychophysics","89","600691","0.0-10.0-0.1","5d752c55b5b1e700015005d3","609006691f6f4e337c17f836","609d380475014d235f06eb47","486.3549999973038","","","","37","","","","key","16.70622727272646","683","312.5","true","-1","180","30","0","-1","-1","","","","","","","","","","","","",""
"psychophysics","90","602118","0.0-10.0-0.2","5d752c55b5b1e700015005d3","609006691f6f4e337c17f836","609d380475014d235f06eb47","424.1699999984121","","","","37","","","","key","16.706141176470556","683","312.5","true","-1","150","30","0","-1","-1","","","","","","","","","","","","",""
"psychophysics","91","603557","0.0-10.0-0.3","5d752c55b5b1e700015005d3","609006691f6f4e337c17f836","609d380475014d235f06eb47","436.4500000011176","","","","37","","","","key","16.706482352940913","683","312.5","true","-1","150","30","0","-1","-1","","","","","","","","","","","","",""
"psychophysics","92","605211","0.0-10.0-0.4","5d752c55b5b1e700015005d3","609006691f6f4e337c17f836","609d380475014d235f06eb47","651.5550000004005","","","","39","","","","key","16.706357142857122","683","312.5","true","1","129","30","0","-1","-1","","","","","","","","","","","","",""
"psychophysics","93","606788","0.0-10.0-0.5","5d752c55b5b1e700015005d3","609006691f6f4e337c17f836","609d380475014d235f06eb47","574.4200000007404","","","","39","","","","key","16.706301075268676","683","312.5","true","-1","129","24","1","1","-1","","","","","","","","","","","","",""
"psychophysics","94","608292","0.0-10.0-0.6","5d752c55b5b1e700015005d3","609006691f6f4e337c17f836","609d380475014d235f06eb47","501.59999999951106","","","","39","","","","key","16.706325842696764","683","312.5","true","1","153","24","1","-1","1","","","","","","","","","","","","",""
"psychophysics","95","609796","0.0-10.0-0.7","5d752c55b5b1e700015005d3","609006691f6f4e337c17f836","609d380475014d235f06eb47","501.5349999993341","","","","37","","","","key","16.70624719101156","683","312.5","true","-1","153","19.2","2","-1","-1","","","","","","","","","","","","",""
"psychophysics","96","611493","0.0-10.0-0.8","5d752c55b5b1e700015005d3","609006691f6f4e337c17f836","609d380475014d235f06eb47","694.8349999984493","","","","39","","","","key","16.706504950494654","683","312.5","true","1","133.8","19.2","2","-1","-1","","","","","","","","","","","","",""
"psychophysics","97","613112","0.0-10.0-0.9","5d752c55b5b1e700015005d3","609006691f6f4e337c17f836","609d380475014d235f06eb47","616.6249999987194","","","","37","","","","key","16.706531250000506","683","312.5","true","-1","133.8","19.2","2","-1","-1","","","","","","","","","","","","",""
"psychophysics","98","614632","0.0-10.0-0.10","5d752c55b5b1e700015005d3","609006691f6f4e337c17f836","609d380475014d235f06eb47","516.410000000149","","","","39","","","","key","16.706377777776733","683","312.5","true","-1","129","15.36","3","1","-1","","","","","","","","","","","","",""
"psychophysics","99","616088","0.0-10.0-0.11","5d752c55b5b1e700015005d3","609006691f6f4e337c17f836","609d380475014d235f06eb47","452.9550000006566","","","","39","","","","key","16.706465116278324","683","312.5","true","1","144.36","15.36","3","-1","1","","","","","","","","","","","","",""
"psychophysics","100","617476","0.0-10.0-0.12","5d752c55b5b1e700015005d3","609006691f6f4e337c17f836","609d380475014d235f06eb47","386.05500000261236","","","","39","","","","key","16.91264197530863","683","312.5","true","1","144.36","12.287999999999998","4","-1","-1","","","","","","","","","","","","",""
"psychophysics","101","619060","0.0-10.0-0.13","5d752c55b5b1e700015005d3","609006691f6f4e337c17f836","609d380475014d235f06eb47","582.5399999994552","","","","37","","","","key","16.706478723404096","683","312.5","true","1","132.072","9.8304","5","1","-1","","","","","","","","","","","","",""
"psychophysics","102","620436","0.0-10.0-0.14","5d752c55b5b1e700015005d3","609006691f6f4e337c17f836","609d380475014d235f06eb47","373.1950000000652","","","","39","","","","key","16.70649382716079","683","312.5","true","1","141.9024","9.8304","5","-1","1","","","","","","","","","","","","",""
"psychophysics","103","621865","0.0-10.0-0.15","5d752c55b5b1e700015005d3","609006691f6f4e337c17f836","609d380475014d235f06eb47","426.9850000018487","","","","37","","","","key","16.706282352941003","683","312.5","true","-1","141.9024","7.864319999999999","6","-1","-1","","","","","","","","","","","","",""
"psychophysics","104","623336","0.0-10.0-0.16","5d752c55b5b1e700015005d3","609006691f6f4e337c17f836","609d380475014d235f06eb47","469.1500000007218","","","","39","","","","key","16.707126436781824","683","312.5","true","1","134.03808","7.864319999999999","6","-1","-1","","","","","","","","","","","","",""
"psychophysics","105","624790","0.0-10.0-0.17","5d752c55b5b1e700015005d3","609006691f6f4e337c17f836","609d380475014d235f06eb47","450.55000000132713","","","","37","","","","key","16.707093023256462","683","312.5","true","-1","134.03808","7.864319999999999","6","-1","-1","","","","","","","","","","","","",""
"psychophysics","106","626344","0.0-10.0-0.18","5d752c55b5b1e700015005d3","609006691f6f4e337c17f836","609d380475014d235f06eb47","551.7199999995064","","","","39","","","","key","16.706478260868767","683","312.5","true","1","129","7.864319999999999","6","-1","-1","","","","","","","","","","","","",""
"psychophysics","107","627813","0.0-10.0-0.19","5d752c55b5b1e700015005d3","609006691f6f4e337c17f836","609d380475014d235f06eb47","466.44000000017695","","","","37","","","","key","16.705839080459054","683","312.5","true","-1","129","7.864319999999999","6","-1","-1","","","","","","","","","","","","",""
"psychophysics","108","629367","0.0-10.0-0.20","5d752c55b5b1e700015005d3","609006691f6f4e337c17f836","609d380475014d235f06eb47","552.4050000022398","","","","39","","","","key","16.70611956521727","683","312.5","true","-1","129","6.291456","7","1","-1","","","","","","","","","","","","",""
"psychophysics","109","630805","0.0-10.0-0.21","5d752c55b5b1e700015005d3","609006691f6f4e337c17f836","609d380475014d235f06eb47","435.3000000009779","","","","37","","","","key","16.70620000000002","683","312.5","true","-1","135.291456","6.291456","7","-1","1","","","","","","","","","","","","",""
"psychophysics","110","632276","0.0-10.0-0.22","5d752c55b5b1e700015005d3","609006691f6f4e337c17f836","609d380475014d235f06eb47","468.8349999997299","","","","39","","","","key","16.706367816092264","683","312.5","true","1","135.291456","5.033164800000001","8","-1","-1","","","","","","","","","","","","",""
"psychophysics","111","634116","0.0-10.0-0.23","5d752c55b5b1e700015005d3","609006691f6f4e337c17f836","609d380475014d235f06eb47","838.5450000023702","","","","37","","","","key","16.706284403669596","683","312.5","true","1","130.2582912","4.0265318400000005","9","1","-1","","","","","","","","","","","","",""
"psychophysics","112","635684","0.0-10.0-0.24","5d752c55b5b1e700015005d3","609006691f6f4e337c17f836","609d380475014d235f06eb47","566.2200000006706","","","","39","","","","key","16.70658064516191","683","312.5","true","1","134.28482304","4.0265318400000005","9","-1","1","","","","","","","","","","","","",""
"psychophysics","113","637396","0.0-10.0-0.25","5d752c55b5b1e700015005d3","609006691f6f4e337c17f836","609d380475014d235f06eb47","709.6700000001583","","","","37","","","","key","16.70635643564303","683","312.5","true","-1","134.28482304","3.2212254720000004","10","-1","-1","","","","","","","","","","","","",""
"psychophysics","114","639284","0.0-10.0-0.26","5d752c55b5b1e700015005d3","609006691f6f4e337c17f836","609d380475014d235f06eb47","885.135000000475","","","","39","","","","key","16.706383928571345","683","312.5","true","1","131.06359756799998","3.2212254720000004","10","-1","-1","","","","","","","","","","","","",""
"psychophysics","115","641128","0.0-10.0-0.27","5d752c55b5b1e700015005d3","609006691f6f4e337c17f836","609d380475014d235f06eb47","836.6600000008475","","","","37","","","","key","16.70639999999919","683","312.5","true","1","131.06359756799998","2.5769803776000004","11","1","-1","","","","","","","","","","","","",""
"psychophysics","116","643491","0.0-10.0-0.28","5d752c55b5b1e700015005d3","609006691f6f4e337c17f836","609d380475014d235f06eb47","1360.6949999993667","","","","39","","","","key","16.706378571428026","683","312.5","true","-1","133.64057794559997","2.5769803776000004","11","1","1","","","","","","","","","","","","",""
"psychophysics","117","645476","0.0-10.0-0.29","5d752c55b5b1e700015005d3","609006691f6f4e337c17f836","609d380475014d235f06eb47","981.5000000017462","","","","37","","","","key","16.70715254237303","683","312.5","true","-1","136.21755832319997","2.5769803776000004","11","-1","1","","","","","","","","","","","","",""
"psychophysics","118","647445","0.0-10.0-0.30","5d752c55b5b1e700015005d3","609006691f6f4e337c17f836","609d380475014d235f06eb47","966.7650000009453","","","","39","","","","key","16.70616239316276","683","312.5","true","-1","136.21755832319997","2.0615843020800004","12","1","-1","","","","","","","","","","","","",""
"psychophysics","119","649555","0.0-10.0-0.31","5d752c55b5b1e700015005d3","609006691f6f4e337c17f836","609d380475014d235f06eb47","1108.5450000027195","","","","37","","","","key","16.70643200000003","683","312.5","true","1","138.27914262527997","2.0615843020800004","12","1","1","","","","","","","","","","","","",""
"psychophysics","120","651588","0.0-10.0-0.32","5d752c55b5b1e700015005d3","609006691f6f4e337c17f836","609d380475014d235f06eb47","1031.4849999995204","","","","39","","","","key","16.70643801652934","683","312.5","true","-1","140.34072692735998","2.0615843020800004","12","1","1","","","","","","","","","","","","",""
"psychophysics","121","653108","0.0-10.0-0.33","5d752c55b5b1e700015005d3","609006691f6f4e337c17f836","609d380475014d235f06eb47","517.8650000016205","","","","37","","","","key","16.705146067416077","683","312.5","true","-1","142.40231122944","2.0615843020800004","12","-1","1","","","","","","","","","","","","",""
"psychophysics","122","654516","0.0-10.0-0.34","5d752c55b5b1e700015005d3","609006691f6f4e337c17f836","609d380475014d235f06eb47","405.29500000050757","","","","39","","","","key","16.70434523809568","683","312.5","true","1","142.40231122944","1.6492674416640005","13","-1","-1","","","","","","","","","","","","",""
"psychophysics","123","655972","0.0-10.0-0.35","5d752c55b5b1e700015005d3","609006691f6f4e337c17f836","609d380475014d235f06eb47","454.3499999999767","","","","39","","","","key","16.70558139534808","683","312.5","true","1","140.753043787776","1.6492674416640005","13","-1","-1","","","","","","","","","","","","",""
"psychophysics","124","657444","0.0-10.0-0.36","5d752c55b5b1e700015005d3","609006691f6f4e337c17f836","609d380475014d235f06eb47","470.389999998617","","","","39","","","","key","16.706873563218636","683","312.5","true","1","140.753043787776","1.6492674416640005","13","-1","-1","","","","","","","","","","","","",""
"psychophysics","125","658948","0.0-10.0-0.37","5d752c55b5b1e700015005d3","609006691f6f4e337c17f836","609d380475014d235f06eb47","501.5500000009779","","","","37","","","","key","16.706224719101687","683","312.5","true","-1","139.103776346112","1.6492674416640005","13","-1","-1","","","","","","","","","","","","",""
"psychophysics","126","660435","0.0-10.0-0.38","5d752c55b5b1e700015005d3","609006691f6f4e337c17f836","609d380475014d235f06eb47","480.12499999813735","","","","39","","","","key","16.707340909091396","683","312.5","true","1","139.103776346112","1.6492674416640005","13","-1","-1","","","","","","","","","","","","",""
"psychophysics","127","661896","0.0-10.0-0.39","5d752c55b5b1e700015005d3","609006691f6f4e337c17f836","609d380475014d235f06eb47","453.9050000021234","","","","39","","","","key","16.707494252872515","683","312.5","true","1","137.454508904448","1.6492674416640005","13","-1","-1","","","","","","","","","","","","",""
"html-keyboard-response","128","665460","0.0-11.0","5d752c55b5b1e700015005d3","609006691f6f4e337c17f836","609d380475014d235f06eb47","3561.795000001439","<p>Well Done !</p><p>Prepare for a new block.</p><p>DON'T EXIT THE FULL SCREEN MODE</p><p>Press the Spacebar to start.</p>","","","32","","","","","","","","","","","","","","","true","137.53869026344958","","","","","","","","","","",""
"psychophysics","129","666874","0.0-12.0-0.0","5d752c55b5b1e700015005d3","609006691f6f4e337c17f836","609d380475014d235f06eb47","409.6350000000093","","","","37","","","","key","16.683141176471047","683","312.5","true","-1","180","30","0","-1","","","","","","","","","","","","","",""
"psychophysics","130","668261","0.0-12.0-0.1","5d752c55b5b1e700015005d3","609006691f6f4e337c17f836","609d380475014d235f06eb47","384.5449999971315","","","","37","","","","key","16.70623170731663","683","312.5","true","-1","180","30","0","-1","-1","","","","","","","","","","","","",""
"psychophysics","131","669620","0.0-12.0-0.2","5d752c55b5b1e700015005d3","609006691f6f4e337c17f836","609d380475014d235f06eb47","356.5600000001723","","","","37","","","","key","16.70646249999991","683","312.5","true","-1","150","30","0","-1","-1","","","","","","","","","","","","",""
"psychophysics","132","670885","0.0-12.0-0.3","5d752c55b5b1e700015005d3","609006691f6f4e337c17f836","609d380475014d235f06eb47","263.12999999930616","","","","39","","","","key","16.706333333334577","683","312.5","true","1","150","30","0","-1","-1","","","","","","","","","","","","",""
"psychophysics","133","672643","0.0-12.0-0.4","5d752c55b5b1e700015005d3","609006691f6f4e337c17f836","609d380475014d235f06eb47","757.1050000005635","","","","37","","","","key","16.706749999999793","683","312.5","true","1","129","24","1","1","-1","","","","","","","","","","","","",""
"psychophysics","134","673957","0.0-12.0-0.5","5d752c55b5b1e700015005d3","609006691f6f4e337c17f836","609d380475014d235f06eb47","311.46499999880325","","","","39","","","","key","16.70606410256378","683","312.5","true","1","153","24","1","-1","1","","","","","","","","","","","","",""
"psychophysics","135","675347","0.0-12.0-0.6","5d752c55b5b1e700015005d3","609006691f6f4e337c17f836","609d380475014d235f06eb47","387.21999999682885","","","","39","","","","key","16.70645121951224","683","312.5","true","1","153","19.2","2","-1","-1","","","","","","","","","","","","",""
"psychophysics","136","677155","0.0-12.0-0.7","5d752c55b5b1e700015005d3","609006691f6f4e337c17f836","609d380475014d235f06eb47","805.9099999991013","","","","37","","","","key","16.70649532710254","683","312.5","true","1","133.8","15.36","3","1","-1","","","","","","","","","","","","",""
"psychophysics","137","678584","0.0-12.0-0.8","5d752c55b5b1e700015005d3","609006691f6f4e337c17f836","609d380475014d235f06eb47","426.8850000008242","","","","39","","","","key","16.706458823529402","683","312.5","true","1","149.16000000000003","15.36","3","-1","1","","","","","","","","","","","","",""
"psychophysics","138","680007","0.0-12.0-0.9","5d752c55b5b1e700015005d3","609006691f6f4e337c17f836","609d380475014d235f06eb47","420.3699999998789","","","","39","","","","key","16.70640476190463","683","312.5","true","1","149.16000000000003","12.287999999999998","4","-1","-1","","","","","","","","","","","","",""
"psychophysics","139","681683","0.0-12.0-0.10","5d752c55b5b1e700015005d3","609006691f6f4e337c17f836","609d380475014d235f06eb47","674.0949999984587","","","","37","","","","key","16.706373737373557","683","312.5","true","-1","136.872","12.287999999999998","4","-1","-1","","","","","","","","","","","","",""
"psychophysics","140","683187","0.0-12.0-0.11","5d752c55b5b1e700015005d3","609006691f6f4e337c17f836","609d380475014d235f06eb47","501.7699999988545","","","","39","","","","key","16.70693258426984","683","312.5","true","1","136.872","12.287999999999998","4","-1","-1","","","","","","","","","","","","",""
"psychophysics","141","684707","0.0-12.0-0.12","5d752c55b5b1e700015005d3","609006691f6f4e337c17f836","609d380475014d235f06eb47","517.4299999999348","","","","37","","","","key","16.70545555555598","683","312.5","true","-1","129","12.287999999999998","4","-1","-1","","","","","","","","","","","","",""
"psychophysics","142","686227","0.0-12.0-0.13","5d752c55b5b1e700015005d3","609006691f6f4e337c17f836","609d380475014d235f06eb47","518.4249999984168","","","","39","","","","key","16.705099999999057","683","312.5","true","1","129","12.287999999999998","4","-1","-1","","","","","","","","","","","","",""
"psychophysics","143","687940","0.0-12.0-0.14","5d752c55b5b1e700015005d3","609006691f6f4e337c17f836","609d380475014d235f06eb47","710.9949999975506","","","","37","","","","key","16.706421568627952","683","312.5","true","1","129","9.8304","5","1","-1","","","","","","","","","","","","",""
"psychophysics","144","689527","0.0-12.0-0.15","5d752c55b5b1e700015005d3","609006691f6f4e337c17f836","609d380475014d235f06eb47","583.2349999982398","","","","37","","","","key","16.70543617021263","683","312.5","true","-1","138.8304","9.8304","5","-1","1","","","","","","","","","","","","",""
"psychophysics","145","690966","0.0-12.0-0.16","5d752c55b5b1e700015005d3","609006691f6f4e337c17f836","609d380475014d235f06eb47","434.6750000003958","","","","39","","","","key","16.70682352941127","683","312.5","true","1","138.8304","7.864319999999999","6","-1","-1","","","","","","","","","","","","",""
"psychophysics","146","692419","0.0-12.0-0.17","5d752c55b5b1e700015005d3","609006691f6f4e337c17f836","609d380475014d235f06eb47","451.0899999985704","","","","37","","","","key","16.706116279068695","683","312.5","true","1","130.96608","6.291456","7","1","-1","","","","","","","","","","","","",""
"psychophysics","147","693875","0.0-12.0-0.18","5d752c55b5b1e700015005d3","609006691f6f4e337c17f836","609d380475014d235f06eb47","453.9250000016764","","","","39","","","","key","16.707034883721526","683","312.5","true","1","137.25753600000002","6.291456","7","-1","1","","","","","","","","","","","","",""
"psychophysics","148","695524","0.0-12.0-0.19","5d752c55b5b1e700015005d3","609006691f6f4e337c17f836","609d380475014d235f06eb47","647.1999999993714","","","","37","","","","key","16.707030612244793","683","312.5","true","-1","137.25753600000002","5.033164800000001","8","-1","-1","","","","","","","","","","","","",""
"psychophysics","149","697429","0.0-12.0-0.20","5d752c55b5b1e700015005d3","609006691f6f4e337c17f836","609d380475014d235f06eb47","900.8700000012759","","","","37","","","","key","16.70709734513276","683","312.5","true","1","132.2243712","4.0265318400000005","9","1","-1","","","","","","","","","","","","",""
"psychophysics","150","699019","0.0-12.0-0.21","5d752c55b5b1e700015005d3","609006691f6f4e337c17f836","609d380475014d235f06eb47","584.8649999970803","","","","39","","","","key","16.706680851063364","683","312.5","true","1","136.25090304","4.0265318400000005","9","-1","1","","","","","","","","","","","","",""
"psychophysics","151","700772","0.0-12.0-0.22","5d752c55b5b1e700015005d3","609006691f6f4e337c17f836","609d380475014d235f06eb47","751.9099999991013","","","","39","","","","key","16.70730769230823","683","312.5","true","-1","136.25090304","3.2212254720000004","10","1","-1","","","","","","","","","","","","",""
"psychophysics","152","702548","0.0-12.0-0.23","5d752c55b5b1e700015005d3","609006691f6f4e337c17f836","609d380475014d235f06eb47","773.3100000005215","","","","37","","","","key","16.706371428571376","683","312.5","true","-1","139.47212851199998","3.2212254720000004","10","-1","1","","","","","","","","","","","","",""
"psychophysics","153","704083","0.0-12.0-0.24","5d752c55b5b1e700015005d3","609006691f6f4e337c17f836","609d380475014d235f06eb47","533.81499999878","","","","39","","","","key","16.705956043955705","683","312.5","true","-1","139.47212851199998","2.5769803776000004","11","1","-1","","","","","","","","","","","","",""
"psychophysics","154","705507","0.0-12.0-0.25","5d752c55b5b1e700015005d3","609006691f6f4e337c17f836","609d380475014d235f06eb47","421.3649999983609","","","","37","","","","key","16.7060238095236","683","312.5","true","-1","142.04910888959998","2.5769803776000004","11","-1","1","","","","","","","","","","","","",""
"psychophysics","155","706918","0.0-12.0-0.26","5d752c55b5b1e700015005d3","609006691f6f4e337c17f836","609d380475014d235f06eb47","409.75500000058673","","","","37","","","","key","16.706904761904816","683","312.5","true","-1","142.04910888959998","2.0615843020800004","12","-1","-1","","","","","","","","","","","","",""
"psychophysics","156","708579","0.0-12.0-0.27","5d752c55b5b1e700015005d3","609006691f6f4e337c17f836","609d380475014d235f06eb47","658.7649999965215","","","","37","","","","key","16.70627551020375","683","312.5","true","1","139.98752458751997","1.6492674416640005","13","1","-1","","","","","","","","","","","","",""
"psychophysics","157","710179","0.0-12.0-0.28","5d752c55b5b1e700015005d3","609006691f6f4e337c17f836","609d380475014d235f06eb47","597.0600000000559","","","","37","","","","key","16.706452631579076","683","312.5","true","-1","141.63679202918397","1.6492674416640005","13","-1","1","","","","","","","","","","","","",""
"psychophysics","158","711635","0.0-12.0-0.29","5d752c55b5b1e700015005d3","609006691f6f4e337c17f836","609d380475014d235f06eb47","454.0400000005029","","","","39","","","","key","16.70648837209203","683","312.5","true","1","141.63679202918397","1.3194139533312006","14","-1","-1","","","","","","","","","","","","",""
"psychophysics","159","713092","0.0-12.0-0.30","5d752c55b5b1e700015005d3","609006691f6f4e337c17f836","609d380475014d235f06eb47","454.68999999866355","","","","37","","","","key","16.707093023256462","683","312.5","true","-1","140.31737807585276","1.3194139533312006","14","-1","-1","","","","","","","","","","","","",""
"psychophysics","160","714503","0.0-12.0-0.31","5d752c55b5b1e700015005d3","609006691f6f4e337c17f836","609d380475014d235f06eb47","409.1699999989942","","","","39","","","","key","16.706488095237763","683","312.5","true","1","140.31737807585276","1.3194139533312006","14","-1","-1","","","","","","","","","","","","",""
"psychophysics","161","716115","0.0-12.0-0.32","5d752c55b5b1e700015005d3","609006691f6f4e337c17f836","609d380475014d235f06eb47","610.1649999981746","","","","37","","","","key","16.706821052632048","683","312.5","true","-1","138.99796412252155","1.3194139533312006","14","-1","-1","","","","","","","","","","","","",""
"psychophysics","162","717796","0.0-12.0-0.33","5d752c55b5b1e700015005d3","609006691f6f4e337c17f836","609d380475014d235f06eb47","678.9150000003865","","","","37","","","","key","16.707240000000457","683","312.5","true","-1","138.99796412252155","1.3194139533312006","14","-1","-1","","","","","","","","","","","","",""
"psychophysics","163","719384","0.0-12.0-0.34","5d752c55b5b1e700015005d3","609006691f6f4e337c17f836","609d380475014d235f06eb47","585.3249999999534","","","","39","","","","key","16.7062021276599","683","312.5","true","1","137.67855016919034","1.3194139533312006","14","-1","-1","","","","","","","","","","","","",""
"psychophysics","164","721107","0.0-12.0-0.35","5d752c55b5b1e700015005d3","609006691f6f4e337c17f836","609d380475014d235f06eb47","721.864999999525","","","","37","","","","key","16.706039215685735","683","312.5","true","1","137.67855016919034","1.0555311626649604","15","1","-1","","","","","","","","","","","","",""
"psychophysics","165","722580","0.0-12.0-0.36","5d752c55b5b1e700015005d3","609006691f6f4e337c17f836","609d380475014d235f06eb47","469.87499999883585","","","","37","","","","key","16.707149425287323","683","312.5","true","-1","138.7340813318553","1.0555311626649604","15","-1","1","","","","","","","","","","","","",""
"psychophysics","166","724280","0.0-12.0-0.37","5d752c55b5b1e700015005d3","609006691f6f4e337c17f836","609d380475014d235f06eb47","697.024999997695","","","","37","","","","key","16.70564356435662","683","312.5","true","-1","138.7340813318553","1","16","-1","-1","","","","","","","","","","","","",""
"psychophysics","167","725892","0.0-12.0-0.38","5d752c55b5b1e700015005d3","609006691f6f4e337c17f836","609d380475014d235f06eb47","610.2399999982445","","","","39","","","","key","16.7068421052634","683","312.5","true","-1","137.7340813318553","1","17","1","-1","","","","","","","","","","","","",""
"psychophysics","168","727656","0.0-12.0-0.39","5d752c55b5b1e700015005d3","609006691f6f4e337c17f836","609d380475014d235f06eb47","761.470000001369","","","","37","","","","key","16.706619047619668","683","312.5","true","-1","138.7340813318553","1","17","-1","1","","","","","","","","","","","","",""
"html-keyboard-response","169","731396","0.0-13.0","5d752c55b5b1e700015005d3","609006691f6f4e337c17f836","609d380475014d235f06eb47","3738.900000000256","<p>Well Done !</p><p>Prepare for a new block.</p><p>DON'T EXIT THE FULL SCREEN MODE</p><p>Press the Spacebar to start.</p>","","","32","","","","","","","","","","","","","","","true","139.68556243250924","","","","","","","","","","",""
"html-keyboard-response","170","731504","0.0-14.0","5d752c55b5b1e700015005d3","609006691f6f4e337c17f836","609d380475014d235f06eb47","null","","","","null","","","","","","","","","","","","","","","","","138.718815663388","true","149.437631326776","","","","","","","",""
"instructions","171","785146","0.0-15.0","5d752c55b5b1e700015005d3","609006691f6f4e337c17f836","609d380475014d235f06eb47","53651.8699999979","","","","","","","[{""page_index"":0,""viewing_time"":42811.62499999849},{""page_index"":1,""viewing_time"":4671.809999999823},{""page_index"":2,""viewing_time"":6167.805000000866}]","","","","","","","","","","","","","","","","","","","","","","","",""
"psychophysics","172","788150","0.0-16.0-0.0","5d752c55b5b1e700015005d3","609006691f6f4e337c17f836","609d380475014d235f06eb47","null","","","","null","","","","key","16.710600000000948","683","312.5","","","","","","","","","","","","","","","","","","","",""
"psychophysics","173","788653","0.0-16.0-1.0","5d752c55b5b1e700015005d3","609006691f6f4e337c17f836","609d380475014d235f06eb47","null","","","","null","","","","key","16.706344827584086","683","312.5","","","","","","","","","","","","","149","-1","0","false","","","",""
"psychophysics","174","790647","0.0-16.0-2.0","5d752c55b5b1e700015005d3","609006691f6f4e337c17f836","609d380475014d235f06eb47","1989.854999999865","","","","90","","","","key","16.706330508474156","683","312.5","","","","","","","","","","","","","","","","","","","",""
"psychophysics","175","791648","0.0-16.0-0.1","5d752c55b5b1e700015005d3","609006691f6f4e337c17f836","609d380475014d235f06eb47","null","","","","null","","","","key","16.70679661016951","683","312.5","","","","","","","","","","","","","","","","","","","",""
"psychophysics","176","792150","0.0-16.0-1.1","5d752c55b5b1e700015005d3","609006691f6f4e337c17f836","609d380475014d235f06eb47","null","","","","null","","","","key","16.7063448275881","683","312.5","","","","","","","","","","","","","149","-1","5","false","","","",""
"psychophysics","177","793497","0.0-16.0-2.1","5d752c55b5b1e700015005d3","609006691f6f4e337c17f836","609d380475014d235f06eb47","1344.8349999999627","","","","90","","","","key","16.70657499999943","683","312.5","","","","","","","","","","","","","","","","","","","",""
"psychophysics","178","794499","0.0-16.0-0.2","5d752c55b5b1e700015005d3","609006691f6f4e337c17f836","609d380475014d235f06eb47","null","","","","null","","","","key","16.706457627118343","683","312.5","","","","","","","","","","","","","","","","","","","",""
"psychophysics","179","795002","0.0-16.0-1.2","5d752c55b5b1e700015005d3","609006691f6f4e337c17f836","609d380475014d235f06eb47","null","","","","null","","","","key","16.706448275860847","683","312.5","","","","","","","","","","","","","149","1","6","false","","","",""
"psychophysics","180","796156","0.0-16.0-2.2","5d752c55b5b1e700015005d3","609006691f6f4e337c17f836","609d380475014d235f06eb47","1150.7799999999115","","","","90","","","","key","16.70645588235279","683","312.5","","","","","","","","","","","","","","","","","","","",""
"psychophysics","181","797157","0.0-16.0-0.3","5d752c55b5b1e700015005d3","609006691f6f4e337c17f836","609d380475014d235f06eb47","null","","","","null","","","","key","16.706813559322853","683","312.5","","","","","","","","","","","","","","","","","","","",""
"psychophysics","182","797673","0.0-16.0-1.3","5d752c55b5b1e700015005d3","609006691f6f4e337c17f836","609d380475014d235f06eb47","null","","","","null","","","","key","16.708500000000154","683","312.5","","","","","","","","","","","","","149","-1","3","false","","","",""
"psychophysics","183","798793","0.0-16.0-2.3","5d752c55b5b1e700015005d3","609006691f6f4e337c17f836","609d380475014d235f06eb47","1117.210000000312","","","","90","","","","key","16.70613636363608","683","312.5","","","","","","","","","","","","","","","","","","","",""
"psychophysics","184","799795","0.0-16.0-0.4","5d752c55b5b1e700015005d3","609006691f6f4e337c17f836","609d380475014d235f06eb47","null","","","","null","","","","key","16.706508474576413","683","312.5","","","","","","","","","","","","","","","","","","","",""
"psychophysics","185","800298","0.0-16.0-1.4","5d752c55b5b1e700015005d3","609006691f6f4e337c17f836","609d380475014d235f06eb47","null","","","","null","","","","key","16.694724137930937","683","312.5","","","","","","","","","","","","","149","-1","4","false","","","",""
"psychophysics","186","801223","0.0-16.0-2.4","5d752c55b5b1e700015005d3","609006691f6f4e337c17f836","609d380475014d235f06eb47","922.8150000018068","","","","77","","","","key","16.703425925925668","683","312.5","","","","","","","","","","","","","","","","","","","",""
"psychophysics","187","802226","0.0-16.0-0.5","5d752c55b5b1e700015005d3","609006691f6f4e337c17f836","609d380475014d235f06eb47","null","","","","null","","","","key","16.706677966101996","683","312.5","","","","","","","","","","","","","","","","","","","",""
"psychophysics","188","802728","0.0-16.0-1.5","5d752c55b5b1e700015005d3","609006691f6f4e337c17f836","609d380475014d235f06eb47","null","","","","null","","","","key","16.707137931033905","683","312.5","","","","","","","","","","","","","149","1","2","false","","","",""
"psychophysics","189","803591","0.0-16.0-2.5","5d752c55b5b1e700015005d3","609006691f6f4e337c17f836","609d380475014d235f06eb47","854.0000000029104","","","","90","","","","key","16.70725490195978","683","312.5","","","","","","","","","","","","","","","","","","","",""
"psychophysics","190","804593","0.0-16.0-0.6","5d752c55b5b1e700015005d3","609006691f6f4e337c17f836","609d380475014d235f06eb47","null","","","","null","","","","key","16.70647457627169","683","312.5","","","","","","","","","","","","","","","","","","","",""
"psychophysics","191","805095","0.0-16.0-1.6","5d752c55b5b1e700015005d3","609006691f6f4e337c17f836","609d380475014d235f06eb47","null","","","","null","","","","key","16.70644827586486","683","312.5","","","","","","","","","","","","","149","-1","2","false","","","",""
"psychophysics","192","805671","0.0-16.0-2.6","5d752c55b5b1e700015005d3","609006691f6f4e337c17f836","609d380475014d235f06eb47","574.1999999990221","","","","90","","","","key","16.7065454545452","683","312.5","","","","","","","","","","","","","","","","","","","",""
"psychophysics","193","806677","0.0-16.0-0.7","5d752c55b5b1e700015005d3","609006691f6f4e337c17f836","609d380475014d235f06eb47","null","","","","null","","","","key","16.706483333334713","683","312.5","","","","","","","","","","","","","","","","","","","",""
"psychophysics","194","807181","0.0-16.0-1.7","5d752c55b5b1e700015005d3","609006691f6f4e337c17f836","609d380475014d235f06eb47","null","","","","null","","","","key","16.70644827586486","683","312.5","","","","","","","","","","","","","149","1","4","false","","","",""
"psychophysics","195","807867","0.0-16.0-2.7","5d752c55b5b1e700015005d3","609006691f6f4e337c17f836","609d380475014d235f06eb47","682.6049999982351","","","","77","","","","key","16.70627499999828","683","312.5","","","","","","","","","","","","","","","","","","","",""
"psychophysics","196","808869","0.0-16.0-0.8","5d752c55b5b1e700015005d3","609006691f6f4e337c17f836","609d380475014d235f06eb47","null","","","","null","","","","key","16.70649152542504","683","312.5","","","","","","","","","","","","","","","","","","","",""
"psychophysics","197","809371","0.0-16.0-1.8","5d752c55b5b1e700015005d3","609006691f6f4e337c17f836","609d380475014d235f06eb47","null","","","","null","","","","key","16.70620689655108","683","312.5","","","","","","","","","","","","","149","1","0","false","","","",""
"psychophysics","198","810039","0.0-16.0-2.8","5d752c55b5b1e700015005d3","609006691f6f4e337c17f836","609d380475014d235f06eb47","665.9749999998603","","","","90","","","","key","16.706179487178677","683","312.5","","","","","","","","","","","","","","","","","","","",""
"psychophysics","199","811041","0.0-16.0-0.9","5d752c55b5b1e700015005d3","609006691f6f4e337c17f836","609d380475014d235f06eb47","null","","","","null","","","","key","16.70669491525534","683","312.5","","","","","","","","","","","","","","","","","","","",""
"psychophysics","200","811543","0.0-16.0-1.9","5d752c55b5b1e700015005d3","609006691f6f4e337c17f836","609d380475014d235f06eb47","null","","","","null","","","","key","16.70651724137735","683","312.5","","","","","","","","","","","","","149","1","3","false","","","",""
"psychophysics","201","812183","0.0-16.0-2.9","5d752c55b5b1e700015005d3","609006691f6f4e337c17f836","609d380475014d235f06eb47","637.650000000489","","","","90","","","","key","16.70594594594582","683","312.5","","","","","","","","","","","","","","","","","","","",""
"psychophysics","202","813184","0.0-16.0-0.10","5d752c55b5b1e700015005d3","609006691f6f4e337c17f836","609d380475014d235f06eb47","null","","","","null","","","","key","16.705830508474087","683","312.5","","","","","","","","","","","","","","","","","","","",""
"psychophysics","203","813686","0.0-16.0-1.10","5d752c55b5b1e700015005d3","609006691f6f4e337c17f836","609d380475014d235f06eb47","null","","","","null","","","","key","16.706793103447378","683","312.5","","","","","","","","","","","","","149","-1","6","false","","","",""
"psychophysics","204","814183","0.0-16.0-2.10","5d752c55b5b1e700015005d3","609006691f6f4e337c17f836","609d380475014d235f06eb47","494.3550000025425","","","","77","","","","key","16.706275862067585","683","312.5","","","","","","","","","","","","","","","","","","","",""
"psychophysics","205","815184","0.0-16.0-0.11","5d752c55b5b1e700015005d3","609006691f6f4e337c17f836","609d380475014d235f06eb47","null","","","","null","","","","key","16.70571186440855","683","312.5","","","","","","","","","","","","","","","","","","","",""
"psychophysics","206","815686","0.0-16.0-1.11","5d752c55b5b1e700015005d3","609006691f6f4e337c17f836","609d380475014d235f06eb47","null","","","","null","","","","key","16.706482758621107","683","312.5","","","","","","","","","","","","","149","1","5","false","","","",""
"psychophysics","207","816375","0.0-16.0-2.11","5d752c55b5b1e700015005d3","609006691f6f4e337c17f836","609d380475014d235f06eb47","686.4099999984028","","","","77","","","","key","16.706224999998813","683","312.5","","","","","","","","","","","","","","","","","","","",""
"psychophysics","208","817376","0.0-16.0-0.12","5d752c55b5b1e700015005d3","609006691f6f4e337c17f836","609d380475014d235f06eb47","null","","","","null","","","","key","16.706440677964995","683","312.5","","","","","","","","","","","","","","","","","","","",""
"psychophysics","209","817878","0.0-16.0-1.12","5d752c55b5b1e700015005d3","609006691f6f4e337c17f836","609d380475014d235f06eb47","null","","","","null","","","","key","16.706655172414372","683","312.5","","","","","","","","","","","","","149","-1","6","false","","","",""
"psychophysics","210","818425","0.0-16.0-2.12","5d752c55b5b1e700015005d3","609006691f6f4e337c17f836","609d380475014d235f06eb47","544.6550000015413","","","","77","","","","key","16.706687500001863","683","312.5","","","","","","","","","","","","","","","","","","","",""
"psychophysics","211","819427","0.0-16.0-0.13","5d752c55b5b1e700015005d3","609006691f6f4e337c17f836","609d380475014d235f06eb47","null","","","","null","","","","key","16.70633898305083","683","312.5","","","","","","","","","","","","","","","","","","","",""
"psychophysics","212","819929","0.0-16.0-1.13","5d752c55b5b1e700015005d3","609006691f6f4e337c17f836","609d380475014d235f06eb47","null","","","","null","","","","key","16.70641379310059","683","312.5","","","","","","","","","","","","","149","-1","3","false","","","",""
"psychophysics","213","820664","0.0-16.0-2.13","5d752c55b5b1e700015005d3","609006691f6f4e337c17f836","609d380475014d235f06eb47","732.2949999979464","","","","77","","","","key","16.70641860464956","683","312.5","","","","","","","","","","","","","","","","","","","",""
"psychophysics","214","821667","0.0-16.0-0.14","5d752c55b5b1e700015005d3","609006691f6f4e337c17f836","609d380475014d235f06eb47","null","","","","null","","","","key","16.70628813559276","683","312.5","","","","","","","","","","","","","","","","","","","",""
"psychophysics","215","822169","0.0-16.0-1.14","5d752c55b5b1e700015005d3","609006691f6f4e337c17f836","609d380475014d235f06eb47","null","","","","null","","","","key","16.70568965517129","683","312.5","","","","","","","","","","","","","149","1","3","false","","","",""
"psychophysics","216","822615","0.0-16.0-2.14","5d752c55b5b1e700015005d3","609006691f6f4e337c17f836","609d380475014d235f06eb47","443.650000001071","","","","77","","","","key","16.71128000000026","683","312.5","","","","","","","","","","","","","","","","","","","",""
"psychophysics","217","823618","0.0-16.0-0.15","5d752c55b5b1e700015005d3","609006691f6f4e337c17f836","609d380475014d235f06eb47","null","","","","null","","","","key","16.70901666666808","683","312.5","","","","","","","","","","","","","","","","","","","",""
"psychophysics","218","824121","0.0-16.0-1.15","5d752c55b5b1e700015005d3","609006691f6f4e337c17f836","609d380475014d235f06eb47","null","","","","null","","","","key","16.70741379310393","683","312.5","","","","","","","","","","","","","149","-1","5","false","","","",""
"psychophysics","219","824554","0.0-16.0-2.15","5d752c55b5b1e700015005d3","609006691f6f4e337c17f836","609d380475014d235f06eb47","430.7250000019558","","","","77","","","","key","16.706119999997316","683","312.5","","","","","","","","","","","","","","","","","","","",""
"psychophysics","220","825556","0.0-16.0-0.16","5d752c55b5b1e700015005d3","609006691f6f4e337c17f836","609d380475014d235f06eb47","null","","","","null","","","","key","16.706423728813622","683","312.5","","","","","","","","","","","","","","","","","","","",""
"psychophysics","221","826059","0.0-16.0-1.16","5d752c55b5b1e700015005d3","609006691f6f4e337c17f836","609d380475014d235f06eb47","null","","","","null","","","","key","16.706586206893853","683","312.5","","","","","","","","","","","","","149","-1","4","false","","","",""
"psychophysics","222","826519","0.0-16.0-2.16","5d752c55b5b1e700015005d3","609006691f6f4e337c17f836","609d380475014d235f06eb47","456.84499999694526","","","","77","","","","key","16.708384615382574","683","312.5","","","","","","","","","","","","","","","","","","","",""
"psychophysics","223","827521","0.0-16.0-0.17","5d752c55b5b1e700015005d3","609006691f6f4e337c17f836","609d380475014d235f06eb47","null","","","","null","","","","key","16.70599999999967","683","312.5","","","","","","","","","","","","","","","","","","","",""
"psychophysics","224","828023","0.0-16.0-1.17","5d752c55b5b1e700015005d3","609006691f6f4e337c17f836","609d380475014d235f06eb47","null","","","","null","","","","key","16.70551724138204","683","312.5","","","","","","","","","","","","","149","1","6","false","","","",""
"psychophysics","225","828439","0.0-16.0-2.17","5d752c55b5b1e700015005d3","609006691f6f4e337c17f836","609d380475014d235f06eb47","407.7849999994505","","","","77","","","","key","16.705916666668298","683","312.5","","","","","","","","","","","","","","","","","","","",""
"psychophysics","226","829441","0.0-16.0-0.18","5d752c55b5b1e700015005d3","609006691f6f4e337c17f836","609d380475014d235f06eb47","null","","","","null","","","","key","16.706457627118343","683","312.5","","","","","","","","","","","","","","","","","","","",""
"psychophysics","227","829943","0.0-16.0-1.18","5d752c55b5b1e700015005d3","609006691f6f4e337c17f836","609d380475014d235f06eb47","null","","","","null","","","","key","16.70717241379416","683","312.5","","","","","","","","","","","","","149","1","0","false","","","",""
"psychophysics","228","830520","0.0-16.0-2.18","5d752c55b5b1e700015005d3","609006691f6f4e337c17f836","609d380475014d235f06eb47","569.0299999987474","","","","90","","","","key","16.706294117649495","683","312.5","","","","","","","","","","","","","","","","","","","",""
"psychophysics","229","831522","0.0-16.0-0.19","5d752c55b5b1e700015005d3","609006691f6f4e337c17f836","609d380475014d235f06eb47","null","","","","null","","","","key","16.70647457627169","683","312.5","","","","","","","","","","","","","","","","","","","",""
"psychophysics","230","832025","0.0-16.0-1.19","5d752c55b5b1e700015005d3","609006691f6f4e337c17f836","609d380475014d235f06eb47","null","","","","null","","","","key","16.70655172413761","683","312.5","","","","","","","","","","","","","149","1","4","false","","","",""
"psychophysics","231","832630","0.0-16.0-2.19","5d752c55b5b1e700015005d3","609006691f6f4e337c17f836","609d380475014d235f06eb47","603.5200000006007","","","","90","","","","key","16.706371428571376","683","312.5","","","","","","","","","","","","","","","","","","","",""
"psychophysics","232","833632","0.0-16.0-0.20","5d752c55b5b1e700015005d3","609006691f6f4e337c17f836","609d380475014d235f06eb47","null","","","","null","","","","key","16.7063898305089","683","312.5","","","","","","","","","","","","","","","","","","","",""
"psychophysics","233","834134","0.0-16.0-1.20","5d752c55b5b1e700015005d3","609006691f6f4e337c17f836","609d380475014d235f06eb47","null","","","","null","","","","key","16.706448275860847","683","312.5","","","","","","","","","","","","","149","1","2","false","","","",""
"psychophysics","234","834614","0.0-16.0-2.20","5d752c55b5b1e700015005d3","609006691f6f4e337c17f836","609d380475014d235f06eb47","478.41500000143424","","","","90","","","","key","16.705428571427806","683","312.5","","","","","","","","","","","","","","","","","","","",""
"psychophysics","235","835616","0.0-16.0-0.21","5d752c55b5b1e700015005d3","609006691f6f4e337c17f836","609d380475014d235f06eb47","null","","","","null","","","","key","16.70603389830439","683","312.5","","","","","","","","","","","","","","","","","","","",""
"psychophysics","236","836118","0.0-16.0-1.21","5d752c55b5b1e700015005d3","609006691f6f4e337c17f836","609d380475014d235f06eb47","null","","","","null","","","","key","16.70613793103458","683","312.5","","","","","","","","","","","","","149","1","5","false","","","",""
"psychophysics","237","836650","0.0-16.0-2.21","5d752c55b5b1e700015005d3","609006691f6f4e337c17f836","609d380475014d235f06eb47","529.8750000001164","","","","77","","","","key","16.706354838709586","683","312.5","","","","","","","","","","","","","","","","","","","",""
"psychophysics","238","837651","0.0-16.0-0.22","5d752c55b5b1e700015005d3","609006691f6f4e337c17f836","609d380475014d235f06eb47","null","","","","null","","","","key","16.706576271185856","683","312.5","","","","","","","","","","","","","","","","","","","",""
"psychophysics","239","838155","0.0-16.0-1.22","5d752c55b5b1e700015005d3","609006691f6f4e337c17f836","609d380475014d235f06eb47","null","","","","null","","","","key","16.706241379307325","683","312.5","","","","","","","","","","","","","149","-1","0","false","","","",""
"psychophysics","240","838922","0.0-16.0-2.22","5d752c55b5b1e700015005d3","609006691f6f4e337c17f836","609d380475014d235f06eb47","764.9500000007683","","","","90","","","","key","16.706333333334058","683","312.5","","","","","","","","","","","","","","","","","","","",""
"psychophysics","241","839925","0.0-16.0-0.23","5d752c55b5b1e700015005d3","609006691f6f4e337c17f836","609d380475014d235f06eb47","null","","","","null","","","","key","16.70635593220418","683","312.5","","","","","","","","","","","","","","","","","","","",""
"psychophysics","242","840427","0.0-16.0-1.23","5d752c55b5b1e700015005d3","609006691f6f4e337c17f836","609d380475014d235f06eb47","null","","","","null","","","","key","16.706275862067585","683","312.5","","","","","","","","","","","","","149","-1","2","false","","","",""
"psychophysics","243","840918","0.0-16.0-2.23","5d752c55b5b1e700015005d3","609006691f6f4e337c17f836","609d380475014d235f06eb47","488.00499999930616","","","","90","","","","key","16.70575000000203","683","312.5","","","","","","","","","","","","","","","","","","","",""
"html-keyboard-response","244","849041","0.0-17.0","5d752c55b5b1e700015005d3","609006691f6f4e337c17f836","609d380475014d235f06eb47","8111.574999998906","<p>Well Done !</p><p>Training Complete. Press the spacebar to start.</p><p>DON'T EXIT THE FULL SCREEN MODE</p>","","","32","","","","","","","","","","","","","","","","","","","","","","","","","","",""
"psychophysics","245","852050","0.0-18.0-0.0","5d752c55b5b1e700015005d3","609006691f6f4e337c17f836","609d380475014d235f06eb47","null","","","","null","","","","key","16.982745762711186","683","312.5","","","","","","","","","","","","","","","","","","","",""
"psychophysics","246","852553","0.0-18.0-1.0","5d752c55b5b1e700015005d3","609006691f6f4e337c17f836","609d380475014d235f06eb47","null","","","","null","","","","key","16.70613793103458","683","312.5","","","","","","","","","","","","","149","-1","5","true","","","",""
"psychophysics","247","854208","0.0-18.0-2.0","5d752c55b5b1e700015005d3","609006691f6f4e337c17f836","609d380475014d235f06eb47","1652.8649999999907","","","","77","","","","key","16.706448979592615","683","312.5","","","","","","","","","","","","","","","","","","","",""
"psychophysics","248","855209","0.0-18.0-0.1","5d752c55b5b1e700015005d3","609006691f6f4e337c17f836","609d380475014d235f06eb47","null","","","","null","","","","key","16.706372881355552","683","312.5","","","","","","","","","","","","","","","","","","","",""
"psychophysics","249","855711","0.0-18.0-1.1","5d752c55b5b1e700015005d3","609006691f6f4e337c17f836","609d380475014d235f06eb47","null","","","","null","","","","key","16.70655172413761","683","312.5","","","","","","","","","","","","","149","-1","0","true","","","",""
"psychophysics","250","856290","0.0-18.0-2.1","5d752c55b5b1e700015005d3","609006691f6f4e337c17f836","609d380475014d235f06eb47","576.7050000031013","","","","90","","","","key","16.70617647058851","683","312.5","","","","","","","","","","","","","","","","","","","",""
"psychophysics","251","857292","0.0-18.0-0.2","5d752c55b5b1e700015005d3","609006691f6f4e337c17f836","609d380475014d235f06eb47","null","","","","null","","","","key","16.70633898305083","683","312.5","","","","","","","","","","","","","","","","","","","",""
"psychophysics","252","857795","0.0-18.0-1.2","5d752c55b5b1e700015005d3","609006691f6f4e337c17f836","609d380475014d235f06eb47","null","","","","null","","","","key","16.7062758620716","683","312.5","","","","","","","","","","","","","149","-1","3","true","","","",""
"psychophysics","253","858336","0.0-18.0-2.2","5d752c55b5b1e700015005d3","609006691f6f4e337c17f836","609d380475014d235f06eb47","538.5500000010943","","","","77","","","","key","16.706483870970025","683","312.5","","","","","","","","","","","","","","","","","","","",""
"psychophysics","254","859337","0.0-18.0-0.3","5d752c55b5b1e700015005d3","609006691f6f4e337c17f836","609d380475014d235f06eb47","null","","","","null","","","","key","16.706406779660274","683","312.5","","","","","","","","","","","","","","","","","","","",""
"psychophysics","255","859839","0.0-18.0-1.3","5d752c55b5b1e700015005d3","609006691f6f4e337c17f836","609d380475014d235f06eb47","null","","","","null","","","","key","16.706344827584086","683","312.5","","","","","","","","","","","","","149","1","0","true","","","",""
"psychophysics","256","860450","0.0-18.0-2.3","5d752c55b5b1e700015005d3","609006691f6f4e337c17f836","609d380475014d235f06eb47","608.8400000007823","","","","90","","","","key","16.70658333333429","683","312.5","","","","","","","","","","","","","","","","","","","",""
"psychophysics","257","861453","0.0-18.0-0.4","5d752c55b5b1e700015005d3","609006691f6f4e337c17f836","609d380475014d235f06eb47","null","","","","null","","","","key","16.706508474576413","683","312.5","","","","","","","","","","","","","","","","","","","",""
"psychophysics","258","861956","0.0-18.0-1.4","5d752c55b5b1e700015005d3","609006691f6f4e337c17f836","609d380475014d235f06eb47","null","","","","null","","","","key","16.706586206897867","683","312.5","","","","","","","","","","","","","149","-1","4","true","","","",""
"psychophysics","259","862354","0.0-18.0-2.4","5d752c55b5b1e700015005d3","609006691f6f4e337c17f836","609d380475014d235f06eb47","396.79500000050757","","","","77","","","","key","16.706608695651244","683","312.5","","","","","","","","","","","","","","","","","","","",""
"psychophysics","260","863358","0.0-18.0-0.5","5d752c55b5b1e700015005d3","609006691f6f4e337c17f836","609d380475014d235f06eb47","null","","","","null","","","","key","16.707406779660417","683","312.5","","","","","","","","","","","","","","","","","","","",""
"psychophysics","261","863860","0.0-18.0-1.5","5d752c55b5b1e700015005d3","609006691f6f4e337c17f836","609d380475014d235f06eb47","null","","","","null","","","","key","16.709999999998875","683","312.5","","","","","","","","","","","","","149","-1","2","true","","","",""
"psychophysics","262","864432","0.0-18.0-2.5","5d752c55b5b1e700015005d3","609006691f6f4e337c17f836","609d380475014d235f06eb47","570.3250000005355","","","","90","","","","key","16.705878787878618","683","312.5","","","","","","","","","","","","","","","","","","","",""
"psychophysics","263","865434","0.0-18.0-0.6","5d752c55b5b1e700015005d3","609006691f6f4e337c17f836","609d380475014d235f06eb47","null","","","","null","","","","key","16.706203389831945","683","312.5","","","","","","","","","","","","","","","","","","","",""
"psychophysics","264","865936","0.0-18.0-1.6","5d752c55b5b1e700015005d3","609006691f6f4e337c17f836","609d380475014d235f06eb47","null","","","","null","","","","key","16.704172413792172","683","312.5","","","","","","","","","","","","","149","1","5","true","","","",""
"psychophysics","265","866640","0.0-18.0-2.6","5d752c55b5b1e700015005d3","609006691f6f4e337c17f836","609d380475014d235f06eb47","702.1699999967823","","","","90","","","","key","16.706317073171505","683","312.5","","","","","","","","","","","","","","","","","","","",""
"psychophysics","266","867642","0.0-18.0-0.7","5d752c55b5b1e700015005d3","609006691f6f4e337c17f836","609d380475014d235f06eb47","null","","","","null","","","","key","16.706322033897486","683","312.5","","","","","","","","","","","","","","","","","","","",""
"psychophysics","267","868144","0.0-18.0-1.7","5d752c55b5b1e700015005d3","609006691f6f4e337c17f836","609d380475014d235f06eb47","null","","","","null","","","","key","16.70655172413761","683","312.5","","","","","","","","","","","","","149","1","6","true","","","",""
"psychophysics","268","868560","0.0-18.0-2.7","5d752c55b5b1e700015005d3","609006691f6f4e337c17f836","609d380475014d235f06eb47","407.41999999945983","","","","77","","","","key","16.706374999999145","683","312.5","","","","","","","","","","","","","","","","","","","",""
"psychophysics","269","869562","0.0-18.0-0.8","5d752c55b5b1e700015005d3","609006691f6f4e337c17f836","609d380475014d235f06eb47","null","","","","null","","","","key","16.706423728813622","683","312.5","","","","","","","","","","","","","","","","","","","",""
"psychophysics","270","870064","0.0-18.0-1.8","5d752c55b5b1e700015005d3","609006691f6f4e337c17f836","609d380475014d235f06eb47","null","","","","null","","","","key","16.706275862067585","683","312.5","","","","","","","","","","","","","149","-1","6","true","","","",""
"psychophysics","271","870496","0.0-18.0-2.8","5d752c55b5b1e700015005d3","609006691f6f4e337c17f836","609d380475014d235f06eb47","430.1899999991292","","","","77","","","","key","16.706639999998732","683","312.5","","","","","","","","","","","","","","","","","","","",""
"psychophysics","272","871498","0.0-18.0-0.9","5d752c55b5b1e700015005d3","609006691f6f4e337c17f836","609d380475014d235f06eb47","null","","","","null","","","","key","16.70647457626972","683","312.5","","","","","","","","","","","","","","","","","","","",""
"psychophysics","273","872000","0.0-18.0-1.9","5d752c55b5b1e700015005d3","609006691f6f4e337c17f836","609d380475014d235f06eb47","null","","","","null","","","","key","16.70617241379484","683","312.5","","","","","","","","","","","","","149","1","2","true","","","",""
"psychophysics","274","872400","0.0-18.0-2.9","5d752c55b5b1e700015005d3","609006691f6f4e337c17f836","609d380475014d235f06eb47","396.7350000020815","","","","90","","","","key","16.70626086956295","683","312.5","","","","","","","","","","","","","","","","","","","",""
"psychophysics","275","873401","0.0-18.0-0.10","5d752c55b5b1e700015005d3","609006691f6f4e337c17f836","609d380475014d235f06eb47","null","","","","null","","","","key","16.70630508474611","683","312.5","","","","","","","","","","","","","","","","","","","",""
"psychophysics","276","873903","0.0-18.0-1.10","5d752c55b5b1e700015005d3","609006691f6f4e337c17f836","609d380475014d235f06eb47","null","","","","null","","","","key","16.705241379312014","683","312.5","","","","","","","","","","","","","149","1","3","true","","","",""
"psychophysics","277","874384","0.0-18.0-2.10","5d752c55b5b1e700015005d3","609006691f6f4e337c17f836","609d380475014d235f06eb47","478.8799999987241","","","","90","","","","key","16.70549999999847","683","312.5","","","","","","","","","","","","","","","","","","","",""
"psychophysics","278","875387","0.0-18.0-0.11","5d752c55b5b1e700015005d3","609006691f6f4e337c17f836","609d380475014d235f06eb47","null","","","","null","","","","key","16.7063898305089","683","312.5","","","","","","","","","","","","","","","","","","","",""
"psychophysics","279","875889","0.0-18.0-1.11","5d752c55b5b1e700015005d3","609006691f6f4e337c17f836","609d380475014d235f06eb47","null","","","","null","","","","key","16.7102758620689","683","312.5","","","","","","","","","","","","","149","1","4","true","","","",""
"psychophysics","280","876290","0.0-18.0-2.11","5d752c55b5b1e700015005d3","609006691f6f4e337c17f836","609d380475014d235f06eb47","398.51500000071246","","","","77","","","","key","16.70013043478273","683","312.5","","","","","","","","","","","","","","","","","","","",""
"psychophysics","281","877292","0.0-18.0-0.12","5d752c55b5b1e700015005d3","609006691f6f4e337c17f836","609d380475014d235f06eb47","null","","","","null","","","","key","16.704169491524965","683","312.5","","","","","","","","","","","","","","","","","","","",""
"psychophysics","282","877794","0.0-18.0-1.12","5d752c55b5b1e700015005d3","609006691f6f4e337c17f836","609d380475014d235f06eb47","null","","","","null","","","","key","16.706310344827845","683","312.5","","","","","","","","","","","","","149","-1","2","true","","","",""
"psychophysics","283","878512","0.0-18.0-2.12","5d752c55b5b1e700015005d3","609006691f6f4e337c17f836","609d380475014d235f06eb47","715.8849999979138","","","","90","","","","key","16.70552380952341","683","312.5","","","","","","","","","","","","","","","","","","","",""
"psychophysics","284","879514","0.0-18.0-0.13","5d752c55b5b1e700015005d3","609006691f6f4e337c17f836","609d380475014d235f06eb47","null","","","","null","","","","key","16.708593220337516","683","312.5","","","","","","","","","","","","","","","","","","","",""
"psychophysics","285","880016","0.0-18.0-1.13","5d752c55b5b1e700015005d3","609006691f6f4e337c17f836","609d380475014d235f06eb47","null","","","","null","","","","key","16.705275862072273","683","312.5","","","","","","","","","","","","","149","-1","3","true","","","",""
"psychophysics","286","880704","0.0-18.0-2.13","5d752c55b5b1e700015005d3","609006691f6f4e337c17f836","609d380475014d235f06eb47","685.7400000008056","","","","77","","","","key","16.706375000000115","683","312.5","","","","","","","","","","","","","","","","","","","",""
"psychophysics","287","881705","0.0-18.0-0.14","5d752c55b5b1e700015005d3","609006691f6f4e337c17f836","609d380475014d235f06eb47","null","","","","null","","","","key","16.708610169492836","683","312.5","","","","","","","","","","","","","","","","","","","",""
"psychophysics","288","882207","0.0-18.0-1.14","5d752c55b5b1e700015005d3","609006691f6f4e337c17f836","609d380475014d235f06eb47","null","","","","null","","","","key","16.703620689656137","683","312.5","","","","","","","","","","","","","149","1","5","true","","","",""
"psychophysics","289","882640","0.0-18.0-2.14","5d752c55b5b1e700015005d3","609006691f6f4e337c17f836","609d380475014d235f06eb47","416.39999999827705","","","","77","","","","key","16.710120000001044","683","312.5","","","","","","","","","","","","","","","","","","","",""
"psychophysics","290","883641","0.0-18.0-0.15","5d752c55b5b1e700015005d3","609006691f6f4e337c17f836","609d380475014d235f06eb47","null","","","","null","","","","key","16.70411864406887","683","312.5","","","","","","","","","","","","","","","","","","","",""
"psychophysics","291","884144","0.0-18.0-1.15","5d752c55b5b1e700015005d3","609006691f6f4e337c17f836","609d380475014d235f06eb47","null","","","","null","","","","key","16.709793103445353","683","312.5","","","","","","","","","","","","","149","-1","5","true","","","",""
"psychophysics","292","884528","0.0-18.0-2.15","5d752c55b5b1e700015005d3","609006691f6f4e337c17f836","609d380475014d235f06eb47","382.4300000014482","","","","77","","","","key","16.711409090907015","683","312.5","","","","","","","","","","","","","","","","","","","",""
"psychophysics","293","885530","0.0-18.0-0.16","5d752c55b5b1e700015005d3","609006691f6f4e337c17f836","609d380475014d235f06eb47","null","","","","null","","","","key","16.705881355932156","683","312.5","","","","","","","","","","","","","","","","","","","",""
"psychophysics","294","886032","0.0-18.0-1.16","5d752c55b5b1e700015005d3","609006691f6f4e337c17f836","609d380475014d235f06eb47","null","","","","null","","","","key","16.70637931034836","683","312.5","","","","","","","","","","","","","149","-1","6","true","","","",""
"psychophysics","295","886432","0.0-18.0-2.16","5d752c55b5b1e700015005d3","609006691f6f4e337c17f836","609d380475014d235f06eb47","397.3749999968568","","","","77","","","","key","16.704478260868676","683","312.5","","","","","","","","","","","","","","","","","","","",""
"psychophysics","296","887434","0.0-18.0-0.17","5d752c55b5b1e700015005d3","609006691f6f4e337c17f836","609d380475014d235f06eb47","null","","","","null","","","","key","16.706728813560066","683","312.5","","","","","","","","","","","","","","","","","","","",""
"psychophysics","297","887936","0.0-18.0-1.17","5d752c55b5b1e700015005d3","609006691f6f4e337c17f836","609d380475014d235f06eb47","null","","","","null","","","","key","16.707896551723465","683","312.5","","","","","","","","","","","","","149","1","6","true","","","",""
"psychophysics","298","888417","0.0-18.0-2.17","5d752c55b5b1e700015005d3","609006691f6f4e337c17f836","609d380475014d235f06eb47","478.8000000008615","","","","90","","","","key","16.705214285715815","683","312.5","","","","","","","","","","","","","","","","","","","",""
"psychophysics","299","889420","0.0-18.0-0.18","5d752c55b5b1e700015005d3","609006691f6f4e337c17f836","609d380475014d235f06eb47","null","","","","null","","","","key","16.706152542373875","683","312.5","","","","","","","","","","","","","","","","","","","",""
"psychophysics","300","889922","0.0-18.0-1.18","5d752c55b5b1e700015005d3","609006691f6f4e337c17f836","609d380475014d235f06eb47","null","","","","null","","","","key","16.70565517241103","683","312.5","","","","","","","","","","","","","149","-1","0","true","","","",""
"psychophysics","301","890992","0.0-18.0-2.18","5d752c55b5b1e700015005d3","609006691f6f4e337c17f836","609d380475014d235f06eb47","1068.1650000006193","","","","77","","","","key","16.707000000001344","683","312.5","","","","","","","","","","","","","","","","","","","",""
"psychophysics","302","891994","0.0-18.0-0.19","5d752c55b5b1e700015005d3","609006691f6f4e337c17f836","609d380475014d235f06eb47","null","","","","null","","","","key","16.704983050848153","683","312.5","","","","","","","","","","","","","","","","","","","",""
"psychophysics","303","892496","0.0-18.0-1.19","5d752c55b5b1e700015005d3","609006691f6f4e337c17f836","609d380475014d235f06eb47","null","","","","null","","","","key","16.706586206897867","683","312.5","","","","","","","","","","","","","149","1","2","true","","","",""
"psychophysics","304","892879","0.0-18.0-2.19","5d752c55b5b1e700015005d3","609006691f6f4e337c17f836","609d380475014d235f06eb47","381.59499999904074","","","","90","","","","key","16.707409090907525","683","312.5","","","","","","","","","","","","","","","","","","","",""
"psychophysics","305","893881","0.0-18.0-0.20","5d752c55b5b1e700015005d3","609006691f6f4e337c17f836","609d380475014d235f06eb47","null","","","","null","","","","key","16.70279661016894","683","312.5","","","","","","","","","","","","","","","","","","","",""
"psychophysics","306","894383","0.0-18.0-1.20","5d752c55b5b1e700015005d3","609006691f6f4e337c17f836","609d380475014d235f06eb47","null","","","","null","","","","key","16.705068965518752","683","312.5","","","","","","","","","","","","","149","1","3","true","","","",""
"psychophysics","307","894899","0.0-18.0-2.20","5d752c55b5b1e700015005d3","609006691f6f4e337c17f836","609d380475014d235f06eb47","514.1100000001024","","","","90","","","","key","16.710066666667505","683","312.5","","","","","","","","","","","","","","","","","","","",""
"psychophysics","308","895900","0.0-18.0-0.21","5d752c55b5b1e700015005d3","609006691f6f4e337c17f836","609d380475014d235f06eb47","null","","","","null","","","","key","16.705033898306223","683","312.5","","","","","","","","","","","","","","","","","","","",""
"psychophysics","309","896421","0.0-18.0-1.21","5d752c55b5b1e700015005d3","609006691f6f4e337c17f836","609d380475014d235f06eb47","null","","","","null","","","","key","16.708633333335943","683","312.5","","","","","","","","","","","","","149","-1","4","true","","","",""
"psychophysics","310","896853","0.0-18.0-2.21","5d752c55b5b1e700015005d3","609006691f6f4e337c17f836","609d380475014d235f06eb47","429.45999999938067","","","","77","","","","key","16.702000000001863","683","312.5","","","","","","","","","","","","","","","","","","","",""
"psychophysics","311","897855","0.0-18.0-0.22","5d752c55b5b1e700015005d3","609006691f6f4e337c17f836","609d380475014d235f06eb47","null","","","","null","","","","key","16.71118644067931","683","312.5","","","","","","","","","","","","","","","","","","","",""
"psychophysics","312","898358","0.0-18.0-1.22","5d752c55b5b1e700015005d3","609006691f6f4e337c17f836","609d380475014d235f06eb47","null","","","","null","","","","key","16.7076551724137","683","312.5","","","","","","","","","","","","","149","1","4","true","","","",""
"psychophysics","313","898724","0.0-18.0-2.22","5d752c55b5b1e700015005d3","609006691f6f4e337c17f836","609d380475014d235f06eb47","363.14499999932013","","","","77","","","","key","16.705095238091115","683","312.5","","","","","","","","","","","","","","","","","","","",""
"psychophysics","314","899726","0.0-18.0-0.23","5d752c55b5b1e700015005d3","609006691f6f4e337c17f836","609d380475014d235f06eb47","null","","","","null","","","","key","16.705915254236878","683","312.5","","","","","","","","","","","","","","","","","","","",""
"psychophysics","315","900229","0.0-18.0-1.23","5d752c55b5b1e700015005d3","609006691f6f4e337c17f836","609d380475014d235f06eb47","null","","","","null","","","","key","16.705517241378026","683","312.5","","","","","","","","","","","","","149","1","0","true","","","",""
"psychophysics","316","900656","0.0-18.0-2.23","5d752c55b5b1e700015005d3","609006691f6f4e337c17f836","609d380475014d235f06eb47","423.87500000046566","","","","90","","","","key","16.70808333333601","683","312.5","","","","","","","","","","","","","","","","","","","",""
"psychophysics","317","901658","0.0-18.0-0.24","5d752c55b5b1e700015005d3","609006691f6f4e337c17f836","609d380475014d235f06eb47","null","","","","null","","","","key","16.70625423728804","683","312.5","","","","","","","","","","","","","","","","","","","",""
"psychophysics","318","902165","0.0-18.0-1.24","5d752c55b5b1e700015005d3","609006691f6f4e337c17f836","609d380475014d235f06eb47","null","","","","null","","","","key","16.702333333335506","683","312.5","","","","","","","","","","","","","149","1","5","true","","","",""
"psychophysics","319","902485","0.0-18.0-2.24","5d752c55b5b1e700015005d3","609006691f6f4e337c17f836","609d380475014d235f06eb47","317.40999999968335","","","","77","","","","key","16.709166666667443","683","312.5","","","","","","","","","","","","","","","","","","","",""
"psychophysics","320","903487","0.0-18.0-0.25","5d752c55b5b1e700015005d3","609006691f6f4e337c17f836","609d380475014d235f06eb47","null","","","","null","","","","key","16.705796610171337","683","312.5","","","","","","","","","","","","","","","","","","","",""
"psychophysics","321","903989","0.0-18.0-1.25","5d752c55b5b1e700015005d3","609006691f6f4e337c17f836","609d380475014d235f06eb47","null","","","","null","","","","key","16.702034482756503","683","312.5","","","","","","","","","","","","","149","1","3","true","","","",""
"psychophysics","322","904289","0.0-18.0-2.25","5d752c55b5b1e700015005d3","609006691f6f4e337c17f836","609d380475014d235f06eb47","297.82999999960884","","","","90","","","","key","16.694823529406943","683","312.5","","","","","","","","","","","","","","","","","","","",""
"psychophysics","323","905291","0.0-18.0-0.26","5d752c55b5b1e700015005d3","609006691f6f4e337c17f836","609d380475014d235f06eb47","null","","","","null","","","","key","16.706966101695087","683","312.5","","","","","","","","","","","","","","","","","","","",""
"psychophysics","324","905793","0.0-18.0-1.26","5d752c55b5b1e700015005d3","609006691f6f4e337c17f836","609d380475014d235f06eb47","null","","","","null","","","","key","16.706482758621107","683","312.5","","","","","","","","","","","","","149","-1","4","true","","","",""
"psychophysics","325","906292","0.0-18.0-2.26","5d752c55b5b1e700015005d3","609006691f6f4e337c17f836","609d380475014d235f06eb47","496.28500000108033","","","","90","","","","key","16.708137931037246","683","312.5","","","","","","","","","","","","","","","","","","","",""
"psychophysics","326","907294","0.0-18.0-0.27","5d752c55b5b1e700015005d3","609006691f6f4e337c17f836","609d380475014d235f06eb47","null","","","","null","","","","key","16.705983050848292","683","312.5","","","","","","","","","","","","","","","","","","","",""
"psychophysics","327","907797","0.0-18.0-1.27","5d752c55b5b1e700015005d3","609006691f6f4e337c17f836","609d380475014d235f06eb47","null","","","","null","","","","key","16.70441379310194","683","312.5","","","","","","","","","","","","","149","-1","5","true","","","",""
