"trial_type","trial_index","time_elapsed","internal_node_id","PROLIFIC_PID","STUDY_ID","SESSION_ID","rt","stimulus","button_pressed","success","key_press","responses","isData","view_history","response_type","avg_frame_time","center_x","center_y","isSC","stim_side","trial_luminance","step_size","nReversal","correct","prev_ans","isThreshold","SC_threshold","final_threshold","isLuminance","FF_luminance","luminance","stimSide","ISInt","isFF","question_order","isSPQ","isCAPS","isAQ"
"pavlovia","0","5","0.0-0.0","5c0873675b32d500012e3f2c","609006691f6f4e337c17f836","609d35ff06fe878d3e223e43","","","","","","","","","","","","","","","","","","","","","","","","","","","","","","","",""
"html-button-response","1","22768","0.0-1.0","5c0873675b32d500012e3f2c","609006691f6f4e337c17f836","609d35ff06fe878d3e223e43","22760.85999980569","<div style='background-color: white; width:60%; margin: auto; padding: 50px; text-align: justify; text-justify: inter-word; margin-bottom: 20px;'><h1 style='text-align: center;'>Consent Form</h1><p>Please read this consent form carefully before deciding whether you would like to participate in this study. You have to be 18 years old or older to participate to this study.</p><p style='text-decoration: underline;'>Participation is voluntary:</p><p>It is your choice whether or not to participate in this research. If you choose to participate, you may change your mind and leave the study at any time. Refusal to participate or stopping your participation will involve no penalty or loss of benefits to which you are otherwise entitled.</p><p style='text-decoration: underline;'>Purpose of the Study:</p><p>To understand the mechanisms underlying human perception.</p><p style='text-decoration: underline;'>What you will do in this study:</p><p>You will be presented with a series of visual images and then you will press buttons on the keyboard of your computer to respond to simple questions about the images (e.g. Were one or two images presented?). In addition, you will be asked to complete a questionnaire concerning your beliefs and everyday mental and perceptual experiences.'</p><p style='text-decoration: underline;'> Time Required:</p><p>The study will take 40 minutes to complete. </p><p style='text-decoration: underline;'>Risks:</p><p>There are no anticipated risks associated with participating in this study that are beyond those experienced in everyday life. </p><p style='text-decoration: underline;'>Benefits:</p><p>There are no benefits to you in participating in the study. However, this study may lead to a better understanding of how different kinds of visual information are used.</p><p style='text-decoration: underline;'>Compensation:</p><p>You will be paid US$6.6/hour. </p><p style='text-decoration: underline;'>Privacy and Confidentiality:</p><p>Your participation in this study will be anonymous. No personal information about your name or identity will be asked or recorded. This anonymous data will be stored for several years and may be used for a variety of research purposes. The overall results of the study may be published, or the data files may be shared with other researchers, but your identity will not be revealed in any way. The online services we are using for this study may temporarily store your data, but this data will be downloaded and then promptly deleted from those services.Your data will not be permanently associated with your name, IP address, or any other identifiable information (e.g., your information will only be connected to your payment, not to any of your responses), though they may be temporarily stored together before we download and separate them. Even so, no guarantee of internet survey security can be given because, although unlikely, transmissions can be intercepted and IP addresses can be identified. The anonymous data may be shared publicly (for example, in conjunction with a resulting academic publication).</p><p style='text-decoration: underline;'>Participation and Withdrawal:</p><p>Your participation in this study is completely voluntary. You may stop responding to the stimuli or stop answering questions if you so choose and without penalty by exiting the full screen mode, closing this tab of your browser or redirecting it to a different website.</p><p style='text-decoration: underline;'>Contact Info of the Researcher: </p><p>If you have questions about this study, or if you would like to talk to the research team, please contact David Melcher (david.melcher@nyu.edu, md5050@nyu.edu) at the Perception and Active Cognition Laboratory, New York University Abu Dhabi, Computational Research Building, Saadiyat Island, Abu Dhabi, UAE.This research has been reviewed by the New York University Abu Dhabi Institutional Review Board (NYUAD IRB). To contact about your rights in this research, for questions, suggestions, or complaints that are not addressed by the researchers, please email IRBnyuad@nyu.edu, or call the NYUAD IRB at +971 2 628 4313. </p></div>","0","","","","","","","","","","","","","","","","","","","","","","","","","","","","",""
"fullscreen","2","29284","0.0-2.0","5c0873675b32d500012e3f2c","609006691f6f4e337c17f836","609d35ff06fe878d3e223e43","","","","true","","","","","","","","","","","","","","","","","","","","","","","","","","","",""
"html-keyboard-response","3","83761","0.0-3.0","5c0873675b32d500012e3f2c","609006691f6f4e337c17f836","609d35ff06fe878d3e223e43","54474.80499977246","<p>Welcome !</p><p>READ CAREFULLY THE FOLLOWING INDICATIONS:</p><p>From this moment you have ~40 minutes to complete the experiment.</p><p>During the experiment you will be prompted to take several breaks. Each break should not last longer than 2-3 minutes.</p><p>Make sure that your computer is plugged in and it's not running on battery power, even if the battery is already fully charged.</p><p>Turn off your phone and music, make sure that you are in a quiet room and that you will not be distracted for the next hour.</p><p>Failure to comply with the instructions and indications provided during the experiment will most likely result in the rejection of your data.<p>Press the spacebar to start.</p>","","","32","","","","","","","","","","","","","","","","","","","","","","","","","","",""
"survey-html-form","4","96676","0.0-4.0","5c0873675b32d500012e3f2c","609006691f6f4e337c17f836","609d35ff06fe878d3e223e43","12911.884999834001","","","","","{""age"":""59"",""sex"":""F""}","true","","","","","","","","","","","","","","","","","","","","","","","","",""
"instructions","5","529330","0.0-5.0","5c0873675b32d500012e3f2c","609006691f6f4e337c17f836","609d35ff06fe878d3e223e43","432654.19999998994","","","","","","","[{""page_index"":0,""viewing_time"":304407.7049999032},{""page_index"":1,""viewing_time"":105660.3400001768},{""page_index"":2,""viewing_time"":22585.779999848455}]","","","","","","","","","","","","","","","","","","","","","","","",""
"psychophysics","6","535476","0.0-6.0-0.0","5c0873675b32d500012e3f2c","609006691f6f4e337c17f836","609d35ff06fe878d3e223e43","5137.439999962226","","","","39","","","","key","16.71210081743873","683","328.5","true","1","180","30","0","-1","","","","","","","","","","","","","",""
"psychophysics","7","539635","0.0-6.0-0.1","5c0873675b32d500012e3f2c","609006691f6f4e337c17f836","609d35ff06fe878d3e223e43","3154.050000011921","","","","39","","","","key","16.670510040160387","683","328.5","true","1","180","30","0","-1","-1","","","","","","","","","","","","",""
"psychophysics","8","549398","0.0-6.0-0.2","5c0873675b32d500012e3f2c","609006691f6f4e337c17f836","609d35ff06fe878d3e223e43","8759.539999999106","","","","37","","","","key","16.67061367521369","683","328.5","true","-1","150","30","0","-1","-1","","","","","","","","","","","","",""
"psychophysics","9","556498","0.0-6.0-0.3","5c0873675b32d500012e3f2c","609006691f6f4e337c17f836","609d35ff06fe878d3e223e43","6093.249999918044","","","","39","","","","key","16.670650943396293","683","328.5","true","1","150","30","0","-1","-1","","","","","","","","","","","","",""
"psychophysics","10","562722","0.0-6.0-0.4","5c0873675b32d500012e3f2c","609006691f6f4e337c17f836","609d35ff06fe878d3e223e43","5217.535000061616","","","","37","","","","key","16.670747989276176","683","328.5","true","1","129","24","1","1","-1","","","","","","","","","","","","",""
"psychophysics","11","565216","0.0-6.0-0.5","5c0873675b32d500012e3f2c","609006691f6f4e337c17f836","609d35ff06fe878d3e223e43","1489.195000147447","","","","39","","","","key","16.670993288590623","683","328.5","true","1","153","24","1","-1","1","","","","","","","","","","","","",""
"psychophysics","12","567219","0.0-6.0-0.6","5c0873675b32d500012e3f2c","609006691f6f4e337c17f836","609d35ff06fe878d3e223e43","1001.2199999764562","","","","37","","","","key","16.670210084033652","683","328.5","true","-1","153","19.2","2","-1","-1","","","","","","","","","","","","",""
"psychophysics","13","573517","0.0-6.0-0.7","5c0873675b32d500012e3f2c","609006691f6f4e337c17f836","609d35ff06fe878d3e223e43","5277.18500001356","","","","39","","","","key","16.670263297872264","683","328.5","true","-1","133.8","15.36","3","1","-1","","","","","","","","","","","","",""
"psychophysics","14","579695","0.0-6.0-0.8","5c0873675b32d500012e3f2c","609006691f6f4e337c17f836","609d35ff06fe878d3e223e43","5173.604999901727","","","","39","","","","key","16.670424324324404","683","328.5","true","-1","149.16000000000003","15.36","3","1","1","","","","","","","","","","","","",""
"psychophysics","15","581899","0.0-6.0-0.9","5c0873675b32d500012e3f2c","609006691f6f4e337c17f836","609d35ff06fe878d3e223e43","1196.1399998981506","","","","37","","","","key","16.670198473282237","683","328.5","true","-1","164.52000000000004","15.36","3","-1","1","","","","","","","","","","","","",""
"psychophysics","16","583842","0.0-6.0-0.10","5c0873675b32d500012e3f2c","609006691f6f4e337c17f836","609d35ff06fe878d3e223e43","936.3499998580664","","","","39","","","","key","16.67092241379352","683","328.5","true","1","164.52000000000004","12.287999999999998","4","-1","-1","","","","","","","","","","","","",""
"psychophysics","17","585378","0.0-6.0-0.11","5c0873675b32d500012e3f2c","609006691f6f4e337c17f836","609d35ff06fe878d3e223e43","531.6949998959899","","","","37","","","","key","16.670373626374435","683","328.5","true","-1","152.23200000000003","12.287999999999998","4","-1","-1","","","","","","","","","","","","",""
"psychophysics","18","586924","0.0-6.0-0.12","5c0873675b32d500012e3f2c","609006691f6f4e337c17f836","609d35ff06fe878d3e223e43","541.4450000971556","","","","39","","","","key","16.670608695652135","683","328.5","true","1","152.23200000000003","12.287999999999998","4","-1","-1","","","","","","","","","","","","",""
"psychophysics","19","590147","0.0-6.0-0.13","5c0873675b32d500012e3f2c","609006691f6f4e337c17f836","609d35ff06fe878d3e223e43","2219.02499999851","","","","39","","","","key","16.671166666666977","683","328.5","true","1","139.94400000000002","12.287999999999998","4","-1","-1","","","","","","","","","","","","",""
"psychophysics","20","594225","0.0-6.0-0.14","5c0873675b32d500012e3f2c","609006691f6f4e337c17f836","609d35ff06fe878d3e223e43","3071.7849999200553","","","","37","","","","key","16.80836363636392","683","328.5","true","-1","139.94400000000002","12.287999999999998","4","-1","-1","","","","","","","","","","","","",""
"psychophysics","21","598348","0.0-6.0-0.15","5c0873675b32d500012e3f2c","609006691f6f4e337c17f836","609d35ff06fe878d3e223e43","3118.5300000943244","","","","37","","","","key","16.67095121951221","683","328.5","true","1","129","9.8304","5","1","-1","","","","","","","","","","","","",""
"psychophysics","22","603235","0.0-6.0-0.16","5c0873675b32d500012e3f2c","609006691f6f4e337c17f836","609d35ff06fe878d3e223e43","3882.5149999465793","","","","39","","","","key","16.72759450171855","683","328.5","true","-1","138.8304","9.8304","5","1","1","","","","","","","","","","","","",""
"psychophysics","23","605793","0.0-6.0-0.17","5c0873675b32d500012e3f2c","609006691f6f4e337c17f836","609d35ff06fe878d3e223e43","1554.9999999348074","","","","37","","","","key","16.669875816992953","683","328.5","true","-1","148.6608","9.8304","5","-1","1","","","","","","","","","","","","",""
"psychophysics","24","607599","0.0-6.0-0.18","5c0873675b32d500012e3f2c","609006691f6f4e337c17f836","609d35ff06fe878d3e223e43","803.4200000111014","","","","37","","","","key","16.670205607477175","683","328.5","true","-1","148.6608","7.864319999999999","6","-1","-1","","","","","","","","","","","","",""
"psychophysics","25","610871","0.0-6.0-0.19","5c0873675b32d500012e3f2c","609006691f6f4e337c17f836","609d35ff06fe878d3e223e43","2269.79500008747","","","","39","","","","key","16.67001538461504","683","328.5","true","-1","140.79648","6.291456","7","1","-1","","","","","","","","","","","","",""
"psychophysics","26","613085","0.0-6.0-0.20","5c0873675b32d500012e3f2c","609006691f6f4e337c17f836","609d35ff06fe878d3e223e43","1208.1799998413771","","","","39","","","","key","16.670742424242867","683","328.5","true","1","147.087936","6.291456","7","-1","1","","","","","","","","","","","","",""
"psychophysics","27","614647","0.0-6.0-0.21","5c0873675b32d500012e3f2c","609006691f6f4e337c17f836","609d35ff06fe878d3e223e43","559.2250002082437","","","","39","","","","key","16.671408602150446","683","328.5","true","1","147.087936","5.033164800000001","8","-1","-1","","","","","","","","","","","","",""
"psychophysics","28","617717","0.0-6.0-0.22","5c0873675b32d500012e3f2c","609006691f6f4e337c17f836","609d35ff06fe878d3e223e43","2066.9599999673665","","","","37","","","","key","16.67096174863432","683","328.5","true","-1","142.0547712","5.033164800000001","8","-1","-1","","","","","","","","","","","","",""
"psychophysics","29","622670","0.0-6.0-0.23","5c0873675b32d500012e3f2c","609006691f6f4e337c17f836","609d35ff06fe878d3e223e43","3949.900000123307","","","","37","","","","key","16.670449324324256","683","328.5","true","1","142.0547712","4.0265318400000005","9","1","-1","","","","","","","","","","","","",""
"psychophysics","30","624134","0.0-6.0-0.24","5c0873675b32d500012e3f2c","609006691f6f4e337c17f836","609d35ff06fe878d3e223e43","459.69499996863306","","","","37","","","","key","16.669781609194825","683","328.5","true","-1","146.08130304","4.0265318400000005","9","-1","1","","","","","","","","","","","","",""
"psychophysics","31","625858","0.0-6.0-0.25","5c0873675b32d500012e3f2c","609006691f6f4e337c17f836","609d35ff06fe878d3e223e43","720.8100000862032","","","","39","","","","key","16.67044117647068","683","328.5","true","1","146.08130304","3.2212254720000004","10","-1","-1","","","","","","","","","","","","",""
"psychophysics","32","628403","0.0-6.0-0.26","5c0873675b32d500012e3f2c","609006691f6f4e337c17f836","609d35ff06fe878d3e223e43","1538.8050000183284","","","","37","","","","key","16.67100657894748","683","328.5","true","-1","142.860077568","3.2212254720000004","10","-1","-1","","","","","","","","","","","","",""
"psychophysics","33","631405","0.0-6.0-0.27","5c0873675b32d500012e3f2c","609006691f6f4e337c17f836","609d35ff06fe878d3e223e43","1990.409999853","","","","37","","","","key","16.67138547486009","683","328.5","true","1","142.860077568","2.5769803776000004","11","1","-1","","","","","","","","","","","","",""
"psychophysics","34","635159","0.0-6.0-0.28","5c0873675b32d500012e3f2c","609006691f6f4e337c17f836","609d35ff06fe878d3e223e43","2751.7099999822676","","","","39","","","","key","16.670598214285878","683","328.5","true","1","145.4370579456","2.5769803776000004","11","-1","1","","","","","","","","","","","","",""
"psychophysics","35","638300","0.0-6.0-0.29","5c0873675b32d500012e3f2c","609006691f6f4e337c17f836","609d35ff06fe878d3e223e43","2134.044999955222","","","","39","","","","key","16.67073936170237","683","328.5","true","-1","145.4370579456","2.0615843020800004","12","1","-1","","","","","","","","","","","","",""
"psychophysics","36","641291","0.0-6.0-0.30","5c0873675b32d500012e3f2c","609006691f6f4e337c17f836","609d35ff06fe878d3e223e43","1985.7049998827279","","","","37","","","","key","16.67078089887627","683","328.5","true","1","147.49864224768","2.0615843020800004","12","1","1","","","","","","","","","","","","",""
"psychophysics","37","642888","0.0-6.0-0.31","5c0873675b32d500012e3f2c","609006691f6f4e337c17f836","609d35ff06fe878d3e223e43","594.054999994114","","","","39","","","","key","16.670252631578936","683","328.5","true","1","149.56022654976002","2.0615843020800004","12","-1","1","","","","","","","","","","","","",""
"psychophysics","38","644799","0.0-6.0-0.32","5c0873675b32d500012e3f2c","609006691f6f4e337c17f836","609d35ff06fe878d3e223e43","906.9449999369681","","","","37","","","","key","16.670398230088537","683","328.5","true","-1","149.56022654976002","1.6492674416640005","13","-1","-1","","","","","","","","","","","","",""
"psychophysics","39","647971","0.0-6.0-0.33","5c0873675b32d500012e3f2c","609006691f6f4e337c17f836","609d35ff06fe878d3e223e43","2167.45000006631","","","","37","","","","key","16.670147368420945","683","328.5","true","-1","147.91095910809602","1.6492674416640005","13","-1","-1","","","","","","","","","","","","",""
"psychophysics","40","650190","0.0-6.0-0.34","5c0873675b32d500012e3f2c","609006691f6f4e337c17f836","609d35ff06fe878d3e223e43","1214.3500000238419","","","","39","","","","key","16.670393939393705","683","328.5","true","1","147.91095910809602","1.6492674416640005","13","-1","-1","","","","","","","","","","","","",""
"psychophysics","41","652343","0.0-6.0-0.35","5c0873675b32d500012e3f2c","609006691f6f4e337c17f836","609d35ff06fe878d3e223e43","1150.2249999903142","","","","39","","","","key","16.671125000000757","683","328.5","true","1","146.26169166643203","1.6492674416640005","13","-1","-1","","","","","","","","","","","","",""
"psychophysics","42","654569","0.0-6.0-0.36","5c0873675b32d500012e3f2c","609006691f6f4e337c17f836","609d35ff06fe878d3e223e43","1222.7049998473376","","","","37","","","","key","16.67087218045131","683","328.5","true","1","146.26169166643203","1.3194139533312006","14","1","-1","","","","","","","","","","","","",""
"psychophysics","43","656563","0.0-6.0-0.37","5c0873675b32d500012e3f2c","609006691f6f4e337c17f836","609d35ff06fe878d3e223e43","990.9749999642372","","","","37","","","","key","16.67203389830548","683","328.5","true","-1","147.58110561976324","1.3194139533312006","14","-1","1","","","","","","","","","","","","",""
"psychophysics","44","659094","0.0-6.0-0.38","5c0873675b32d500012e3f2c","609006691f6f4e337c17f836","609d35ff06fe878d3e223e43","1528.1749998684973","","","","37","","","","key","16.67104666666671","683","328.5","true","-1","147.58110561976324","1.0555311626649604","15","-1","-1","","","","","","","","","","","","",""
"psychophysics","45","661092","0.0-6.0-0.39","5c0873675b32d500012e3f2c","609006691f6f4e337c17f836","609d35ff06fe878d3e223e43","995.2750001102686","","","","37","","","","key","16.67076666666738","683","328.5","true","-1","146.5255744570983","1.0555311626649604","15","-1","-1","","","","","","","","","","","","",""
"html-keyboard-response","46","677480","0.0-7.0","5c0873675b32d500012e3f2c","609006691f6f4e337c17f836","609d35ff06fe878d3e223e43","16385.914999991655","<p>Well Done !</p><p>Prepare for a new block.</p><p>DON'T EXIT THE FULL SCREEN MODE</p><p>Press the Spacebar to start.</p>","","","32","","","","","","","","","","","","","","","true","146.62185044400536","","","","","","","","","","",""
"psychophysics","47","679395","0.0-8.0-0.0","5c0873675b32d500012e3f2c","609006691f6f4e337c17f836","609d35ff06fe878d3e223e43","910.3099999483675","","","","39","","","","key","16.710947826086624","683","328.5","true","1","180","30","0","-1","","","","","","","","","","","","","",""
"psychophysics","48","680529","0.0-8.0-0.1","5c0873675b32d500012e3f2c","609006691f6f4e337c17f836","609d35ff06fe878d3e223e43","131.15500006824732","","","","39","","","","key","16.670522388058657","683","328.5","true","1","180","30","0","-1","-1","","","","","","","","","","","","",""
"psychophysics","49","681964","0.0-8.0-0.2","5c0873675b32d500012e3f2c","609006691f6f4e337c17f836","609d35ff06fe878d3e223e43","431.82500009424984","","","","37","","","","key","16.671364705882254","683","328.5","true","-1","150","30","0","-1","-1","","","","","","","","","","","","",""
"psychophysics","50","683133","0.0-8.0-0.3","5c0873675b32d500012e3f2c","609006691f6f4e337c17f836","609d35ff06fe878d3e223e43","165.76500004157424","","","","39","","","","key","16.669840579709053","683","328.5","true","1","150","30","0","-1","-1","","","","","","","","","","","","",""
"psychophysics","51","684750","0.0-8.0-0.4","5c0873675b32d500012e3f2c","609006691f6f4e337c17f836","609d35ff06fe878d3e223e43","612.9700001329184","","","","37","","","","key","16.671208333333198","683","328.5","true","-1","129","30","0","-1","-1","","","","","","","","","","","","",""
"psychophysics","52","686649","0.0-8.0-0.5","5c0873675b32d500012e3f2c","609006691f6f4e337c17f836","609d35ff06fe878d3e223e43","895.6699999980628","","","","37","","","","key","16.670389380530594","683","328.5","true","-1","129","30","0","-1","-1","","","","","","","","","","","","",""
"psychophysics","53","688155","0.0-8.0-0.6","5c0873675b32d500012e3f2c","609006691f6f4e337c17f836","609d35ff06fe878d3e223e43","503.2249998766929","","","","39","","","","key","16.66997752809018","683","328.5","true","-1","129","24","1","1","-1","","","","","","","","","","","","",""
"psychophysics","54","689397","0.0-8.0-0.7","5c0873675b32d500012e3f2c","609006691f6f4e337c17f836","609d35ff06fe878d3e223e43","237.46999981813133","","","","37","","","","key","16.668959459459813","683","328.5","true","-1","153","24","1","-1","1","","","","","","","","","","","","",""
"psychophysics","55","690497","0.0-8.0-0.8","5c0873675b32d500012e3f2c","609006691f6f4e337c17f836","609d35ff06fe878d3e223e43","95.74000001884997","","","","39","","","","key","16.66995384615416","683","328.5","true","1","153","19.2","2","-1","-1","","","","","","","","","","","","",""
"psychophysics","56","692249","0.0-8.0-0.9","5c0873675b32d500012e3f2c","609006691f6f4e337c17f836","609d35ff06fe878d3e223e43","748.410000000149","","","","39","","","","key","16.672211538461852","683","328.5","true","-1","133.8","15.36","3","1","-1","","","","","","","","","","","","",""
"psychophysics","57","693374","0.0-8.0-0.10","5c0873675b32d500012e3f2c","609006691f6f4e337c17f836","609d35ff06fe878d3e223e43","122.39999999292195","","","","39","","","","key","16.670666666667923","683","328.5","true","1","149.16000000000003","15.36","3","-1","1","","","","","","","","","","","","",""
"psychophysics","58","695109","0.0-8.0-0.11","5c0873675b32d500012e3f2c","609006691f6f4e337c17f836","609d35ff06fe878d3e223e43","729.3200001586229","","","","37","","","","key","16.669708737863896","683","328.5","true","-1","149.16000000000003","12.287999999999998","4","-1","-1","","","","","","","","","","","","",""
"psychophysics","59","698062","0.0-8.0-0.12","5c0873675b32d500012e3f2c","609006691f6f4e337c17f836","609d35ff06fe878d3e223e43","1948.8150000106543","","","","39","","","","key","16.67155681818192","683","328.5","true","1","136.872","12.287999999999998","4","-1","-1","","","","","","","","","","","","",""
"psychophysics","60","699656","0.0-8.0-0.13","5c0873675b32d500012e3f2c","609006691f6f4e337c17f836","609d35ff06fe878d3e223e43","588.4350000414997","","","","39","","","","key","16.670442105263568","683","328.5","true","1","136.872","12.287999999999998","4","-1","-1","","","","","","","","","","","","",""
"psychophysics","61","701487","0.0-8.0-0.14","5c0873675b32d500012e3f2c","609006691f6f4e337c17f836","609d35ff06fe878d3e223e43","827.7149999048561","","","","37","","","","key","16.670715596330343","683","328.5","true","1","129","9.8304","5","1","-1","","","","","","","","","","","","",""
"psychophysics","62","703217","0.0-8.0-0.15","5c0873675b32d500012e3f2c","609006691f6f4e337c17f836","609d35ff06fe878d3e223e43","727.4200001265854","","","","37","","","","key","16.670766990290485","683","328.5","true","1","138.8304","9.8304","5","1","1","","","","","","","","","","","","",""
"psychophysics","63","705417","0.0-8.0-0.16","5c0873675b32d500012e3f2c","609006691f6f4e337c17f836","609d35ff06fe878d3e223e43","1196.2850000709295","","","","37","","","","key","16.670664122137097","683","328.5","true","-1","148.6608","9.8304","5","-1","1","","","","","","","","","","","","",""
"psychophysics","64","707312","0.0-8.0-0.17","5c0873675b32d500012e3f2c","609006691f6f4e337c17f836","609d35ff06fe878d3e223e43","892.2099999617785","","","","39","","","","key","16.671651785715117","683","328.5","true","-1","148.6608","7.864319999999999","6","1","-1","","","","","","","","","","","","",""
"psychophysics","65","709389","0.0-8.0-0.18","5c0873675b32d500012e3f2c","609006691f6f4e337c17f836","609d35ff06fe878d3e223e43","1070.6200001295656","","","","39","","","","key","16.670540322580624","683","328.5","true","-1","156.52512","7.864319999999999","6","1","1","","","","","","","","","","","","",""
"psychophysics","66","710592","0.0-8.0-0.19","5c0873675b32d500012e3f2c","609006691f6f4e337c17f836","609d35ff06fe878d3e223e43","199.605000205338","","","","37","","","","key","16.67135211267561","683","328.5","true","-1","164.38943999999998","7.864319999999999","6","-1","1","","","","","","","","","","","","",""
"psychophysics","67","711983","0.0-8.0-0.20","5c0873675b32d500012e3f2c","609006691f6f4e337c17f836","609d35ff06fe878d3e223e43","387.8200000617653","","","","37","","","","key","16.66979518072281","683","328.5","true","-1","164.38943999999998","6.291456","7","-1","-1","","","","","","","","","","","","",""
"psychophysics","68","713044","0.0-8.0-0.21","5c0873675b32d500012e3f2c","609006691f6f4e337c17f836","609d35ff06fe878d3e223e43","57.65500012785196","","","","39","","","","key","16.670258064515842","683","328.5","true","1","158.09798399999997","6.291456","7","-1","-1","","","","","","","","","","","","",""
"psychophysics","69","714178","0.0-8.0-0.22","5c0873675b32d500012e3f2c","609006691f6f4e337c17f836","609d35ff06fe878d3e223e43","132.29999993927777","","","","39","","","","key","16.67067164179014","683","328.5","true","1","158.09798399999997","6.291456","7","-1","-1","","","","","","","","","","","","",""
"psychophysics","70","716878","0.0-8.0-0.23","5c0873675b32d500012e3f2c","609006691f6f4e337c17f836","609d35ff06fe878d3e223e43","1696.364999981597","","","","39","","","","key","16.66978881987584","683","328.5","true","-1","151.80652799999996","5.033164800000001","8","1","-1","","","","","","","","","","","","",""
"psychophysics","71","718093","0.0-8.0-0.24","5c0873675b32d500012e3f2c","609006691f6f4e337c17f836","609d35ff06fe878d3e223e43","211.430000141263","","","","37","","","","key","16.66820833333218","683","328.5","true","-1","156.83969279999997","5.033164800000001","8","-1","1","","","","","","","","","","","","",""
"psychophysics","72","719182","0.0-8.0-0.25","5c0873675b32d500012e3f2c","609006691f6f4e337c17f836","609d35ff06fe878d3e223e43","86.24999993480742","","","","37","","","","key","16.670750000001135","683","328.5","true","-1","156.83969279999997","4.0265318400000005","9","-1","-1","","","","","","","","","","","","",""
"psychophysics","73","721256","0.0-8.0-0.26","5c0873675b32d500012e3f2c","609006691f6f4e337c17f836","609d35ff06fe878d3e223e43","1067.6400000229478","","","","37","","","","key","16.67066129032267","683","328.5","true","-1","152.81316095999998","4.0265318400000005","9","-1","-1","","","","","","","","","","","","",""
"psychophysics","74","722476","0.0-8.0-0.27","5c0873675b32d500012e3f2c","609006691f6f4e337c17f836","609d35ff06fe878d3e223e43","218.83500018157065","","","","39","","","","key","16.670736111110372","683","328.5","true","1","152.81316095999998","4.0265318400000005","9","-1","-1","","","","","","","","","","","","",""
"psychophysics","75","724607","0.0-8.0-0.28","5c0873675b32d500012e3f2c","609006691f6f4e337c17f836","609d35ff06fe878d3e223e43","1127.570000011474","","","","39","","","","key","16.670653543307623","683","328.5","true","-1","148.78662912","3.2212254720000004","10","1","-1","","","","","","","","","","","","",""
"psychophysics","76","725892","0.0-8.0-0.29","5c0873675b32d500012e3f2c","609006691f6f4e337c17f836","609d35ff06fe878d3e223e43","281.7199998535216","","","","39","","","","key","16.67062666666694","683","328.5","true","1","152.007854592","3.2212254720000004","10","-1","1","","","","","","","","","","","","",""
"psychophysics","77","727457","0.0-8.0-0.30","5c0873675b32d500012e3f2c","609006691f6f4e337c17f836","609d35ff06fe878d3e223e43","563.3900000248104","","","","37","","","","key","16.67226595744649","683","328.5","true","-1","152.007854592","2.5769803776000004","11","-1","-1","","","","","","","","","","","","",""
"psychophysics","78","731941","0.0-8.0-0.31","5c0873675b32d500012e3f2c","609006691f6f4e337c17f836","609d35ff06fe878d3e223e43","3480.699999956414","","","","39","","","","key","16.670544776119424","683","328.5","true","1","149.4308742144","2.5769803776000004","11","-1","-1","","","","","","","","","","","","",""
"psychophysics","79","733523","0.0-8.0-0.32","5c0873675b32d500012e3f2c","609006691f6f4e337c17f836","609d35ff06fe878d3e223e43","578.2650001347065","","","","37","","","","key","16.6696382978723","683","328.5","true","1","149.4308742144","2.0615843020800004","12","1","-1","","","","","","","","","","","","",""
"psychophysics","80","735739","0.0-8.0-0.33","5c0873675b32d500012e3f2c","609006691f6f4e337c17f836","609d35ff06fe878d3e223e43","1199.25000006333","","","","37","","","","key","16.670603053434576","683","328.5","true","-1","151.49245851648","2.0615843020800004","12","-1","1","","","","","","","","","","","","",""
"psychophysics","81","739785","0.0-8.0-0.34","5c0873675b32d500012e3f2c","609006691f6f4e337c17f836","609d35ff06fe878d3e223e43","3040.6349999830127","","","","37","","","","key","16.670570247933608","683","328.5","true","1","151.49245851648","1.6492674416640005","13","1","-1","","","","","","","","","","","","",""
"psychophysics","82","741530","0.0-8.0-0.35","5c0873675b32d500012e3f2c","609006691f6f4e337c17f836","609d35ff06fe878d3e223e43","739.9649999570101","","","","39","","","","key","16.670173076922836","683","328.5","true","1","153.141725958144","1.6492674416640005","13","-1","1","","","","","","","","","","","","",""
"psychophysics","83","743208","0.0-8.0-0.36","5c0873675b32d500012e3f2c","609006691f6f4e337c17f836","609d35ff06fe878d3e223e43","674.519999884069","","","","39","","","","key","16.669353535354155","683","328.5","true","1","153.141725958144","1.3194139533312006","14","-1","-1","","","","","","","","","","","","",""
"psychophysics","84","744932","0.0-8.0-0.37","5c0873675b32d500012e3f2c","609006691f6f4e337c17f836","609d35ff06fe878d3e223e43","720.0599999632686","","","","39","","","","key","16.669640776699012","683","328.5","true","1","151.8223120048128","1.3194139533312006","14","-1","-1","","","","","","","","","","","","",""
"psychophysics","85","746540","0.0-8.0-0.38","5c0873675b32d500012e3f2c","609006691f6f4e337c17f836","609d35ff06fe878d3e223e43","604.3050000444055","","","","37","","","","key","16.671999999999656","683","328.5","true","-1","151.8223120048128","1.3194139533312006","14","-1","-1","","","","","","","","","","","","",""
"psychophysics","86","747659","0.0-8.0-0.39","5c0873675b32d500012e3f2c","609006691f6f4e337c17f836","609d35ff06fe878d3e223e43","112.88999998942018","","","","39","","","","key","16.67254545454599","683","328.5","true","1","150.5028980514816","1.3194139533312006","14","-1","-1","","","","","","","","","","","","",""
"html-keyboard-response","87","760453","0.0-9.0","5c0873675b32d500012e3f2c","609006691f6f4e337c17f836","609d35ff06fe878d3e223e43","12791.100000031292","<p>Well Done !</p><p>Prepare for a new block.</p><p>DON'T EXIT THE FULL SCREEN MODE</p><p>Press the Spacebar to start.</p>","","","32","","","","","","","","","","","","","","","true","151.8363994975437","","","","","","","","","","",""
"psychophysics","88","764203","0.0-10.0-0.0","5c0873675b32d500012e3f2c","609006691f6f4e337c17f836","609d35ff06fe878d3e223e43","2745.799999916926","","","","37","","","","key","16.69709821428582","683","328.5","true","-1","180","30","0","-1","","","","","","","","","","","","","",""
"psychophysics","89","767035","0.0-10.0-0.1","5c0873675b32d500012e3f2c","609006691f6f4e337c17f836","609d35ff06fe878d3e223e43","1828.1900000292808","","","","39","","","","key","16.671023668639346","683","328.5","true","1","180","30","0","-1","-1","","","","","","","","","","","","",""
"psychophysics","90","768178","0.0-10.0-0.2","5c0873675b32d500012e3f2c","609006691f6f4e337c17f836","609d35ff06fe878d3e223e43","137.43500015698373","","","","37","","","","key","16.670328358209122","683","328.5","true","-1","150","30","0","-1","-1","","","","","","","","","","","","",""
"psychophysics","91","771323","0.0-10.0-0.3","5c0873675b32d500012e3f2c","609006691f6f4e337c17f836","609d35ff06fe878d3e223e43","2139.4599999766797","","","","37","","","","key","16.670691489361527","683","328.5","true","1","150","24","1","1","-1","","","","","","","","","","","","",""
"psychophysics","92","774755","0.0-10.0-0.4","5c0873675b32d500012e3f2c","609006691f6f4e337c17f836","609d35ff06fe878d3e223e43","2424.674999900162","","","","37","","","","key","16.670668292683324","683","328.5","true","-1","174","24","1","-1","1","","","","","","","","","","","","",""
"psychophysics","93","775860","0.0-10.0-0.5","5c0873675b32d500012e3f2c","609006691f6f4e337c17f836","609d35ff06fe878d3e223e43","100.45000002719462","","","","37","","","","key","16.67078461538499","683","328.5","true","-1","174","19.2","2","-1","-1","","","","","","","","","","","","",""
"psychophysics","94","779009","0.0-10.0-0.6","5c0873675b32d500012e3f2c","609006691f6f4e337c17f836","609d35ff06fe878d3e223e43","2143.784999847412","","","","39","","","","key","16.67069680851072","683","328.5","true","-1","154.8","15.36","3","1","-1","","","","","","","","","","","","",""
"psychophysics","95","780918","0.0-10.0-0.7","5c0873675b32d500012e3f2c","609006691f6f4e337c17f836","609d35ff06fe878d3e223e43","902.4900000076741","","","","39","","","","key","16.67071929824612","683","328.5","true","1","170.16000000000003","15.36","3","-1","1","","","","","","","","","","","","",""
"psychophysics","96","781970","0.0-10.0-0.8","5c0873675b32d500012e3f2c","609006691f6f4e337c17f836","609d35ff06fe878d3e223e43","48.41999989002943","","","","39","","","","key","16.673032258064563","683","328.5","true","1","170.16000000000003","12.287999999999998","4","-1","-1","","","","","","","","","","","","",""
"psychophysics","97","783360","0.0-10.0-0.9","5c0873675b32d500012e3f2c","609006691f6f4e337c17f836","609d35ff06fe878d3e223e43","385.9449999872595","","","","37","","","","key","16.67104878048867","683","328.5","true","-1","157.872","12.287999999999998","4","-1","-1","","","","","","","","","","","","",""
"psychophysics","98","784614","0.0-10.0-0.10","5c0873675b32d500012e3f2c","609006691f6f4e337c17f836","609d35ff06fe878d3e223e43","250.83000003360212","","","","37","","","","key","16.672324324325608","683","328.5","true","-1","157.872","12.287999999999998","4","-1","-1","","","","","","","","","","","","",""
"psychophysics","99","787020","0.0-10.0-0.11","5c0873675b32d500012e3f2c","609006691f6f4e337c17f836","609d35ff06fe878d3e223e43","1402.3150000721216","","","","37","","","","key","16.671020833333184","683","328.5","true","1","145.584","9.8304","5","1","-1","","","","","","","","","","","","",""
"psychophysics","100","788236","0.0-10.0-0.12","5c0873675b32d500012e3f2c","609006691f6f4e337c17f836","609d35ff06fe878d3e223e43","211.17500006221235","","","","37","","","","key","16.670625000000452","683","328.5","true","-1","155.4144","9.8304","5","-1","1","","","","","","","","","","","","",""
"psychophysics","101","789491","0.0-10.0-0.13","5c0873675b32d500012e3f2c","609006691f6f4e337c17f836","609d35ff06fe878d3e223e43","251.95499998517334","","","","39","","","","key","16.670094594595376","683","328.5","true","1","155.4144","7.864319999999999","6","-1","-1","","","","","","","","","","","","",""
"psychophysics","102","791970","0.0-10.0-0.14","5c0873675b32d500012e3f2c","609006691f6f4e337c17f836","609d35ff06fe878d3e223e43","1476.4349998440593","","","","39","","","","key","16.670831081081445","683","328.5","true","-1","147.55008","6.291456","7","1","-1","","","","","","","","","","","","",""
"psychophysics","103","793522","0.0-10.0-0.15","5c0873675b32d500012e3f2c","609006691f6f4e337c17f836","609d35ff06fe878d3e223e43","548.6849998123944","","","","39","","","","key","16.670217391304703","683","328.5","true","1","153.84153600000002","6.291456","7","-1","1","","","","","","","","","","","","",""
"psychophysics","104","795128","0.0-10.0-0.16","5c0873675b32d500012e3f2c","609006691f6f4e337c17f836","609d35ff06fe878d3e223e43","603.1400000210851","","","","39","","","","key","16.670968421052308","683","328.5","true","1","153.84153600000002","5.033164800000001","8","-1","-1","","","","","","","","","","","","",""
"psychophysics","105","797443","0.0-10.0-0.17","5c0873675b32d500012e3f2c","609006691f6f4e337c17f836","609d35ff06fe878d3e223e43","1311.2900000996888","","","","37","","","","key","16.67047101449292","683","328.5","true","1","148.8083712","4.0265318400000005","9","1","-1","","","","","","","","","","","","",""
"psychophysics","106","798784","0.0-10.0-0.18","5c0873675b32d500012e3f2c","609006691f6f4e337c17f836","609d35ff06fe878d3e223e43","336.4200000651181","","","","39","","","","key","16.67034177215257","683","328.5","true","1","152.83490304","4.0265318400000005","9","-1","1","","","","","","","","","","","","",""
"psychophysics","107","800372","0.0-10.0-0.19","5c0873675b32d500012e3f2c","609006691f6f4e337c17f836","609d35ff06fe878d3e223e43","583.1049999687821","","","","37","","","","key","16.67051578947392","683","328.5","true","-1","152.83490304","3.2212254720000004","10","-1","-1","","","","","","","","","","","","",""
"psychophysics","108","802072","0.0-10.0-0.20","5c0873675b32d500012e3f2c","609006691f6f4e337c17f836","609d35ff06fe878d3e223e43","696.324999909848","","","","37","","","","key","16.671772277228175","683","328.5","true","-1","149.613677568","3.2212254720000004","10","-1","-1","","","","","","","","","","","","",""
"psychophysics","109","804161","0.0-10.0-0.21","5c0873675b32d500012e3f2c","609006691f6f4e337c17f836","609d35ff06fe878d3e223e43","1086.0900001134723","","","","39","","","","key","16.669572580645177","683","328.5","true","1","149.613677568","3.2212254720000004","10","-1","-1","","","","","","","","","","","","",""
"psychophysics","110","805928","0.0-10.0-0.22","5c0873675b32d500012e3f2c","609006691f6f4e337c17f836","609d35ff06fe878d3e223e43","764.8799999151379","","","","39","","","","key","16.672114285714702","683","328.5","true","1","146.392452096","3.2212254720000004","10","-1","-1","","","","","","","","","","","","",""
"psychophysics","111","807561","0.0-10.0-0.23","5c0873675b32d500012e3f2c","609006691f6f4e337c17f836","609d35ff06fe878d3e223e43","631.0499999672174","","","","37","","","","key","16.67064948453563","683","328.5","true","-1","146.392452096","3.2212254720000004","10","-1","-1","","","","","","","","","","","","",""
"psychophysics","112","809574","0.0-10.0-0.24","5c0873675b32d500012e3f2c","609006691f6f4e337c17f836","609d35ff06fe878d3e223e43","1009.4850000459701","","","","37","","","","key","16.670466666666712","683","328.5","true","1","143.17122662399998","2.5769803776000004","11","1","-1","","","","","","","","","","","","",""
"psychophysics","113","810791","0.0-10.0-0.25","5c0873675b32d500012e3f2c","609006691f6f4e337c17f836","609d35ff06fe878d3e223e43","212.169999955222","","","","37","","","","key","16.67019444444385","683","328.5","true","-1","145.74820700159998","2.5769803776000004","11","-1","1","","","","","","","","","","","","",""
"psychophysics","114","812513","0.0-10.0-0.26","5c0873675b32d500012e3f2c","609006691f6f4e337c17f836","609d35ff06fe878d3e223e43","717.7599999122322","","","","39","","","","key","16.6705000000006","683","328.5","true","-1","145.74820700159998","2.0615843020800004","12","1","-1","","","","","","","","","","","","",""
"psychophysics","115","814059","0.0-10.0-0.27","5c0873675b32d500012e3f2c","609006691f6f4e337c17f836","609d35ff06fe878d3e223e43","542.4949999433011","","","","37","","","","key","16.671793478261428","683","328.5","true","-1","147.80979130368","2.0615843020800004","12","-1","1","","","","","","","","","","","","",""
"psychophysics","116","816079","0.0-10.0-0.28","5c0873675b32d500012e3f2c","609006691f6f4e337c17f836","609d35ff06fe878d3e223e43","1015.6100001186132","","","","37","","","","key","16.670550000000123","683","328.5","true","1","147.80979130368","1.6492674416640005","13","1","-1","","","","","","","","","","","","",""
"psychophysics","117","820899","0.0-10.0-0.29","5c0873675b32d500012e3f2c","609006691f6f4e337c17f836","609d35ff06fe878d3e223e43","3817.700000014156","","","","37","","","","key","16.670232638888894","683","328.5","true","1","149.45905874534398","1.6492674416640005","13","1","1","","","","","","","","","","","","",""
"psychophysics","118","822193","0.0-10.0-0.30","5c0873675b32d500012e3f2c","609006691f6f4e337c17f836","609d35ff06fe878d3e223e43","290.9549998585135","","","","39","","","","key","16.670571428570934","683","328.5","true","1","151.10832618700798","1.6492674416640005","13","-1","1","","","","","","","","","","","","",""
"psychophysics","119","823848","0.0-10.0-0.31","5c0873675b32d500012e3f2c","609006691f6f4e337c17f836","609d35ff06fe878d3e223e43","649.6749999932945","","","","39","","","","key","16.669938775510005","683","328.5","true","1","151.10832618700798","1.3194139533312006","14","-1","-1","","","","","","","","","","","","",""
"psychophysics","120","825244","0.0-10.0-0.32","5c0873675b32d500012e3f2c","609006691f6f4e337c17f836","609d35ff06fe878d3e223e43","392.8600000217557","","","","37","","","","key","16.669325301204864","683","328.5","true","-1","149.78891223367677","1.3194139533312006","14","-1","-1","","","","","","","","","","","","",""
"psychophysics","121","827951","0.0-10.0-0.33","5c0873675b32d500012e3f2c","609006691f6f4e337c17f836","609d35ff06fe878d3e223e43","1703.2950001303107","","","","37","","","","key","16.670596273292016","683","328.5","true","1","149.78891223367677","1.0555311626649604","15","1","-1","","","","","","","","","","","","",""
"psychophysics","122","829729","0.0-10.0-0.34","5c0873675b32d500012e3f2c","609006691f6f4e337c17f836","609d35ff06fe878d3e223e43","765.3149999678135","","","","37","","","","key","16.671433962264345","683","328.5","true","-1","150.84444339634172","1.0555311626649604","15","-1","1","","","","","","","","","","","","",""
"psychophysics","123","833247","0.0-10.0-0.35","5c0873675b32d500012e3f2c","609006691f6f4e337c17f836","609d35ff06fe878d3e223e43","2513.700000010431","","","","39","","","","key","16.671204761904665","683","328.5","true","1","150.84444339634172","1","16","-1","-1","","","","","","","","","","","","",""
"psychophysics","124","834966","0.0-10.0-0.36","5c0873675b32d500012e3f2c","609006691f6f4e337c17f836","609d35ff06fe878d3e223e43","715.1849998626858","","","","39","","","","key","16.669999999999682","683","328.5","true","1","149.84444339634172","1","16","-1","-1","","","","","","","","","","","","",""
"psychophysics","125","836638","0.0-10.0-0.37","5c0873675b32d500012e3f2c","609006691f6f4e337c17f836","609d35ff06fe878d3e223e43","669.6049999445677","","","","37","","","","key","16.669515151515217","683","328.5","true","-1","149.84444339634172","1","16","-1","-1","","","","","","","","","","","","",""
"psychophysics","126","838941","0.0-10.0-0.38","5c0873675b32d500012e3f2c","609006691f6f4e337c17f836","609d35ff06fe878d3e223e43","1299.824999878183","","","","37","","","","key","16.670664233577025","683","328.5","true","-1","148.84444339634172","1","16","-1","-1","","","","","","","","","","","","",""
"psychophysics","127","841337","0.0-10.0-0.39","5c0873675b32d500012e3f2c","609006691f6f4e337c17f836","609d35ff06fe878d3e223e43","1392.8100001066923","","","","39","","","","key","16.67132867132867","683","328.5","true","-1","148.84444339634172","1","17","1","-1","","","","","","","","","","","","",""
"html-keyboard-response","128","853726","0.0-11.0","5c0873675b32d500012e3f2c","609006691f6f4e337c17f836","609d35ff06fe878d3e223e43","12387.735000113025","<p>Well Done !</p><p>Prepare for a new block.</p><p>DON'T EXIT THE FULL SCREEN MODE</p><p>Press the Spacebar to start.</p>","","","32","","","","","","","","","","","","","","","true","149.16241283835495","","","","","","","","","","",""
"psychophysics","129","854843","0.0-12.0-0.0","5c0873675b32d500012e3f2c","609006691f6f4e337c17f836","609d35ff06fe878d3e223e43","113.16499998793006","","","","37","","","","key","16.767818181817844","683","328.5","true","-1","180","30","0","-1","","","","","","","","","","","","","",""
"psychophysics","130","855904","0.0-12.0-0.1","5c0873675b32d500012e3f2c","609006691f6f4e337c17f836","609d35ff06fe878d3e223e43","59.84000000171363","","","","37","","","","key","16.672650793650455","683","328.5","true","-1","180","30","0","-1","-1","","","","","","","","","","","","",""
"psychophysics","131","858512","0.0-12.0-0.2","5c0873675b32d500012e3f2c","609006691f6f4e337c17f836","609d35ff06fe878d3e223e43","1603.8649999536574","","","","37","","","","key","16.67018064516146","683","328.5","true","-1","150","30","0","-1","-1","","","","","","","","","","","","",""
"psychophysics","132","861014","0.0-12.0-0.3","5c0873675b32d500012e3f2c","609006691f6f4e337c17f836","609d35ff06fe878d3e223e43","1499.0149999503046","","","","37","","","","key","16.67087248322201","683","328.5","true","1","150","24","1","1","-1","","","","","","","","","","","","",""
"psychophysics","133","862239","0.0-12.0-0.4","5c0873675b32d500012e3f2c","609006691f6f4e337c17f836","609d35ff06fe878d3e223e43","221.09500016085804","","","","39","","","","key","16.67004109588962","683","328.5","true","1","174","24","1","-1","1","","","","","","","","","","","","",""
"psychophysics","134","863458","0.0-12.0-0.5","5c0873675b32d500012e3f2c","609006691f6f4e337c17f836","609d35ff06fe878d3e223e43","215.49500012770295","","","","39","","","","key","16.67100000000048","683","328.5","true","1","174","19.2","2","-1","-1","","","","","","","","","","","","",""
"psychophysics","135","865045","0.0-12.0-0.6","5c0873675b32d500012e3f2c","609006691f6f4e337c17f836","609d35ff06fe878d3e223e43","583.054999820888","","","","37","","","","key","16.671882978723474","683","328.5","true","-1","154.8","19.2","2","-1","-1","","","","","","","","","","","","",""
"psychophysics","136","868341","0.0-12.0-0.7","5c0873675b32d500012e3f2c","609006691f6f4e337c17f836","609d35ff06fe878d3e223e43","2294.044999871403","","","","37","","","","key","16.67140609137052","683","328.5","true","1","154.8","15.36","3","1","-1","","","","","","","","","","","","",""
"psychophysics","137","869544","0.0-12.0-0.8","5c0873675b32d500012e3f2c","609006691f6f4e337c17f836","609d35ff06fe878d3e223e43","198.3000000473112","","","","39","","","","key","16.671267605634263","683","328.5","true","1","170.16000000000003","15.36","3","-1","1","","","","","","","","","","","","",""
"psychophysics","138","871366","0.0-12.0-0.9","5c0873675b32d500012e3f2c","609006691f6f4e337c17f836","609d35ff06fe878d3e223e43","818.2149999774992","","","","39","","","","key","16.670842592592603","683","328.5","true","1","170.16000000000003","12.287999999999998","4","-1","-1","","","","","","","","","","","","",""
"psychophysics","139","872895","0.0-12.0-0.10","5c0873675b32d500012e3f2c","609006691f6f4e337c17f836","609d35ff06fe878d3e223e43","523.9999999757856","","","","37","","","","key","16.67208791208827","683","328.5","true","-1","157.872","12.287999999999998","4","-1","-1","","","","","","","","","","","","",""
"psychophysics","140","874334","0.0-12.0-0.11","5c0873675b32d500012e3f2c","609006691f6f4e337c17f836","609d35ff06fe878d3e223e43","435.9150000382215","","","","37","","","","key","16.67035294117625","683","328.5","true","-1","157.872","12.287999999999998","4","-1","-1","","","","","","","","","","","","",""
"psychophysics","141","876455","0.0-12.0-0.12","5c0873675b32d500012e3f2c","609006691f6f4e337c17f836","609d35ff06fe878d3e223e43","1116.2650000769645","","","","39","","","","key","16.670055555554832","683","328.5","true","-1","145.584","9.8304","5","1","-1","","","","","","","","","","","","",""
"psychophysics","142","879395","0.0-12.0-0.13","5c0873675b32d500012e3f2c","609006691f6f4e337c17f836","609d35ff06fe878d3e223e43","1936.2649999093264","","","","39","","","","key","16.670596590909224","683","328.5","true","1","155.4144","9.8304","5","-1","1","","","","","","","","","","","","",""
"psychophysics","143","881004","0.0-12.0-0.14","5c0873675b32d500012e3f2c","609006691f6f4e337c17f836","609d35ff06fe878d3e223e43","606.6499999724329","","","","37","","","","key","16.67094736842218","683","328.5","true","-1","155.4144","7.864319999999999","6","-1","-1","","","","","","","","","","","","",""
"psychophysics","144","883111","0.0-12.0-0.15","5c0873675b32d500012e3f2c","609006691f6f4e337c17f836","609d35ff06fe878d3e223e43","1102.140000090003","","","","37","","","","key","16.67032539682548","683","328.5","true","-1","147.55008","7.864319999999999","6","-1","-1","","","","","","","","","","","","",""
"psychophysics","145","885566","0.0-12.0-0.16","5c0873675b32d500012e3f2c","609006691f6f4e337c17f836","609d35ff06fe878d3e223e43","1451.6249999869615","","","","39","","","","key","16.671116438356215","683","328.5","true","-1","147.55008","6.291456","7","1","-1","","","","","","","","","","","","",""
"psychophysics","146","886820","0.0-12.0-0.17","5c0873675b32d500012e3f2c","609006691f6f4e337c17f836","609d35ff06fe878d3e223e43","251.36499991640449","","","","37","","","","key","16.67031081081085","683","328.5","true","-1","153.84153600000002","6.291456","7","-1","1","","","","","","","","","","","","",""
"psychophysics","147","889810","0.0-12.0-0.18","5c0873675b32d500012e3f2c","609006691f6f4e337c17f836","609d35ff06fe878d3e223e43","1982.82999987714","","","","37","","","","key","16.670910614525102","683","328.5","true","1","153.84153600000002","5.033164800000001","8","1","-1","","","","","","","","","","","","",""
"psychophysics","148","892101","0.0-12.0-0.19","5c0873675b32d500012e3f2c","609006691f6f4e337c17f836","609d35ff06fe878d3e223e43","1289.3049998674542","","","","39","","","","key","16.671227941176554","683","328.5","true","1","158.87470080000003","5.033164800000001","8","-1","1","","","","","","","","","","","","",""
"psychophysics","149","894186","0.0-12.0-0.20","5c0873675b32d500012e3f2c","609006691f6f4e337c17f836","609d35ff06fe878d3e223e43","1081.6299999132752","","","","37","","","","key","16.67066129032267","683","328.5","true","-1","158.87470080000003","4.0265318400000005","9","-1","-1","","","","","","","","","","","","",""
"psychophysics","150","896203","0.0-12.0-0.21","5c0873675b32d500012e3f2c","609006691f6f4e337c17f836","609d35ff06fe878d3e223e43","1013.3350000251085","","","","37","","","","key","16.670641666666295","683","328.5","true","-1","154.84816896000004","4.0265318400000005","9","-1","-1","","","","","","","","","","","","",""
"psychophysics","151","897894","0.0-12.0-0.22","5c0873675b32d500012e3f2c","609006691f6f4e337c17f836","609d35ff06fe878d3e223e43","687.9700000863522","","","","39","","","","key","16.670890000000362","683","328.5","true","1","154.84816896000004","4.0265318400000005","9","-1","-1","","","","","","","","","","","","",""
"psychophysics","152","899801","0.0-12.0-0.23","5c0873675b32d500012e3f2c","609006691f6f4e337c17f836","609d35ff06fe878d3e223e43","903.4049999900162","","","","39","","","","key","16.67070175438666","683","328.5","true","1","150.82163712000005","4.0265318400000005","9","-1","-1","","","","","","","","","","","","",""
"psychophysics","153","902240","0.0-12.0-0.24","5c0873675b32d500012e3f2c","609006691f6f4e337c17f836","609d35ff06fe878d3e223e43","1436.9350001215935","","","","37","","","","key","16.669931034482854","683","328.5","true","1","150.82163712000005","3.2212254720000004","10","1","-1","","","","","","","","","","","","",""
"psychophysics","154","903468","0.0-12.0-0.25","5c0873675b32d500012e3f2c","609006691f6f4e337c17f836","609d35ff06fe878d3e223e43","220.4849999397993","","","","39","","","","key","16.904027777778943","683","328.5","true","1","154.04286259200006","3.2212254720000004","10","-1","1","","","","","","","","","","","","",""
"psychophysics","155","905016","0.0-12.0-0.26","5c0873675b32d500012e3f2c","609006691f6f4e337c17f836","609d35ff06fe878d3e223e43","545.2099998947233","","","","39","","","","key","16.67025000000064","683","328.5","true","1","154.04286259200006","2.5769803776000004","11","-1","-1","","","","","","","","","","","","",""
"psychophysics","156","906461","0.0-12.0-0.27","5c0873675b32d500012e3f2c","609006691f6f4e337c17f836","609d35ff06fe878d3e223e43","441.39000005088747","","","","37","","","","key","16.671658823529587","683","328.5","true","-1","151.46588221440007","2.5769803776000004","11","-1","-1","","","","","","","","","","","","",""
"psychophysics","157","910532","0.0-12.0-0.28","5c0873675b32d500012e3f2c","609006691f6f4e337c17f836","609d35ff06fe878d3e223e43","3064.805000089109","","","","37","","","","key","16.670868852459176","683","328.5","true","1","151.46588221440007","2.0615843020800004","12","1","-1","","","","","","","","","","","","",""
"psychophysics","158","913270","0.0-12.0-0.29","5c0873675b32d500012e3f2c","609006691f6f4e337c17f836","609d35ff06fe878d3e223e43","1734.8699998110533","","","","37","","","","key","16.67134355828223","683","328.5","true","1","153.52746651648008","2.0615843020800004","12","1","1","","","","","","","","","","","","",""
"psychophysics","159","916307","0.0-12.0-0.30","5c0873675b32d500012e3f2c","609006691f6f4e337c17f836","609d35ff06fe878d3e223e43","2033.674999838695","","","","39","","","","key","16.670922651933893","683","328.5","true","1","155.58905081856008","2.0615843020800004","12","-1","1","","","","","","","","","","","","",""
"psychophysics","160","918635","0.0-12.0-0.31","5c0873675b32d500012e3f2c","609006691f6f4e337c17f836","609d35ff06fe878d3e223e43","1323.545000050217","","","","37","","","","key","16.670726618705245","683","328.5","true","-1","155.58905081856008","1.6492674416640005","13","-1","-1","","","","","","","","","","","","",""
"psychophysics","161","921186","0.0-12.0-0.32","5c0873675b32d500012e3f2c","609006691f6f4e337c17f836","609d35ff06fe878d3e223e43","1548.2499999925494","","","","37","","","","key","16.67049999999979","683","328.5","true","1","153.9397833768961","1.3194139533312006","14","1","-1","","","","","","","","","","","","",""
"psychophysics","162","923856","0.0-12.0-0.33","5c0873675b32d500012e3f2c","609006691f6f4e337c17f836","609d35ff06fe878d3e223e43","1666.1150001455098","","","","37","","","","key","16.67032704402549","683","328.5","true","-1","155.2591973302273","1.3194139533312006","14","-1","1","","","","","","","","","","","","",""
"psychophysics","163","925334","0.0-12.0-0.34","5c0873675b32d500012e3f2c","609006691f6f4e337c17f836","609d35ff06fe878d3e223e43","474.14500010199845","","","","37","","","","key","16.670875000000127","683","328.5","true","-1","155.2591973302273","1.0555311626649604","15","-1","-1","","","","","","","","","","","","",""
"psychophysics","164","926866","0.0-12.0-0.35","5c0873675b32d500012e3f2c","609006691f6f4e337c17f836","609d35ff06fe878d3e223e43","528.0400000046939","","","","39","","","","key","16.670777777777726","683","328.5","true","1","154.20366616756235","1.0555311626649604","15","-1","-1","","","","","","","","","","","","",""
"psychophysics","165","929101","0.0-12.0-0.36","5c0873675b32d500012e3f2c","609006691f6f4e337c17f836","609d35ff06fe878d3e223e43","1231.4800000749528","","","","39","","","","key","16.670865671641415","683","328.5","true","1","154.20366616756235","1.0555311626649604","15","-1","-1","","","","","","","","","","","","",""
"psychophysics","166","930880","0.0-12.0-0.37","5c0873675b32d500012e3f2c","609006691f6f4e337c17f836","609d35ff06fe878d3e223e43","776.9599999301136","","","","37","","","","key","16.670866666666587","683","328.5","true","-1","153.1481350048974","1.0555311626649604","15","-1","-1","","","","","","","","","","","","",""
"psychophysics","167","933538","0.0-12.0-0.38","5c0873675b32d500012e3f2c","609006691f6f4e337c17f836","609d35ff06fe878d3e223e43","1652.6550000999123","","","","37","","","","key","16.671163522013106","683","328.5","true","-1","153.1481350048974","1.0555311626649604","15","-1","-1","","","","","","","","","","","","",""
"psychophysics","168","935189","0.0-12.0-0.39","5c0873675b32d500012e3f2c","609006691f6f4e337c17f836","609d35ff06fe878d3e223e43","649.2250000592321","","","","37","","","","key","16.67136734693872","683","328.5","true","-1","152.09260384223245","1.0555311626649604","15","-1","-1","","","","","","","","","","","","",""
"html-keyboard-response","169","941092","0.0-13.0","5c0873675b32d500012e3f2c","609006691f6f4e337c17f836","609d35ff06fe878d3e223e43","5900.595000013709","<p>Well Done !</p><p>Prepare for a new block.</p><p>DON'T EXIT THE FULL SCREEN MODE</p><p>Press the Spacebar to start.</p>","","","32","","","","","","","","","","","","","","","true","153.79849613272688","","","","","","","","","","",""
"html-keyboard-response","170","941197","0.0-14.0","5c0873675b32d500012e3f2c","609006691f6f4e337c17f836","609d35ff06fe878d3e223e43","null","","","","null","","","","","","","","","","","","","","","","","150.35478972815773","true","172.70957945631545","","","","","","","",""
"instructions","171","989232","0.0-15.0","5c0873675b32d500012e3f2c","609006691f6f4e337c17f836","609d35ff06fe878d3e223e43","48032.37499995157","","","","","","","[{""page_index"":0,""viewing_time"":30326.660000020638},{""page_index"":1,""viewing_time"":7762.679999927059},{""page_index"":2,""viewing_time"":9942.504999926314}]","","","","","","","","","","","","","","","","","","","","","","","",""
"psychophysics","172","992244","0.0-16.0-0.0","5c0873675b32d500012e3f2c","609006691f6f4e337c17f836","609d35ff06fe878d3e223e43","null","","","","null","","","","key","16.651533333332434","683","328.5","","","","","","","","","","","","","","","","","","","",""
"psychophysics","173","992753","0.0-16.0-1.0","5c0873675b32d500012e3f2c","609006691f6f4e337c17f836","609d35ff06fe878d3e223e43","null","","","","null","","","","key","16.67206666666704","683","328.5","","","","","","","","","","","","","173","-1","6","false","","","",""
"psychophysics","174","995409","0.0-16.0-2.0","5c0873675b32d500012e3f2c","609006691f6f4e337c17f836","609d35ff06fe878d3e223e43","2652.860000031069","","","","77","","","","key","16.67055063291167","683","328.5","","","","","","","","","","","","","","","","","","","",""
"psychophysics","175","996413","0.0-16.0-0.1","5c0873675b32d500012e3f2c","609006691f6f4e337c17f836","609d35ff06fe878d3e223e43","null","","","","null","","","","key","16.669627118644588","683","328.5","","","","","","","","","","","","","","","","","","","",""
"psychophysics","176","996918","0.0-16.0-1.1","5c0873675b32d500012e3f2c","609006691f6f4e337c17f836","609d35ff06fe878d3e223e43","null","","","","null","","","","key","16.671566666666575","683","328.5","","","","","","","","","","","","","173","1","5","false","","","",""
"psychophysics","177","998033","0.0-16.0-2.1","5c0873675b32d500012e3f2c","609006691f6f4e337c17f836","609d35ff06fe878d3e223e43","1111.1199997831136","","","","77","","","","key","16.672800000001175","683","328.5","","","","","","","","","","","","","","","","","","","",""
"psychophysics","178","999037","0.0-16.0-0.2","5c0873675b32d500012e3f2c","609006691f6f4e337c17f836","609d35ff06fe878d3e223e43","null","","","","null","","","","key","16.670083333332634","683","328.5","","","","","","","","","","","","","","","","","","","",""
"psychophysics","179","999538","0.0-16.0-1.2","5c0873675b32d500012e3f2c","609006691f6f4e337c17f836","609d35ff06fe878d3e223e43","null","","","","null","","","","key","16.67403448275933","683","328.5","","","","","","","","","","","","","173","-1","5","false","","","",""
"psychophysics","180","1002351","0.0-16.0-2.2","5c0873675b32d500012e3f2c","609006691f6f4e337c17f836","609d35ff06fe878d3e223e43","2810.53000013344","","","","77","","","","key","16.670143712575484","683","328.5","","","","","","","","","","","","","","","","","","","",""
"psychophysics","181","1003353","0.0-16.0-0.3","5c0873675b32d500012e3f2c","609006691f6f4e337c17f836","609d35ff06fe878d3e223e43","null","","","","null","","","","key","16.673149999999442","683","328.5","","","","","","","","","","","","","","","","","","","",""
"psychophysics","182","1003856","0.0-16.0-1.3","5c0873675b32d500012e3f2c","609006691f6f4e337c17f836","609d35ff06fe878d3e223e43","null","","","","null","","","","key","16.6672758620698","683","328.5","","","","","","","","","","","","","173","1","0","false","","","",""
"psychophysics","183","1004591","0.0-16.0-2.3","5c0873675b32d500012e3f2c","609006691f6f4e337c17f836","609d35ff06fe878d3e223e43","732.7899998053908","","","","90","","","","key","16.672674418605734","683","328.5","","","","","","","","","","","","","","","","","","","",""
"psychophysics","184","1005593","0.0-16.0-0.4","5c0873675b32d500012e3f2c","609006691f6f4e337c17f836","609d35ff06fe878d3e223e43","null","","","","null","","","","key","16.668762711863334","683","328.5","","","","","","","","","","","","","","","","","","","",""
"psychophysics","185","1006095","0.0-16.0-1.4","5c0873675b32d500012e3f2c","609006691f6f4e337c17f836","609d35ff06fe878d3e223e43","null","","","","null","","","","key","16.671896551723655","683","328.5","","","","","","","","","","","","","173","1","6","false","","","",""
"psychophysics","186","1006880","0.0-16.0-2.4","5c0873675b32d500012e3f2c","609006691f6f4e337c17f836","609d35ff06fe878d3e223e43","782.6699998695403","","","","77","","","","key","16.670456521739453","683","328.5","","","","","","","","","","","","","","","","","","","",""
"psychophysics","187","1007883","0.0-16.0-0.5","5c0873675b32d500012e3f2c","609006691f6f4e337c17f836","609d35ff06fe878d3e223e43","null","","","","null","","","","key","16.67215254237299","683","328.5","","","","","","","","","","","","","","","","","","","",""
"psychophysics","188","1008388","0.0-16.0-1.5","5c0873675b32d500012e3f2c","609006691f6f4e337c17f836","609d35ff06fe878d3e223e43","null","","","","null","","","","key","16.666399999998976","683","328.5","","","","","","","","","","","","","173","1","3","false","","","",""
"psychophysics","189","1008874","0.0-16.0-2.5","5c0873675b32d500012e3f2c","609006691f6f4e337c17f836","609d35ff06fe878d3e223e43","482.44499997235835","","","","90","","","","key","16.6653214285699","683","328.5","","","","","","","","","","","","","","","","","","","",""
"psychophysics","190","1009876","0.0-16.0-0.6","5c0873675b32d500012e3f2c","609006691f6f4e337c17f836","609d35ff06fe878d3e223e43","null","","","","null","","","","key","16.673508474575673","683","328.5","","","","","","","","","","","","","","","","","","","",""
"psychophysics","191","1010380","0.0-16.0-1.6","5c0873675b32d500012e3f2c","609006691f6f4e337c17f836","609d35ff06fe878d3e223e43","null","","","","null","","","","key","16.671068965517595","683","328.5","","","","","","","","","","","","","173","-1","2","false","","","",""
"psychophysics","192","1010794","0.0-16.0-2.6","5c0873675b32d500012e3f2c","609006691f6f4e337c17f836","609d35ff06fe878d3e223e43","411.7000000551343","","","","90","","","","key","16.67216666666597","683","328.5","","","","","","","","","","","","","","","","","","","",""
"psychophysics","193","1011795","0.0-16.0-0.7","5c0873675b32d500012e3f2c","609006691f6f4e337c17f836","609d35ff06fe878d3e223e43","null","","","","null","","","","key","16.67338983050816","683","328.5","","","","","","","","","","","","","","","","","","","",""
"psychophysics","194","1012297","0.0-16.0-1.7","5c0873675b32d500012e3f2c","609006691f6f4e337c17f836","609d35ff06fe878d3e223e43","null","","","","null","","","","key","16.670275862067776","683","328.5","","","","","","","","","","","","","173","1","2","false","","","",""
"psychophysics","195","1012742","0.0-16.0-2.7","5c0873675b32d500012e3f2c","609006691f6f4e337c17f836","609d35ff06fe878d3e223e43","443.3299999218434","","","","90","","","","key","16.67538461538229","683","328.5","","","","","","","","","","","","","","","","","","","",""
"psychophysics","196","1013744","0.0-16.0-0.8","5c0873675b32d500012e3f2c","609006691f6f4e337c17f836","609d35ff06fe878d3e223e43","null","","","","null","","","","key","16.66947457627038","683","328.5","","","","","","","","","","","","","","","","","","","",""
"psychophysics","197","1014246","0.0-16.0-1.8","5c0873675b32d500012e3f2c","609006691f6f4e337c17f836","609d35ff06fe878d3e223e43","null","","","","null","","","","key","16.673172413793008","683","328.5","","","","","","","","","","","","","173","-1","3","false","","","",""
"psychophysics","198","1014772","0.0-16.0-2.8","5c0873675b32d500012e3f2c","609006691f6f4e337c17f836","609d35ff06fe878d3e223e43","524.4950000196695","","","","90","","","","key","16.667999999999488","683","328.5","","","","","","","","","","","","","","","","","","","",""
"psychophysics","199","1015775","0.0-16.0-0.9","5c0873675b32d500012e3f2c","609006691f6f4e337c17f836","609d35ff06fe878d3e223e43","null","","","","null","","","","key","16.668457627118865","683","328.5","","","","","","","","","","","","","","","","","","","",""
"psychophysics","200","1016277","0.0-16.0-1.9","5c0873675b32d500012e3f2c","609006691f6f4e337c17f836","609d35ff06fe878d3e223e43","null","","","","null","","","","key","16.673206896553264","683","328.5","","","","","","","","","","","","","173","1","4","false","","","",""
"psychophysics","201","1016657","0.0-16.0-2.9","5c0873675b32d500012e3f2c","609006691f6f4e337c17f836","609d35ff06fe878d3e223e43","376.41000002622604","","","","77","","","","key","16.67240909091197","683","328.5","","","","","","","","","","","","","","","","","","","",""
"psychophysics","202","1017659","0.0-16.0-0.10","5c0873675b32d500012e3f2c","609006691f6f4e337c17f836","609d35ff06fe878d3e223e43","null","","","","null","","","","key","16.668627118644448","683","328.5","","","","","","","","","","","","","","","","","","","",""
"psychophysics","203","1018161","0.0-16.0-1.10","5c0873675b32d500012e3f2c","609006691f6f4e337c17f836","609d35ff06fe878d3e223e43","null","","","","null","","","","key","16.673310344826014","683","328.5","","","","","","","","","","","","","173","-1","4","false","","","",""
"psychophysics","204","1018764","0.0-16.0-2.10","5c0873675b32d500012e3f2c","609006691f6f4e337c17f836","609d35ff06fe878d3e223e43","598.8549999892712","","","","77","","","","key","16.66740000000157","683","328.5","","","","","","","","","","","","","","","","","","","",""
"psychophysics","205","1019766","0.0-16.0-0.11","5c0873675b32d500012e3f2c","609006691f6f4e337c17f836","609d35ff06fe878d3e223e43","null","","","","null","","","","key","16.669847457626265","683","328.5","","","","","","","","","","","","","","","","","","","",""
"psychophysics","206","1020268","0.0-16.0-1.11","5c0873675b32d500012e3f2c","609006691f6f4e337c17f836","609d35ff06fe878d3e223e43","null","","","","null","","","","key","16.67175862069065","683","328.5","","","","","","","","","","","","","173","-1","0","false","","","",""
"psychophysics","207","1020811","0.0-16.0-2.11","5c0873675b32d500012e3f2c","609006691f6f4e337c17f836","609d35ff06fe878d3e223e43","538.3750000037253","","","","77","","","","key","16.667124999999942","683","328.5","","","","","","","","","","","","","","","","","","","",""
"psychophysics","208","1021814","0.0-16.0-0.12","5c0873675b32d500012e3f2c","609006691f6f4e337c17f836","609d35ff06fe878d3e223e43","null","","","","null","","","","key","16.671491525424013","683","328.5","","","","","","","","","","","","","","","","","","","",""
"psychophysics","209","1022316","0.0-16.0-1.12","5c0873675b32d500012e3f2c","609006691f6f4e337c17f836","609d35ff06fe878d3e223e43","null","","","","null","","","","key","16.672241379310183","683","328.5","","","","","","","","","","","","","173","1","2","false","","","",""
"psychophysics","210","1022739","0.0-16.0-2.12","5c0873675b32d500012e3f2c","609006691f6f4e337c17f836","609d35ff06fe878d3e223e43","419.80000003241","","","","90","","","","key","16.663166666670197","683","328.5","","","","","","","","","","","","","","","","","","","",""
"psychophysics","211","1023741","0.0-16.0-0.13","5c0873675b32d500012e3f2c","609006691f6f4e337c17f836","609d35ff06fe878d3e223e43","null","","","","null","","","","key","16.672683333333893","683","328.5","","","","","","","","","","","","","","","","","","","",""
"psychophysics","212","1024245","0.0-16.0-1.13","5c0873675b32d500012e3f2c","609006691f6f4e337c17f836","609d35ff06fe878d3e223e43","null","","","","null","","","","key","16.670137931034773","683","328.5","","","","","","","","","","","","","173","-1","2","false","","","",""
"psychophysics","213","1024459","0.0-16.0-2.13","5c0873675b32d500012e3f2c","609006691f6f4e337c17f836","609d35ff06fe878d3e223e43","212.32499997131526","","","","90","","","","key","16.66966666666364","683","328.5","","","","","","","","","","","","","","","","","","","",""
"psychophysics","214","1025462","0.0-16.0-0.14","5c0873675b32d500012e3f2c","609006691f6f4e337c17f836","609d35ff06fe878d3e223e43","null","","","","null","","","","key","16.672830508475318","683","328.5","","","","","","","","","","","","","","","","","","","",""
"psychophysics","215","1025963","0.0-16.0-1.14","5c0873675b32d500012e3f2c","609006691f6f4e337c17f836","609d35ff06fe878d3e223e43","null","","","","null","","","","key","16.660000000000483","683","328.5","","","","","","","","","","","","","173","-1","0","false","","","",""
"psychophysics","216","1026483","0.0-16.0-2.14","5c0873675b32d500012e3f2c","609006691f6f4e337c17f836","609d35ff06fe878d3e223e43","516.7199999559671","","","","90","","","","key","16.670733333336344","683","328.5","","","","","","","","","","","","","","","","","","","",""
"psychophysics","217","1027484","0.0-16.0-0.15","5c0873675b32d500012e3f2c","609006691f6f4e337c17f836","609d35ff06fe878d3e223e43","null","","","","null","","","","key","16.669067796609774","683","328.5","","","","","","","","","","","","","","","","","","","",""
"psychophysics","218","1027986","0.0-16.0-1.15","5c0873675b32d500012e3f2c","609006691f6f4e337c17f836","609d35ff06fe878d3e223e43","null","","","","null","","","","key","16.668517241378893","683","328.5","","","","","","","","","","","","","173","1","5","false","","","",""
"psychophysics","219","1028565","0.0-16.0-2.15","5c0873675b32d500012e3f2c","609006691f6f4e337c17f836","609d35ff06fe878d3e223e43","576.8049999605864","","","","77","","","","key","16.671000000000383","683","328.5","","","","","","","","","","","","","","","","","","","",""
"psychophysics","220","1029568","0.0-16.0-0.16","5c0873675b32d500012e3f2c","609006691f6f4e337c17f836","609d35ff06fe878d3e223e43","null","","","","null","","","","key","16.668033898304913","683","328.5","","","","","","","","","","","","","","","","","","","",""
"psychophysics","221","1030069","0.0-16.0-1.16","5c0873675b32d500012e3f2c","609006691f6f4e337c17f836","609d35ff06fe878d3e223e43","null","","","","null","","","","key","16.67293103448324","683","328.5","","","","","","","","","","","","","173","1","4","false","","","",""
"psychophysics","222","1030521","0.0-16.0-2.16","5c0873675b32d500012e3f2c","609006691f6f4e337c17f836","609d35ff06fe878d3e223e43","449.5300000999123","","","","90","","","","key","16.670538461538783","683","328.5","","","","","","","","","","","","","","","","","","","",""
"psychophysics","223","1031527","0.0-16.0-0.17","5c0873675b32d500012e3f2c","609006691f6f4e337c17f836","609d35ff06fe878d3e223e43","null","","","","null","","","","key","16.67143333333273","683","328.5","","","","","","","","","","","","","","","","","","","",""
"psychophysics","224","1032029","0.0-16.0-1.17","5c0873675b32d500012e3f2c","609006691f6f4e337c17f836","609d35ff06fe878d3e223e43","null","","","","null","","","","key","16.670413793104796","683","328.5","","","","","","","","","","","","","173","1","0","false","","","",""
"psychophysics","225","1032465","0.0-16.0-2.17","5c0873675b32d500012e3f2c","609006691f6f4e337c17f836","609d35ff06fe878d3e223e43","434.4500000588596","","","","90","","","","key","16.67248000000138","683","328.5","","","","","","","","","","","","","","","","","","","",""
"psychophysics","226","1033467","0.0-16.0-0.18","5c0873675b32d500012e3f2c","609006691f6f4e337c17f836","609d35ff06fe878d3e223e43","null","","","","null","","","","key","16.67098305084727","683","328.5","","","","","","","","","","","","","","","","","","","",""
"psychophysics","227","1033969","0.0-16.0-1.18","5c0873675b32d500012e3f2c","609006691f6f4e337c17f836","609d35ff06fe878d3e223e43","null","","","","null","","","","key","16.66972413793174","683","328.5","","","","","","","","","","","","","173","-1","6","false","","","",""
"psychophysics","228","1034429","0.0-16.0-2.18","5c0873675b32d500012e3f2c","609006691f6f4e337c17f836","609d35ff06fe878d3e223e43","457.44000002741814","","","","77","","","","key","16.671259259261813","683","328.5","","","","","","","","","","","","","","","","","","","",""
"psychophysics","229","1035430","0.0-16.0-0.19","5c0873675b32d500012e3f2c","609006691f6f4e337c17f836","609d35ff06fe878d3e223e43","null","","","","null","","","","key","16.66938983050759","683","328.5","","","","","","","","","","","","","","","","","","","",""
"psychophysics","230","1035933","0.0-16.0-1.19","5c0873675b32d500012e3f2c","609006691f6f4e337c17f836","609d35ff06fe878d3e223e43","null","","","","null","","","","key","16.670137931034773","683","328.5","","","","","","","","","","","","","173","-1","3","false","","","",""
"psychophysics","231","1036443","0.0-16.0-2.19","5c0873675b32d500012e3f2c","609006691f6f4e337c17f836","609d35ff06fe878d3e223e43","507.7000001911074","","","","90","","","","key","16.67473333333231","683","328.5","","","","","","","","","","","","","","","","","","","",""
"psychophysics","232","1037446","0.0-16.0-0.20","5c0873675b32d500012e3f2c","609006691f6f4e337c17f836","609d35ff06fe878d3e223e43","null","","","","null","","","","key","16.66983050847489","683","328.5","","","","","","","","","","","","","","","","","","","",""
"psychophysics","233","1037949","0.0-16.0-1.20","5c0873675b32d500012e3f2c","609006691f6f4e337c17f836","609d35ff06fe878d3e223e43","null","","","","null","","","","key","16.666482758623996","683","328.5","","","","","","","","","","","","","173","-1","5","false","","","",""
"psychophysics","234","1038328","0.0-16.0-2.20","5c0873675b32d500012e3f2c","609006691f6f4e337c17f836","609d35ff06fe878d3e223e43","376.8750000745058","","","","77","","","","key","16.67545454545391","683","328.5","","","","","","","","","","","","","","","","","","","",""
"psychophysics","235","1039331","0.0-16.0-0.21","5c0873675b32d500012e3f2c","609006691f6f4e337c17f836","609d35ff06fe878d3e223e43","null","","","","null","","","","key","16.67040677966108","683","328.5","","","","","","","","","","","","","","","","","","","",""
"psychophysics","236","1039833","0.0-16.0-1.21","5c0873675b32d500012e3f2c","609006691f6f4e337c17f836","609d35ff06fe878d3e223e43","null","","","","null","","","","key","16.67206896551692","683","328.5","","","","","","","","","","","","","173","-1","4","false","","","",""
"psychophysics","237","1040129","0.0-16.0-2.21","5c0873675b32d500012e3f2c","609006691f6f4e337c17f836","609d35ff06fe878d3e223e43","293.25499990954995","","","","77","","","","key","16.666117647060137","683","328.5","","","","","","","","","","","","","","","","","","","",""
"psychophysics","238","1041130","0.0-16.0-0.22","5c0873675b32d500012e3f2c","609006691f6f4e337c17f836","609d35ff06fe878d3e223e43","null","","","","null","","","","key","16.670474576272497","683","328.5","","","","","","","","","","","","","","","","","","","",""
"psychophysics","239","1041631","0.0-16.0-1.22","5c0873675b32d500012e3f2c","609006691f6f4e337c17f836","609d35ff06fe878d3e223e43","null","","","","null","","","","key","16.674896551721634","683","328.5","","","","","","","","","","","","","173","1","6","false","","","",""
"psychophysics","240","1041879","0.0-16.0-2.22","5c0873675b32d500012e3f2c","609006691f6f4e337c17f836","609d35ff06fe878d3e223e43","244.440000038594","","","","77","","","","key","16.67721428571635","683","328.5","","","","","","","","","","","","","","","","","","","",""
"psychophysics","241","1042881","0.0-16.0-0.23","5c0873675b32d500012e3f2c","609006691f6f4e337c17f836","609d35ff06fe878d3e223e43","null","","","","null","","","","key","16.669864406779613","683","328.5","","","","","","","","","","","","","","","","","","","",""
"psychophysics","242","1043383","0.0-16.0-1.23","5c0873675b32d500012e3f2c","609006691f6f4e337c17f836","609d35ff06fe878d3e223e43","null","","","","null","","","","key","16.675655172415205","683","328.5","","","","","","","","","","","","","173","1","3","false","","","",""
"psychophysics","243","1044013","0.0-16.0-2.23","5c0873675b32d500012e3f2c","609006691f6f4e337c17f836","609d35ff06fe878d3e223e43","628.0499999411404","","","","77","","","","key","16.674378378379686","683","328.5","","","","","","","","","","","","","","","","","","","",""
"html-keyboard-response","244","1052286","0.0-17.0","5c0873675b32d500012e3f2c","609006691f6f4e337c17f836","609d35ff06fe878d3e223e43","8270.084999967366","<p>Well Done !</p><p>Training Complete. Press the spacebar to start.</p><p>DON'T EXIT THE FULL SCREEN MODE</p>","","","32","","","","","","","","","","","","","","","","","","","","","","","","","","",""
"psychophysics","245","1055290","0.0-18.0-0.0","5c0873675b32d500012e3f2c","609006691f6f4e337c17f836","609d35ff06fe878d3e223e43","null","","","","null","","","","key","16.71576271186409","683","328.5","","","","","","","","","","","","","","","","","","","",""
"psychophysics","246","1055793","0.0-18.0-1.0","5c0873675b32d500012e3f2c","609006691f6f4e337c17f836","609d35ff06fe878d3e223e43","null","","","","null","","","","key","16.669689655175496","683","328.5","","","","","","","","","","","","","173","1","3","true","","","",""
"psychophysics","247","1056373","0.0-18.0-2.0","5c0873675b32d500012e3f2c","609006691f6f4e337c17f836","609d35ff06fe878d3e223e43","577.0849999971688","","","","90","","","","key","16.6713823529426","683","328.5","","","","","","","","","","","","","","","","","","","",""
"psychophysics","248","1057374","0.0-18.0-0.1","5c0873675b32d500012e3f2c","609006691f6f4e337c17f836","609d35ff06fe878d3e223e43","null","","","","null","","","","key","16.669966101693777","683","328.5","","","","","","","","","","","","","","","","","","","",""
"psychophysics","249","1057875","0.0-18.0-1.1","5c0873675b32d500012e3f2c","609006691f6f4e337c17f836","609d35ff06fe878d3e223e43","null","","","","null","","","","key","16.672931034479227","683","328.5","","","","","","","","","","","","","173","1","0","true","","","",""
"psychophysics","250","1058142","0.0-18.0-2.1","5c0873675b32d500012e3f2c","609006691f6f4e337c17f836","609d35ff06fe878d3e223e43","263.9550000894815","","","","90","","","","key","16.67046666665313","683","328.5","","","","","","","","","","","","","","","","","","","",""
"psychophysics","251","1059144","0.0-18.0-0.2","5c0873675b32d500012e3f2c","609006691f6f4e337c17f836","609d35ff06fe878d3e223e43","null","","","","null","","","","key","16.670355932203012","683","328.5","","","","","","","","","","","","","","","","","","","",""
"psychophysics","252","1059648","0.0-18.0-1.2","5c0873675b32d500012e3f2c","609006691f6f4e337c17f836","609d35ff06fe878d3e223e43","null","","","","null","","","","key","16.669066666672006","683","328.5","","","","","","","","","","","","","173","-1","6","true","","","",""
"psychophysics","253","1059805","0.0-18.0-2.2","5c0873675b32d500012e3f2c","609006691f6f4e337c17f836","609d35ff06fe878d3e223e43","153.02499989047647","","","","77","","","","key","16.67149999999674","683","328.5","","","","","","","","","","","","","","","","","","","",""
"psychophysics","254","1060808","0.0-18.0-0.3","5c0873675b32d500012e3f2c","609006691f6f4e337c17f836","609d35ff06fe878d3e223e43","null","","","","null","","","","key","16.670542372879968","683","328.5","","","","","","","","","","","","","","","","","","","",""
"psychophysics","255","1061310","0.0-18.0-1.3","5c0873675b32d500012e3f2c","609006691f6f4e337c17f836","609d35ff06fe878d3e223e43","null","","","","null","","","","key","16.67224137930617","683","328.5","","","","","","","","","","","","","173","-1","5","true","","","",""
"psychophysics","256","1061400","0.0-18.0-2.3","5c0873675b32d500012e3f2c","609006691f6f4e337c17f836","609d35ff06fe878d3e223e43","87.37500011920929","","","","77","","","","key","16.689600000018253","683","328.5","","","","","","","","","","","","","","","","","","","",""
"psychophysics","257","1062403","0.0-18.0-0.4","5c0873675b32d500012e3f2c","609006691f6f4e337c17f836","609d35ff06fe878d3e223e43","null","","","","null","","","","key","16.670322033896316","683","328.5","","","","","","","","","","","","","","","","","","","",""
"psychophysics","258","1062905","0.0-18.0-1.4","5c0873675b32d500012e3f2c","609006691f6f4e337c17f836","609d35ff06fe878d3e223e43","null","","","","null","","","","key","16.666620689661016","683","328.5","","","","","","","","","","","","","173","-1","2","true","","","",""
"psychophysics","259","1063244","0.0-18.0-2.4","5c0873675b32d500012e3f2c","609006691f6f4e337c17f836","609d35ff06fe878d3e223e43","335.6800000183284","","","","90","","","","key","16.66800000000206","683","328.5","","","","","","","","","","","","","","","","","","","",""
"psychophysics","260","1064246","0.0-18.0-0.5","5c0873675b32d500012e3f2c","609006691f6f4e337c17f836","609d35ff06fe878d3e223e43","null","","","","null","","","","key","16.67054237288391","683","328.5","","","","","","","","","","","","","","","","","","","",""
"psychophysics","261","1064749","0.0-18.0-1.5","5c0873675b32d500012e3f2c","609006691f6f4e337c17f836","609d35ff06fe878d3e223e43","null","","","","null","","","","key","16.67133333332992","683","328.5","","","","","","","","","","","","","173","-1","0","true","","","",""
"psychophysics","262","1064933","0.0-18.0-2.5","5c0873675b32d500012e3f2c","609006691f6f4e337c17f836","609d35ff06fe878d3e223e43","180.92499999329448","","","","90","","","","key","16.677100000018253","683","328.5","","","","","","","","","","","","","","","","","","","",""
"psychophysics","263","1065934","0.0-18.0-0.6","5c0873675b32d500012e3f2c","609006691f6f4e337c17f836","609d35ff06fe878d3e223e43","null","","","","null","","","","key","16.670474576270525","683","328.5","","","","","","","","","","","","","","","","","","","",""
"psychophysics","264","1066437","0.0-18.0-1.6","5c0873675b32d500012e3f2c","609006691f6f4e337c17f836","609d35ff06fe878d3e223e43","null","","","","null","","","","key","16.67024137930752","683","328.5","","","","","","","","","","","","","173","1","4","true","","","",""
"psychophysics","265","1066594","0.0-18.0-2.6","5c0873675b32d500012e3f2c","609006691f6f4e337c17f836","609d35ff06fe878d3e223e43","154.58500012755394","","","","77","","","","key","16.674374999973224","683","328.5","","","","","","","","","","","","","","","","","","","",""
"psychophysics","266","1067597","0.0-18.0-0.7","5c0873675b32d500012e3f2c","609006691f6f4e337c17f836","609d35ff06fe878d3e223e43","null","","","","null","","","","key","16.67061016948941","683","328.5","","","","","","","","","","","","","","","","","","","",""
"psychophysics","267","1068101","0.0-18.0-1.7","5c0873675b32d500012e3f2c","609006691f6f4e337c17f836","609d35ff06fe878d3e223e43","null","","","","null","","","","key","16.671799999995468","683","328.5","","","","","","","","","","","","","173","1","5","true","","","",""
"psychophysics","268","1069793","0.0-18.0-2.7","5c0873675b32d500012e3f2c","609006691f6f4e337c17f836","609d35ff06fe878d3e223e43","1688.1450000219047","","","","77","","","","key","16.669229999999516","683","328.5","","","","","","","","","","","","","","","","","","","",""
"psychophysics","269","1070795","0.0-18.0-0.8","5c0873675b32d500012e3f2c","609006691f6f4e337c17f836","609d35ff06fe878d3e223e43","null","","","","null","","","","key","16.669576271184546","683","328.5","","","","","","","","","","","","","","","","","","","",""
"psychophysics","270","1071299","0.0-18.0-1.8","5c0873675b32d500012e3f2c","609006691f6f4e337c17f836","609d35ff06fe878d3e223e43","null","","","","null","","","","key","16.669172413791692","683","328.5","","","","","","","","","","","","","173","-1","4","true","","","",""
"psychophysics","271","1073087","0.0-18.0-2.8","5c0873675b32d500012e3f2c","609006691f6f4e337c17f836","609d35ff06fe878d3e223e43","1781.825000187382","","","","90","","","","key","16.669700934579943","683","328.5","","","","","","","","","","","","","","","","","","","",""
"psychophysics","272","1074090","0.0-18.0-0.9","5c0873675b32d500012e3f2c","609006691f6f4e337c17f836","609d35ff06fe878d3e223e43","null","","","","null","","","","key","16.66916949152394","683","328.5","","","","","","","","","","","","","","","","","","","",""
"psychophysics","273","1074593","0.0-18.0-1.9","5c0873675b32d500012e3f2c","609006691f6f4e337c17f836","609d35ff06fe878d3e223e43","null","","","","null","","","","key","16.673448275855005","683","328.5","","","","","","","","","","","","","173","1","2","true","","","",""
"psychophysics","274","1075108","0.0-18.0-2.9","5c0873675b32d500012e3f2c","609006691f6f4e337c17f836","609d35ff06fe878d3e223e43","512.2399998363107","","","","90","","","","key","16.67206666666704","683","328.5","","","","","","","","","","","","","","","","","","","",""
"psychophysics","275","1076110","0.0-18.0-0.10","5c0873675b32d500012e3f2c","609006691f6f4e337c17f836","609d35ff06fe878d3e223e43","null","","","","null","","","","key","16.67057627118666","683","328.5","","","","","","","","","","","","","","","","","","","",""
"psychophysics","276","1076612","0.0-18.0-1.10","5c0873675b32d500012e3f2c","609006691f6f4e337c17f836","609d35ff06fe878d3e223e43","null","","","","null","","","","key","16.66962068965498","683","328.5","","","","","","","","","","","","","173","-1","3","true","","","",""
"psychophysics","277","1077259","0.0-18.0-2.10","5c0873675b32d500012e3f2c","609006691f6f4e337c17f836","609d35ff06fe878d3e223e43","631.980000063777","","","","77","","","","key","16.673578947372","683","328.5","","","","","","","","","","","","","","","","","","","",""
"psychophysics","278","1078260","0.0-18.0-0.11","5c0873675b32d500012e3f2c","609006691f6f4e337c17f836","609d35ff06fe878d3e223e43","null","","","","null","","","","key","16.670491525425845","683","328.5","","","","","","","","","","","","","","","","","","","",""
"psychophysics","279","1078762","0.0-18.0-1.11","5c0873675b32d500012e3f2c","609006691f6f4e337c17f836","609d35ff06fe878d3e223e43","null","","","","null","","","","key","16.670103448274514","683","328.5","","","","","","","","","","","","","173","1","6","true","","","",""
"psychophysics","280","1078935","0.0-18.0-2.11","5c0873675b32d500012e3f2c","609006691f6f4e337c17f836","609d35ff06fe878d3e223e43","169.19499984942377","","","","77","","","","key","16.663222222226775","683","328.5","","","","","","","","","","","","","","","","","","","",""
"psychophysics","281","1079939","0.0-18.0-0.12","5c0873675b32d500012e3f2c","609006691f6f4e337c17f836","609d35ff06fe878d3e223e43","null","","","","null","","","","key","16.67278333333476","683","328.5","","","","","","","","","","","","","","","","","","","",""
"psychophysics","282","1080441","0.0-18.0-1.12","5c0873675b32d500012e3f2c","609006691f6f4e337c17f836","609d35ff06fe878d3e223e43","null","","","","null","","","","key","16.668379310349902","683","328.5","","","","","","","","","","","","","173","-1","3","true","","","",""
"psychophysics","283","1082183","0.0-18.0-2.12","5c0873675b32d500012e3f2c","609006691f6f4e337c17f836","609d35ff06fe878d3e223e43","1738.6449999175966","","","","77","","","","key","16.670291262136285","683","328.5","","","","","","","","","","","","","","","","","","","",""
"psychophysics","284","1083187","0.0-18.0-0.13","5c0873675b32d500012e3f2c","609006691f6f4e337c17f836","609d35ff06fe878d3e223e43","null","","","","null","","","","key","16.672847457628666","683","328.5","","","","","","","","","","","","","","","","","","","",""
"psychophysics","285","1083692","0.0-18.0-1.13","5c0873675b32d500012e3f2c","609006691f6f4e337c17f836","609d35ff06fe878d3e223e43","null","","","","null","","","","key","16.668866666662506","683","328.5","","","","","","","","","","","","","173","-1","5","true","","","",""
"psychophysics","286","1084006","0.0-18.0-2.13","5c0873675b32d500012e3f2c","609006691f6f4e337c17f836","609d35ff06fe878d3e223e43","311.50000006891787","","","","90","","","","key","16.67138888888682","683","328.5","","","","","","","","","","","","","","","","","","","",""
"psychophysics","287","1085010","0.0-18.0-0.14","5c0873675b32d500012e3f2c","609006691f6f4e337c17f836","609d35ff06fe878d3e223e43","null","","","","null","","","","key","16.67040677966108","683","328.5","","","","","","","","","","","","","","","","","","","",""
"psychophysics","288","1085512","0.0-18.0-1.14","5c0873675b32d500012e3f2c","609006691f6f4e337c17f836","609d35ff06fe878d3e223e43","null","","","","null","","","","key","16.665862068967446","683","328.5","","","","","","","","","","","","","173","1","0","true","","","",""
"psychophysics","289","1085739","0.0-18.0-2.14","5c0873675b32d500012e3f2c","609006691f6f4e337c17f836","609d35ff06fe878d3e223e43","220.7599999383092","","","","90","","","","key","16.6720769230742","683","328.5","","","","","","","","","","","","","","","","","","","",""
"psychophysics","290","1086742","0.0-18.0-0.15","5c0873675b32d500012e3f2c","609006691f6f4e337c17f836","609d35ff06fe878d3e223e43","null","","","","null","","","","key","16.67103389830534","683","328.5","","","","","","","","","","","","","","","","","","","",""
"psychophysics","291","1087245","0.0-18.0-1.15","5c0873675b32d500012e3f2c","609006691f6f4e337c17f836","609d35ff06fe878d3e223e43","null","","","","null","","","","key","16.670758620691323","683","328.5","","","","","","","","","","","","","173","1","4","true","","","",""
"psychophysics","292","1087446","0.0-18.0-2.15","5c0873675b32d500012e3f2c","609006691f6f4e337c17f836","609d35ff06fe878d3e223e43","199.77000006474555","","","","77","","","","key","16.68381818182851","683","328.5","","","","","","","","","","","","","","","","","","","",""
"psychophysics","293","1088449","0.0-18.0-0.16","5c0873675b32d500012e3f2c","609006691f6f4e337c17f836","609d35ff06fe878d3e223e43","null","","","","null","","","","key","16.669203389830635","683","328.5","","","","","","","","","","","","","","","","","","","",""
"psychophysics","294","1088951","0.0-18.0-1.16","5c0873675b32d500012e3f2c","609006691f6f4e337c17f836","609d35ff06fe878d3e223e43","null","","","","null","","","","key","16.675275862072432","683","328.5","","","","","","","","","","","","","173","-1","4","true","","","",""
"psychophysics","295","1089110","0.0-18.0-2.16","5c0873675b32d500012e3f2c","609006691f6f4e337c17f836","609d35ff06fe878d3e223e43","142.05000014044344","","","","77","","","","key","16.66400000000269","683","328.5","","","","","","","","","","","","","","","","","","","",""
"psychophysics","296","1090111","0.0-18.0-0.17","5c0873675b32d500012e3f2c","609006691f6f4e337c17f836","609d35ff06fe878d3e223e43","null","","","","null","","","","key","16.670966101695893","683","328.5","","","","","","","","","","","","","","","","","","","",""
"psychophysics","297","1090613","0.0-18.0-1.17","5c0873675b32d500012e3f2c","609006691f6f4e337c17f836","609d35ff06fe878d3e223e43","null","","","","null","","","","key","16.671655172409874","683","328.5","","","","","","","","","","","","","173","1","2","true","","","",""
"psychophysics","298","1091053","0.0-18.0-2.17","5c0873675b32d500012e3f2c","609006691f6f4e337c17f836","609d35ff06fe878d3e223e43","436.0950000118464","","","","77","","","","key","16.67416000000201","683","328.5","","","","","","","","","","","","","","","","","","","",""
"psychophysics","299","1092057","0.0-18.0-0.18","5c0873675b32d500012e3f2c","609006691f6f4e337c17f836","609d35ff06fe878d3e223e43","null","","","","null","","","","key","16.66950000000264","683","328.5","","","","","","","","","","","","","","","","","","","",""
"psychophysics","300","1092561","0.0-18.0-1.18","5c0873675b32d500012e3f2c","609006691f6f4e337c17f836","609d35ff06fe878d3e223e43","null","","","","null","","","","key","16.666655172409232","683","328.5","","","","","","","","","","","","","173","1","3","true","","","",""
"psychophysics","301","1093125","0.0-18.0-2.18","5c0873675b32d500012e3f2c","609006691f6f4e337c17f836","609d35ff06fe878d3e223e43","561.0100000631064","","","","90","","","","key","16.67048484848276","683","328.5","","","","","","","","","","","","","","","","","","","",""
"psychophysics","302","1094127","0.0-18.0-0.19","5c0873675b32d500012e3f2c","609006691f6f4e337c17f836","609d35ff06fe878d3e223e43","null","","","","null","","","","key","16.95756896551506","683","328.5","","","","","","","","","","","","","","","","","","","",""
"psychophysics","303","1094630","0.0-18.0-1.19","5c0873675b32d500012e3f2c","609006691f6f4e337c17f836","609d35ff06fe878d3e223e43","null","","","","null","","","","key","16.66672413792975","683","328.5","","","","","","","","","","","","","173","-1","2","true","","","",""
"psychophysics","304","1095001","0.0-18.0-2.19","5c0873675b32d500012e3f2c","609006691f6f4e337c17f836","609d35ff06fe878d3e223e43","368.5850000474602","","","","90","","","","key","16.666666666666668","683","328.5","","","","","","","","","","","","","","","","","","","",""
"psychophysics","305","1096002","0.0-18.0-0.20","5c0873675b32d500012e3f2c","609006691f6f4e337c17f836","609d35ff06fe878d3e223e43","null","","","","null","","","","key","16.670169491526057","683","328.5","","","","","","","","","","","","","","","","","","","",""
"psychophysics","306","1096504","0.0-18.0-1.20","5c0873675b32d500012e3f2c","609006691f6f4e337c17f836","609d35ff06fe878d3e223e43","null","","","","null","","","","key","16.671827586207154","683","328.5","","","","","","","","","","","","","173","-1","0","true","","","",""
"psychophysics","307","1097002","0.0-18.0-2.20","5c0873675b32d500012e3f2c","609006691f6f4e337c17f836","609d35ff06fe878d3e223e43","491.039999993518","","","","77","","","","key","16.67506896551891","683","328.5","","","","","","","","","","","","","","","","","","","",""
"psychophysics","308","1098003","0.0-18.0-0.21","5c0873675b32d500012e3f2c","609006691f6f4e337c17f836","609d35ff06fe878d3e223e43","null","","","","null","","","","key","16.669576271184546","683","328.5","","","","","","","","","","","","","","","","","","","",""
"psychophysics","309","1098508","0.0-18.0-1.21","5c0873675b32d500012e3f2c","609006691f6f4e337c17f836","609d35ff06fe878d3e223e43","null","","","","null","","","","key","16.6712758620671","683","328.5","","","","","","","","","","","","","173","-1","6","true","","","",""
"psychophysics","310","1098810","0.0-18.0-2.21","5c0873675b32d500012e3f2c","609006691f6f4e337c17f836","609d35ff06fe878d3e223e43","298.0299999471754","","","","77","","","","key","16.665000000011382","683","328.5","","","","","","","","","","","","","","","","","","","",""
"psychophysics","311","1099812","0.0-18.0-0.22","5c0873675b32d500012e3f2c","609006691f6f4e337c17f836","609d35ff06fe878d3e223e43","null","","","","null","","","","key","16.672050847458827","683","328.5","","","","","","","","","","","","","","","","","","","",""
"psychophysics","312","1100314","0.0-18.0-1.22","5c0873675b32d500012e3f2c","609006691f6f4e337c17f836","609d35ff06fe878d3e223e43","null","","","","null","","","","key","16.67486206896539","683","328.5","","","","","","","","","","","","","173","1","6","true","","","",""
"psychophysics","313","1100648","0.0-18.0-2.22","5c0873675b32d500012e3f2c","609006691f6f4e337c17f836","609d35ff06fe878d3e223e43","331.22000005096197","","","","77","","","","key","16.67694736841919","683","328.5","","","","","","","","","","","","","","","","","","","",""
"psychophysics","314","1101650","0.0-18.0-0.23","5c0873675b32d500012e3f2c","609006691f6f4e337c17f836","609d35ff06fe878d3e223e43","null","","","","null","","","","key","16.670661016951424","683","328.5","","","","","","","","","","","","","","","","","","","",""
"psychophysics","315","1102152","0.0-18.0-1.23","5c0873675b32d500012e3f2c","609006691f6f4e337c17f836","609d35ff06fe878d3e223e43","null","","","","null","","","","key","16.67162068965363","683","328.5","","","","","","","","","","","","","173","1","5","true","","","",""
"psychophysics","316","1102372","0.0-18.0-2.23","5c0873675b32d500012e3f2c","609006691f6f4e337c17f836","609d35ff06fe878d3e223e43","217.1750001143664","","","","77","","","","key","16.680666666671943","683","328.5","","","","","","","","","","","","","","","","","","","",""
"psychophysics","317","1103376","0.0-18.0-0.24","5c0873675b32d500012e3f2c","609006691f6f4e337c17f836","609d35ff06fe878d3e223e43","null","","","","null","","","","key","16.671633333332526","683","328.5","","","","","","","","","","","","","","","","","","","",""
"psychophysics","318","1103880","0.0-18.0-1.24","5c0873675b32d500012e3f2c","609006691f6f4e337c17f836","609d35ff06fe878d3e223e43","null","","","","null","","","","key","16.665517241380915","683","328.5","","","","","","","","","","","","","173","-1","3","true","","","",""
"psychophysics","319","1104150","0.0-18.0-2.24","5c0873675b32d500012e3f2c","609006691f6f4e337c17f836","609d35ff06fe878d3e223e43","267.3750000540167","","","","77","","","","key","16.671933333342896","683","328.5","","","","","","","","","","","","","","","","","","","",""
"psychophysics","320","1105152","0.0-18.0-0.25","5c0873675b32d500012e3f2c","609006691f6f4e337c17f836","609d35ff06fe878d3e223e43","null","","","","null","","","","key","16.67052542372859","683","328.5","","","","","","","","","","","","","","","","","","","",""
"psychophysics","321","1105654","0.0-18.0-1.25","5c0873675b32d500012e3f2c","609006691f6f4e337c17f836","609d35ff06fe878d3e223e43","null","","","","null","","","","key","16.66972413793174","683","328.5","","","","","","","","","","","","","173","-1","2","true","","","",""
"psychophysics","322","1105984","0.0-18.0-2.25","5c0873675b32d500012e3f2c","609006691f6f4e337c17f836","609d35ff06fe878d3e223e43","328.4599999897182","","","","90","","","","key","17.599111111110282","683","328.5","","","","","","","","","","","","","","","","","","","",""
"psychophysics","323","1106985","0.0-18.0-0.26","5c0873675b32d500012e3f2c","609006691f6f4e337c17f836","609d35ff06fe878d3e223e43","null","","","","null","","","","key","16.670067796609917","683","328.5","","","","","","","","","","","","","","","","","","","",""
"psychophysics","324","1107488","0.0-18.0-1.26","5c0873675b32d500012e3f2c","609006691f6f4e337c17f836","609d35ff06fe878d3e223e43","null","","","","null","","","","key","16.669137931035447","683","328.5","","","","","","","","","","","","","173","1","6","true","","","",""
"psychophysics","325","1107746","0.0-18.0-2.26","5c0873675b32d500012e3f2c","609006691f6f4e337c17f836","609d35ff06fe878d3e223e43","256.5150000154972","","","","77","","","","key","16.676800000000124","683","328.5","","","","","","","","","","","","","","","","","","","",""
