"trial_type","trial_index","time_elapsed","internal_node_id","PROLIFIC_PID","STUDY_ID","SESSION_ID","rt","stimulus","button_pressed","success","key_press","responses","isData","view_history","response_type","avg_frame_time","center_x","center_y","isSC","stim_side","trial_luminance","step_size","nReversal","correct","prev_ans","isThreshold","SC_threshold","final_threshold","isLuminance","FF_luminance","luminance","stimSide","ISInt","isFF","question_order","isSPQ","isCAPS","isAQ"
"pavlovia","0","6","0.0-0.0","605687b39a405b2f86f2fccd","609006691f6f4e337c17f836","60a277ee5de3ab5f6f45d49d","","","","","","","","","","","","","","","","","","","","","","","","","","","","","","","",""
"html-button-response","1","10729","0.0-1.0","605687b39a405b2f86f2fccd","609006691f6f4e337c17f836","60a277ee5de3ab5f6f45d49d","10720.880000008037","<div style='background-color: white; width:60%; margin: auto; padding: 50px; text-align: justify; text-justify: inter-word; margin-bottom: 20px;'><h1 style='text-align: center;'>Consent Form</h1><p>Please read this consent form carefully before deciding whether you would like to participate in this study. You have to be 18 years old or older to participate to this study.</p><p style='text-decoration: underline;'>Participation is voluntary:</p><p>It is your choice whether or not to participate in this research. If you choose to participate, you may change your mind and leave the study at any time. Refusal to participate or stopping your participation will involve no penalty or loss of benefits to which you are otherwise entitled.</p><p style='text-decoration: underline;'>Purpose of the Study:</p><p>To understand the mechanisms underlying human perception.</p><p style='text-decoration: underline;'>What you will do in this study:</p><p>You will be presented with a series of visual images and then you will press buttons on the keyboard of your computer to respond to simple questions about the images (e.g. Were one or two images presented?). In addition, you will be asked to complete a questionnaire concerning your beliefs and everyday mental and perceptual experiences.'</p><p style='text-decoration: underline;'> Time Required:</p><p>The study will take 40 minutes to complete. </p><p style='text-decoration: underline;'>Risks:</p><p>There are no anticipated risks associated with participating in this study that are beyond those experienced in everyday life. </p><p style='text-decoration: underline;'>Benefits:</p><p>There are no benefits to you in participating in the study. However, this study may lead to a better understanding of how different kinds of visual information are used.</p><p style='text-decoration: underline;'>Compensation:</p><p>You will be paid US$6.6/hour. </p><p style='text-decoration: underline;'>Privacy and Confidentiality:</p><p>Your participation in this study will be anonymous. No personal information about your name or identity will be asked or recorded. This anonymous data will be stored for several years and may be used for a variety of research purposes. The overall results of the study may be published, or the data files may be shared with other researchers, but your identity will not be revealed in any way. The online services we are using for this study may temporarily store your data, but this data will be downloaded and then promptly deleted from those services.Your data will not be permanently associated with your name, IP address, or any other identifiable information (e.g., your information will only be connected to your payment, not to any of your responses), though they may be temporarily stored together before we download and separate them. Even so, no guarantee of internet survey security can be given because, although unlikely, transmissions can be intercepted and IP addresses can be identified. The anonymous data may be shared publicly (for example, in conjunction with a resulting academic publication).</p><p style='text-decoration: underline;'>Participation and Withdrawal:</p><p>Your participation in this study is completely voluntary. You may stop responding to the stimuli or stop answering questions if you so choose and without penalty by exiting the full screen mode, closing this tab of your browser or redirecting it to a different website.</p><p style='text-decoration: underline;'>Contact Info of the Researcher: </p><p>If you have questions about this study, or if you would like to talk to the research team, please contact David Melcher (david.melcher@nyu.edu, md5050@nyu.edu) at the Perception and Active Cognition Laboratory, New York University Abu Dhabi, Computational Research Building, Saadiyat Island, Abu Dhabi, UAE.This research has been reviewed by the New York University Abu Dhabi Institutional Review Board (NYUAD IRB). To contact about your rights in this research, for questions, suggestions, or complaints that are not addressed by the researchers, please email IRBnyuad@nyu.edu, or call the NYUAD IRB at +971 2 628 4313. </p></div>","0","","","","","","","","","","","","","","","","","","","","","","","","","","","","",""
"fullscreen","2","12580","0.0-2.0","605687b39a405b2f86f2fccd","609006691f6f4e337c17f836","60a277ee5de3ab5f6f45d49d","","","","true","","","","","","","","","","","","","","","","","","","","","","","","","","","",""
"html-keyboard-response","3","17560","0.0-3.0","605687b39a405b2f86f2fccd","609006691f6f4e337c17f836","60a277ee5de3ab5f6f45d49d","4977.49499999918","<p>Welcome !</p><p>READ CAREFULLY THE FOLLOWING INDICATIONS:</p><p>From this moment you have ~40 minutes to complete the experiment.</p><p>During the experiment you will be prompted to take several breaks. Each break should not last longer than 2-3 minutes.</p><p>Make sure that your computer is plugged in and it's not running on battery power, even if the battery is already fully charged.</p><p>Turn off your phone and music, make sure that you are in a quiet room and that you will not be distracted for the next hour.</p><p>Failure to comply with the instructions and indications provided during the experiment will most likely result in the rejection of your data.<p>Press the spacebar to start.</p>","","","32","","","","","","","","","","","","","","","","","","","","","","","","","","",""
"survey-html-form","4","23007","0.0-4.0","605687b39a405b2f86f2fccd","609006691f6f4e337c17f836","60a277ee5de3ab5f6f45d49d","5445.12499999837","","","","","{""age"":""21"",""sex"":""F""}","true","","","","","","","","","","","","","","","","","","","","","","","","",""
"instructions","5","63749","0.0-5.0","605687b39a405b2f86f2fccd","609006691f6f4e337c17f836","60a277ee5de3ab5f6f45d49d","40740.53999999887","","","","","","","[{""page_index"":0,""viewing_time"":27791.234999982407},{""page_index"":1,""viewing_time"":10372.765000007348},{""page_index"":2,""viewing_time"":2576.2650000106078}]","","","","","","","","","","","","","","","","","","","","","","","",""
"psychophysics","6","67276","0.0-6.0-0.0","605687b39a405b2f86f2fccd","609006691f6f4e337c17f836","60a277ee5de3ab5f6f45d49d","2521.9900000083726","","","","37","","","","key","16.753023696682458","640","321","true","-1","180","30","0","-1","","","","","","","","","","","","","",""
"psychophysics","7","69440","0.0-6.0-0.1","605687b39a405b2f86f2fccd","609006691f6f4e337c17f836","60a277ee5de3ab5f6f45d49d","1162.639999995008","","","","39","","","","key","16.67399999999997","640","321","true","1","180","30","0","-1","-1","","","","","","","","","","","","",""
"psychophysics","8","71093","0.0-6.0-0.2","605687b39a405b2f86f2fccd","609006691f6f4e337c17f836","60a277ee5de3ab5f6f45d49d","649.7349999845028","","","","39","","","","key","16.6407040816327","640","321","true","1","150","30","0","-1","-1","","","","","","","","","","","","",""
"psychophysics","9","72877","0.0-6.0-0.3","605687b39a405b2f86f2fccd","609006691f6f4e337c17f836","60a277ee5de3ab5f6f45d49d","782.695000001695","","","","39","","","","key","16.674000000000028","640","321","true","1","150","30","0","-1","-1","","","","","","","","","","","","",""
"psychophysics","10","74597","0.0-6.0-0.4","605687b39a405b2f86f2fccd","609006691f6f4e337c17f836","60a277ee5de3ab5f6f45d49d","718.9849999849685","","","","39","","","","key","16.674000000000067","640","321","true","1","129","30","0","-1","-1","","","","","","","","","","","","",""
"psychophysics","11","75982","0.0-6.0-0.5","605687b39a405b2f86f2fccd","609006691f6f4e337c17f836","60a277ee5de3ab5f6f45d49d","383.2750000001397","","","","37","","","","key","16.673999999999957","640","321","true","-1","129","30","0","-1","-1","","","","","","","","","","","","",""
"psychophysics","12","77794","0.0-6.0-0.6","605687b39a405b2f86f2fccd","609006691f6f4e337c17f836","60a277ee5de3ab5f6f45d49d","808.43500001356","","","","37","","","","key","16.67400000000001","640","321","true","1","129","24","1","1","-1","","","","","","","","","","","","",""
"psychophysics","13","79236","0.0-6.0-0.7","605687b39a405b2f86f2fccd","609006691f6f4e337c17f836","60a277ee5de3ab5f6f45d49d","440.36000000778586","","","","37","","","","key","16.673999999999925","640","321","true","-1","153","24","1","-1","1","","","","","","","","","","","","",""
"psychophysics","14","80630","0.0-6.0-0.8","605687b39a405b2f86f2fccd","609006691f6f4e337c17f836","60a277ee5de3ab5f6f45d49d","393.3899999829009","","","","37","","","","key","16.678036144578336","640","321","true","-1","153","19.2","2","-1","-1","","","","","","","","","","","","",""
"psychophysics","15","81981","0.0-6.0-0.9","605687b39a405b2f86f2fccd","609006691f6f4e337c17f836","60a277ee5de3ab5f6f45d49d","349.6699999959674","","","","39","","","","key","16.67400000000016","640","321","true","1","133.8","19.2","2","-1","-1","","","","","","","","","","","","",""
"psychophysics","16","83219","0.0-6.0-0.10","605687b39a405b2f86f2fccd","609006691f6f4e337c17f836","60a277ee5de3ab5f6f45d49d","236.66000002413057","","","","37","","","","key","16.673999999999864","640","321","true","-1","133.8","19.2","2","-1","-1","","","","","","","","","","","","",""
"psychophysics","17","85533","0.0-6.0-0.11","605687b39a405b2f86f2fccd","609006691f6f4e337c17f836","60a277ee5de3ab5f6f45d49d","1312.4949999910314","","","","37","","","","key","16.674000000000017","640","321","true","-1","129","19.2","2","-1","-1","","","","","","","","","","","","",""
"psychophysics","18","87282","0.0-6.0-0.12","605687b39a405b2f86f2fccd","609006691f6f4e337c17f836","60a277ee5de3ab5f6f45d49d","747.5200000044424","","","","37","","","","key","16.67400000000005","640","321","true","1","129","15.36","3","1","-1","","","","","","","","","","","","",""
"psychophysics","19","88636","0.0-6.0-0.13","605687b39a405b2f86f2fccd","609006691f6f4e337c17f836","60a277ee5de3ab5f6f45d49d","353.0849999806378","","","","39","","","","key","16.673999999999978","640","321","true","1","144.36","15.36","3","-1","1","","","","","","","","","","","","",""
"psychophysics","20","90066","0.0-6.0-0.14","605687b39a405b2f86f2fccd","609006691f6f4e337c17f836","60a277ee5de3ab5f6f45d49d","428.3749999885913","","","","37","","","","key","16.67695294117644","640","321","true","-1","144.36","12.287999999999998","4","-1","-1","","","","","","","","","","","","",""
"psychophysics","21","91505","0.0-6.0-0.15","605687b39a405b2f86f2fccd","609006691f6f4e337c17f836","60a277ee5de3ab5f6f45d49d","437.95500000123866","","","","37","","","","key","16.674000000000095","640","321","true","-1","132.072","12.287999999999998","4","-1","-1","","","","","","","","","","","","",""
"psychophysics","22","93357","0.0-6.0-0.16","605687b39a405b2f86f2fccd","609006691f6f4e337c17f836","60a277ee5de3ab5f6f45d49d","849.5650000113528","","","","37","","","","key","16.673999999999996","640","321","true","-1","132.072","12.287999999999998","4","-1","-1","","","","","","","","","","","","",""
"psychophysics","23","95937","0.0-6.0-0.17","605687b39a405b2f86f2fccd","609006691f6f4e337c17f836","60a277ee5de3ab5f6f45d49d","1578.2950000138953","","","","39","","","","key","16.674000000000014","640","321","true","1","129","12.287999999999998","4","-1","-1","","","","","","","","","","","","",""
"psychophysics","24","97651","0.0-6.0-0.18","605687b39a405b2f86f2fccd","609006691f6f4e337c17f836","60a277ee5de3ab5f6f45d49d","712.52000000095","","","","39","","","","key","16.673999999999925","640","321","true","-1","129","9.8304","5","1","-1","","","","","","","","","","","","",""
"psychophysics","25","99204","0.0-6.0-0.19","605687b39a405b2f86f2fccd","609006691f6f4e337c17f836","60a277ee5de3ab5f6f45d49d","550.6650000170339","","","","37","","","","key","16.674000000000017","640","321","true","-1","138.8304","9.8304","5","-1","1","","","","","","","","","","","","",""
"psychophysics","26","100690","0.0-6.0-0.20","605687b39a405b2f86f2fccd","609006691f6f4e337c17f836","60a277ee5de3ab5f6f45d49d","483.2049999968149","","","","39","","","","key","16.677647727272745","640","321","true","1","138.8304","7.864319999999999","6","-1","-1","","","","","","","","","","","","",""
"psychophysics","27","102641","0.0-6.0-0.21","605687b39a405b2f86f2fccd","609006691f6f4e337c17f836","60a277ee5de3ab5f6f45d49d","950.024999998277","","","","37","","","","key","16.67400000000007","640","321","true","1","130.96608","6.291456","7","1","-1","","","","","","","","","","","","",""
"psychophysics","28","103922","0.0-6.0-0.22","605687b39a405b2f86f2fccd","609006691f6f4e337c17f836","60a277ee5de3ab5f6f45d49d","280.65000000060536","","","","39","","","","key","16.674000000000024","640","321","true","1","137.25753600000002","6.291456","7","-1","1","","","","","","","","","","","","",""
"psychophysics","29","108062","0.0-6.0-0.23","605687b39a405b2f86f2fccd","609006691f6f4e337c17f836","60a277ee5de3ab5f6f45d49d","3138.440000009723","","","","37","","","","key","16.67400000000001","640","321","true","1","137.25753600000002","5.033164800000001","8","1","-1","","","","","","","","","","","","",""
"psychophysics","30","109408","0.0-6.0-0.24","605687b39a405b2f86f2fccd","609006691f6f4e337c17f836","60a277ee5de3ab5f6f45d49d","341.8200000014622","","","","39","","","","key","16.673999999999978","640","321","true","1","142.29070080000002","5.033164800000001","8","-1","1","","","","","","","","","","","","",""
"psychophysics","31","110762","0.0-6.0-0.25","605687b39a405b2f86f2fccd","609006691f6f4e337c17f836","60a277ee5de3ab5f6f45d49d","353.0099999916274","","","","37","","","","key","16.6796875","640","321","true","-1","142.29070080000002","4.0265318400000005","9","-1","-1","","","","","","","","","","","","",""
"psychophysics","32","112131","0.0-6.0-0.26","605687b39a405b2f86f2fccd","609006691f6f4e337c17f836","60a277ee5de3ab5f6f45d49d","367.86500000744127","","","","39","","","","key","16.673999999999968","640","321","true","1","138.26416896000003","4.0265318400000005","9","-1","-1","","","","","","","","","","","","",""
"psychophysics","33","113568","0.0-6.0-0.27","605687b39a405b2f86f2fccd","609006691f6f4e337c17f836","60a277ee5de3ab5f6f45d49d","434.45999998948537","","","","39","","","","key","16.674000000000095","640","321","true","1","138.26416896000003","4.0265318400000005","9","-1","-1","","","","","","","","","","","","",""
"psychophysics","34","115384","0.0-6.0-0.28","605687b39a405b2f86f2fccd","609006691f6f4e337c17f836","60a277ee5de3ab5f6f45d49d","813.0499999970198","","","","39","","","","key","16.67400000000001","640","321","true","-1","134.23763712000004","3.2212254720000004","10","1","-1","","","","","","","","","","","","",""
"psychophysics","35","116715","0.0-6.0-0.29","605687b39a405b2f86f2fccd","609006691f6f4e337c17f836","60a277ee5de3ab5f6f45d49d","330.03500002087094","","","","37","","","","key","16.67399999999999","640","321","true","-1","137.45886259200006","3.2212254720000004","10","-1","1","","","","","","","","","","","","",""
"psychophysics","36","118043","0.0-6.0-0.30","605687b39a405b2f86f2fccd","609006691f6f4e337c17f836","60a277ee5de3ab5f6f45d49d","326.72499999171123","","","","39","","","","key","16.674000000000003","640","321","true","1","137.45886259200006","2.5769803776000004","11","-1","-1","","","","","","","","","","","","",""
"psychophysics","37","119450","0.0-6.0-0.31","605687b39a405b2f86f2fccd","609006691f6f4e337c17f836","60a277ee5de3ab5f6f45d49d","405.5899999802932","","","","37","","","","key","16.673999999999936","640","321","true","-1","134.88188221440006","2.5769803776000004","11","-1","-1","","","","","","","","","","","","",""
"psychophysics","38","120813","0.0-6.0-0.32","605687b39a405b2f86f2fccd","609006691f6f4e337c17f836","60a277ee5de3ab5f6f45d49d","361.86499998439103","","","","39","","","","key","16.67839506172836","640","321","true","1","134.88188221440006","2.5769803776000004","11","-1","-1","","","","","","","","","","","","",""
"psychophysics","39","122120","0.0-6.0-0.33","605687b39a405b2f86f2fccd","609006691f6f4e337c17f836","60a277ee5de3ab5f6f45d49d","305.90000000665896","","","","39","","","","key","16.673999999999825","640","321","true","1","132.30490183680007","2.5769803776000004","11","-1","-1","","","","","","","","","","","","",""
"psychophysics","40","123602","0.0-6.0-0.34","605687b39a405b2f86f2fccd","609006691f6f4e337c17f836","60a277ee5de3ab5f6f45d49d","479.7050000051968","","","","39","","","","key","16.673999999999896","640","321","true","1","132.30490183680007","2.5769803776000004","11","-1","-1","","","","","","","","","","","","",""
"psychophysics","41","124903","0.0-6.0-0.35","605687b39a405b2f86f2fccd","609006691f6f4e337c17f836","60a277ee5de3ab5f6f45d49d","300.279999995837","","","","37","","","","key","16.674000000000014","640","321","true","-1","129.72792145920008","2.5769803776000004","11","-1","-1","","","","","","","","","","","","",""
"psychophysics","42","126669","0.0-6.0-0.36","605687b39a405b2f86f2fccd","609006691f6f4e337c17f836","60a277ee5de3ab5f6f45d49d","764.2950000008568","","","","37","","","","key","16.67400000000004","640","321","true","-1","129.72792145920008","2.5769803776000004","11","-1","-1","","","","","","","","","","","","",""
"psychophysics","43","128211","0.0-6.0-0.37","605687b39a405b2f86f2fccd","609006691f6f4e337c17f836","60a277ee5de3ab5f6f45d49d","540.9100000106264","","","","37","","","","key","16.674000000000028","640","321","true","-1","129","2.5769803776000004","11","-1","-1","","","","","","","","","","","","",""
"psychophysics","44","130072","0.0-6.0-0.38","605687b39a405b2f86f2fccd","609006691f6f4e337c17f836","60a277ee5de3ab5f6f45d49d","858.6300000024494","","","","39","","","","key","16.673999999999854","640","321","true","-1","129","2.0615843020800004","12","1","-1","","","","","","","","","","","","",""
"psychophysics","45","132056","0.0-6.0-0.39","605687b39a405b2f86f2fccd","609006691f6f4e337c17f836","60a277ee5de3ab5f6f45d49d","982.5850000197534","","","","39","","","","key","16.675906779660874","640","321","true","-1","131.06158430208","2.0615843020800004","12","1","1","","","","","","","","","","","","",""
"html-keyboard-response","46","141796","0.0-7.0","605687b39a405b2f86f2fccd","609006691f6f4e337c17f836","60a277ee5de3ab5f6f45d49d","9738.870000001043","<p>Well Done !</p><p>Prepare for a new block.</p><p>DON'T EXIT THE FULL SCREEN MODE</p><p>Press the Spacebar to start.</p>","","","32","","","","","","","","","","","","","","","true","134.05769308979205","","","","","","","","","","",""
"psychophysics","47","143296","0.0-8.0-0.0","605687b39a405b2f86f2fccd","609006691f6f4e337c17f836","60a277ee5de3ab5f6f45d49d","497.71999998483807","","","","39","","","","key","16.93265168539319","640","321","true","1","180","30","0","-1","","","","","","","","","","","","","",""
"psychophysics","48","144835","0.0-8.0-0.1","605687b39a405b2f86f2fccd","609006691f6f4e337c17f836","60a277ee5de3ab5f6f45d49d","537.3050000052899","","","","37","","","","key","16.674000000000028","640","321","true","-1","180","30","0","-1","-1","","","","","","","","","","","","",""
"psychophysics","49","146476","0.0-8.0-0.2","605687b39a405b2f86f2fccd","609006691f6f4e337c17f836","60a277ee5de3ab5f6f45d49d","637.5500000140164","","","","37","","","","key","16.673999999999968","640","321","true","-1","150","30","0","-1","-1","","","","","","","","","","","","",""
"psychophysics","50","148022","0.0-8.0-0.3","605687b39a405b2f86f2fccd","609006691f6f4e337c17f836","60a277ee5de3ab5f6f45d49d","543.3550000016112","","","","39","","","","key","16.674000000000017","640","321","true","1","150","30","0","-1","-1","","","","","","","","","","","","",""
"psychophysics","51","149585","0.0-8.0-0.4","605687b39a405b2f86f2fccd","609006691f6f4e337c17f836","60a277ee5de3ab5f6f45d49d","561.2200000032317","","","","39","","","","key","16.674000000000007","640","321","true","1","129","30","0","-1","-1","","","","","","","","","","","","",""
"psychophysics","52","151200","0.0-8.0-0.5","605687b39a405b2f86f2fccd","609006691f6f4e337c17f836","60a277ee5de3ab5f6f45d49d","614.4600000116043","","","","37","","","","key","16.673999999999978","640","321","true","1","129","24","1","1","-1","","","","","","","","","","","","",""
"psychophysics","53","152689","0.0-8.0-0.6","605687b39a405b2f86f2fccd","609006691f6f4e337c17f836","60a277ee5de3ab5f6f45d49d","486.45999998552725","","","","37","","","","key","16.581613636363645","640","321","true","-1","153","24","1","-1","1","","","","","","","","","","","","",""
"psychophysics","54","154114","0.0-8.0-0.7","605687b39a405b2f86f2fccd","609006691f6f4e337c17f836","60a277ee5de3ab5f6f45d49d","423.60500001814216","","","","37","","","","key","16.674000000000095","640","321","true","-1","153","19.2","2","-1","-1","","","","","","","","","","","","",""
"psychophysics","55","155514","0.0-8.0-0.8","605687b39a405b2f86f2fccd","609006691f6f4e337c17f836","60a277ee5de3ab5f6f45d49d","398.1550000025891","","","","37","","","","key","16.67400000000012","640","321","true","-1","133.8","19.2","2","-1","-1","","","","","","","","","","","","",""
"psychophysics","56","156933","0.0-8.0-0.9","605687b39a405b2f86f2fccd","609006691f6f4e337c17f836","60a277ee5de3ab5f6f45d49d","417.730000015581","","","","39","","","","key","16.67399999999976","640","321","true","1","133.8","19.2","2","-1","-1","","","","","","","","","","","","",""
"psychophysics","57","158725","0.0-8.0-0.10","605687b39a405b2f86f2fccd","609006691f6f4e337c17f836","60a277ee5de3ab5f6f45d49d","790.9999999974389","","","","37","","","","key","16.674000000000166","640","321","true","1","129","15.36","3","1","-1","","","","","","","","","","","","",""
"psychophysics","58","160017","0.0-8.0-0.11","605687b39a405b2f86f2fccd","609006691f6f4e337c17f836","60a277ee5de3ab5f6f45d49d","291.1350000067614","","","","39","","","","key","16.673999999999825","640","321","true","1","144.36","15.36","3","-1","1","","","","","","","","","","","","",""
"psychophysics","59","161335","0.0-8.0-0.12","605687b39a405b2f86f2fccd","609006691f6f4e337c17f836","60a277ee5de3ab5f6f45d49d","316.00500000058673","","","","37","","","","key","16.674000000000188","640","321","true","-1","144.36","12.287999999999998","4","-1","-1","","","","","","","","","","","","",""
"psychophysics","60","162651","0.0-8.0-0.13","605687b39a405b2f86f2fccd","609006691f6f4e337c17f836","60a277ee5de3ab5f6f45d49d","314.41500000073574","","","","39","","","","key","16.67846153846133","640","321","true","1","132.072","12.287999999999998","4","-1","-1","","","","","","","","","","","","",""
"psychophysics","61","164026","0.0-8.0-0.14","605687b39a405b2f86f2fccd","609006691f6f4e337c17f836","60a277ee5de3ab5f6f45d49d","374.2099999799393","","","","37","","","","key","16.674000000000145","640","321","true","-1","132.072","12.287999999999998","4","-1","-1","","","","","","","","","","","","",""
"psychophysics","62","165820","0.0-8.0-0.15","605687b39a405b2f86f2fccd","609006691f6f4e337c17f836","60a277ee5de3ab5f6f45d49d","791.8099999951664","","","","39","","","","key","16.673999999999886","640","321","true","-1","129","9.8304","5","1","-1","","","","","","","","","","","","",""
"psychophysics","63","167308","0.0-8.0-0.16","605687b39a405b2f86f2fccd","609006691f6f4e337c17f836","60a277ee5de3ab5f6f45d49d","486.0249999910593","","","","39","","","","key","16.67400000000006","640","321","true","1","138.8304","9.8304","5","-1","1","","","","","","","","","","","","",""
"psychophysics","64","168919","0.0-8.0-0.17","605687b39a405b2f86f2fccd","609006691f6f4e337c17f836","60a277ee5de3ab5f6f45d49d","609.1550000128336","","","","39","","","","key","16.673999999999978","640","321","true","1","138.8304","7.864319999999999","6","-1","-1","","","","","","","","","","","","",""
"psychophysics","65","170457","0.0-8.0-0.18","605687b39a405b2f86f2fccd","609006691f6f4e337c17f836","60a277ee5de3ab5f6f45d49d","536.0050000017509","","","","39","","","","key","16.674000000000028","640","321","true","1","130.96608","7.864319999999999","6","-1","-1","","","","","","","","","","","","",""
"psychophysics","66","172024","0.0-8.0-0.19","605687b39a405b2f86f2fccd","609006691f6f4e337c17f836","60a277ee5de3ab5f6f45d49d","565.8349999866914","","","","39","","","","key","16.677591397849497","640","321","true","1","130.96608","7.864319999999999","6","-1","-1","","","","","","","","","","","","",""
"psychophysics","67","173656","0.0-8.0-0.20","605687b39a405b2f86f2fccd","609006691f6f4e337c17f836","60a277ee5de3ab5f6f45d49d","631.1599999899045","","","","37","","","","key","16.673999999999968","640","321","true","1","129","6.291456","7","1","-1","","","","","","","","","","","","",""
"psychophysics","68","175142","0.0-8.0-0.21","605687b39a405b2f86f2fccd","609006691f6f4e337c17f836","60a277ee5de3ab5f6f45d49d","484.4349999912083","","","","37","","","","key","16.67400000000006","640","321","true","-1","135.291456","6.291456","7","-1","1","","","","","","","","","","","","",""
"psychophysics","69","177115","0.0-8.0-0.22","605687b39a405b2f86f2fccd","609006691f6f4e337c17f836","60a277ee5de3ab5f6f45d49d","971.6550000011921","","","","37","","","","key","16.674000000000063","640","321","true","-1","135.291456","5.033164800000001","8","-1","-1","","","","","","","","","","","","",""
"psychophysics","70","178593","0.0-8.0-0.23","605687b39a405b2f86f2fccd","609006691f6f4e337c17f836","60a277ee5de3ab5f6f45d49d","474.61499998462386","","","","39","","","","key","16.67400000000006","640","321","true","1","130.2582912","5.033164800000001","8","-1","-1","","","","","","","","","","","","",""
"psychophysics","71","180200","0.0-8.0-0.24","605687b39a405b2f86f2fccd","609006691f6f4e337c17f836","60a277ee5de3ab5f6f45d49d","606.1749999935273","","","","39","","","","key","16.67399999999999","640","321","true","-1","130.2582912","4.0265318400000005","9","1","-1","","","","","","","","","","","","",""
"psychophysics","72","181645","0.0-8.0-0.25","605687b39a405b2f86f2fccd","609006691f6f4e337c17f836","60a277ee5de3ab5f6f45d49d","442.1349999902304","","","","37","","","","key","16.674000000000085","640","321","true","-1","134.28482304","4.0265318400000005","9","-1","1","","","","","","","","","","","","",""
"psychophysics","73","183145","0.0-8.0-0.26","605687b39a405b2f86f2fccd","609006691f6f4e337c17f836","60a277ee5de3ab5f6f45d49d","498.6149999895133","","","","37","","","","key","16.678000000000047","640","321","true","-1","134.28482304","3.2212254720000004","10","-1","-1","","","","","","","","","","","","",""
"psychophysics","74","184613","0.0-8.0-0.27","605687b39a405b2f86f2fccd","609006691f6f4e337c17f836","60a277ee5de3ab5f6f45d49d","466.164999990724","","","","37","","","","key","16.673999999999737","640","321","true","-1","131.06359756799998","3.2212254720000004","10","-1","-1","","","","","","","","","","","","",""
"psychophysics","75","186167","0.0-8.0-0.28","605687b39a405b2f86f2fccd","609006691f6f4e337c17f836","60a277ee5de3ab5f6f45d49d","553.3350000041537","","","","39","","","","key","16.674000000000017","640","321","true","1","131.06359756799998","3.2212254720000004","10","-1","-1","","","","","","","","","","","","",""
"psychophysics","76","187765","0.0-8.0-0.29","605687b39a405b2f86f2fccd","609006691f6f4e337c17f836","60a277ee5de3ab5f6f45d49d","595.900000014808","","","","37","","","","key","16.67399999999999","640","321","true","-1","129","3.2212254720000004","10","-1","-1","","","","","","","","","","","","",""
"psychophysics","77","189263","0.0-8.0-0.30","605687b39a405b2f86f2fccd","609006691f6f4e337c17f836","60a277ee5de3ab5f6f45d49d","495.5600000103004","","","","37","","","","key","16.673999999999722","640","321","true","-1","129","3.2212254720000004","10","-1","-1","","","","","","","","","","","","",""
"psychophysics","78","190783","0.0-8.0-0.31","605687b39a405b2f86f2fccd","609006691f6f4e337c17f836","60a277ee5de3ab5f6f45d49d","518.1049999955576","","","","39","","","","key","16.67400000000004","640","321","true","-1","129","2.5769803776000004","11","1","-1","","","","","","","","","","","","",""
"psychophysics","79","192230","0.0-8.0-0.32","605687b39a405b2f86f2fccd","609006691f6f4e337c17f836","60a277ee5de3ab5f6f45d49d","446.32499999715947","","","","39","","","","key","16.678058139534823","640","321","true","1","131.5769803776","2.5769803776000004","11","-1","1","","","","","","","","","","","","",""
"psychophysics","80","193797","0.0-8.0-0.33","605687b39a405b2f86f2fccd","609006691f6f4e337c17f836","60a277ee5de3ab5f6f45d49d","563.1950000242796","","","","39","","","","key","16.673999999999694","640","321","true","1","131.5769803776","2.0615843020800004","12","-1","-1","","","","","","","","","","","","",""
"psychophysics","81","195369","0.0-8.0-0.34","605687b39a405b2f86f2fccd","609006691f6f4e337c17f836","60a277ee5de3ab5f6f45d49d","571.059999987483","","","","37","","","","key","16.674000000000007","640","321","true","-1","129.51539607552","2.0615843020800004","12","-1","-1","","","","","","","","","","","","",""
"psychophysics","82","196811","0.0-8.0-0.35","605687b39a405b2f86f2fccd","609006691f6f4e337c17f836","60a277ee5de3ab5f6f45d49d","438.9049999881536","","","","37","","","","key","16.673999999999754","640","321","true","-1","129.51539607552","2.0615843020800004","12","-1","-1","","","","","","","","","","","","",""
"psychophysics","83","198317","0.0-8.0-0.36","605687b39a405b2f86f2fccd","609006691f6f4e337c17f836","60a277ee5de3ab5f6f45d49d","504.85999998636544","","","","37","","","","key","16.67400000000004","640","321","true","1","129","1.6492674416640005","13","1","-1","","","","","","","","","","","","",""
"psychophysics","84","199983","0.0-8.0-0.37","605687b39a405b2f86f2fccd","609006691f6f4e337c17f836","60a277ee5de3ab5f6f45d49d","664.5150000113063","","","","37","","","","key","16.67399999999995","640","321","true","1","130.649267441664","1.6492674416640005","13","1","1","","","","","","","","","","","","",""
"psychophysics","85","201554","0.0-8.0-0.38","605687b39a405b2f86f2fccd","609006691f6f4e337c17f836","60a277ee5de3ab5f6f45d49d","569.4450000009965","","","","39","","","","key","16.674000000000007","640","321","true","-1","132.298534883328","1.6492674416640005","13","1","1","","","","","","","","","","","","",""
"psychophysics","86","203009","0.0-8.0-0.39","605687b39a405b2f86f2fccd","609006691f6f4e337c17f836","60a277ee5de3ab5f6f45d49d","453.1999999890104","","","","39","","","","key","16.677941860465285","640","321","true","1","133.94780232499198","1.6492674416640005","13","-1","1","","","","","","","","","","","","",""
"html-keyboard-response","87","207655","0.0-9.0","605687b39a405b2f86f2fccd","609006691f6f4e337c17f836","60a277ee5de3ab5f6f45d49d","4645.055000000866","<p>Well Done !</p><p>Prepare for a new block.</p><p>DON'T EXIT THE FULL SCREEN MODE</p><p>Press the Spacebar to start.</p>","","","32","","","","","","","","","","","","","","","true","131.05181325148158","","","","","","","","","","",""
"psychophysics","88","208664","0.0-10.0-0.0","605687b39a405b2f86f2fccd","609006691f6f4e337c17f836","60a277ee5de3ab5f6f45d49d","7.880000019213185","","","","39","","","","key","16.67400000000004","640","321","true","1","180","30","0","-1","","","","","","","","","","","","","",""
"psychophysics","89","210348","0.0-10.0-0.1","605687b39a405b2f86f2fccd","609006691f6f4e337c17f836","60a277ee5de3ab5f6f45d49d","682.4199999973644","","","","39","","","","key","16.673999999999943","640","321","true","1","180","30","0","-1","-1","","","","","","","","","","","","",""
"psychophysics","90","211914","0.0-10.0-0.2","605687b39a405b2f86f2fccd","609006691f6f4e337c17f836","60a277ee5de3ab5f6f45d49d","563.4900000004563","","","","39","","","","key","16.674000000000007","640","321","true","1","150","30","0","-1","-1","","","","","","","","","","","","",""
"psychophysics","91","213356","0.0-10.0-0.3","605687b39a405b2f86f2fccd","609006691f6f4e337c17f836","60a277ee5de3ab5f6f45d49d","441.1199999740347","","","","39","","","","key","16.77011764705873","640","321","true","1","150","30","0","-1","-1","","","","","","","","","","","","",""
"psychophysics","92","214886","0.0-10.0-0.4","605687b39a405b2f86f2fccd","609006691f6f4e337c17f836","60a277ee5de3ab5f6f45d49d","527.5599999877159","","","","39","","","","key","16.674000000000028","640","321","true","1","129","30","0","-1","-1","","","","","","","","","","","","",""
"psychophysics","93","216508","0.0-10.0-0.5","605687b39a405b2f86f2fccd","609006691f6f4e337c17f836","60a277ee5de3ab5f6f45d49d","620.4199999920093","","","","39","","","","key","16.673999999999978","640","321","true","-1","129","24","1","1","-1","","","","","","","","","","","","",""
"psychophysics","94","217860","0.0-10.0-0.6","605687b39a405b2f86f2fccd","609006691f6f4e337c17f836","60a277ee5de3ab5f6f45d49d","350.66500000539236","","","","37","","","","key","16.67400000000016","640","321","true","-1","153","24","1","-1","1","","","","","","","","","","","","",""
"psychophysics","95","219264","0.0-10.0-0.7","605687b39a405b2f86f2fccd","609006691f6f4e337c17f836","60a277ee5de3ab5f6f45d49d","402.8950000065379","","","","39","","","","key","16.67400000000012","640","321","true","1","153","19.2","2","-1","-1","","","","","","","","","","","","",""
"psychophysics","96","220655","0.0-10.0-0.8","605687b39a405b2f86f2fccd","609006691f6f4e337c17f836","60a277ee5de3ab5f6f45d49d","388.2199999934528","","","","37","","","","key","16.67399999999977","640","321","true","-1","133.8","19.2","2","-1","-1","","","","","","","","","","","","",""
"psychophysics","97","222014","0.0-10.0-0.9","605687b39a405b2f86f2fccd","609006691f6f4e337c17f836","60a277ee5de3ab5f6f45d49d","357.18500000075437","","","","39","","","","key","16.67400000000016","640","321","true","1","133.8","19.2","2","-1","-1","","","","","","","","","","","","",""
"psychophysics","98","223776","0.0-10.0-0.10","605687b39a405b2f86f2fccd","609006691f6f4e337c17f836","60a277ee5de3ab5f6f45d49d","760.3399999788962","","","","39","","","","key","16.67726666666678","640","321","true","-1","129","15.36","3","1","-1","","","","","","","","","","","","",""
"psychophysics","99","225495","0.0-10.0-0.11","605687b39a405b2f86f2fccd","609006691f6f4e337c17f836","60a277ee5de3ab5f6f45d49d","715.5199999979232","","","","37","","","","key","16.673999999999925","640","321","true","-1","144.36","15.36","3","-1","1","","","","","","","","","","","","",""
"psychophysics","100","227034","0.0-10.0-0.12","605687b39a405b2f86f2fccd","609006691f6f4e337c17f836","60a277ee5de3ab5f6f45d49d","537.7549999975599","","","","39","","","","key","16.674000000000028","640","321","true","1","144.36","12.287999999999998","4","-1","-1","","","","","","","","","","","","",""
"psychophysics","101","228613","0.0-10.0-0.13","605687b39a405b2f86f2fccd","609006691f6f4e337c17f836","60a277ee5de3ab5f6f45d49d","574.1350000025705","","","","39","","","","key","16.673999999999996","640","321","true","1","132.072","12.287999999999998","4","-1","-1","","","","","","","","","","","","",""
"psychophysics","102","229927","0.0-10.0-0.14","605687b39a405b2f86f2fccd","609006691f6f4e337c17f836","60a277ee5de3ab5f6f45d49d","313.3150000066962","","","","37","","","","key","16.673999999999815","640","321","true","-1","132.072","12.287999999999998","4","-1","-1","","","","","","","","","","","","",""
"psychophysics","103","231568","0.0-10.0-0.15","605687b39a405b2f86f2fccd","609006691f6f4e337c17f836","60a277ee5de3ab5f6f45d49d","639.6599999861792","","","","39","","","","key","16.673999999999968","640","321","true","1","129","12.287999999999998","4","-1","-1","","","","","","","","","","","","",""
"psychophysics","104","233014","0.0-10.0-0.16","605687b39a405b2f86f2fccd","609006691f6f4e337c17f836","60a277ee5de3ab5f6f45d49d","443.2749999978114","","","","39","","","","key","16.67803488372078","640","321","true","1","129","12.287999999999998","4","-1","-1","","","","","","","","","","","","",""
"psychophysics","105","234713","0.0-10.0-0.17","605687b39a405b2f86f2fccd","609006691f6f4e337c17f836","60a277ee5de3ab5f6f45d49d","696.9899999967311","","","","39","","","","key","16.673999999999932","640","321","true","1","129","12.287999999999998","4","-1","-1","","","","","","","","","","","","",""
"psychophysics","106","236280","0.0-10.0-0.18","605687b39a405b2f86f2fccd","609006691f6f4e337c17f836","60a277ee5de3ab5f6f45d49d","566.6499999933876","","","","37","","","","key","16.674000000000007","640","321","true","-1","129","12.287999999999998","4","-1","-1","","","","","","","","","","","","",""
"psychophysics","107","237918","0.0-10.0-0.19","605687b39a405b2f86f2fccd","609006691f6f4e337c17f836","60a277ee5de3ab5f6f45d49d","636.2450000015087","","","","37","","","","key","16.673999999999968","640","321","true","-1","129","12.287999999999998","4","-1","-1","","","","","","","","","","","","",""
"psychophysics","108","239484","0.0-10.0-0.20","605687b39a405b2f86f2fccd","609006691f6f4e337c17f836","60a277ee5de3ab5f6f45d49d","563.1850000063423","","","","39","","","","key","16.674000000000007","640","321","true","-1","129","9.8304","5","1","-1","","","","","","","","","","","","",""
"psychophysics","109","241130","0.0-10.0-0.21","605687b39a405b2f86f2fccd","609006691f6f4e337c17f836","60a277ee5de3ab5f6f45d49d","644.3100000033155","","","","37","","","","key","16.674000000000255","640","321","true","-1","138.8304","9.8304","5","-1","1","","","","","","","","","","","","",""
"psychophysics","110","242667","0.0-10.0-0.22","605687b39a405b2f86f2fccd","609006691f6f4e337c17f836","60a277ee5de3ab5f6f45d49d","536.4150000095833","","","","37","","","","key","16.677472527472464","640","321","true","-1","138.8304","7.864319999999999","6","-1","-1","","","","","","","","","","","","",""
"psychophysics","111","244199","0.0-10.0-0.23","605687b39a405b2f86f2fccd","609006691f6f4e337c17f836","60a277ee5de3ab5f6f45d49d","530.5999999982305","","","","39","","","","key","16.674000000000028","640","321","true","1","130.96608","7.864319999999999","6","-1","-1","","","","","","","","","","","","",""
"psychophysics","112","245725","0.0-10.0-0.24","605687b39a405b2f86f2fccd","609006691f6f4e337c17f836","60a277ee5de3ab5f6f45d49d","523.0450000090059","","","","39","","","","key","16.67400000000004","640","321","true","1","130.96608","7.864319999999999","6","-1","-1","","","","","","","","","","","","",""
"psychophysics","113","247400","0.0-10.0-0.25","605687b39a405b2f86f2fccd","609006691f6f4e337c17f836","60a277ee5de3ab5f6f45d49d","673.0500000121538","","","","39","","","","key","16.673999999999943","640","321","true","-1","129","6.291456","7","1","-1","","","","","","","","","","","","",""
"psychophysics","114","248887","0.0-10.0-0.26","605687b39a405b2f86f2fccd","609006691f6f4e337c17f836","60a277ee5de3ab5f6f45d49d","485.73499999474734","","","","37","","","","key","16.67400000000006","640","321","true","-1","135.291456","6.291456","7","-1","1","","","","","","","","","","","","",""
"psychophysics","115","250389","0.0-10.0-0.27","605687b39a405b2f86f2fccd","609006691f6f4e337c17f836","60a277ee5de3ab5f6f45d49d","500.11999998241663","","","","39","","","","key","16.67400000000005","640","321","true","1","135.291456","5.033164800000001","8","-1","-1","","","","","","","","","","","","",""
"psychophysics","116","251888","0.0-10.0-0.28","605687b39a405b2f86f2fccd","609006691f6f4e337c17f836","60a277ee5de3ab5f6f45d49d","497.69999997806735","","","","39","","","","key","16.673999999999722","640","321","true","1","130.2582912","5.033164800000001","8","-1","-1","","","","","","","","","","","","",""
"psychophysics","117","253840","0.0-10.0-0.29","605687b39a405b2f86f2fccd","609006691f6f4e337c17f836","60a277ee5de3ab5f6f45d49d","950.7299999822862","","","","39","","","","key","16.677198275862008","640","321","true","-1","130.2582912","4.0265318400000005","9","1","-1","","","","","","","","","","","","",""
"psychophysics","118","255140","0.0-10.0-0.30","605687b39a405b2f86f2fccd","609006691f6f4e337c17f836","60a277ee5de3ab5f6f45d49d","298.95999998552725","","","","37","","","","key","16.673999999999825","640","321","true","-1","134.28482304","4.0265318400000005","9","-1","1","","","","","","","","","","","","",""
"psychophysics","119","256656","0.0-10.0-0.31","605687b39a405b2f86f2fccd","609006691f6f4e337c17f836","60a277ee5de3ab5f6f45d49d","514.6799999929499","","","","37","","","","key","16.67400000000004","640","321","true","-1","134.28482304","3.2212254720000004","10","-1","-1","","","","","","","","","","","","",""
"psychophysics","120","258242","0.0-10.0-0.32","605687b39a405b2f86f2fccd","609006691f6f4e337c17f836","60a277ee5de3ab5f6f45d49d","584.3999999924563","","","","37","","","","key","16.673999999999996","640","321","true","-1","131.06359756799998","3.2212254720000004","10","-1","-1","","","","","","","","","","","","",""
"psychophysics","121","260392","0.0-10.0-0.33","605687b39a405b2f86f2fccd","609006691f6f4e337c17f836","60a277ee5de3ab5f6f45d49d","1148.5600000014529","","","","39","","","","key","16.673999999999978","640","321","true","1","131.06359756799998","3.2212254720000004","10","-1","-1","","","","","","","","","","","","",""
"psychophysics","122","262068","0.0-10.0-0.34","605687b39a405b2f86f2fccd","609006691f6f4e337c17f836","60a277ee5de3ab5f6f45d49d","675.5399999965448","","","","39","","","","key","16.674000000000245","640","321","true","-1","129","2.5769803776000004","11","1","-1","","","","","","","","","","","","",""
"psychophysics","123","263492","0.0-10.0-0.35","605687b39a405b2f86f2fccd","609006691f6f4e337c17f836","60a277ee5de3ab5f6f45d49d","420.51999998511747","","","","39","","","","key","16.678058823529522","640","321","true","1","131.5769803776","2.5769803776000004","11","-1","1","","","","","","","","","","","","",""
"psychophysics","124","265494","0.0-10.0-0.36","605687b39a405b2f86f2fccd","609006691f6f4e337c17f836","60a277ee5de3ab5f6f45d49d","1001.3949999993201","","","","39","","","","key","16.674000000000046","640","321","true","1","131.5769803776","2.0615843020800004","12","-1","-1","","","","","","","","","","","","",""
"psychophysics","125","267546","0.0-10.0-0.37","605687b39a405b2f86f2fccd","609006691f6f4e337c17f836","60a277ee5de3ab5f6f45d49d","1050.119999999879","","","","39","","","","key","16.674000000000024","640","321","true","-1","129.51539607552","1.6492674416640005","13","1","-1","","","","","","","","","","","","",""
"psychophysics","126","269330","0.0-10.0-0.38","605687b39a405b2f86f2fccd","609006691f6f4e337c17f836","60a277ee5de3ab5f6f45d49d","782.3999999964144","","","","39","","","","key","16.67399999999962","640","321","true","1","131.16466351718398","1.6492674416640005","13","-1","1","","","","","","","","","","","","",""
"psychophysics","127","270932","0.0-10.0-0.39","605687b39a405b2f86f2fccd","609006691f6f4e337c17f836","60a277ee5de3ab5f6f45d49d","600.9100000082981","","","","37","","","","key","16.674000000000294","640","321","true","-1","131.16466351718398","1.3194139533312006","14","-1","-1","","","","","","","","","","","","",""
"html-keyboard-response","128","273227","0.0-11.0","605687b39a405b2f86f2fccd","609006691f6f4e337c17f836","60a277ee5de3ab5f6f45d49d","2293.7050000182353","<p>Well Done !</p><p>Prepare for a new block.</p><p>DON'T EXIT THE FULL SCREEN MODE</p><p>Press the Spacebar to start.</p>","","","32","","","","","","","","","","","","","","","true","131.65300129873918","","","","","","","","","","",""
"psychophysics","129","274373","0.0-12.0-0.0","605687b39a405b2f86f2fccd","609006691f6f4e337c17f836","60a277ee5de3ab5f6f45d49d","144.63500000420026","","","","39","","","","key","16.679691176470335","640","321","true","1","180","30","0","-1","","","","","","","","","","","","","",""
"psychophysics","130","275464","0.0-12.0-0.1","605687b39a405b2f86f2fccd","609006691f6f4e337c17f836","60a277ee5de3ab5f6f45d49d","89.31500001926906","","","","39","","","","key","16.673999999999964","640","321","true","1","180","30","0","-1","-1","","","","","","","","","","","","",""
"psychophysics","131","276766","0.0-12.0-0.2","605687b39a405b2f86f2fccd","609006691f6f4e337c17f836","60a277ee5de3ab5f6f45d49d","300.7999999972526","","","","39","","","","key","16.674000000000582","640","321","true","1","150","30","0","-1","-1","","","","","","","","","","","","",""
"psychophysics","132","278001","0.0-12.0-0.3","605687b39a405b2f86f2fccd","609006691f6f4e337c17f836","60a277ee5de3ab5f6f45d49d","233.7849999894388","","","","37","","","","key","16.673999999999864","640","321","true","-1","150","30","0","-1","-1","","","","","","","","","","","","",""
"psychophysics","133","279541","0.0-12.0-0.4","605687b39a405b2f86f2fccd","609006691f6f4e337c17f836","60a277ee5de3ab5f6f45d49d","538.5750000132248","","","","39","","","","key","16.673999999999708","640","321","true","1","129","30","0","-1","-1","","","","","","","","","","","","",""
"psychophysics","134","281038","0.0-12.0-0.5","605687b39a405b2f86f2fccd","609006691f6f4e337c17f836","60a277ee5de3ab5f6f45d49d","494.4149999937508","","","","39","","","","key","16.674000000000376","640","321","true","1","129","30","0","-1","-1","","","","","","","","","","","","",""
"psychophysics","135","282867","0.0-12.0-0.6","605687b39a405b2f86f2fccd","609006691f6f4e337c17f836","60a277ee5de3ab5f6f45d49d","827.3650000046473","","","","39","","","","key","16.6739999999996","640","321","true","-1","129","24","1","1","-1","","","","","","","","","","","","",""
"psychophysics","136","284321","0.0-12.0-0.7","605687b39a405b2f86f2fccd","609006691f6f4e337c17f836","60a277ee5de3ab5f6f45d49d","453.0749999976251","","","","37","","","","key","16.67832558139547","640","321","true","-1","153","24","1","-1","1","","","","","","","","","","","","",""
"psychophysics","137","285739","0.0-12.0-0.8","605687b39a405b2f86f2fccd","609006691f6f4e337c17f836","60a277ee5de3ab5f6f45d49d","416.44000000087544","","","","39","","","","key","16.674000000000454","640","321","true","1","153","19.2","2","-1","-1","","","","","","","","","","","","",""
"psychophysics","138","287107","0.0-12.0-0.9","605687b39a405b2f86f2fccd","609006691f6f4e337c17f836","60a277ee5de3ab5f6f45d49d","367.0400000119116","","","","37","","","","key","16.673999999999786","640","321","true","-1","133.8","19.2","2","-1","-1","","","","","","","","","","","","",""
"psychophysics","139","288477","0.0-12.0-0.10","605687b39a405b2f86f2fccd","609006691f6f4e337c17f836","60a277ee5de3ab5f6f45d49d","368.40499998652376","","","","37","","","","key","16.673999999999786","640","321","true","-1","133.8","19.2","2","-1","-1","","","","","","","","","","","","",""
"psychophysics","140","289841","0.0-12.0-0.11","605687b39a405b2f86f2fccd","609006691f6f4e337c17f836","60a277ee5de3ab5f6f45d49d","362.20000000321306","","","","39","","","","key","16.674000000000508","640","321","true","1","129","19.2","2","-1","-1","","","","","","","","","","","","",""
"psychophysics","141","291208","0.0-12.0-0.12","605687b39a405b2f86f2fccd","609006691f6f4e337c17f836","60a277ee5de3ab5f6f45d49d","366.4699999790173","","","","39","","","","key","16.673999999999786","640","321","true","-1","129","15.36","3","1","-1","","","","","","","","","","","","",""
"psychophysics","142","292582","0.0-12.0-0.13","605687b39a405b2f86f2fccd","609006691f6f4e337c17f836","60a277ee5de3ab5f6f45d49d","373.0750000104308","","","","39","","","","key","16.673999999999786","640","321","true","1","144.36","15.36","3","-1","1","","","","","","","","","","","","",""
"psychophysics","143","293892","0.0-12.0-0.14","605687b39a405b2f86f2fccd","609006691f6f4e337c17f836","60a277ee5de3ab5f6f45d49d","307.024999987334","","","","39","","","","key","16.67852564102549","640","321","true","1","144.36","12.287999999999998","4","-1","-1","","","","","","","","","","","","",""
"psychophysics","144","295226","0.0-12.0-0.15","605687b39a405b2f86f2fccd","609006691f6f4e337c17f836","60a277ee5de3ab5f6f45d49d","333.2100000116043","","","","37","","","","key","16.674000000000543","640","321","true","-1","132.072","12.287999999999998","4","-1","-1","","","","","","","","","","","","",""
"psychophysics","145","296560","0.0-12.0-0.16","605687b39a405b2f86f2fccd","609006691f6f4e337c17f836","60a277ee5de3ab5f6f45d49d","332.9399999929592","","","","37","","","","key","16.673999999999804","640","321","true","-1","132.072","12.287999999999998","4","-1","-1","","","","","","","","","","","","",""
"psychophysics","146","297882","0.0-12.0-0.17","605687b39a405b2f86f2fccd","609006691f6f4e337c17f836","60a277ee5de3ab5f6f45d49d","320.495000021765","","","","39","","","","key","16.673999999999815","640","321","true","-1","129","9.8304","5","1","-1","","","","","","","","","","","","",""
"psychophysics","147","299229","0.0-12.0-0.18","605687b39a405b2f86f2fccd","609006691f6f4e337c17f836","60a277ee5de3ab5f6f45d49d","346.079999988433","","","","39","","","","key","16.674000000000525","640","321","true","1","138.8304","9.8304","5","-1","1","","","","","","","","","","","","",""
"psychophysics","148","300488","0.0-12.0-0.19","605687b39a405b2f86f2fccd","609006691f6f4e337c17f836","60a277ee5de3ab5f6f45d49d","257.595000002766","","","","39","","","","key","16.673999999999854","640","321","true","1","138.8304","7.864319999999999","6","-1","-1","","","","","","","","","","","","",""
"psychophysics","149","301754","0.0-12.0-0.20","605687b39a405b2f86f2fccd","609006691f6f4e337c17f836","60a277ee5de3ab5f6f45d49d","262.82499998342246","","","","37","","","","key","16.673999999999843","640","321","true","-1","130.96608","7.864319999999999","6","-1","-1","","","","","","","","","","","","",""
"psychophysics","150","303068","0.0-12.0-0.21","605687b39a405b2f86f2fccd","609006691f6f4e337c17f836","60a277ee5de3ab5f6f45d49d","312.0550000166986","","","","37","","","","key","16.673999999999815","640","321","true","-1","130.96608","7.864319999999999","6","-1","-1","","","","","","","","","","","","",""
"psychophysics","151","304480","0.0-12.0-0.22","605687b39a405b2f86f2fccd","609006691f6f4e337c17f836","60a277ee5de3ab5f6f45d49d","409.76000000955537","","","","39","","","","key","16.677571428571746","640","321","true","1","129","7.864319999999999","6","-1","-1","","","","","","","","","","","","",""
"psychophysics","152","305847","0.0-12.0-0.23","605687b39a405b2f86f2fccd","609006691f6f4e337c17f836","60a277ee5de3ab5f6f45d49d","365.82500001532026","","","","37","","","","key","16.673999999999786","640","321","true","-1","129","7.864319999999999","6","-1","-1","","","","","","","","","","","","",""
"psychophysics","153","307304","0.0-12.0-0.24","605687b39a405b2f86f2fccd","609006691f6f4e337c17f836","60a277ee5de3ab5f6f45d49d","454.46999999694526","","","","39","","","","key","16.673999999999747","640","321","true","-1","129","6.291456","7","1","-1","","","","","","","","","","","","",""
"psychophysics","154","309185","0.0-12.0-0.25","605687b39a405b2f86f2fccd","609006691f6f4e337c17f836","60a277ee5de3ab5f6f45d49d","877.8300000121817","","","","37","","","","key","16.67400000000011","640","321","true","-1","135.291456","6.291456","7","-1","1","","","","","","","","","","","","",""
"psychophysics","155","310634","0.0-12.0-0.26","605687b39a405b2f86f2fccd","609006691f6f4e337c17f836","60a277ee5de3ab5f6f45d49d","448.3450000116136","","","","37","","","","key","16.674000000000422","640","321","true","-1","135.291456","5.033164800000001","8","-1","-1","","","","","","","","","","","","",""
"psychophysics","156","312042","0.0-12.0-0.27","605687b39a405b2f86f2fccd","609006691f6f4e337c17f836","60a277ee5de3ab5f6f45d49d","406.51999998954125","","","","39","","","","key","16.67399999999977","640","321","true","1","130.2582912","5.033164800000001","8","-1","-1","","","","","","","","","","","","",""
"psychophysics","157","313368","0.0-12.0-0.28","605687b39a405b2f86f2fccd","609006691f6f4e337c17f836","60a277ee5de3ab5f6f45d49d","323.4099999826867","","","","39","","","","key","16.673999999999804","640","321","true","1","130.2582912","5.033164800000001","8","-1","-1","","","","","","","","","","","","",""
"psychophysics","158","314734","0.0-12.0-0.29","605687b39a405b2f86f2fccd","609006691f6f4e337c17f836","60a277ee5de3ab5f6f45d49d","365.2799999981653","","","","39","","","","key","16.6782716049383","640","321","true","1","129","5.033164800000001","8","-1","-1","","","","","","","","","","","","",""
"psychophysics","159","316103","0.0-12.0-0.30","605687b39a405b2f86f2fccd","609006691f6f4e337c17f836","60a277ee5de3ab5f6f45d49d","367.3500000149943","","","","39","","","","key","16.674000000000508","640","321","true","-1","129","4.0265318400000005","9","1","-1","","","","","","","","","","","","",""
"psychophysics","160","317486","0.0-12.0-0.31","605687b39a405b2f86f2fccd","609006691f6f4e337c17f836","60a277ee5de3ab5f6f45d49d","382.47499999124557","","","","37","","","","key","16.67399999999978","640","321","true","-1","133.02653184","4.0265318400000005","9","-1","1","","","","","","","","","","","","",""
"psychophysics","161","318856","0.0-12.0-0.32","605687b39a405b2f86f2fccd","609006691f6f4e337c17f836","60a277ee5de3ab5f6f45d49d","367.45000001974404","","","","37","","","","key","16.673999999999786","640","321","true","-1","133.02653184","3.2212254720000004","10","-1","-1","","","","","","","","","","","","",""
"psychophysics","162","320222","0.0-12.0-0.33","605687b39a405b2f86f2fccd","609006691f6f4e337c17f836","60a277ee5de3ab5f6f45d49d","365.590000001248","","","","39","","","","key","16.674000000000508","640","321","true","-1","129.805306368","2.5769803776000004","11","1","-1","","","","","","","","","","","","",""
"psychophysics","163","321544","0.0-12.0-0.34","605687b39a405b2f86f2fccd","609006691f6f4e337c17f836","60a277ee5de3ab5f6f45d49d","320.65499998861924","","","","39","","","","key","16.673999999999815","640","321","true","1","132.3822867456","2.5769803776000004","11","-1","1","","","","","","","","","","","","",""
"psychophysics","164","322893","0.0-12.0-0.35","605687b39a405b2f86f2fccd","609006691f6f4e337c17f836","60a277ee5de3ab5f6f45d49d","346.53499998967163","","","","39","","","","key","16.673999999999797","640","321","true","1","132.3822867456","2.0615843020800004","12","-1","-1","","","","","","","","","","","","",""
"psychophysics","165","324398","0.0-12.0-0.36","605687b39a405b2f86f2fccd","609006691f6f4e337c17f836","60a277ee5de3ab5f6f45d49d","503.6149999941699","","","","39","","","","key","16.677853932584572","640","321","true","-1","130.32070244352","1.6492674416640005","13","1","-1","","","","","","","","","","","","",""
"psychophysics","166","325858","0.0-12.0-0.37","605687b39a405b2f86f2fccd","609006691f6f4e337c17f836","60a277ee5de3ab5f6f45d49d","458.89000000897795","","","","39","","","","key","16.673999999999737","640","321","true","1","131.96996988518399","1.6492674416640005","13","-1","1","","","","","","","","","","","","",""
"psychophysics","167","327694","0.0-12.0-0.38","605687b39a405b2f86f2fccd","609006691f6f4e337c17f836","60a277ee5de3ab5f6f45d49d","834.2699999921024","","","","39","","","","key","16.674000000000138","640","321","true","1","131.96996988518399","1.3194139533312006","14","-1","-1","","","","","","","","","","","","",""
"psychophysics","168","329197","0.0-12.0-0.39","605687b39a405b2f86f2fccd","609006691f6f4e337c17f836","60a277ee5de3ab5f6f45d49d","501.8850000051316","","","","37","","","","key","16.673999999999722","640","321","true","1","130.65055593185278","1.0555311626649604","15","1","-1","","","","","","","","","","","","",""
"html-keyboard-response","169","330743","0.0-13.0","605687b39a405b2f86f2fccd","609006691f6f4e337c17f836","60a277ee5de3ab5f6f45d49d","1544.594999984838","<p>Well Done !</p><p>Prepare for a new block.</p><p>DON'T EXIT THE FULL SCREEN MODE</p><p>Press the Spacebar to start.</p>","","","32","","","","","","","","","","","","","","","true","131.6422424056627","","","","","","","","","","",""
"html-keyboard-response","170","330846","0.0-14.0","605687b39a405b2f86f2fccd","609006691f6f4e337c17f836","60a277ee5de3ab5f6f45d49d","null","","","","null","","","","","","","","","","","","","","","","","132.10118751141889","true","136.20237502283777","","","","","","","",""
"instructions","171","350809","0.0-15.0","605687b39a405b2f86f2fccd","609006691f6f4e337c17f836","60a277ee5de3ab5f6f45d49d","19961.27499997965","","","","","","","[{""page_index"":0,""viewing_time"":17020.409999997355},{""page_index"":1,""viewing_time"":1623.0299999879207},{""page_index"":2,""viewing_time"":1317.5500000070315}]","","","","","","","","","","","","","","","","","","","","","","","",""
"psychophysics","172","353817","0.0-16.0-0.0","605687b39a405b2f86f2fccd","609006691f6f4e337c17f836","60a277ee5de3ab5f6f45d49d","null","","","","null","","","","key","16.723883333333653","640","321","","","","","","","","","","","","","","","","","","","",""
"psychophysics","173","354319","0.0-16.0-1.0","605687b39a405b2f86f2fccd","609006691f6f4e337c17f836","60a277ee5de3ab5f6f45d49d","null","","","","null","","","","key","16.67399999999907","640","321","","","","","","","","","","","","","136","1","5","false","","","",""
"psychophysics","174","358055","0.0-16.0-2.0","605687b39a405b2f86f2fccd","609006691f6f4e337c17f836","60a277ee5de3ab5f6f45d49d","3733.1949999788776","","","","77","","","","key","16.674000000000113","640","321","","","","","","","","","","","","","","","","","","","",""
"psychophysics","175","359056","0.0-16.0-0.1","605687b39a405b2f86f2fccd","609006691f6f4e337c17f836","60a277ee5de3ab5f6f45d49d","null","","","","null","","","","key","16.674000000000056","640","321","","","","","","","","","","","","","","","","","","","",""
"psychophysics","176","359560","0.0-16.0-1.1","605687b39a405b2f86f2fccd","609006691f6f4e337c17f836","60a277ee5de3ab5f6f45d49d","null","","","","null","","","","key","16.67399999999907","640","321","","","","","","","","","","","","","136","1","3","false","","","",""
"psychophysics","177","360338","0.0-16.0-2.1","605687b39a405b2f86f2fccd","609006691f6f4e337c17f836","60a277ee5de3ab5f6f45d49d","775.5750000069384","","","","77","","","","key","16.674000000000333","640","321","","","","","","","","","","","","","","","","","","","",""
"psychophysics","178","361339","0.0-16.0-0.2","605687b39a405b2f86f2fccd","609006691f6f4e337c17f836","60a277ee5de3ab5f6f45d49d","null","","","","null","","","","key","16.674000000000056","640","321","","","","","","","","","","","","","","","","","","","",""
"psychophysics","179","361841","0.0-16.0-1.2","605687b39a405b2f86f2fccd","609006691f6f4e337c17f836","60a277ee5de3ab5f6f45d49d","null","","","","null","","","","key","16.67399999999907","640","321","","","","","","","","","","","","","136","-1","2","false","","","",""
"psychophysics","180","362293","0.0-16.0-2.2","605687b39a405b2f86f2fccd","609006691f6f4e337c17f836","60a277ee5de3ab5f6f45d49d","449.7350000019651","","","","90","","","","key","16.674000000001307","640","321","","","","","","","","","","","","","","","","","","","",""
"psychophysics","181","363295","0.0-16.0-0.3","605687b39a405b2f86f2fccd","609006691f6f4e337c17f836","60a277ee5de3ab5f6f45d49d","null","","","","null","","","","key","16.535566666667002","640","321","","","","","","","","","","","","","","","","","","","",""
"psychophysics","182","363797","0.0-16.0-1.3","605687b39a405b2f86f2fccd","609006691f6f4e337c17f836","60a277ee5de3ab5f6f45d49d","null","","","","null","","","","key","16.67399999999907","640","321","","","","","","","","","","","","","136","-1","0","false","","","",""
"psychophysics","183","364266","0.0-16.0-2.3","605687b39a405b2f86f2fccd","609006691f6f4e337c17f836","60a277ee5de3ab5f6f45d49d","467.27999998256564","","","","90","","","","key","16.67399999999907","640","321","","","","","","","","","","","","","","","","","","","",""
"psychophysics","184","365267","0.0-16.0-0.4","605687b39a405b2f86f2fccd","609006691f6f4e337c17f836","60a277ee5de3ab5f6f45d49d","null","","","","null","","","","key","16.674000000000056","640","321","","","","","","","","","","","","","","","","","","","",""
"psychophysics","185","365770","0.0-16.0-1.4","605687b39a405b2f86f2fccd","609006691f6f4e337c17f836","60a277ee5de3ab5f6f45d49d","null","","","","null","","","","key","16.674000000001076","640","321","","","","","","","","","","","","","136","-1","4","false","","","",""
"psychophysics","186","366534","0.0-16.0-2.4","605687b39a405b2f86f2fccd","609006691f6f4e337c17f836","60a277ee5de3ab5f6f45d49d","762.0350000215694","","","","77","","","","key","16.674000000000362","640","321","","","","","","","","","","","","","","","","","","","",""
"psychophysics","187","367535","0.0-16.0-0.5","605687b39a405b2f86f2fccd","609006691f6f4e337c17f836","60a277ee5de3ab5f6f45d49d","null","","","","null","","","","key","16.674000000000056","640","321","","","","","","","","","","","","","","","","","","","",""
"psychophysics","188","368038","0.0-16.0-1.5","605687b39a405b2f86f2fccd","609006691f6f4e337c17f836","60a277ee5de3ab5f6f45d49d","null","","","","null","","","","key","16.67399999999907","640","321","","","","","","","","","","","","","136","-1","6","false","","","",""
"psychophysics","189","368326","0.0-16.0-2.5","605687b39a405b2f86f2fccd","609006691f6f4e337c17f836","60a277ee5de3ab5f6f45d49d","286.3950000028126","","","","77","","","","key","16.67399999999907","640","321","","","","","","","","","","","","","","","","","","","",""
"psychophysics","190","369328","0.0-16.0-0.6","605687b39a405b2f86f2fccd","609006691f6f4e337c17f836","60a277ee5de3ab5f6f45d49d","null","","","","null","","","","key","16.674000000000056","640","321","","","","","","","","","","","","","","","","","","","",""
"psychophysics","191","369831","0.0-16.0-1.6","605687b39a405b2f86f2fccd","609006691f6f4e337c17f836","60a277ee5de3ab5f6f45d49d","null","","","","null","","","","key","16.67400000000101","640","321","","","","","","","","","","","","","136","1","6","false","","","",""
"psychophysics","192","370119","0.0-16.0-2.6","605687b39a405b2f86f2fccd","609006691f6f4e337c17f836","60a277ee5de3ab5f6f45d49d","286.4100000006147","","","","77","","","","key","16.67399999999907","640","321","","","","","","","","","","","","","","","","","","","",""
"psychophysics","193","371121","0.0-16.0-0.7","605687b39a405b2f86f2fccd","609006691f6f4e337c17f836","60a277ee5de3ab5f6f45d49d","null","","","","null","","","","key","16.674000000000056","640","321","","","","","","","","","","","","","","","","","","","",""
"psychophysics","194","371624","0.0-16.0-1.7","605687b39a405b2f86f2fccd","609006691f6f4e337c17f836","60a277ee5de3ab5f6f45d49d","null","","","","null","","","","key","16.67399999999907","640","321","","","","","","","","","","","","","136","1","0","false","","","",""
"psychophysics","195","371861","0.0-16.0-2.7","605687b39a405b2f86f2fccd","609006691f6f4e337c17f836","60a277ee5de3ab5f6f45d49d","235.36500000045635","","","","77","","","","key","16.67399999999907","640","321","","","","","","","","","","","","","","","","","","","",""
"psychophysics","196","372863","0.0-16.0-0.8","605687b39a405b2f86f2fccd","609006691f6f4e337c17f836","60a277ee5de3ab5f6f45d49d","null","","","","null","","","","key","16.674000000000056","640","321","","","","","","","","","","","","","","","","","","","",""
"psychophysics","197","373365","0.0-16.0-1.8","605687b39a405b2f86f2fccd","609006691f6f4e337c17f836","60a277ee5de3ab5f6f45d49d","null","","","","null","","","","key","16.685766666665828","640","321","","","","","","","","","","","","","136","-1","3","false","","","",""
"psychophysics","198","373618","0.0-16.0-2.8","605687b39a405b2f86f2fccd","609006691f6f4e337c17f836","60a277ee5de3ab5f6f45d49d","250.2600000007078","","","","77","","","","key","16.67399999999907","640","321","","","","","","","","","","","","","","","","","","","",""
"psychophysics","199","374619","0.0-16.0-0.9","605687b39a405b2f86f2fccd","609006691f6f4e337c17f836","60a277ee5de3ab5f6f45d49d","null","","","","null","","","","key","16.674000000000056","640","321","","","","","","","","","","","","","","","","","","","",""
"psychophysics","200","375120","0.0-16.0-1.9","605687b39a405b2f86f2fccd","609006691f6f4e337c17f836","60a277ee5de3ab5f6f45d49d","null","","","","null","","","","key","16.674000000001076","640","321","","","","","","","","","","","","","136","1","4","false","","","",""
"psychophysics","201","375296","0.0-16.0-2.9","605687b39a405b2f86f2fccd","609006691f6f4e337c17f836","60a277ee5de3ab5f6f45d49d","173.86000000988133","","","","77","","","","key","16.67399999999907","640","321","","","","","","","","","","","","","","","","","","","",""
"psychophysics","202","376299","0.0-16.0-0.10","605687b39a405b2f86f2fccd","609006691f6f4e337c17f836","60a277ee5de3ab5f6f45d49d","null","","","","null","","","","key","16.674000000000056","640","321","","","","","","","","","","","","","","","","","","","",""
"psychophysics","203","376801","0.0-16.0-1.10","605687b39a405b2f86f2fccd","609006691f6f4e337c17f836","60a277ee5de3ab5f6f45d49d","null","","","","null","","","","key","16.67399999999907","640","321","","","","","","","","","","","","","136","-1","5","false","","","",""
"psychophysics","204","377106","0.0-16.0-2.10","605687b39a405b2f86f2fccd","609006691f6f4e337c17f836","60a277ee5de3ab5f6f45d49d","303.2799999928102","","","","77","","","","key","16.674000000002493","640","321","","","","","","","","","","","","","","","","","","","",""
"psychophysics","205","378108","0.0-16.0-0.11","605687b39a405b2f86f2fccd","609006691f6f4e337c17f836","60a277ee5de3ab5f6f45d49d","null","","","","null","","","","key","16.674000000000056","640","321","","","","","","","","","","","","","","","","","","","",""
"psychophysics","206","378611","0.0-16.0-1.11","605687b39a405b2f86f2fccd","609006691f6f4e337c17f836","60a277ee5de3ab5f6f45d49d","null","","","","null","","","","key","16.67399999999907","640","321","","","","","","","","","","","","","136","1","2","false","","","",""
"psychophysics","207","378940","0.0-16.0-2.11","605687b39a405b2f86f2fccd","609006691f6f4e337c17f836","60a277ee5de3ab5f6f45d49d","327.4400000227615","","","","90","","","","key","16.67399999999907","640","321","","","","","","","","","","","","","","","","","","","",""
"psychophysics","208","379942","0.0-16.0-0.12","605687b39a405b2f86f2fccd","609006691f6f4e337c17f836","60a277ee5de3ab5f6f45d49d","null","","","","null","","","","key","16.674000000000056","640","321","","","","","","","","","","","","","","","","","","","",""
"psychophysics","209","380444","0.0-16.0-1.12","605687b39a405b2f86f2fccd","609006691f6f4e337c17f836","60a277ee5de3ab5f6f45d49d","null","","","","null","","","","key","16.674000000001076","640","321","","","","","","","","","","","","","136","-1","4","false","","","",""
"psychophysics","210","380725","0.0-16.0-2.12","605687b39a405b2f86f2fccd","609006691f6f4e337c17f836","60a277ee5de3ab5f6f45d49d","278.85000000242144","","","","77","","","","key","16.67399999999907","640","321","","","","","","","","","","","","","","","","","","","",""
"psychophysics","211","381727","0.0-16.0-0.13","605687b39a405b2f86f2fccd","609006691f6f4e337c17f836","60a277ee5de3ab5f6f45d49d","null","","","","null","","","","key","16.674000000000056","640","321","","","","","","","","","","","","","","","","","","","",""
"psychophysics","212","382230","0.0-16.0-1.13","605687b39a405b2f86f2fccd","609006691f6f4e337c17f836","60a277ee5de3ab5f6f45d49d","null","","","","null","","","","key","16.674000000001076","640","321","","","","","","","","","","","","","136","-1","3","false","","","",""
"psychophysics","213","382533","0.0-16.0-2.13","605687b39a405b2f86f2fccd","609006691f6f4e337c17f836","60a277ee5de3ab5f6f45d49d","300.19999999785796","","","","77","","","","key","16.67399999999907","640","321","","","","","","","","","","","","","","","","","","","",""
"psychophysics","214","383536","0.0-16.0-0.14","605687b39a405b2f86f2fccd","609006691f6f4e337c17f836","60a277ee5de3ab5f6f45d49d","null","","","","null","","","","key","16.679711864406826","640","321","","","","","","","","","","","","","","","","","","","",""
"psychophysics","215","384037","0.0-16.0-1.14","605687b39a405b2f86f2fccd","609006691f6f4e337c17f836","60a277ee5de3ab5f6f45d49d","null","","","","null","","","","key","16.67399999999907","640","321","","","","","","","","","","","","","136","1","3","false","","","",""
"psychophysics","216","384441","0.0-16.0-2.14","605687b39a405b2f86f2fccd","609006691f6f4e337c17f836","60a277ee5de3ab5f6f45d49d","400.83999998751096","","","","77","","","","key","16.674000000001598","640","321","","","","","","","","","","","","","","","","","","","",""
"psychophysics","217","385442","0.0-16.0-0.15","605687b39a405b2f86f2fccd","609006691f6f4e337c17f836","60a277ee5de3ab5f6f45d49d","null","","","","null","","","","key","16.674000000000056","640","321","","","","","","","","","","","","","","","","","","","",""
"psychophysics","218","385943","0.0-16.0-1.15","605687b39a405b2f86f2fccd","609006691f6f4e337c17f836","60a277ee5de3ab5f6f45d49d","null","","","","null","","","","key","16.67399999999907","640","321","","","","","","","","","","","","","136","1","5","false","","","",""
"psychophysics","219","386266","0.0-16.0-2.15","605687b39a405b2f86f2fccd","609006691f6f4e337c17f836","60a277ee5de3ab5f6f45d49d","320.5749999906402","","","","77","","","","key","16.67399999999907","640","321","","","","","","","","","","","","","","","","","","","",""
"psychophysics","220","387269","0.0-16.0-0.16","605687b39a405b2f86f2fccd","609006691f6f4e337c17f836","60a277ee5de3ab5f6f45d49d","null","","","","null","","","","key","16.67399999999907","640","321","","","","","","","","","","","","","","","","","","","",""
"psychophysics","221","387771","0.0-16.0-1.16","605687b39a405b2f86f2fccd","609006691f6f4e337c17f836","60a277ee5de3ab5f6f45d49d","null","","","","null","","","","key","16.674000000001076","640","321","","","","","","","","","","","","","136","1","2","false","","","",""
"psychophysics","222","388157","0.0-16.0-2.16","605687b39a405b2f86f2fccd","609006691f6f4e337c17f836","60a277ee5de3ab5f6f45d49d","383.4350000252016","","","","77","","","","key","16.67399999999907","640","321","","","","","","","","","","","","","","","","","","","",""
"psychophysics","223","389158","0.0-16.0-0.17","605687b39a405b2f86f2fccd","609006691f6f4e337c17f836","60a277ee5de3ab5f6f45d49d","null","","","","null","","","","key","16.674000000000056","640","321","","","","","","","","","","","","","","","","","","","",""
"psychophysics","224","389660","0.0-16.0-1.17","605687b39a405b2f86f2fccd","609006691f6f4e337c17f836","60a277ee5de3ab5f6f45d49d","null","","","","null","","","","key","16.674000000001076","640","321","","","","","","","","","","","","","136","-1","6","false","","","",""
"psychophysics","225","390058","0.0-16.0-2.17","605687b39a405b2f86f2fccd","609006691f6f4e337c17f836","60a277ee5de3ab5f6f45d49d","395.9800000011455","","","","77","","","","key","16.67399999999907","640","321","","","","","","","","","","","","","","","","","","","",""
"psychophysics","226","391059","0.0-16.0-0.18","605687b39a405b2f86f2fccd","609006691f6f4e337c17f836","60a277ee5de3ab5f6f45d49d","null","","","","null","","","","key","16.674000000000056","640","321","","","","","","","","","","","","","","","","","","","",""
"psychophysics","227","391561","0.0-16.0-1.18","605687b39a405b2f86f2fccd","609006691f6f4e337c17f836","60a277ee5de3ab5f6f45d49d","null","","","","null","","","","key","16.674000000001076","640","321","","","","","","","","","","","","","136","-1","0","false","","","",""
"psychophysics","228","391900","0.0-16.0-2.18","605687b39a405b2f86f2fccd","609006691f6f4e337c17f836","60a277ee5de3ab5f6f45d49d","336.61500000744127","","","","77","","","","key","16.67399999999907","640","321","","","","","","","","","","","","","","","","","","","",""
"psychophysics","229","392902","0.0-16.0-0.19","605687b39a405b2f86f2fccd","609006691f6f4e337c17f836","60a277ee5de3ab5f6f45d49d","null","","","","null","","","","key","16.674000000000056","640","321","","","","","","","","","","","","","","","","","","","",""
"psychophysics","230","393406","0.0-16.0-1.19","605687b39a405b2f86f2fccd","609006691f6f4e337c17f836","60a277ee5de3ab5f6f45d49d","null","","","","null","","","","key","16.685724137930986","640","321","","","","","","","","","","","","","136","1","4","false","","","",""
"psychophysics","231","393698","0.0-16.0-2.19","605687b39a405b2f86f2fccd","609006691f6f4e337c17f836","60a277ee5de3ab5f6f45d49d","289.954999985639","","","","77","","","","key","16.67399999999907","640","321","","","","","","","","","","","","","","","","","","","",""
"psychophysics","232","394699","0.0-16.0-0.20","605687b39a405b2f86f2fccd","609006691f6f4e337c17f836","60a277ee5de3ab5f6f45d49d","null","","","","null","","","","key","16.674000000000056","640","321","","","","","","","","","","","","","","","","","","","",""
"psychophysics","233","395201","0.0-16.0-1.20","605687b39a405b2f86f2fccd","609006691f6f4e337c17f836","60a277ee5de3ab5f6f45d49d","null","","","","null","","","","key","16.674000000001076","640","321","","","","","","","","","","","","","136","-1","2","false","","","",""
"psychophysics","234","395436","0.0-16.0-2.20","605687b39a405b2f86f2fccd","609006691f6f4e337c17f836","60a277ee5de3ab5f6f45d49d","232.6549999997951","","","","77","","","","key","16.67399999999907","640","321","","","","","","","","","","","","","","","","","","","",""
"psychophysics","235","396439","0.0-16.0-0.21","605687b39a405b2f86f2fccd","609006691f6f4e337c17f836","60a277ee5de3ab5f6f45d49d","null","","","","null","","","","key","16.674000000000056","640","321","","","","","","","","","","","","","","","","","","","",""
"psychophysics","236","396942","0.0-16.0-1.21","605687b39a405b2f86f2fccd","609006691f6f4e337c17f836","60a277ee5de3ab5f6f45d49d","null","","","","null","","","","key","16.67399999999907","640","321","","","","","","","","","","","","","136","-1","5","false","","","",""
"psychophysics","237","397154","0.0-16.0-2.21","605687b39a405b2f86f2fccd","609006691f6f4e337c17f836","60a277ee5de3ab5f6f45d49d","204.98500001849607","","","","77","","","","key","16.674000000003918","640","321","","","","","","","","","","","","","","","","","","","",""
"psychophysics","238","398157","0.0-16.0-0.22","605687b39a405b2f86f2fccd","609006691f6f4e337c17f836","60a277ee5de3ab5f6f45d49d","null","","","","null","","","","key","16.67399999999907","640","321","","","","","","","","","","","","","","","","","","","",""
"psychophysics","239","398659","0.0-16.0-1.22","605687b39a405b2f86f2fccd","609006691f6f4e337c17f836","60a277ee5de3ab5f6f45d49d","null","","","","null","","","","key","16.674000000001076","640","321","","","","","","","","","","","","","136","1","6","false","","","",""
"psychophysics","240","398847","0.0-16.0-2.22","605687b39a405b2f86f2fccd","609006691f6f4e337c17f836","60a277ee5de3ab5f6f45d49d","184.56500000320375","","","","77","","","","key","16.67399999999907","640","321","","","","","","","","","","","","","","","","","","","",""
"psychophysics","241","399848","0.0-16.0-0.23","605687b39a405b2f86f2fccd","609006691f6f4e337c17f836","60a277ee5de3ab5f6f45d49d","null","","","","null","","","","key","16.674000000000056","640","321","","","","","","","","","","","","","","","","","","","",""
"psychophysics","242","400349","0.0-16.0-1.23","605687b39a405b2f86f2fccd","609006691f6f4e337c17f836","60a277ee5de3ab5f6f45d49d","null","","","","null","","","","key","16.674000000001076","640","321","","","","","","","","","","","","","136","1","0","false","","","",""
"psychophysics","243","401041","0.0-16.0-2.23","605687b39a405b2f86f2fccd","609006691f6f4e337c17f836","60a277ee5de3ab5f6f45d49d","690.020000009099","","","","77","","","","key","16.67399999999907","640","321","","","","","","","","","","","","","","","","","","","",""
"html-keyboard-response","244","402626","0.0-17.0","605687b39a405b2f86f2fccd","609006691f6f4e337c17f836","60a277ee5de3ab5f6f45d49d","1584.325000003446","<p>Well Done !</p><p>Training Complete. Press the spacebar to start.</p><p>DON'T EXIT THE FULL SCREEN MODE</p>","","","32","","","","","","","","","","","","","","","","","","","","","","","","","","",""
"psychophysics","245","405633","0.0-18.0-0.0","605687b39a405b2f86f2fccd","609006691f6f4e337c17f836","60a277ee5de3ab5f6f45d49d","null","","","","null","","","","key","16.681483333332775","640","321","","","","","","","","","","","","","","","","","","","",""
"psychophysics","246","406136","0.0-18.0-1.0","605687b39a405b2f86f2fccd","609006691f6f4e337c17f836","60a277ee5de3ab5f6f45d49d","null","","","","null","","","","key","16.674000000001076","640","321","","","","","","","","","","","","","136","1","0","true","","","",""
"psychophysics","247","408274","0.0-18.0-2.0","605687b39a405b2f86f2fccd","609006691f6f4e337c17f836","60a277ee5de3ab5f6f45d49d","2135.344999987865","","","","77","","","","key","16.673999999999985","640","321","","","","","","","","","","","","","","","","","","","",""
"psychophysics","248","409276","0.0-18.0-0.1","605687b39a405b2f86f2fccd","609006691f6f4e337c17f836","60a277ee5de3ab5f6f45d49d","null","","","","null","","","","key","16.674000000000056","640","321","","","","","","","","","","","","","","","","","","","",""
"psychophysics","249","409780","0.0-18.0-1.1","605687b39a405b2f86f2fccd","609006691f6f4e337c17f836","60a277ee5de3ab5f6f45d49d","null","","","","null","","","","key","16.67399999999907","640","321","","","","","","","","","","","","","136","-1","5","true","","","",""
"psychophysics","250","410139","0.0-18.0-2.1","605687b39a405b2f86f2fccd","609006691f6f4e337c17f836","60a277ee5de3ab5f6f45d49d","357.48000000603497","","","","77","","","","key","16.67400000000184","640","321","","","","","","","","","","","","","","","","","","","",""
"psychophysics","251","411141","0.0-18.0-0.2","605687b39a405b2f86f2fccd","609006691f6f4e337c17f836","60a277ee5de3ab5f6f45d49d","null","","","","null","","","","key","16.674000000000056","640","321","","","","","","","","","","","","","","","","","","","",""
"psychophysics","252","411644","0.0-18.0-1.2","605687b39a405b2f86f2fccd","609006691f6f4e337c17f836","60a277ee5de3ab5f6f45d49d","null","","","","null","","","","key","16.67399999999907","640","321","","","","","","","","","","","","","136","1","5","true","","","",""
"psychophysics","253","411838","0.0-18.0-2.2","605687b39a405b2f86f2fccd","609006691f6f4e337c17f836","60a277ee5de3ab5f6f45d49d","192.2550000017509","","","","77","","","","key","16.67399999999907","640","321","","","","","","","","","","","","","","","","","","","",""
"psychophysics","254","412841","0.0-18.0-0.3","605687b39a405b2f86f2fccd","609006691f6f4e337c17f836","60a277ee5de3ab5f6f45d49d","null","","","","null","","","","key","16.674000000000056","640","321","","","","","","","","","","","","","","","","","","","",""
"psychophysics","255","413343","0.0-18.0-1.3","605687b39a405b2f86f2fccd","609006691f6f4e337c17f836","60a277ee5de3ab5f6f45d49d","null","","","","null","","","","key","16.674000000001076","640","321","","","","","","","","","","","","","136","1","6","true","","","",""
"psychophysics","256","413589","0.0-18.0-2.3","605687b39a405b2f86f2fccd","609006691f6f4e337c17f836","60a277ee5de3ab5f6f45d49d","244.39500001608394","","","","77","","","","key","16.67399999999907","640","321","","","","","","","","","","","","","","","","","","","",""
"psychophysics","257","414590","0.0-18.0-0.4","605687b39a405b2f86f2fccd","609006691f6f4e337c17f836","60a277ee5de3ab5f6f45d49d","null","","","","null","","","","key","16.674000000000056","640","321","","","","","","","","","","","","","","","","","","","",""
"psychophysics","258","415092","0.0-18.0-1.4","605687b39a405b2f86f2fccd","609006691f6f4e337c17f836","60a277ee5de3ab5f6f45d49d","null","","","","null","","","","key","16.858206896550936","640","321","","","","","","","","","","","","","136","1","4","true","","","",""
"psychophysics","259","415381","0.0-18.0-2.4","605687b39a405b2f86f2fccd","609006691f6f4e337c17f836","60a277ee5de3ab5f6f45d49d","286.68499999912456","","","","77","","","","key","16.674000000002707","640","321","","","","","","","","","","","","","","","","","","","",""
"psychophysics","260","416383","0.0-18.0-0.5","605687b39a405b2f86f2fccd","609006691f6f4e337c17f836","60a277ee5de3ab5f6f45d49d","null","","","","null","","","","key","16.67399999999907","640","321","","","","","","","","","","","","","","","","","","","",""
"psychophysics","261","416887","0.0-18.0-1.5","605687b39a405b2f86f2fccd","609006691f6f4e337c17f836","60a277ee5de3ab5f6f45d49d","null","","","","null","","","","key","16.67399999999907","640","321","","","","","","","","","","","","","136","-1","2","true","","","",""
"psychophysics","262","417201","0.0-18.0-2.5","605687b39a405b2f86f2fccd","609006691f6f4e337c17f836","60a277ee5de3ab5f6f45d49d","312.26999999489635","","","","77","","","","key","16.67399999999907","640","321","","","","","","","","","","","","","","","","","","","",""
"psychophysics","263","418204","0.0-18.0-0.6","605687b39a405b2f86f2fccd","609006691f6f4e337c17f836","60a277ee5de3ab5f6f45d49d","null","","","","null","","","","key","16.674000000000056","640","321","","","","","","","","","","","","","","","","","","","",""
"psychophysics","264","418707","0.0-18.0-1.6","605687b39a405b2f86f2fccd","609006691f6f4e337c17f836","60a277ee5de3ab5f6f45d49d","null","","","","null","","","","key","16.674000000001076","640","321","","","","","","","","","","","","","136","1","2","true","","","",""
"psychophysics","265","418958","0.0-18.0-2.6","605687b39a405b2f86f2fccd","609006691f6f4e337c17f836","60a277ee5de3ab5f6f45d49d","246.55000001075678","","","","90","","","","key","16.67399999999907","640","321","","","","","","","","","","","","","","","","","","","",""
"psychophysics","266","419960","0.0-18.0-0.7","605687b39a405b2f86f2fccd","609006691f6f4e337c17f836","60a277ee5de3ab5f6f45d49d","null","","","","null","","","","key","16.67400000000004","640","321","","","","","","","","","","","","","","","","","","","",""
"psychophysics","267","420463","0.0-18.0-1.7","605687b39a405b2f86f2fccd","609006691f6f4e337c17f836","60a277ee5de3ab5f6f45d49d","null","","","","null","","","","key","16.67399999999907","640","321","","","","","","","","","","","","","136","-1","3","true","","","",""
"psychophysics","268","420799","0.0-18.0-2.7","605687b39a405b2f86f2fccd","609006691f6f4e337c17f836","60a277ee5de3ab5f6f45d49d","333.81999999983236","","","","77","","","","key","16.67400000000213","640","321","","","","","","","","","","","","","","","","","","","",""
"psychophysics","269","421800","0.0-18.0-0.8","605687b39a405b2f86f2fccd","609006691f6f4e337c17f836","60a277ee5de3ab5f6f45d49d","null","","","","null","","","","key","16.674000000000056","640","321","","","","","","","","","","","","","","","","","","","",""
"psychophysics","270","422302","0.0-18.0-1.8","605687b39a405b2f86f2fccd","609006691f6f4e337c17f836","60a277ee5de3ab5f6f45d49d","null","","","","null","","","","key","16.67399999999907","640","321","","","","","","","","","","","","","136","-1","0","true","","","",""
"psychophysics","271","422549","0.0-18.0-2.8","605687b39a405b2f86f2fccd","609006691f6f4e337c17f836","60a277ee5de3ab5f6f45d49d","244.7550000215415","","","","77","","","","key","16.67399999999907","640","321","","","","","","","","","","","","","","","","","","","",""
"psychophysics","272","423550","0.0-18.0-0.9","605687b39a405b2f86f2fccd","609006691f6f4e337c17f836","60a277ee5de3ab5f6f45d49d","null","","","","null","","","","key","16.674000000000056","640","321","","","","","","","","","","","","","","","","","","","",""
"psychophysics","273","424052","0.0-18.0-1.9","605687b39a405b2f86f2fccd","609006691f6f4e337c17f836","60a277ee5de3ab5f6f45d49d","null","","","","null","","","","key","16.674000000001076","640","321","","","","","","","","","","","","","136","-1","4","true","","","",""
"psychophysics","274","424356","0.0-18.0-2.9","605687b39a405b2f86f2fccd","609006691f6f4e337c17f836","60a277ee5de3ab5f6f45d49d","301.7600000021048","","","","77","","","","key","16.67399999999907","640","321","","","","","","","","","","","","","","","","","","","",""
"psychophysics","275","425358","0.0-18.0-0.10","605687b39a405b2f86f2fccd","609006691f6f4e337c17f836","60a277ee5de3ab5f6f45d49d","null","","","","null","","","","key","16.68064406779654","640","321","","","","","","","","","","","","","","","","","","","",""
"psychophysics","276","425861","0.0-18.0-1.10","605687b39a405b2f86f2fccd","609006691f6f4e337c17f836","60a277ee5de3ab5f6f45d49d","null","","","","null","","","","key","16.674000000001076","640","321","","","","","","","","","","","","","136","-1","6","true","","","",""
"psychophysics","277","426354","0.0-18.0-2.10","605687b39a405b2f86f2fccd","609006691f6f4e337c17f836","60a277ee5de3ab5f6f45d49d","488.36499999742955","","","","77","","","","key","16.67399999999907","640","321","","","","","","","","","","","","","","","","","","","",""
"psychophysics","278","427355","0.0-18.0-0.11","605687b39a405b2f86f2fccd","609006691f6f4e337c17f836","60a277ee5de3ab5f6f45d49d","null","","","","null","","","","key","16.674000000000056","640","321","","","","","","","","","","","","","","","","","","","",""
"psychophysics","279","427859","0.0-18.0-1.11","605687b39a405b2f86f2fccd","609006691f6f4e337c17f836","60a277ee5de3ab5f6f45d49d","null","","","","null","","","","key","16.674000000001076","640","321","","","","","","","","","","","","","136","1","3","true","","","",""
"psychophysics","280","427878","0.0-18.0-2.11","605687b39a405b2f86f2fccd","609006691f6f4e337c17f836","60a277ee5de3ab5f6f45d49d","17.13500000187196","","","","77","","","","key","NaN","640","321","","","","","","","","","","","","","","","","","","","",""
"psychophysics","281","428881","0.0-18.0-0.12","605687b39a405b2f86f2fccd","609006691f6f4e337c17f836","60a277ee5de3ab5f6f45d49d","null","","","","null","","","","key","16.674000000000056","640","321","","","","","","","","","","","","","","","","","","","",""
"psychophysics","282","429384","0.0-18.0-1.12","605687b39a405b2f86f2fccd","609006691f6f4e337c17f836","60a277ee5de3ab5f6f45d49d","null","","","","null","","","","key","16.67399999999907","640","321","","","","","","","","","","","","","136","1","2","true","","","",""
"psychophysics","283","429638","0.0-18.0-2.12","605687b39a405b2f86f2fccd","609006691f6f4e337c17f836","60a277ee5de3ab5f6f45d49d","251.27499998779967","","","","90","","","","key","16.67399999999907","640","321","","","","","","","","","","","","","","","","","","","",""
"psychophysics","284","430639","0.0-18.0-0.13","605687b39a405b2f86f2fccd","609006691f6f4e337c17f836","60a277ee5de3ab5f6f45d49d","null","","","","null","","","","key","16.674000000000056","640","321","","","","","","","","","","","","","","","","","","","",""
"psychophysics","285","431142","0.0-18.0-1.13","605687b39a405b2f86f2fccd","609006691f6f4e337c17f836","60a277ee5de3ab5f6f45d49d","null","","","","null","","","","key","16.674000000001076","640","321","","","","","","","","","","","","","136","-1","5","true","","","",""
"psychophysics","286","431206","0.0-18.0-2.13","605687b39a405b2f86f2fccd","609006691f6f4e337c17f836","60a277ee5de3ab5f6f45d49d","61.320000007981434","","","","77","","","","key","16.67399999999907","640","321","","","","","","","","","","","","","","","","","","","",""
"psychophysics","287","432207","0.0-18.0-0.14","605687b39a405b2f86f2fccd","609006691f6f4e337c17f836","60a277ee5de3ab5f6f45d49d","null","","","","null","","","","key","16.674000000000056","640","321","","","","","","","","","","","","","","","","","","","",""
"psychophysics","288","432710","0.0-18.0-1.14","605687b39a405b2f86f2fccd","609006691f6f4e337c17f836","60a277ee5de3ab5f6f45d49d","null","","","","null","","","","key","16.67399999999907","640","321","","","","","","","","","","","","","136","1","3","true","","","",""
"psychophysics","289","432808","0.0-18.0-2.14","605687b39a405b2f86f2fccd","609006691f6f4e337c17f836","60a277ee5de3ab5f6f45d49d","94.45999999297783","","","","77","","","","key","16.67399999999907","640","321","","","","","","","","","","","","","","","","","","","",""
"psychophysics","290","433810","0.0-18.0-0.15","605687b39a405b2f86f2fccd","609006691f6f4e337c17f836","60a277ee5de3ab5f6f45d49d","null","","","","null","","","","key","16.674000000000056","640","321","","","","","","","","","","","","","","","","","","","",""
"psychophysics","291","434313","0.0-18.0-1.15","605687b39a405b2f86f2fccd","609006691f6f4e337c17f836","60a277ee5de3ab5f6f45d49d","null","","","","null","","","","key","16.674000000001076","640","321","","","","","","","","","","","","","136","1","6","true","","","",""
"psychophysics","292","434360","0.0-18.0-2.15","605687b39a405b2f86f2fccd","609006691f6f4e337c17f836","60a277ee5de3ab5f6f45d49d","44.785000005504116","","","","77","","","","key","16.67399999999907","640","321","","","","","","","","","","","","","","","","","","","",""
"psychophysics","293","435363","0.0-18.0-0.16","605687b39a405b2f86f2fccd","609006691f6f4e337c17f836","60a277ee5de3ab5f6f45d49d","null","","","","null","","","","key","16.67998305084756","640","321","","","","","","","","","","","","","","","","","","","",""
"psychophysics","294","435866","0.0-18.0-1.16","605687b39a405b2f86f2fccd","609006691f6f4e337c17f836","60a277ee5de3ab5f6f45d49d","null","","","","null","","","","key","16.67399999999907","640","321","","","","","","","","","","","","","136","-1","3","true","","","",""
"psychophysics","295","436075","0.0-18.0-2.16","605687b39a405b2f86f2fccd","609006691f6f4e337c17f836","60a277ee5de3ab5f6f45d49d","204.78000000002794","","","","77","","","","key","16.67399999999907","640","321","","","","","","","","","","","","","","","","","","","",""
"psychophysics","296","437077","0.0-18.0-0.17","605687b39a405b2f86f2fccd","609006691f6f4e337c17f836","60a277ee5de3ab5f6f45d49d","null","","","","null","","","","key","16.674000000000056","640","321","","","","","","","","","","","","","","","","","","","",""
"psychophysics","297","437580","0.0-18.0-1.17","605687b39a405b2f86f2fccd","609006691f6f4e337c17f836","60a277ee5de3ab5f6f45d49d","null","","","","null","","","","key","16.674000000001076","640","321","","","","","","","","","","","","","136","-1","4","true","","","",""
"psychophysics","298","437775","0.0-18.0-2.17","605687b39a405b2f86f2fccd","609006691f6f4e337c17f836","60a277ee5de3ab5f6f45d49d","192.79000000096858","","","","77","","","","key","16.67399999999907","640","321","","","","","","","","","","","","","","","","","","","",""
"psychophysics","299","438777","0.0-18.0-0.18","605687b39a405b2f86f2fccd","609006691f6f4e337c17f836","60a277ee5de3ab5f6f45d49d","null","","","","null","","","","key","16.674000000000056","640","321","","","","","","","","","","","","","","","","","","","",""
"psychophysics","300","439280","0.0-18.0-1.18","605687b39a405b2f86f2fccd","609006691f6f4e337c17f836","60a277ee5de3ab5f6f45d49d","null","","","","null","","","","key","16.674000000001076","640","321","","","","","","","","","","","","","136","-1","6","true","","","",""
"psychophysics","301","439445","0.0-18.0-2.18","605687b39a405b2f86f2fccd","609006691f6f4e337c17f836","60a277ee5de3ab5f6f45d49d","162.79000000213273","","","","77","","","","key","16.67399999999907","640","321","","","","","","","","","","","","","","","","","","","",""
"psychophysics","302","440447","0.0-18.0-0.19","605687b39a405b2f86f2fccd","609006691f6f4e337c17f836","60a277ee5de3ab5f6f45d49d","null","","","","null","","","","key","16.674000000000056","640","321","","","","","","","","","","","","","","","","","","","",""
"psychophysics","303","440950","0.0-18.0-1.19","605687b39a405b2f86f2fccd","609006691f6f4e337c17f836","60a277ee5de3ab5f6f45d49d","null","","","","null","","","","key","16.67399999999907","640","321","","","","","","","","","","","","","136","1","5","true","","","",""
"psychophysics","304","441029","0.0-18.0-2.19","605687b39a405b2f86f2fccd","609006691f6f4e337c17f836","60a277ee5de3ab5f6f45d49d","76.39500001096167","","","","77","","","","key","16.67399999999907","640","321","","","","","","","","","","","","","","","","","","","",""
"psychophysics","305","442031","0.0-18.0-0.20","605687b39a405b2f86f2fccd","609006691f6f4e337c17f836","60a277ee5de3ab5f6f45d49d","null","","","","null","","","","key","16.674000000000056","640","321","","","","","","","","","","","","","","","","","","","",""
"psychophysics","306","442533","0.0-18.0-1.20","605687b39a405b2f86f2fccd","609006691f6f4e337c17f836","60a277ee5de3ab5f6f45d49d","null","","","","null","","","","key","16.674000000001076","640","321","","","","","","","","","","","","","136","-1","2","true","","","",""
"psychophysics","307","443086","0.0-18.0-2.20","605687b39a405b2f86f2fccd","609006691f6f4e337c17f836","60a277ee5de3ab5f6f45d49d","550.359999993816","","","","90","","","","key","16.67399999999907","640","321","","","","","","","","","","","","","","","","","","","",""
"psychophysics","308","444088","0.0-18.0-0.21","605687b39a405b2f86f2fccd","609006691f6f4e337c17f836","60a277ee5de3ab5f6f45d49d","null","","","","null","","","","key","16.674000000000056","640","321","","","","","","","","","","","","","","","","","","","",""
"psychophysics","309","444590","0.0-18.0-1.21","605687b39a405b2f86f2fccd","609006691f6f4e337c17f836","60a277ee5de3ab5f6f45d49d","null","","","","null","","","","key","16.67400000000101","640","321","","","","","","","","","","","","","136","-1","0","true","","","",""
"psychophysics","310","444887","0.0-18.0-2.21","605687b39a405b2f86f2fccd","609006691f6f4e337c17f836","60a277ee5de3ab5f6f45d49d","294.12499998579733","","","","77","","","","key","16.690437499997643","640","321","","","","","","","","","","","","","","","","","","","",""
"psychophysics","311","445891","0.0-18.0-0.22","605687b39a405b2f86f2fccd","609006691f6f4e337c17f836","60a277ee5de3ab5f6f45d49d","null","","","","null","","","","key","16.674000000000056","640","321","","","","","","","","","","","","","","","","","","","",""
"psychophysics","312","446392","0.0-18.0-1.22","605687b39a405b2f86f2fccd","609006691f6f4e337c17f836","60a277ee5de3ab5f6f45d49d","null","","","","null","","","","key","16.67400000000101","640","321","","","","","","","","","","","","","136","1","0","true","","","",""
"psychophysics","313","446611","0.0-18.0-2.22","605687b39a405b2f86f2fccd","609006691f6f4e337c17f836","60a277ee5de3ab5f6f45d49d","215.72999999625608","","","","90","","","","key","16.67399999999907","640","321","","","","","","","","","","","","","","","","","","","",""
"psychophysics","314","447612","0.0-18.0-0.23","605687b39a405b2f86f2fccd","609006691f6f4e337c17f836","60a277ee5de3ab5f6f45d49d","null","","","","null","","","","key","16.674000000000056","640","321","","","","","","","","","","","","","","","","","","","",""
"psychophysics","315","448113","0.0-18.0-1.23","605687b39a405b2f86f2fccd","609006691f6f4e337c17f836","60a277ee5de3ab5f6f45d49d","null","","","","null","","","","key","16.67399999999907","640","321","","","","","","","","","","","","","136","1","4","true","","","",""
"psychophysics","316","449032","0.0-18.0-2.23","605687b39a405b2f86f2fccd","609006691f6f4e337c17f836","60a277ee5de3ab5f6f45d49d","917.8299999912269","","","","77","","","","key","16.674000000000145","640","321","","","","","","","","","","","","","","","","","","","",""
"psychophysics","317","450034","0.0-18.0-0.24","605687b39a405b2f86f2fccd","609006691f6f4e337c17f836","60a277ee5de3ab5f6f45d49d","null","","","","null","","","","key","16.674000000000056","640","321","","","","","","","","","","","","","","","","","","","",""
"psychophysics","318","450536","0.0-18.0-1.24","605687b39a405b2f86f2fccd","609006691f6f4e337c17f836","60a277ee5de3ab5f6f45d49d","null","","","","null","","","","key","16.674000000001076","640","321","","","","","","","","","","","","","136","1","2","true","","","",""
"psychophysics","319","450830","0.0-18.0-2.24","605687b39a405b2f86f2fccd","609006691f6f4e337c17f836","60a277ee5de3ab5f6f45d49d","292.94000001391396","","","","90","","","","key","16.67399999999907","640","321","","","","","","","","","","","","","","","","","","","",""
"psychophysics","320","451832","0.0-18.0-0.25","605687b39a405b2f86f2fccd","609006691f6f4e337c17f836","60a277ee5de3ab5f6f45d49d","null","","","","null","","","","key","16.674000000000056","640","321","","","","","","","","","","","","","","","","","","","",""
"psychophysics","321","452334","0.0-18.0-1.25","605687b39a405b2f86f2fccd","609006691f6f4e337c17f836","60a277ee5de3ab5f6f45d49d","null","","","","null","","","","key","16.67399999999907","640","321","","","","","","","","","","","","","136","-1","0","true","","","",""
"psychophysics","322","452532","0.0-18.0-2.25","605687b39a405b2f86f2fccd","609006691f6f4e337c17f836","60a277ee5de3ab5f6f45d49d","195.17500000074506","","","","77","","","","key","16.67400000000436","640","321","","","","","","","","","","","","","","","","","","","",""
"psychophysics","323","453533","0.0-18.0-0.26","605687b39a405b2f86f2fccd","609006691f6f4e337c17f836","60a277ee5de3ab5f6f45d49d","null","","","","null","","","","key","16.674000000000056","640","321","","","","","","","","","","","","","","","","","","","",""
"psychophysics","324","454035","0.0-18.0-1.26","605687b39a405b2f86f2fccd","609006691f6f4e337c17f836","60a277ee5de3ab5f6f45d49d","null","","","","null","","","","key","16.67399999999907","640","321","","","","","","","","","","","","","136","-1","2","true","","","",""
"psychophysics","325","454298","0.0-18.0-2.26","605687b39a405b2f86f2fccd","609006691f6f4e337c17f836","60a277ee5de3ab5f6f45d49d","260.920000000624","","","","90","","","","key","16.67399999999907","640","321","","","","","","","","","","","","","","","","","","","",""
"psychophysics","326","455299","0.0-18.0-0.27","605687b39a405b2f86f2fccd","609006691f6f4e337c17f836","60a277ee5de3ab5f6f45d49d","null","","","","null","","","","key","16.681084745762853","640","321","","","","","","","","","","","","","","","","","","","",""
"psychophysics","327","455800","0.0-18.0-1.27","605687b39a405b2f86f2fccd","609006691f6f4e337c17f836","60a277ee5de3ab5f6f45d49d","null","","","","null","","","","key","16.674000000001076","640","321","","","","","","","","","","","","","136","1","0","true","","","",""
"psychophysics","328","456138","0.0-18.0-2.27","605687b39a405b2f86f2fccd","609006691f6f4e337c17f836","60a277ee5de3ab5f6f45d49d","335.80000000074506","","","","77","","","","key","16.67399999999907","640","321","","","","","","","","","","","","","","","","","","","",""
"psychophysics","329","457139","0.0-18.0-0.28","605687b39a405b2f86f2fccd","609006691f6f4e337c17f836","60a277ee5de3ab5f6f45d49d","null","","","","null","","","","key","16.674000000000056","640","321","","","","","","","","","","","","","","","","","","","",""
"psychophysics","330","457641","0.0-18.0-1.28","605687b39a405b2f86f2fccd","609006691f6f4e337c17f836","60a277ee5de3ab5f6f45d49d","null","","","","null","","","","key","16.67399999999907","640","321","","","","","","","","","","","","","136","1","3","true","","","",""
"psychophysics","331","457969","0.0-18.0-2.28","605687b39a405b2f86f2fccd","609006691f6f4e337c17f836","60a277ee5de3ab5f6f45d49d","325.63499998650514","","","","77","","","","key","16.67400000000213","640","321","","","","","","","","","","","","","","","","","","","",""
