"trial_type","trial_index","time_elapsed","internal_node_id","PROLIFIC_PID","STUDY_ID","SESSION_ID","rt","stimulus","button_pressed","success","key_press","responses","isData","view_history","response_type","avg_frame_time","center_x","center_y","isSC","stim_side","trial_luminance","step_size","nReversal","correct","prev_ans","isThreshold","SC_threshold","final_threshold","isLuminance","FF_luminance","luminance","stimSide","ISInt","isFF","question_order","isSPQ","isCAPS","isAQ"
"pavlovia","0","5","0.0-0.0","6005da505dafb45c7b9f4982","609006691f6f4e337c17f836","60a2782e2b130f3ae0cbc5f8","","","","","","","","","","","","","","","","","","","","","","","","","","","","","","","",""
"html-button-response","1","3578","0.0-1.0","6005da505dafb45c7b9f4982","609006691f6f4e337c17f836","60a2782e2b130f3ae0cbc5f8","3571.6649999958463","<div style='background-color: white; width:60%; margin: auto; padding: 50px; text-align: justify; text-justify: inter-word; margin-bottom: 20px;'><h1 style='text-align: center;'>Consent Form</h1><p>Please read this consent form carefully before deciding whether you would like to participate in this study. You have to be 18 years old or older to participate to this study.</p><p style='text-decoration: underline;'>Participation is voluntary:</p><p>It is your choice whether or not to participate in this research. If you choose to participate, you may change your mind and leave the study at any time. Refusal to participate or stopping your participation will involve no penalty or loss of benefits to which you are otherwise entitled.</p><p style='text-decoration: underline;'>Purpose of the Study:</p><p>To understand the mechanisms underlying human perception.</p><p style='text-decoration: underline;'>What you will do in this study:</p><p>You will be presented with a series of visual images and then you will press buttons on the keyboard of your computer to respond to simple questions about the images (e.g. Were one or two images presented?). In addition, you will be asked to complete a questionnaire concerning your beliefs and everyday mental and perceptual experiences.'</p><p style='text-decoration: underline;'> Time Required:</p><p>The study will take 40 minutes to complete. </p><p style='text-decoration: underline;'>Risks:</p><p>There are no anticipated risks associated with participating in this study that are beyond those experienced in everyday life. </p><p style='text-decoration: underline;'>Benefits:</p><p>There are no benefits to you in participating in the study. However, this study may lead to a better understanding of how different kinds of visual information are used.</p><p style='text-decoration: underline;'>Compensation:</p><p>You will be paid US$6.6/hour. </p><p style='text-decoration: underline;'>Privacy and Confidentiality:</p><p>Your participation in this study will be anonymous. No personal information about your name or identity will be asked or recorded. This anonymous data will be stored for several years and may be used for a variety of research purposes. The overall results of the study may be published, or the data files may be shared with other researchers, but your identity will not be revealed in any way. The online services we are using for this study may temporarily store your data, but this data will be downloaded and then promptly deleted from those services.Your data will not be permanently associated with your name, IP address, or any other identifiable information (e.g., your information will only be connected to your payment, not to any of your responses), though they may be temporarily stored together before we download and separate them. Even so, no guarantee of internet survey security can be given because, although unlikely, transmissions can be intercepted and IP addresses can be identified. The anonymous data may be shared publicly (for example, in conjunction with a resulting academic publication).</p><p style='text-decoration: underline;'>Participation and Withdrawal:</p><p>Your participation in this study is completely voluntary. You may stop responding to the stimuli or stop answering questions if you so choose and without penalty by exiting the full screen mode, closing this tab of your browser or redirecting it to a different website.</p><p style='text-decoration: underline;'>Contact Info of the Researcher: </p><p>If you have questions about this study, or if you would like to talk to the research team, please contact David Melcher (david.melcher@nyu.edu, md5050@nyu.edu) at the Perception and Active Cognition Laboratory, New York University Abu Dhabi, Computational Research Building, Saadiyat Island, Abu Dhabi, UAE.This research has been reviewed by the New York University Abu Dhabi Institutional Review Board (NYUAD IRB). To contact about your rights in this research, for questions, suggestions, or complaints that are not addressed by the researchers, please email IRBnyuad@nyu.edu, or call the NYUAD IRB at +971 2 628 4313. </p></div>","0","","","","","","","","","","","","","","","","","","","","","","","","","","","","",""
"fullscreen","2","12593","0.0-2.0","6005da505dafb45c7b9f4982","609006691f6f4e337c17f836","60a2782e2b130f3ae0cbc5f8","","","","true","","","","","","","","","","","","","","","","","","","","","","","","","","","",""
"html-keyboard-response","3","19391","0.0-3.0","6005da505dafb45c7b9f4982","609006691f6f4e337c17f836","60a2782e2b130f3ae0cbc5f8","6796.585000003688","<p>Welcome !</p><p>READ CAREFULLY THE FOLLOWING INDICATIONS:</p><p>From this moment you have ~40 minutes to complete the experiment.</p><p>During the experiment you will be prompted to take several breaks. Each break should not last longer than 2-3 minutes.</p><p>Make sure that your computer is plugged in and it's not running on battery power, even if the battery is already fully charged.</p><p>Turn off your phone and music, make sure that you are in a quiet room and that you will not be distracted for the next hour.</p><p>Failure to comply with the instructions and indications provided during the experiment will most likely result in the rejection of your data.<p>Press the spacebar to start.</p>","","","32","","","","","","","","","","","","","","","","","","","","","","","","","","",""
"survey-html-form","4","26524","0.0-4.0","6005da505dafb45c7b9f4982","609006691f6f4e337c17f836","60a2782e2b130f3ae0cbc5f8","7130.750000011176","","","","","{""age"":""28"",""sex"":""F""}","true","","","","","","","","","","","","","","","","","","","","","","","","",""
"instructions","5","62280","0.0-5.0","6005da505dafb45c7b9f4982","609006691f6f4e337c17f836","60a2782e2b130f3ae0cbc5f8","35755.704999988666","","","","","","","[{""page_index"":0,""viewing_time"":18430.084999999963},{""page_index"":1,""viewing_time"":13739.499999996042},{""page_index"":2,""viewing_time"":3585.5849999934435}]","","","","","","","","","","","","","","","","","","","","","","","",""
"psychophysics","6","69200","0.0-6.0-0.0","6005da505dafb45c7b9f4982","609006691f6f4e337c17f836","60a2782e2b130f3ae0cbc5f8","5915.334999997867","","","","37","","","","key","16.667168674698814","720","410.5","true","-1","180","30","0","-1","","","","","","","","","","","","","",""
"psychophysics","7","70421","0.0-6.0-0.1","6005da505dafb45c7b9f4982","609006691f6f4e337c17f836","60a2782e2b130f3ae0cbc5f8","217.6249999902211","","","","37","","","","key","16.665999999999865","720","410.5","true","-1","180","30","0","-1","-1","","","","","","","","","","","","",""
"psychophysics","8","73282","0.0-6.0-0.2","6005da505dafb45c7b9f4982","609006691f6f4e337c17f836","60a2782e2b130f3ae0cbc5f8","1858.539999986533","","","","39","","","","key","16.665999999999993","720","410.5","true","1","150","30","0","-1","-1","","","","","","","","","","","","",""
"psychophysics","9","74305","0.0-6.0-0.3","6005da505dafb45c7b9f4982","609006691f6f4e337c17f836","60a2782e2b130f3ae0cbc5f8","20.004999998491257","","","","39","","","","key","16.665999999999865","720","410.5","true","1","150","30","0","-1","-1","","","","","","","","","","","","",""
"psychophysics","10","76057","0.0-6.0-0.4","6005da505dafb45c7b9f4982","609006691f6f4e337c17f836","60a2782e2b130f3ae0cbc5f8","749.9150000221562","","","","39","","","","key","16.665999999999958","720","410.5","true","1","129","30","0","-1","-1","","","","","","","","","","","","",""
"psychophysics","11","79297","0.0-6.0-0.5","6005da505dafb45c7b9f4982","609006691f6f4e337c17f836","60a2782e2b130f3ae0cbc5f8","2235.335000004852","","","","37","","","","key","16.668943005181347","720","410.5","true","-1","129","30","0","-1","-1","","","","","","","","","","","","",""
"psychophysics","12","82810","0.0-6.0-0.6","6005da505dafb45c7b9f4982","609006691f6f4e337c17f836","60a2782e2b130f3ae0cbc5f8","2510.0450000027195","","","","37","","","","key","16.666000000000004","720","410.5","true","-1","129","30","0","-1","-1","","","","","","","","","","","","",""
"psychophysics","13","85040","0.0-6.0-0.7","6005da505dafb45c7b9f4982","609006691f6f4e337c17f836","60a2782e2b130f3ae0cbc5f8","1226.6250000102445","","","","39","","","","key","16.666000000000064","720","410.5","true","-1","129","24","1","1","-1","","","","","","","","","","","","",""
"psychophysics","14","86662","0.0-6.0-0.8","6005da505dafb45c7b9f4982","609006691f6f4e337c17f836","60a2782e2b130f3ae0cbc5f8","619.7050000191666","","","","39","","","","key","16.666000000000015","720","410.5","true","1","153","24","1","-1","1","","","","","","","","","","","","",""
"psychophysics","15","88216","0.0-6.0-0.9","6005da505dafb45c7b9f4982","609006691f6f4e337c17f836","60a2782e2b130f3ae0cbc5f8","551.7099999997299","","","","37","","","","key","16.672107526881813","720","410.5","true","-1","153","19.2","2","-1","-1","","","","","","","","","","","","",""
"psychophysics","16","90021","0.0-6.0-0.10","6005da505dafb45c7b9f4982","609006691f6f4e337c17f836","60a2782e2b130f3ae0cbc5f8","802.4999999906868","","","","37","","","","key","16.66600000000002","720","410.5","true","-1","133.8","19.2","2","-1","-1","","","","","","","","","","","","",""
"psychophysics","17","91638","0.0-6.0-0.11","6005da505dafb45c7b9f4982","609006691f6f4e337c17f836","60a2782e2b130f3ae0cbc5f8","614.4149999890942","","","","39","","","","key","16.666000000000015","720","410.5","true","1","133.8","19.2","2","-1","-1","","","","","","","","","","","","",""
"psychophysics","18","93848","0.0-6.0-0.12","6005da505dafb45c7b9f4982","609006691f6f4e337c17f836","60a2782e2b130f3ae0cbc5f8","1208.1250000046566","","","","37","","","","key","16.665999999999993","720","410.5","true","-1","129","19.2","2","-1","-1","","","","","","","","","","","","",""
"psychophysics","19","95803","0.0-6.0-0.13","6005da505dafb45c7b9f4982","609006691f6f4e337c17f836","60a2782e2b130f3ae0cbc5f8","951.4600000111386","","","","39","","","","key","16.66600000000005","720","410.5","true","-1","129","15.36","3","1","-1","","","","","","","","","","","","",""
"psychophysics","20","97321","0.0-6.0-0.14","6005da505dafb45c7b9f4982","609006691f6f4e337c17f836","60a2782e2b130f3ae0cbc5f8","516.2950000085402","","","","39","","","","key","16.666000000000025","720","410.5","true","1","144.36","15.36","3","-1","1","","","","","","","","","","","","",""
"psychophysics","21","98841","0.0-6.0-0.15","6005da505dafb45c7b9f4982","609006691f6f4e337c17f836","60a2782e2b130f3ae0cbc5f8","516.7450000008103","","","","37","","","","key","16.673233333333336","720","410.5","true","-1","144.36","12.287999999999998","4","-1","-1","","","","","","","","","","","","",""
"psychophysics","22","100855","0.0-6.0-0.16","6005da505dafb45c7b9f4982","609006691f6f4e337c17f836","60a2782e2b130f3ae0cbc5f8","1011.9600000034552","","","","39","","","","key","16.665999999999986","720","410.5","true","1","132.072","12.287999999999998","4","-1","-1","","","","","","","","","","","","",""
"psychophysics","23","102731","0.0-6.0-0.17","6005da505dafb45c7b9f4982","609006691f6f4e337c17f836","60a2782e2b130f3ae0cbc5f8","872.7099999960046","","","","37","","","","key","16.66600000000006","720","410.5","true","1","132.072","9.8304","5","1","-1","","","","","","","","","","","","",""
"psychophysics","24","104286","0.0-6.0-0.18","6005da505dafb45c7b9f4982","609006691f6f4e337c17f836","60a2782e2b130f3ae0cbc5f8","553.169999999227","","","","37","","","","key","16.665999999999944","720","410.5","true","-1","141.9024","9.8304","5","-1","1","","","","","","","","","","","","",""
"psychophysics","25","105682","0.0-6.0-0.19","6005da505dafb45c7b9f4982","609006691f6f4e337c17f836","60a2782e2b130f3ae0cbc5f8","394.1250000207219","","","","39","","","","key","16.666000000000068","720","410.5","true","1","141.9024","7.864319999999999","6","-1","-1","","","","","","","","","","","","",""
"psychophysics","26","107093","0.0-6.0-0.20","6005da505dafb45c7b9f4982","609006691f6f4e337c17f836","60a2782e2b130f3ae0cbc5f8","407.8800000133924","","","","39","","","","key","16.666000000000068","720","410.5","true","1","134.03808","7.864319999999999","6","-1","-1","","","","","","","","","","","","",""
"psychophysics","27","108139","0.0-6.0-0.21","6005da505dafb45c7b9f4982","609006691f6f4e337c17f836","60a2782e2b130f3ae0cbc5f8","42.625000001862645","","","","39","","","","key","16.67583870967745","720","410.5","true","1","134.03808","7.864319999999999","6","-1","-1","","","","","","","","","","","","",""
"psychophysics","28","110150","0.0-6.0-0.22","6005da505dafb45c7b9f4982","609006691f6f4e337c17f836","60a2782e2b130f3ae0cbc5f8","1008.5000000253785","","","","39","","","","key","16.665999999999986","720","410.5","true","-1","129","6.291456","7","1","-1","","","","","","","","","","","","",""
"psychophysics","29","111239","0.0-6.0-0.23","6005da505dafb45c7b9f4982","609006691f6f4e337c17f836","60a2782e2b130f3ae0cbc5f8","86.74499997869134","","","","39","","","","key","16.666000000000167","720","410.5","true","1","135.291456","6.291456","7","-1","1","","","","","","","","","","","","",""
"psychophysics","30","112407","0.0-6.0-0.24","6005da505dafb45c7b9f4982","609006691f6f4e337c17f836","60a2782e2b130f3ae0cbc5f8","164.79500001878478","","","","37","","","","key","16.66599999999997","720","410.5","true","-1","135.291456","5.033164800000001","8","-1","-1","","","","","","","","","","","","",""
"psychophysics","31","114278","0.0-6.0-0.25","6005da505dafb45c7b9f4982","609006691f6f4e337c17f836","60a2782e2b130f3ae0cbc5f8","868.6650000163354","","","","37","","","","key","16.66600000000006","720","410.5","true","-1","130.2582912","5.033164800000001","8","-1","-1","","","","","","","","","","","","",""
"psychophysics","32","116738","0.0-6.0-0.26","6005da505dafb45c7b9f4982","609006691f6f4e337c17f836","60a2782e2b130f3ae0cbc5f8","1457.2100000223145","","","","39","","","","key","16.66600000000001","720","410.5","true","-1","130.2582912","4.0265318400000005","9","1","-1","","","","","","","","","","","","",""
"psychophysics","33","118263","0.0-6.0-0.27","6005da505dafb45c7b9f4982","609006691f6f4e337c17f836","60a2782e2b130f3ae0cbc5f8","520.0849999964703","","","","39","","","","key","16.67277777777781","720","410.5","true","1","134.28482304","4.0265318400000005","9","-1","1","","","","","","","","","","","","",""
"psychophysics","34","119909","0.0-6.0-0.28","6005da505dafb45c7b9f4982","609006691f6f4e337c17f836","60a2782e2b130f3ae0cbc5f8","643.580000003567","","","","37","","","","key","16.665999999999965","720","410.5","true","-1","134.28482304","3.2212254720000004","10","-1","-1","","","","","","","","","","","","",""
"psychophysics","35","121598","0.0-6.0-0.29","6005da505dafb45c7b9f4982","609006691f6f4e337c17f836","60a2782e2b130f3ae0cbc5f8","685.9149999800138","","","","39","","","","key","16.666000000000057","720","410.5","true","1","131.06359756799998","3.2212254720000004","10","-1","-1","","","","","","","","","","","","",""
"psychophysics","36","123988","0.0-6.0-0.30","6005da505dafb45c7b9f4982","609006691f6f4e337c17f836","60a2782e2b130f3ae0cbc5f8","1387.7949999878183","","","","37","","","","key","16.665999999999983","720","410.5","true","1","131.06359756799998","2.5769803776000004","11","1","-1","","","","","","","","","","","","",""
"psychophysics","37","125443","0.0-6.0-0.31","6005da505dafb45c7b9f4982","609006691f6f4e337c17f836","60a2782e2b130f3ae0cbc5f8","452.17000000411645","","","","37","","","","key","16.666000000000146","720","410.5","true","-1","133.64057794559997","2.5769803776000004","11","-1","1","","","","","","","","","","","","",""
"psychophysics","38","126847","0.0-6.0-0.32","6005da505dafb45c7b9f4982","609006691f6f4e337c17f836","60a2782e2b130f3ae0cbc5f8","400.83500000764616","","","","39","","","","key","16.665999999999894","720","410.5","true","1","133.64057794559997","2.0615843020800004","12","-1","-1","","","","","","","","","","","","",""
"psychophysics","39","128271","0.0-6.0-0.33","6005da505dafb45c7b9f4982","609006691f6f4e337c17f836","60a2782e2b130f3ae0cbc5f8","421.91999999340624","","","","39","","","","key","16.67316470588232","720","410.5","true","1","131.57899364351996","2.0615843020800004","12","-1","-1","","","","","","","","","","","","",""
"psychophysics","40","130286","0.0-6.0-0.34","6005da505dafb45c7b9f4982","609006691f6f4e337c17f836","60a2782e2b130f3ae0cbc5f8","1012.1700000017881","","","","37","","","","key","16.665999999999986","720","410.5","true","1","131.57899364351996","1.6492674416640005","13","1","-1","","","","","","","","","","","","",""
"psychophysics","41","131983","0.0-6.0-0.35","6005da505dafb45c7b9f4982","609006691f6f4e337c17f836","60a2782e2b130f3ae0cbc5f8","694.6649999881629","","","","37","","","","key","16.666000000000032","720","410.5","true","1","133.22826108518396","1.6492674416640005","13","1","1","","","","","","","","","","","","",""
"psychophysics","42","133221","0.0-6.0-0.36","6005da505dafb45c7b9f4982","609006691f6f4e337c17f836","60a2782e2b130f3ae0cbc5f8","236.12500002491288","","","","39","","","","key","16.66599999999983","720","410.5","true","1","134.87752852684795","1.6492674416640005","13","-1","1","","","","","","","","","","","","",""
"psychophysics","43","134605","0.0-6.0-0.37","6005da505dafb45c7b9f4982","609006691f6f4e337c17f836","60a2782e2b130f3ae0cbc5f8","381.54499998199753","","","","37","","","","key","16.665999999999922","720","410.5","true","-1","134.87752852684795","1.3194139533312006","14","-1","-1","","","","","","","","","","","","",""
"psychophysics","44","135833","0.0-6.0-0.38","6005da505dafb45c7b9f4982","609006691f6f4e337c17f836","60a2782e2b130f3ae0cbc5f8","224.79000000748783","","","","37","","","","key","16.66599999999983","720","410.5","true","-1","133.55811457351675","1.3194139533312006","14","-1","-1","","","","","","","","","","","","",""
"psychophysics","45","136986","0.0-6.0-0.39","6005da505dafb45c7b9f4982","609006691f6f4e337c17f836","60a2782e2b130f3ae0cbc5f8","150.6200000003446","","","","37","","","","key","16.666000000000007","720","410.5","true","-1","133.55811457351675","1.3194139533312006","14","-1","-1","","","","","","","","","","","","",""
"html-keyboard-response","46","147065","0.0-7.0","6005da505dafb45c7b9f4982","609006691f6f4e337c17f836","60a2782e2b130f3ae0cbc5f8","10077.414999977918","<p>Well Done !</p><p>Prepare for a new block.</p><p>DON'T EXIT THE FULL SCREEN MODE</p><p>Press the Spacebar to start.</p>","","","32","","","","","","","","","","","","","","","true","132.7834742720102","","","","","","","","","","",""
"psychophysics","47","149516","0.0-8.0-0.0","6005da505dafb45c7b9f4982","609006691f6f4e337c17f836","60a2782e2b130f3ae0cbc5f8","1448.454999976093","","","","37","","","","key","16.673258503401243","720","410.5","true","-1","180","30","0","-1","","","","","","","","","","","","","",""
"psychophysics","48","150761","0.0-8.0-0.1","6005da505dafb45c7b9f4982","609006691f6f4e337c17f836","60a2782e2b130f3ae0cbc5f8","242.53999997745268","","","","37","","","","key","16.66600000000023","720","410.5","true","-1","180","30","0","-1","-1","","","","","","","","","","","","",""
"psychophysics","49","151810","0.0-8.0-0.2","6005da505dafb45c7b9f4982","609006691f6f4e337c17f836","60a2782e2b130f3ae0cbc5f8","45.62499999883585","","","","37","","","","key","16.665999999999787","720","410.5","true","-1","150","30","0","-1","-1","","","","","","","","","","","","",""
"psychophysics","50","152874","0.0-8.0-0.3","6005da505dafb45c7b9f4982","609006691f6f4e337c17f836","60a2782e2b130f3ae0cbc5f8","62.1250000258442","","","","39","","","","key","16.66600000000021","720","410.5","true","1","150","30","0","-1","-1","","","","","","","","","","","","",""
"psychophysics","51","154655","0.0-8.0-0.4","6005da505dafb45c7b9f4982","609006691f6f4e337c17f836","60a2782e2b130f3ae0cbc5f8","777.6249999878928","","","","39","","","","key","16.66599999999991","720","410.5","true","-1","129","24","1","1","-1","","","","","","","","","","","","",""
"psychophysics","52","156088","0.0-8.0-0.5","6005da505dafb45c7b9f4982","609006691f6f4e337c17f836","60a2782e2b130f3ae0cbc5f8","430.1250000135042","","","","39","","","","key","16.666000000000178","720","410.5","true","1","153","24","1","-1","1","","","","","","","","","","","","",""
"psychophysics","53","157558","0.0-8.0-0.6","6005da505dafb45c7b9f4982","609006691f6f4e337c17f836","60a2782e2b130f3ae0cbc5f8","467.29500000947155","","","","39","","","","key","16.67252873563229","720","410.5","true","1","153","19.2","2","-1","-1","","","","","","","","","","","","",""
"psychophysics","54","158996","0.0-8.0-0.7","6005da505dafb45c7b9f4982","609006691f6f4e337c17f836","60a2782e2b130f3ae0cbc5f8","435.5449999857228","","","","37","","","","key","16.665999999999837","720","410.5","true","-1","133.8","19.2","2","-1","-1","","","","","","","","","","","","",""
"psychophysics","55","160422","0.0-8.0-0.8","6005da505dafb45c7b9f4982","609006691f6f4e337c17f836","60a2782e2b130f3ae0cbc5f8","423.45500001101755","","","","37","","","","key","16.666000000000178","720","410.5","true","-1","133.8","19.2","2","-1","-1","","","","","","","","","","","","",""
"psychophysics","56","162259","0.0-8.0-0.9","6005da505dafb45c7b9f4982","609006691f6f4e337c17f836","60a2782e2b130f3ae0cbc5f8","833.3799999963958","","","","37","","","","key","16.66599999999984","720","410.5","true","-1","129","19.2","2","-1","-1","","","","","","","","","","","","",""
"psychophysics","57","163853","0.0-8.0-0.10","6005da505dafb45c7b9f4982","609006691f6f4e337c17f836","60a2782e2b130f3ae0cbc5f8","591.9550000107847","","","","37","","","","key","16.66599999999989","720","410.5","true","1","129","15.36","3","1","-1","","","","","","","","","","","","",""
"psychophysics","58","165238","0.0-8.0-0.11","6005da505dafb45c7b9f4982","609006691f6f4e337c17f836","60a2782e2b130f3ae0cbc5f8","382.3299999930896","","","","39","","","","key","16.665999999999922","720","410.5","true","1","144.36","15.36","3","-1","1","","","","","","","","","","","","",""
"psychophysics","59","166636","0.0-8.0-0.12","6005da505dafb45c7b9f4982","609006691f6f4e337c17f836","60a2782e2b130f3ae0cbc5f8","395.87499998742715","","","","37","","","","key","16.666000000000246","720","410.5","true","-1","144.36","12.287999999999998","4","-1","-1","","","","","","","","","","","","",""
"psychophysics","60","168188","0.0-8.0-0.13","6005da505dafb45c7b9f4982","609006691f6f4e337c17f836","60a2782e2b130f3ae0cbc5f8","550.4150000051595","","","","37","","","","key","16.67217391304344","720","410.5","true","1","132.072","9.8304","5","1","-1","","","","","","","","","","","","",""
"psychophysics","61","169516","0.0-8.0-0.14","6005da505dafb45c7b9f4982","609006691f6f4e337c17f836","60a2782e2b130f3ae0cbc5f8","324.37500002561137","","","","39","","","","key","16.666000000000018","720","410.5","true","1","141.9024","9.8304","5","-1","1","","","","","","","","","","","","",""
"psychophysics","62","170903","0.0-8.0-0.15","6005da505dafb45c7b9f4982","609006691f6f4e337c17f836","60a2782e2b130f3ae0cbc5f8","384.8700000089593","","","","37","","","","key","16.665999999999922","720","410.5","true","-1","141.9024","7.864319999999999","6","-1","-1","","","","","","","","","","","","",""
"psychophysics","63","172286","0.0-8.0-0.16","6005da505dafb45c7b9f4982","609006691f6f4e337c17f836","60a2782e2b130f3ae0cbc5f8","380.95500000054017","","","","37","","","","key","16.665999999999922","720","410.5","true","-1","134.03808","7.864319999999999","6","-1","-1","","","","","","","","","","","","",""
"psychophysics","64","174303","0.0-8.0-0.17","6005da505dafb45c7b9f4982","609006691f6f4e337c17f836","60a2782e2b130f3ae0cbc5f8","1014.4150000123773","","","","37","","","","key","16.665999999999865","720","410.5","true","-1","134.03808","7.864319999999999","6","-1","-1","","","","","","","","","","","","",""
"psychophysics","65","176035","0.0-8.0-0.18","6005da505dafb45c7b9f4982","609006691f6f4e337c17f836","60a2782e2b130f3ae0cbc5f8","730.2500000223517","","","","37","","","","key","16.665999999999983","720","410.5","true","-1","129","7.864319999999999","6","-1","-1","","","","","","","","","","","","",""
"psychophysics","66","178162","0.0-8.0-0.19","6005da505dafb45c7b9f4982","609006691f6f4e337c17f836","60a2782e2b130f3ae0cbc5f8","1124.2900000070222","","","","39","","","","key","16.67050793650791","720","410.5","true","1","129","7.864319999999999","6","-1","-1","","","","","","","","","","","","",""
"psychophysics","67","179825","0.0-8.0-0.20","6005da505dafb45c7b9f4982","609006691f6f4e337c17f836","60a2782e2b130f3ae0cbc5f8","660.9199999948032","","","","37","","","","key","16.66599999999979","720","410.5","true","1","129","6.291456","7","1","-1","","","","","","","","","","","","",""
"psychophysics","68","181274","0.0-8.0-0.21","6005da505dafb45c7b9f4982","609006691f6f4e337c17f836","60a2782e2b130f3ae0cbc5f8","446.37499999953434","","","","37","","","","key","16.666000000000146","720","410.5","true","-1","135.291456","6.291456","7","-1","1","","","","","","","","","","","","",""
"psychophysics","69","182624","0.0-8.0-0.22","6005da505dafb45c7b9f4982","609006691f6f4e337c17f836","60a2782e2b130f3ae0cbc5f8","346.87499998835847","","","","37","","","","key","16.665999999999986","720","410.5","true","-1","135.291456","5.033164800000001","8","-1","-1","","","","","","","","","","","","",""
"psychophysics","70","184613","0.0-8.0-0.23","6005da505dafb45c7b9f4982","609006691f6f4e337c17f836","60a2782e2b130f3ae0cbc5f8","986.079999973299","","","","37","","","","key","16.666000000000153","720","410.5","true","1","130.2582912","4.0265318400000005","9","1","-1","","","","","","","","","","","","",""
"psychophysics","71","185954","0.0-8.0-0.24","6005da505dafb45c7b9f4982","609006691f6f4e337c17f836","60a2782e2b130f3ae0cbc5f8","338.3750000211876","","","","39","","","","key","16.665999999999986","720","410.5","true","1","134.28482304","4.0265318400000005","9","-1","1","","","","","","","","","","","","",""
"psychophysics","72","187280","0.0-8.0-0.25","6005da505dafb45c7b9f4982","609006691f6f4e337c17f836","60a2782e2b130f3ae0cbc5f8","322.6650000142399","","","","37","","","","key","16.673282051282094","720","410.5","true","-1","134.28482304","3.2212254720000004","10","-1","-1","","","","","","","","","","","","",""
"psychophysics","73","188988","0.0-8.0-0.26","6005da505dafb45c7b9f4982","609006691f6f4e337c17f836","60a2782e2b130f3ae0cbc5f8","703.7100000015926","","","","37","","","","key","16.666000000000007","720","410.5","true","1","131.06359756799998","2.5769803776000004","11","1","-1","","","","","","","","","","","","",""
"psychophysics","74","190339","0.0-8.0-0.27","6005da505dafb45c7b9f4982","609006691f6f4e337c17f836","60a2782e2b130f3ae0cbc5f8","348.5799999907613","","","","39","","","","key","16.665999999999986","720","410.5","true","1","133.64057794559997","2.5769803776000004","11","-1","1","","","","","","","","","","","","",""
"psychophysics","75","192042","0.0-8.0-0.28","6005da505dafb45c7b9f4982","609006691f6f4e337c17f836","60a2782e2b130f3ae0cbc5f8","701.0449999943376","","","","37","","","","key","16.666000000000032","720","410.5","true","1","133.64057794559997","2.0615843020800004","12","1","-1","","","","","","","","","","","","",""
"psychophysics","76","193465","0.0-8.0-0.29","6005da505dafb45c7b9f4982","609006691f6f4e337c17f836","60a2782e2b130f3ae0cbc5f8","418.62500002025627","","","","39","","","","key","16.665999999999865","720","410.5","true","1","135.70216224767998","2.0615843020800004","12","-1","1","","","","","","","","","","","","",""
"psychophysics","77","194889","0.0-8.0-0.30","6005da505dafb45c7b9f4982","609006691f6f4e337c17f836","60a2782e2b130f3ae0cbc5f8","421.49999999674037","","","","39","","","","key","16.666000000000178","720","410.5","true","1","135.70216224767998","1.6492674416640005","13","-1","-1","","","","","","","","","","","","",""
"psychophysics","78","196819","0.0-8.0-0.31","6005da505dafb45c7b9f4982","609006691f6f4e337c17f836","60a2782e2b130f3ae0cbc5f8","927.8350000095088","","","","37","","","","key","16.66599999999997","720","410.5","true","-1","134.05289480601598","1.6492674416640005","13","-1","-1","","","","","","","","","","","","",""
"psychophysics","79","198188","0.0-8.0-0.32","6005da505dafb45c7b9f4982","609006691f6f4e337c17f836","60a2782e2b130f3ae0cbc5f8","366.8300000135787","","","","37","","","","key","16.673530864197673","720","410.5","true","-1","134.05289480601598","1.6492674416640005","13","-1","-1","","","","","","","","","","","","",""
"psychophysics","80","199551","0.0-8.0-0.33","6005da505dafb45c7b9f4982","609006691f6f4e337c17f836","60a2782e2b130f3ae0cbc5f8","359.5400000049267","","","","39","","","","key","16.665999999999954","720","410.5","true","1","132.403627364352","1.6492674416640005","13","-1","-1","","","","","","","","","","","","",""
"psychophysics","81","201235","0.0-8.0-0.34","6005da505dafb45c7b9f4982","609006691f6f4e337c17f836","60a2782e2b130f3ae0cbc5f8","681.0399999958463","","","","37","","","","key","16.666000000000057","720","410.5","true","-1","132.403627364352","1.6492674416640005","13","-1","-1","","","","","","","","","","","","",""
"psychophysics","82","203408","0.0-8.0-0.35","6005da505dafb45c7b9f4982","609006691f6f4e337c17f836","60a2782e2b130f3ae0cbc5f8","1171.295000007376","","","","39","","","","key","16.665999999999922","720","410.5","true","1","130.754359922688","1.6492674416640005","13","-1","-1","","","","","","","","","","","","",""
"psychophysics","83","205025","0.0-8.0-0.36","6005da505dafb45c7b9f4982","609006691f6f4e337c17f836","60a2782e2b130f3ae0cbc5f8","614.7899999923538","","","","37","","","","key","16.666000000000167","720","410.5","true","1","130.754359922688","1.3194139533312006","14","1","-1","","","","","","","","","","","","",""
"psychophysics","84","207204","0.0-8.0-0.37","6005da505dafb45c7b9f4982","609006691f6f4e337c17f836","60a2782e2b130f3ae0cbc5f8","1177.2950000013225","","","","37","","","","key","16.6659999999999","720","410.5","true","-1","132.0737738760192","1.3194139533312006","14","-1","1","","","","","","","","","","","","",""
"psychophysics","85","209057","0.0-8.0-0.38","6005da505dafb45c7b9f4982","609006691f6f4e337c17f836","60a2782e2b130f3ae0cbc5f8","849.2899999837391","","","","37","","","","key","16.671163636363715","720","410.5","true","-1","132.0737738760192","1.0555311626649604","15","-1","-1","","","","","","","","","","","","",""
"psychophysics","86","210821","0.0-8.0-0.39","6005da505dafb45c7b9f4982","609006691f6f4e337c17f836","60a2782e2b130f3ae0cbc5f8","761.9600000034552","","","","39","","","","key","16.665999999999933","720","410.5","true","1","131.01824271335425","1.0555311626649604","15","-1","-1","","","","","","","","","","","","",""
"html-keyboard-response","87","213352","0.0-9.0","6005da505dafb45c7b9f4982","609006691f6f4e337c17f836","60a2782e2b130f3ae0cbc5f8","2528.120000002673","<p>Well Done !</p><p>Prepare for a new block.</p><p>DON'T EXIT THE FULL SCREEN MODE</p><p>Press the Spacebar to start.</p>","","","32","","","","","","","","","","","","","","","true","132.90809704307097","","","","","","","","","","",""
"psychophysics","88","214378","0.0-10.0-0.0","6005da505dafb45c7b9f4982","609006691f6f4e337c17f836","60a2782e2b130f3ae0cbc5f8","23.12500000698492","","","","37","","","","key","16.665999999999823","720","410.5","true","-1","180","30","0","-1","","","","","","","","","","","","","",""
"psychophysics","89","215649","0.0-10.0-0.1","6005da505dafb45c7b9f4982","609006691f6f4e337c17f836","60a2782e2b130f3ae0cbc5f8","268.41499999864027","","","","37","","","","key","16.66600000000012","720","410.5","true","-1","180","30","0","-1","-1","","","","","","","","","","","","",""
"psychophysics","90","217004","0.0-10.0-0.2","6005da505dafb45c7b9f4982","609006691f6f4e337c17f836","60a2782e2b130f3ae0cbc5f8","350.6649999762885","","","","37","","","","key","16.665999999999986","720","410.5","true","-1","150","30","0","-1","-1","","","","","","","","","","","","",""
"psychophysics","91","218283","0.0-10.0-0.3","6005da505dafb45c7b9f4982","609006691f6f4e337c17f836","60a2782e2b130f3ae0cbc5f8","274.9150000163354","","","","37","","","","key","16.673473684210638","720","410.5","true","-1","150","30","0","-1","-1","","","","","","","","","","","","",""
"psychophysics","92","220005","0.0-10.0-0.4","6005da505dafb45c7b9f4982","609006691f6f4e337c17f836","60a2782e2b130f3ae0cbc5f8","719.3350000015926","","","","39","","","","key","16.666000000000007","720","410.5","true","-1","129","24","1","1","-1","","","","","","","","","","","","",""
"psychophysics","93","221338","0.0-10.0-0.5","6005da505dafb45c7b9f4982","609006691f6f4e337c17f836","60a2782e2b130f3ae0cbc5f8","330.7949999871198","","","","37","","","","key","16.666000000000018","720","410.5","true","-1","153","24","1","-1","1","","","","","","","","","","","","",""
"psychophysics","94","222662","0.0-10.0-0.6","6005da505dafb45c7b9f4982","609006691f6f4e337c17f836","60a2782e2b130f3ae0cbc5f8","321.54499998432584","","","","39","","","","key","16.66600000000005","720","410.5","true","1","153","19.2","2","-1","-1","","","","","","","","","","","","",""
"psychophysics","95","223816","0.0-10.0-0.7","6005da505dafb45c7b9f4982","609006691f6f4e337c17f836","60a2782e2b130f3ae0cbc5f8","151.74999998998828","","","","39","","","","key","16.66599999999997","720","410.5","true","1","133.8","19.2","2","-1","-1","","","","","","","","","","","","",""
"psychophysics","96","224972","0.0-10.0-0.8","6005da505dafb45c7b9f4982","609006691f6f4e337c17f836","60a2782e2b130f3ae0cbc5f8","153.46000000135973","","","","39","","","","key","16.666000000000007","720","410.5","true","1","133.8","19.2","2","-1","-1","","","","","","","","","","","","",""
"psychophysics","97","226541","0.0-10.0-0.9","6005da505dafb45c7b9f4982","609006691f6f4e337c17f836","60a2782e2b130f3ae0cbc5f8","566.4549999928568","","","","37","","","","key","16.665999999999944","720","410.5","true","-1","129","19.2","2","-1","-1","","","","","","","","","","","","",""
"psychophysics","98","228130","0.0-10.0-0.10","6005da505dafb45c7b9f4982","609006691f6f4e337c17f836","60a2782e2b130f3ae0cbc5f8","586.3349999999627","","","","37","","","","key","16.672042553191396","720","410.5","true","-1","129","19.2","2","-1","-1","","","","","","","","","","","","",""
"psychophysics","99","229778","0.0-10.0-0.11","6005da505dafb45c7b9f4982","609006691f6f4e337c17f836","60a2782e2b130f3ae0cbc5f8","645.6699999980628","","","","37","","","","key","16.66600000000011","720","410.5","true","1","129","15.36","3","1","-1","","","","","","","","","","","","",""
"psychophysics","100","231443","0.0-10.0-0.12","6005da505dafb45c7b9f4982","609006691f6f4e337c17f836","60a2782e2b130f3ae0cbc5f8","661.9550000177696","","","","39","","","","key","16.66599999999979","720","410.5","true","1","144.36","15.36","3","-1","1","","","","","","","","","","","","",""
"psychophysics","101","232760","0.0-10.0-0.13","6005da505dafb45c7b9f4982","609006691f6f4e337c17f836","60a2782e2b130f3ae0cbc5f8","313.2499999774154","","","","39","","","","key","16.66600000000005","720","410.5","true","1","144.36","12.287999999999998","4","-1","-1","","","","","","","","","","","","",""
"psychophysics","102","234295","0.0-10.0-0.14","6005da505dafb45c7b9f4982","609006691f6f4e337c17f836","60a2782e2b130f3ae0cbc5f8","532.7899999974761","","","","37","","","","key","16.665999999999997","720","410.5","true","-1","132.072","12.287999999999998","4","-1","-1","","","","","","","","","","","","",""
"psychophysics","103","236259","0.0-10.0-0.15","6005da505dafb45c7b9f4982","609006691f6f4e337c17f836","60a2782e2b130f3ae0cbc5f8","962.0799999975134","","","","37","","","","key","16.665999999999926","720","410.5","true","-1","132.072","12.287999999999998","4","-1","-1","","","","","","","","","","","","",""
"psychophysics","104","238136","0.0-10.0-0.16","6005da505dafb45c7b9f4982","609006691f6f4e337c17f836","60a2782e2b130f3ae0cbc5f8","874.6249999967404","","","","39","","","","key","16.67144642857134","720","410.5","true","1","129","12.287999999999998","4","-1","-1","","","","","","","","","","","","",""
"psychophysics","105","239631","0.0-10.0-0.17","6005da505dafb45c7b9f4982","609006691f6f4e337c17f836","60a2782e2b130f3ae0cbc5f8","493.1650000216905","","","","37","","","","key","16.666000000000086","720","410.5","true","1","129","9.8304","5","1","-1","","","","","","","","","","","","",""
"psychophysics","106","240955","0.0-10.0-0.18","6005da505dafb45c7b9f4982","609006691f6f4e337c17f836","60a2782e2b130f3ae0cbc5f8","321.37999997939914","","","","39","","","","key","16.666000000000018","720","410.5","true","1","138.8304","9.8304","5","-1","1","","","","","","","","","","","","",""
"psychophysics","107","242337","0.0-10.0-0.19","6005da505dafb45c7b9f4982","609006691f6f4e337c17f836","60a2782e2b130f3ae0cbc5f8","379.5000000100117","","","","37","","","","key","16.665999999999922","720","410.5","true","-1","138.8304","7.864319999999999","6","-1","-1","","","","","","","","","","","","",""
"psychophysics","108","244068","0.0-10.0-0.20","6005da505dafb45c7b9f4982","609006691f6f4e337c17f836","60a2782e2b130f3ae0cbc5f8","728.8350000162609","","","","37","","","","key","16.665999999999983","720","410.5","true","-1","130.96608","7.864319999999999","6","-1","-1","","","","","","","","","","","","",""
"psychophysics","109","245563","0.0-10.0-0.21","6005da505dafb45c7b9f4982","609006691f6f4e337c17f836","60a2782e2b130f3ae0cbc5f8","492.7949999982957","","","","37","","","","key","16.665999999999755","720","410.5","true","-1","130.96608","7.864319999999999","6","-1","-1","","","","","","","","","","","","",""
"psychophysics","110","247019","0.0-10.0-0.22","6005da505dafb45c7b9f4982","609006691f6f4e337c17f836","60a2782e2b130f3ae0cbc5f8","453.9600000134669","","","","39","","","","key","16.666000000000114","720","410.5","true","-1","129","6.291456","7","1","-1","","","","","","","","","","","","",""
"psychophysics","111","248486","0.0-10.0-0.23","6005da505dafb45c7b9f4982","609006691f6f4e337c17f836","60a2782e2b130f3ae0cbc5f8","465.1249999878928","","","","39","","","","key","16.673482758620615","720","410.5","true","1","135.291456","6.291456","7","-1","1","","","","","","","","","","","","",""
"psychophysics","112","249879","0.0-10.0-0.24","6005da505dafb45c7b9f4982","609006691f6f4e337c17f836","60a2782e2b130f3ae0cbc5f8","390.37499998812564","","","","39","","","","key","16.665999999999922","720","410.5","true","1","135.291456","5.033164800000001","8","-1","-1","","","","","","","","","","","","",""
"psychophysics","113","251598","0.0-10.0-0.25","6005da505dafb45c7b9f4982","609006691f6f4e337c17f836","60a2782e2b130f3ae0cbc5f8","716.0450000083074","","","","39","","","","key","16.666000000000007","720","410.5","true","-1","130.2582912","4.0265318400000005","9","1","-1","","","","","","","","","","","","",""
"psychophysics","114","253031","0.0-10.0-0.26","6005da505dafb45c7b9f4982","609006691f6f4e337c17f836","60a2782e2b130f3ae0cbc5f8","430.1649999979418","","","","39","","","","key","16.665999999999837","720","410.5","true","1","134.28482304","4.0265318400000005","9","-1","1","","","","","","","","","","","","",""
"psychophysics","115","254990","0.0-10.0-0.27","6005da505dafb45c7b9f4982","609006691f6f4e337c17f836","60a2782e2b130f3ae0cbc5f8","957.2099999932107","","","","39","","","","key","16.666000000000174","720","410.5","true","1","134.28482304","3.2212254720000004","10","-1","-1","","","","","","","","","","","","",""
"psychophysics","116","256723","0.0-10.0-0.28","6005da505dafb45c7b9f4982","609006691f6f4e337c17f836","60a2782e2b130f3ae0cbc5f8","728.7450000003446","","","","39","","","","key","16.665999999999983","720","410.5","true","-1","131.06359756799998","2.5769803776000004","11","1","-1","","","","","","","","","","","","",""
"psychophysics","117","258150","0.0-10.0-0.29","6005da505dafb45c7b9f4982","609006691f6f4e337c17f836","60a2782e2b130f3ae0cbc5f8","424.08500000601634","","","","39","","","","key","16.67317647058825","720","410.5","true","1","133.64057794559997","2.5769803776000004","11","-1","1","","","","","","","","","","","","",""
"psychophysics","118","259521","0.0-10.0-0.30","6005da505dafb45c7b9f4982","609006691f6f4e337c17f836","60a2782e2b130f3ae0cbc5f8","368.8350000011269","","","","37","","","","key","16.665999999999954","720","410.5","true","-1","133.64057794559997","2.0615843020800004","12","-1","-1","","","","","","","","","","","","",""
"psychophysics","119","261561","0.0-10.0-0.31","6005da505dafb45c7b9f4982","609006691f6f4e337c17f836","60a2782e2b130f3ae0cbc5f8","1037.5800000037998","","","","39","","","","key","16.666000000000086","720","410.5","true","-1","131.57899364351996","1.6492674416640005","13","1","-1","","","","","","","","","","","","",""
"psychophysics","120","263288","0.0-10.0-0.32","6005da505dafb45c7b9f4982","609006691f6f4e337c17f836","60a2782e2b130f3ae0cbc5f8","724.6699999959674","","","","37","","","","key","16.665999999999983","720","410.5","true","1","133.22826108518396","1.6492674416640005","13","1","1","","","","","","","","","","","","",""
"psychophysics","121","264936","0.0-10.0-0.33","6005da505dafb45c7b9f4982","609006691f6f4e337c17f836","60a2782e2b130f3ae0cbc5f8","645.9150000009686","","","","37","","","","key","16.665999999999816","720","410.5","true","1","134.87752852684795","1.6492674416640005","13","1","1","","","","","","","","","","","","",""
"psychophysics","122","266339","0.0-10.0-0.34","6005da505dafb45c7b9f4982","609006691f6f4e337c17f836","60a2782e2b130f3ae0cbc5f8","400.9950000036042","","","","39","","","","key","16.666000000000594","720","410.5","true","1","136.52679596851195","1.6492674416640005","13","-1","1","","","","","","","","","","","","",""
"psychophysics","123","267746","0.0-10.0-0.35","6005da505dafb45c7b9f4982","609006691f6f4e337c17f836","60a2782e2b130f3ae0cbc5f8","403.50000001490116","","","","37","","","","key","16.673337349397446","720","410.5","true","-1","136.52679596851195","1.3194139533312006","14","-1","-1","","","","","","","","","","","","",""
"psychophysics","124","269123","0.0-10.0-0.36","6005da505dafb45c7b9f4982","609006691f6f4e337c17f836","60a2782e2b130f3ae0cbc5f8","375","","","","39","","","","key","16.665999999999567","720","410.5","true","1","135.20738201518074","1.3194139533312006","14","-1","-1","","","","","","","","","","","","",""
"psychophysics","125","270592","0.0-10.0-0.37","6005da505dafb45c7b9f4982","609006691f6f4e337c17f836","60a2782e2b130f3ae0cbc5f8","467.00000000419095","","","","39","","","","key","16.66599999999978","720","410.5","true","1","135.20738201518074","1.3194139533312006","14","-1","-1","","","","","","","","","","","","",""
"psychophysics","126","272453","0.0-10.0-0.38","6005da505dafb45c7b9f4982","609006691f6f4e337c17f836","60a2782e2b130f3ae0cbc5f8","855.7849999924656","","","","37","","","","key","16.665999999999798","720","410.5","true","-1","133.88796806184953","1.3194139533312006","14","-1","-1","","","","","","","","","","","","",""
"psychophysics","127","273771","0.0-10.0-0.39","6005da505dafb45c7b9f4982","609006691f6f4e337c17f836","60a2782e2b130f3ae0cbc5f8","315.95999997807667","","","","39","","","","key","16.665999999999677","720","410.5","true","1","133.88796806184953","1.3194139533312006","14","-1","-1","","","","","","","","","","","","",""
"html-keyboard-response","128","275997","0.0-11.0","6005da505dafb45c7b9f4982","609006691f6f4e337c17f836","60a2782e2b130f3ae0cbc5f8","2223.7500000046566","<p>Well Done !</p><p>Prepare for a new block.</p><p>DON'T EXIT THE FULL SCREEN MODE</p><p>Press the Spacebar to start.</p>","","","32","","","","","","","","","","","","","","","true","133.8734510723891","","","","","","","","","","",""
"psychophysics","129","277039","0.0-12.0-0.0","6005da505dafb45c7b9f4982","609006691f6f4e337c17f836","60a2782e2b130f3ae0cbc5f8","38.289999996777624","","","","37","","","","key","16.666000000000256","720","410.5","true","-1","180","30","0","-1","","","","","","","","","","","","","",""
"psychophysics","130","278199","0.0-12.0-0.1","6005da505dafb45c7b9f4982","609006691f6f4e337c17f836","60a2782e2b130f3ae0cbc5f8","159.03999999864027","","","","37","","","","key","16.674840579710335","720","410.5","true","-1","180","30","0","-1","-1","","","","","","","","","","","","",""
"psychophysics","131","279315","0.0-12.0-0.2","6005da505dafb45c7b9f4982","609006691f6f4e337c17f836","60a2782e2b130f3ae0cbc5f8","112.62499997974373","","","","37","","","","key","16.665999999999677","720","410.5","true","-1","150","30","0","-1","-1","","","","","","","","","","","","",""
"psychophysics","132","280588","0.0-12.0-0.3","6005da505dafb45c7b9f4982","609006691f6f4e337c17f836","60a2782e2b130f3ae0cbc5f8","270.9949999989476","","","","37","","","","key","16.665999999999737","720","410.5","true","-1","150","30","0","-1","-1","","","","","","","","","","","","",""
"psychophysics","133","282171","0.0-12.0-0.4","6005da505dafb45c7b9f4982","609006691f6f4e337c17f836","60a2782e2b130f3ae0cbc5f8","580.9599999920465","","","","39","","","","key","16.665999999999915","720","410.5","true","1","129","30","0","-1","-1","","","","","","","","","","","","",""
"psychophysics","134","284044","0.0-12.0-0.5","6005da505dafb45c7b9f4982","609006691f6f4e337c17f836","60a2782e2b130f3ae0cbc5f8","869.7099999990314","","","","39","","","","key","16.666000000000324","720","410.5","true","-1","129","24","1","1","-1","","","","","","","","","","","","",""
"psychophysics","135","285383","0.0-12.0-0.6","6005da505dafb45c7b9f4982","609006691f6f4e337c17f836","60a2782e2b130f3ae0cbc5f8","337.66499999910593","","","","39","","","","key","16.66600000000035","720","410.5","true","1","153","24","1","-1","1","","","","","","","","","","","","",""
"psychophysics","136","286792","0.0-12.0-0.7","6005da505dafb45c7b9f4982","609006691f6f4e337c17f836","60a2782e2b130f3ae0cbc5f8","406.20999998645857","","","","37","","","","key","16.665999999999894","720","410.5","true","-1","153","19.2","2","-1","-1","","","","","","","","","","","","",""
"psychophysics","137","288119","0.0-12.0-0.8","6005da505dafb45c7b9f4982","609006691f6f4e337c17f836","60a2782e2b130f3ae0cbc5f8","325.24999999441206","","","","39","","","","key","16.67318987341736","720","410.5","true","1","133.8","19.2","2","-1","-1","","","","","","","","","","","","",""
"psychophysics","138","289590","0.0-12.0-0.9","6005da505dafb45c7b9f4982","609006691f6f4e337c17f836","60a2782e2b130f3ae0cbc5f8","468.5849999950733","","","","39","","","","key","16.66599999999978","720","410.5","true","1","133.8","19.2","2","-1","-1","","","","","","","","","","","","",""
"psychophysics","139","291188","0.0-12.0-0.10","6005da505dafb45c7b9f4982","609006691f6f4e337c17f836","60a2782e2b130f3ae0cbc5f8","594.9550000077579","","","","37","","","","key","16.666000000000196","720","410.5","true","1","129","15.36","3","1","-1","","","","","","","","","","","","",""
"psychophysics","140","292539","0.0-12.0-0.11","6005da505dafb45c7b9f4982","609006691f6f4e337c17f836","60a2782e2b130f3ae0cbc5f8","349.2099999857601","","","","37","","","","key","16.66600000000035","720","410.5","true","-1","144.36","15.36","3","-1","1","","","","","","","","","","","","",""
"psychophysics","141","293905","0.0-12.0-0.12","6005da505dafb45c7b9f4982","609006691f6f4e337c17f836","60a2782e2b130f3ae0cbc5f8","362.9150000051595","","","","39","","","","key","16.665999999999954","720","410.5","true","1","144.36","12.287999999999998","4","-1","-1","","","","","","","","","","","","",""
"psychophysics","142","295488","0.0-12.0-0.13","6005da505dafb45c7b9f4982","609006691f6f4e337c17f836","60a2782e2b130f3ae0cbc5f8","580.5849999887869","","","","37","","","","key","16.665999999999915","720","410.5","true","-1","132.072","12.287999999999998","4","-1","-1","","","","","","","","","","","","",""
"psychophysics","143","296903","0.0-12.0-0.14","6005da505dafb45c7b9f4982","609006691f6f4e337c17f836","60a2782e2b130f3ae0cbc5f8","411.3749999960419","","","","39","","","","key","16.66600000000021","720","410.5","true","1","132.072","12.287999999999998","4","-1","-1","","","","","","","","","","","","",""
"psychophysics","144","298486","0.0-12.0-0.15","6005da505dafb45c7b9f4982","609006691f6f4e337c17f836","60a2782e2b130f3ae0cbc5f8","580.710000009276","","","","37","","","","key","16.6715957446809","720","410.5","true","-1","129","12.287999999999998","4","-1","-1","","","","","","","","","","","","",""
"psychophysics","145","300189","0.0-12.0-0.16","6005da505dafb45c7b9f4982","609006691f6f4e337c17f836","60a2782e2b130f3ae0cbc5f8","700.8349999960046","","","","37","","","","key","16.666000000000032","720","410.5","true","1","129","9.8304","5","1","-1","","","","","","","","","","","","",""
"psychophysics","146","301415","0.0-12.0-0.17","6005da505dafb45c7b9f4982","609006691f6f4e337c17f836","60a2782e2b130f3ae0cbc5f8","223.33000000799075","","","","39","","","","key","16.665999999999865","720","410.5","true","1","138.8304","9.8304","5","-1","1","","","","","","","","","","","","",""
"psychophysics","147","302633","0.0-12.0-0.18","6005da505dafb45c7b9f4982","609006691f6f4e337c17f836","60a2782e2b130f3ae0cbc5f8","216.12500000628643","","","","39","","","","key","16.66600000000023","720","410.5","true","1","138.8304","7.864319999999999","6","-1","-1","","","","","","","","","","","","",""
"psychophysics","148","304229","0.0-12.0-0.19","6005da505dafb45c7b9f4982","609006691f6f4e337c17f836","60a2782e2b130f3ae0cbc5f8","593.5849999950733","","","","39","","","","key","16.665999999999915","720","410.5","true","-1","130.96608","6.291456","7","1","-1","","","","","","","","","","","","",""
"psychophysics","149","305604","0.0-12.0-0.20","6005da505dafb45c7b9f4982","609006691f6f4e337c17f836","60a2782e2b130f3ae0cbc5f8","372.7450000005774","","","","37","","","","key","16.666000000000277","720","410.5","true","-1","137.25753600000002","6.291456","7","-1","1","","","","","","","","","","","","",""
"psychophysics","150","306897","0.0-12.0-0.21","6005da505dafb45c7b9f4982","609006691f6f4e337c17f836","60a2782e2b130f3ae0cbc5f8","290.0399999925867","","","","39","","","","key","16.6660000000005","720","410.5","true","1","137.25753600000002","5.033164800000001","8","-1","-1","","","","","","","","","","","","",""
"psychophysics","151","308382","0.0-12.0-0.22","6005da505dafb45c7b9f4982","609006691f6f4e337c17f836","60a2782e2b130f3ae0cbc5f8","482.12500000954606","","","","39","","","","key","16.672454545454954","720","410.5","true","1","132.2243712","5.033164800000001","8","-1","-1","","","","","","","","","","","","",""
"psychophysics","152","309720","0.0-12.0-0.23","6005da505dafb45c7b9f4982","609006691f6f4e337c17f836","60a2782e2b130f3ae0cbc5f8","335.6250000069849","","","","39","","","","key","16.66600000000035","720","410.5","true","1","132.2243712","5.033164800000001","8","-1","-1","","","","","","","","","","","","",""
"psychophysics","153","311488","0.0-12.0-0.24","6005da505dafb45c7b9f4982","609006691f6f4e337c17f836","60a2782e2b130f3ae0cbc5f8","766.2950000085402","","","","37","","","","key","16.665999999999933","720","410.5","true","-1","129","5.033164800000001","8","-1","-1","","","","","","","","","","","","",""
"psychophysics","154","313821","0.0-12.0-0.25","6005da505dafb45c7b9f4982","609006691f6f4e337c17f836","60a2782e2b130f3ae0cbc5f8","1331.0449999989942","","","","37","","","","key","16.66600000000016","720","410.5","true","-1","129","5.033164800000001","8","-1","-1","","","","","","","","","","","","",""
"psychophysics","155","315419","0.0-12.0-0.26","6005da505dafb45c7b9f4982","609006691f6f4e337c17f836","60a2782e2b130f3ae0cbc5f8","595.5850000027567","","","","37","","","","key","16.666000000000196","720","410.5","true","1","129","4.0265318400000005","9","1","-1","","","","","","","","","","","","",""
"psychophysics","156","316966","0.0-12.0-0.27","6005da505dafb45c7b9f4982","609006691f6f4e337c17f836","60a2782e2b130f3ae0cbc5f8","543.9999999944121","","","","39","","","","key","16.66599999999997","720","410.5","true","1","133.02653184","4.0265318400000005","9","-1","1","","","","","","","","","","","","",""
"psychophysics","157","318315","0.0-12.0-0.28","6005da505dafb45c7b9f4982","609006691f6f4e337c17f836","60a2782e2b130f3ae0cbc5f8","346.79000001051463","","","","39","","","","key","16.67318987341736","720","410.5","true","1","133.02653184","3.2212254720000004","10","-1","-1","","","","","","","","","","","","",""
"psychophysics","158","319988","0.0-12.0-0.29","6005da505dafb45c7b9f4982","609006691f6f4e337c17f836","60a2782e2b130f3ae0cbc5f8","671.1649999779183","","","","37","","","","key","16.665999999999766","720","410.5","true","1","129.805306368","2.5769803776000004","11","1","-1","","","","","","","","","","","","",""
"psychophysics","159","321595","0.0-12.0-0.30","6005da505dafb45c7b9f4982","609006691f6f4e337c17f836","60a2782e2b130f3ae0cbc5f8","604.5400000002701","","","","37","","","","key","16.666000000000196","720","410.5","true","-1","132.3822867456","2.5769803776000004","11","-1","1","","","","","","","","","","","","",""
"psychophysics","160","323271","0.0-12.0-0.31","6005da505dafb45c7b9f4982","609006691f6f4e337c17f836","60a2782e2b130f3ae0cbc5f8","673.5849999822676","","","","37","","","","key","16.66600000000035","720","410.5","true","1","132.3822867456","2.0615843020800004","12","1","-1","","","","","","","","","","","","",""
"psychophysics","161","324938","0.0-12.0-0.32","6005da505dafb45c7b9f4982","609006691f6f4e337c17f836","60a2782e2b130f3ae0cbc5f8","665.2499999909196","","","","39","","","","key","16.666000000000086","720","410.5","true","-1","134.44387104768","2.0615843020800004","12","1","1","","","","","","","","","","","","",""
"psychophysics","162","326224","0.0-12.0-0.33","6005da505dafb45c7b9f4982","609006691f6f4e337c17f836","60a2782e2b130f3ae0cbc5f8","282.8350000199862","","","","37","","","","key","16.6660000000005","720","410.5","true","-1","136.50545534976","2.0615843020800004","12","-1","1","","","","","","","","","","","","",""
"psychophysics","163","327521","0.0-12.0-0.34","6005da505dafb45c7b9f4982","609006691f6f4e337c17f836","60a2782e2b130f3ae0cbc5f8","294.62500000954606","","","","37","","","","key","16.666000000000086","720","410.5","true","-1","136.50545534976","1.6492674416640005","13","-1","-1","","","","","","","","","","","","",""
"psychophysics","164","328865","0.0-12.0-0.35","6005da505dafb45c7b9f4982","609006691f6f4e337c17f836","60a2782e2b130f3ae0cbc5f8","341.20999998413026","","","","37","","","","key","16.67318987341736","720","410.5","true","-1","134.85618790809602","1.6492674416640005","13","-1","-1","","","","","","","","","","","","",""
"psychophysics","165","330069","0.0-12.0-0.36","6005da505dafb45c7b9f4982","609006691f6f4e337c17f836","60a2782e2b130f3ae0cbc5f8","201.41499998862855","","","","37","","","","key","16.665999999999865","720","410.5","true","-1","134.85618790809602","1.6492674416640005","13","-1","-1","","","","","","","","","","","","",""
"psychophysics","166","331489","0.0-12.0-0.37","6005da505dafb45c7b9f4982","609006691f6f4e337c17f836","60a2782e2b130f3ae0cbc5f8","418.9550000010058","","","","37","","","","key","16.665999999999517","720","410.5","true","1","133.20692046643202","1.3194139533312006","14","1","-1","","","","","","","","","","","","",""
"psychophysics","167","332522","0.0-12.0-0.38","6005da505dafb45c7b9f4982","609006691f6f4e337c17f836","60a2782e2b130f3ae0cbc5f8","30.25000001071021","","","","37","","","","key","16.665999999999823","720","410.5","true","-1","134.52633441976323","1.3194139533312006","14","-1","1","","","","","","","","","","","","",""
"psychophysics","168","333671","0.0-12.0-0.39","6005da505dafb45c7b9f4982","609006691f6f4e337c17f836","60a2782e2b130f3ae0cbc5f8","146.67000001645647","","","","39","","","","key","16.666000000000007","720","410.5","true","1","134.52633441976323","1.0555311626649604","15","-1","-1","","","","","","","","","","","","",""
"html-keyboard-response","169","335777","0.0-13.0","6005da505dafb45c7b9f4982","609006691f6f4e337c17f836","60a2782e2b130f3ae0cbc5f8","2104.079999990063","<p>Well Done !</p><p>Prepare for a new block.</p><p>DON'T EXIT THE FULL SCREEN MODE</p><p>Press the Spacebar to start.</p>","","","32","","","","","","","","","","","","","","","true","133.20331269390337","","","","","","","","","","",""
"html-keyboard-response","170","335881","0.0-14.0","6005da505dafb45c7b9f4982","609006691f6f4e337c17f836","60a2782e2b130f3ae0cbc5f8","null","","","","null","","","","","","","","","","","","","","","","","133.19208377034343","true","138.38416754068686","","","","","","","",""
"instructions","171","367231","0.0-15.0","6005da505dafb45c7b9f4982","609006691f6f4e337c17f836","60a2782e2b130f3ae0cbc5f8","31348.419999994803","","","","","","","[{""page_index"":0,""viewing_time"":26831.750000012107},{""page_index"":1,""viewing_time"":2254.2499999981374},{""page_index"":2,""viewing_time"":2261.709999991581}]","","","","","","","","","","","","","","","","","","","","","","","",""
"psychophysics","172","370239","0.0-16.0-0.0","6005da505dafb45c7b9f4982","609006691f6f4e337c17f836","60a2782e2b130f3ae0cbc5f8","null","","","","null","","","","key","16.66600000000035","720","410.5","","","","","","","","","","","","","","","","","","","",""
"psychophysics","173","370744","0.0-16.0-1.0","6005da505dafb45c7b9f4982","609006691f6f4e337c17f836","60a2782e2b130f3ae0cbc5f8","null","","","","null","","","","key","16.666000000000448","720","410.5","","","","","","","","","","","","","138","-1","6","false","","","",""
"psychophysics","174","374286","0.0-16.0-2.0","6005da505dafb45c7b9f4982","609006691f6f4e337c17f836","60a2782e2b130f3ae0cbc5f8","3538.879999978235","","","","77","","","","key","16.66599999999991","720","410.5","","","","","","","","","","","","","","","","","","","",""
"psychophysics","175","375288","0.0-16.0-0.1","6005da505dafb45c7b9f4982","609006691f6f4e337c17f836","60a2782e2b130f3ae0cbc5f8","null","","","","null","","","","key","16.665999999999904","720","410.5","","","","","","","","","","","","","","","","","","","",""
"psychophysics","176","375793","0.0-16.0-1.1","6005da505dafb45c7b9f4982","609006691f6f4e337c17f836","60a2782e2b130f3ae0cbc5f8","null","","","","null","","","","key","16.666000000000448","720","410.5","","","","","","","","","","","","","138","1","4","false","","","",""
"psychophysics","177","376279","0.0-16.0-2.1","6005da505dafb45c7b9f4982","609006691f6f4e337c17f836","60a2782e2b130f3ae0cbc5f8","482.8350000025239","","","","77","","","","key","16.666000000001596","720","410.5","","","","","","","","","","","","","","","","","","","",""
"psychophysics","178","377281","0.0-16.0-0.2","6005da505dafb45c7b9f4982","609006691f6f4e337c17f836","60a2782e2b130f3ae0cbc5f8","null","","","","null","","","","key","16.675627118644453","720","410.5","","","","","","","","","","","","","","","","","","","",""
"psychophysics","179","377784","0.0-16.0-1.2","6005da505dafb45c7b9f4982","609006691f6f4e337c17f836","60a2782e2b130f3ae0cbc5f8","null","","","","null","","","","key","16.66600000000132","720","410.5","","","","","","","","","","","","","138","1","0","false","","","",""
"psychophysics","180","378289","0.0-16.0-2.2","6005da505dafb45c7b9f4982","609006691f6f4e337c17f836","60a2782e2b130f3ae0cbc5f8","503.2950000022538","","","","90","","","","key","16.666000000000448","720","410.5","","","","","","","","","","","","","","","","","","","",""
"psychophysics","181","379291","0.0-16.0-0.3","6005da505dafb45c7b9f4982","609006691f6f4e337c17f836","60a2782e2b130f3ae0cbc5f8","null","","","","null","","","","key","16.665999999999904","720","410.5","","","","","","","","","","","","","","","","","","","",""
"psychophysics","182","379795","0.0-16.0-1.3","6005da505dafb45c7b9f4982","609006691f6f4e337c17f836","60a2782e2b130f3ae0cbc5f8","null","","","","null","","","","key","16.666000000000448","720","410.5","","","","","","","","","","","","","138","1","3","false","","","",""
"psychophysics","183","380366","0.0-16.0-2.3","6005da505dafb45c7b9f4982","609006691f6f4e337c17f836","60a2782e2b130f3ae0cbc5f8","568.4199999959674","","","","90","","","","key","16.66599999999915","720","410.5","","","","","","","","","","","","","","","","","","","",""
"psychophysics","184","381368","0.0-16.0-0.4","6005da505dafb45c7b9f4982","609006691f6f4e337c17f836","60a2782e2b130f3ae0cbc5f8","null","","","","null","","","","key","16.665999999999904","720","410.5","","","","","","","","","","","","","","","","","","","",""
"psychophysics","185","381870","0.0-16.0-1.4","6005da505dafb45c7b9f4982","609006691f6f4e337c17f836","60a2782e2b130f3ae0cbc5f8","null","","","","null","","","","key","16.666000000000448","720","410.5","","","","","","","","","","","","","138","-1","2","false","","","",""
"psychophysics","186","382275","0.0-16.0-2.4","6005da505dafb45c7b9f4982","609006691f6f4e337c17f836","60a2782e2b130f3ae0cbc5f8","402.49999999650754","","","","90","","","","key","16.665999999998704","720","410.5","","","","","","","","","","","","","","","","","","","",""
"psychophysics","187","383278","0.0-16.0-0.5","6005da505dafb45c7b9f4982","609006691f6f4e337c17f836","60a2782e2b130f3ae0cbc5f8","null","","","","null","","","","key","16.665999999999904","720","410.5","","","","","","","","","","","","","","","","","","","",""
"psychophysics","188","383781","0.0-16.0-1.5","6005da505dafb45c7b9f4982","609006691f6f4e337c17f836","60a2782e2b130f3ae0cbc5f8","null","","","","null","","","","key","16.666000000000448","720","410.5","","","","","","","","","","","","","138","1","6","false","","","",""
"psychophysics","189","384162","0.0-16.0-2.5","6005da505dafb45c7b9f4982","609006691f6f4e337c17f836","60a2782e2b130f3ae0cbc5f8","377.3349999974016","","","","77","","","","key","16.666000000000086","720","410.5","","","","","","","","","","","","","","","","","","","",""
"psychophysics","190","385164","0.0-16.0-0.6","6005da505dafb45c7b9f4982","609006691f6f4e337c17f836","60a2782e2b130f3ae0cbc5f8","null","","","","null","","","","key","16.665999999999904","720","410.5","","","","","","","","","","","","","","","","","","","",""
"psychophysics","191","385668","0.0-16.0-1.6","6005da505dafb45c7b9f4982","609006691f6f4e337c17f836","60a2782e2b130f3ae0cbc5f8","null","","","","null","","","","key","16.66599999999938","720","410.5","","","","","","","","","","","","","138","-1","5","false","","","",""
"psychophysics","192","386371","0.0-16.0-2.6","6005da505dafb45c7b9f4982","609006691f6f4e337c17f836","60a2782e2b130f3ae0cbc5f8","700.6649999821093","","","","77","","","","key","16.665999999999567","720","410.5","","","","","","","","","","","","","","","","","","","",""
"psychophysics","193","387373","0.0-16.0-0.7","6005da505dafb45c7b9f4982","609006691f6f4e337c17f836","60a2782e2b130f3ae0cbc5f8","null","","","","null","","","","key","16.675627118644453","720","410.5","","","","","","","","","","","","","","","","","","","",""
"psychophysics","194","387877","0.0-16.0-1.7","6005da505dafb45c7b9f4982","609006691f6f4e337c17f836","60a2782e2b130f3ae0cbc5f8","null","","","","null","","","","key","16.66599999999844","720","410.5","","","","","","","","","","","","","138","1","2","false","","","",""
"psychophysics","195","388372","0.0-16.0-2.7","6005da505dafb45c7b9f4982","609006691f6f4e337c17f836","60a2782e2b130f3ae0cbc5f8","492.58000002009794","","","","90","","","","key","16.666000000000448","720","410.5","","","","","","","","","","","","","","","","","","","",""
"psychophysics","196","389375","0.0-16.0-0.8","6005da505dafb45c7b9f4982","609006691f6f4e337c17f836","60a2782e2b130f3ae0cbc5f8","null","","","","null","","","","key","16.665999999999904","720","410.5","","","","","","","","","","","","","","","","","","","",""
"psychophysics","197","389881","0.0-16.0-1.8","6005da505dafb45c7b9f4982","609006691f6f4e337c17f836","60a2782e2b130f3ae0cbc5f8","null","","","","null","","","","key","16.666000000000448","720","410.5","","","","","","","","","","","","","138","-1","0","false","","","",""
"psychophysics","198","390754","0.0-16.0-2.8","6005da505dafb45c7b9f4982","609006691f6f4e337c17f836","60a2782e2b130f3ae0cbc5f8","869.5000000006985","","","","90","","","","key","16.665999999999677","720","410.5","","","","","","","","","","","","","","","","","","","",""
"psychophysics","199","391756","0.0-16.0-0.9","6005da505dafb45c7b9f4982","609006691f6f4e337c17f836","60a2782e2b130f3ae0cbc5f8","null","","","","null","","","","key","16.665999999999904","720","410.5","","","","","","","","","","","","","","","","","","","",""
"psychophysics","200","392261","0.0-16.0-1.9","6005da505dafb45c7b9f4982","609006691f6f4e337c17f836","60a2782e2b130f3ae0cbc5f8","null","","","","null","","","","key","16.66599999999844","720","410.5","","","","","","","","","","","","","138","-1","3","false","","","",""
"psychophysics","201","393519","0.0-16.0-2.9","6005da505dafb45c7b9f4982","609006691f6f4e337c17f836","60a2782e2b130f3ae0cbc5f8","1256.2099999922793","","","","77","","","","key","16.666000000000157","720","410.5","","","","","","","","","","","","","","","","","","","",""
"psychophysics","202","394521","0.0-16.0-0.10","6005da505dafb45c7b9f4982","609006691f6f4e337c17f836","60a2782e2b130f3ae0cbc5f8","null","","","","null","","","","key","16.665999999999904","720","410.5","","","","","","","","","","","","","","","","","","","",""
"psychophysics","203","395025","0.0-16.0-1.10","6005da505dafb45c7b9f4982","609006691f6f4e337c17f836","60a2782e2b130f3ae0cbc5f8","null","","","","null","","","","key","16.666000000000448","720","410.5","","","","","","","","","","","","","138","1","5","false","","","",""
"psychophysics","204","395406","0.0-16.0-2.10","6005da505dafb45c7b9f4982","609006691f6f4e337c17f836","60a2782e2b130f3ae0cbc5f8","377.3700000019744","","","","77","","","","key","16.666000000000086","720","410.5","","","","","","","","","","","","","","","","","","","",""
"psychophysics","205","396408","0.0-16.0-0.11","6005da505dafb45c7b9f4982","609006691f6f4e337c17f836","60a2782e2b130f3ae0cbc5f8","null","","","","null","","","","key","16.665999999999904","720","410.5","","","","","","","","","","","","","","","","","","","",""
"psychophysics","206","396911","0.0-16.0-1.11","6005da505dafb45c7b9f4982","609006691f6f4e337c17f836","60a2782e2b130f3ae0cbc5f8","null","","","","null","","","","key","16.689896551725568","720","410.5","","","","","","","","","","","","","138","-1","4","false","","","",""
"psychophysics","207","397363","0.0-16.0-2.11","6005da505dafb45c7b9f4982","609006691f6f4e337c17f836","60a2782e2b130f3ae0cbc5f8","448.6249999899883","","","","90","","","","key","16.665999999999677","720","410.5","","","","","","","","","","","","","","","","","","","",""
"psychophysics","208","398365","0.0-16.0-0.12","6005da505dafb45c7b9f4982","609006691f6f4e337c17f836","60a2782e2b130f3ae0cbc5f8","null","","","","null","","","","key","16.66600000000035","720","410.5","","","","","","","","","","","","","","","","","","","",""
"psychophysics","209","398868","0.0-16.0-1.12","6005da505dafb45c7b9f4982","609006691f6f4e337c17f836","60a2782e2b130f3ae0cbc5f8","null","","","","null","","","","key","16.666000000000448","720","410.5","","","","","","","","","","","","","138","-1","0","false","","","",""
"psychophysics","210","399654","0.0-16.0-2.12","6005da505dafb45c7b9f4982","609006691f6f4e337c17f836","60a2782e2b130f3ae0cbc5f8","783.9600000006612","","","","77","","","","key","16.66599999999997","720","410.5","","","","","","","","","","","","","","","","","","","",""
"psychophysics","211","400655","0.0-16.0-0.13","6005da505dafb45c7b9f4982","609006691f6f4e337c17f836","60a2782e2b130f3ae0cbc5f8","null","","","","null","","","","key","16.665999999999904","720","410.5","","","","","","","","","","","","","","","","","","","",""
"psychophysics","212","401159","0.0-16.0-1.13","6005da505dafb45c7b9f4982","609006691f6f4e337c17f836","60a2782e2b130f3ae0cbc5f8","null","","","","null","","","","key","16.66599999999844","720","410.5","","","","","","","","","","","","","138","-1","2","false","","","",""
"psychophysics","213","402004","0.0-16.0-2.13","6005da505dafb45c7b9f4982","609006691f6f4e337c17f836","60a2782e2b130f3ae0cbc5f8","842.0400000177324","","","","90","","","","key","16.665999999999766","720","410.5","","","","","","","","","","","","","","","","","","","",""
"psychophysics","214","403008","0.0-16.0-0.14","6005da505dafb45c7b9f4982","609006691f6f4e337c17f836","60a2782e2b130f3ae0cbc5f8","null","","","","null","","","","key","16.665999999999904","720","410.5","","","","","","","","","","","","","","","","","","","",""
"psychophysics","215","403512","0.0-16.0-1.14","6005da505dafb45c7b9f4982","609006691f6f4e337c17f836","60a2782e2b130f3ae0cbc5f8","null","","","","null","","","","key","16.666000000000448","720","410.5","","","","","","","","","","","","","138","1","3","false","","","",""
"psychophysics","216","404188","0.0-16.0-2.14","6005da505dafb45c7b9f4982","609006691f6f4e337c17f836","60a2782e2b130f3ae0cbc5f8","673.8749999785796","","","","77","","","","key","16.665999999998895","720","410.5","","","","","","","","","","","","","","","","","","","",""
"psychophysics","217","405190","0.0-16.0-0.15","6005da505dafb45c7b9f4982","609006691f6f4e337c17f836","60a2782e2b130f3ae0cbc5f8","null","","","","null","","","","key","16.665999999999904","720","410.5","","","","","","","","","","","","","","","","","","","",""
"psychophysics","218","405693","0.0-16.0-1.15","6005da505dafb45c7b9f4982","609006691f6f4e337c17f836","60a2782e2b130f3ae0cbc5f8","null","","","","null","","","","key","16.66599999999844","720","410.5","","","","","","","","","","","","","138","1","0","false","","","",""
"psychophysics","219","406253","0.0-16.0-2.15","6005da505dafb45c7b9f4982","609006691f6f4e337c17f836","60a2782e2b130f3ae0cbc5f8","556.6650000109803","","","","77","","","","key","16.666000000000086","720","410.5","","","","","","","","","","","","","","","","","","","",""
"psychophysics","220","407254","0.0-16.0-0.16","6005da505dafb45c7b9f4982","609006691f6f4e337c17f836","60a2782e2b130f3ae0cbc5f8","null","","","","null","","","","key","16.675627118644453","720","410.5","","","","","","","","","","","","","","","","","","","",""
"psychophysics","221","407757","0.0-16.0-1.16","6005da505dafb45c7b9f4982","609006691f6f4e337c17f836","60a2782e2b130f3ae0cbc5f8","null","","","","null","","","","key","16.66599999999844","720","410.5","","","","","","","","","","","","","138","-1","6","false","","","",""
"psychophysics","222","408333","0.0-16.0-2.16","6005da505dafb45c7b9f4982","609006691f6f4e337c17f836","60a2782e2b130f3ae0cbc5f8","572.5800000072923","","","","77","","","","key","16.66599999999915","720","410.5","","","","","","","","","","","","","","","","","","","",""
"psychophysics","223","409335","0.0-16.0-0.17","6005da505dafb45c7b9f4982","609006691f6f4e337c17f836","60a2782e2b130f3ae0cbc5f8","null","","","","null","","","","key","16.665999999999904","720","410.5","","","","","","","","","","","","","","","","","","","",""
"psychophysics","224","409837","0.0-16.0-1.17","6005da505dafb45c7b9f4982","609006691f6f4e337c17f836","60a2782e2b130f3ae0cbc5f8","null","","","","null","","","","key","16.66599999999844","720","410.5","","","","","","","","","","","","","138","-1","3","false","","","",""
"psychophysics","225","410287","0.0-16.0-2.17","6005da505dafb45c7b9f4982","609006691f6f4e337c17f836","60a2782e2b130f3ae0cbc5f8","448.0000000039581","","","","77","","","","key","16.665999999999677","720","410.5","","","","","","","","","","","","","","","","","","","",""
"psychophysics","226","411289","0.0-16.0-0.18","6005da505dafb45c7b9f4982","609006691f6f4e337c17f836","60a2782e2b130f3ae0cbc5f8","null","","","","null","","","","key","16.665999999999904","720","410.5","","","","","","","","","","","","","","","","","","","",""
"psychophysics","227","411792","0.0-16.0-1.18","6005da505dafb45c7b9f4982","609006691f6f4e337c17f836","60a2782e2b130f3ae0cbc5f8","null","","","","null","","","","key","16.666000000000448","720","410.5","","","","","","","","","","","","","138","1","6","false","","","",""
"psychophysics","228","412108","0.0-16.0-2.18","6005da505dafb45c7b9f4982","609006691f6f4e337c17f836","60a2782e2b130f3ae0cbc5f8","314.16999999783","","","","77","","","","key","16.66599999999744","720","410.5","","","","","","","","","","","","","","","","","","","",""
"psychophysics","229","413112","0.0-16.0-0.19","6005da505dafb45c7b9f4982","609006691f6f4e337c17f836","60a2782e2b130f3ae0cbc5f8","null","","","","null","","","","key","16.665999999999904","720","410.5","","","","","","","","","","","","","","","","","","","",""
"psychophysics","230","413614","0.0-16.0-1.19","6005da505dafb45c7b9f4982","609006691f6f4e337c17f836","60a2782e2b130f3ae0cbc5f8","null","","","","null","","","","key","16.66599999999844","720","410.5","","","","","","","","","","","","","138","-1","5","false","","","",""
"psychophysics","231","414011","0.0-16.0-2.19","6005da505dafb45c7b9f4982","609006691f6f4e337c17f836","60a2782e2b130f3ae0cbc5f8","390.2949999901466","","","","77","","","","key","16.665999999998704","720","410.5","","","","","","","","","","","","","","","","","","","",""
"psychophysics","232","415013","0.0-16.0-0.20","6005da505dafb45c7b9f4982","609006691f6f4e337c17f836","60a2782e2b130f3ae0cbc5f8","null","","","","null","","","","key","16.665999999999904","720","410.5","","","","","","","","","","","","","","","","","","","",""
"psychophysics","233","415516","0.0-16.0-1.20","6005da505dafb45c7b9f4982","609006691f6f4e337c17f836","60a2782e2b130f3ae0cbc5f8","null","","","","null","","","","key","16.66599999999938","720","410.5","","","","","","","","","","","","","138","1","2","false","","","",""
"psychophysics","234","416085","0.0-16.0-2.20","6005da505dafb45c7b9f4982","609006691f6f4e337c17f836","60a2782e2b130f3ae0cbc5f8","566.9149999739602","","","","90","","","","key","16.666000000000086","720","410.5","","","","","","","","","","","","","","","","","","","",""
"psychophysics","235","417087","0.0-16.0-0.21","6005da505dafb45c7b9f4982","609006691f6f4e337c17f836","60a2782e2b130f3ae0cbc5f8","null","","","","null","","","","key","16.676322033898156","720","410.5","","","","","","","","","","","","","","","","","","","",""
"psychophysics","236","417590","0.0-16.0-1.21","6005da505dafb45c7b9f4982","609006691f6f4e337c17f836","60a2782e2b130f3ae0cbc5f8","null","","","","null","","","","key","16.66599999999844","720","410.5","","","","","","","","","","","","","138","1","4","false","","","",""
"psychophysics","237","417911","0.0-16.0-2.21","6005da505dafb45c7b9f4982","609006691f6f4e337c17f836","60a2782e2b130f3ae0cbc5f8","318.20999999763444","","","","77","","","","key","16.666000000000672","720","410.5","","","","","","","","","","","","","","","","","","","",""
"psychophysics","238","418914","0.0-16.0-0.22","6005da505dafb45c7b9f4982","609006691f6f4e337c17f836","60a2782e2b130f3ae0cbc5f8","null","","","","null","","","","key","16.665999999999904","720","410.5","","","","","","","","","","","","","","","","","","","",""
"psychophysics","239","419416","0.0-16.0-1.22","6005da505dafb45c7b9f4982","609006691f6f4e337c17f836","60a2782e2b130f3ae0cbc5f8","null","","","","null","","","","key","16.66599999999938","720","410.5","","","","","","","","","","","","","138","-1","4","false","","","",""
"psychophysics","240","419820","0.0-16.0-2.22","6005da505dafb45c7b9f4982","609006691f6f4e337c17f836","60a2782e2b130f3ae0cbc5f8","401.0850000195205","","","","77","","","","key","16.665999999998704","720","410.5","","","","","","","","","","","","","","","","","","","",""
"psychophysics","241","420822","0.0-16.0-0.23","6005da505dafb45c7b9f4982","609006691f6f4e337c17f836","60a2782e2b130f3ae0cbc5f8","null","","","","null","","","","key","16.665999999999904","720","410.5","","","","","","","","","","","","","","","","","","","",""
"psychophysics","242","421325","0.0-16.0-1.23","6005da505dafb45c7b9f4982","609006691f6f4e337c17f836","60a2782e2b130f3ae0cbc5f8","null","","","","null","","","","key","16.666000000000448","720","410.5","","","","","","","","","","","","","138","1","5","false","","","",""
"psychophysics","243","421633","0.0-16.0-2.23","6005da505dafb45c7b9f4982","609006691f6f4e337c17f836","60a2782e2b130f3ae0cbc5f8","305.58499999460764","","","","77","","","","key","16.666000000000672","720","410.5","","","","","","","","","","","","","","","","","","","",""
"html-keyboard-response","244","424571","0.0-17.0","6005da505dafb45c7b9f4982","609006691f6f4e337c17f836","60a2782e2b130f3ae0cbc5f8","2935.540000005858","<p>Well Done !</p><p>Training Complete. Press the spacebar to start.</p><p>DON'T EXIT THE FULL SCREEN MODE</p>","","","32","","","","","","","","","","","","","","","","","","","","","","","","","","",""
"psychophysics","245","427575","0.0-18.0-0.0","6005da505dafb45c7b9f4982","609006691f6f4e337c17f836","60a2782e2b130f3ae0cbc5f8","null","","","","null","","","","key","16.676166666665814","720","410.5","","","","","","","","","","","","","","","","","","","",""
"psychophysics","246","428081","0.0-18.0-1.0","6005da505dafb45c7b9f4982","609006691f6f4e337c17f836","60a2782e2b130f3ae0cbc5f8","null","","","","null","","","","key","16.666000000000448","720","410.5","","","","","","","","","","","","","138","1","2","true","","","",""
"psychophysics","247","428916","0.0-18.0-2.0","6005da505dafb45c7b9f4982","609006691f6f4e337c17f836","60a2782e2b130f3ae0cbc5f8","830.0400000007357","","","","90","","","","key","16.66600000000093","720","410.5","","","","","","","","","","","","","","","","","","","",""
"psychophysics","248","429918","0.0-18.0-0.1","6005da505dafb45c7b9f4982","609006691f6f4e337c17f836","60a2782e2b130f3ae0cbc5f8","null","","","","null","","","","key","16.665999999999904","720","410.5","","","","","","","","","","","","","","","","","","","",""
"psychophysics","249","430420","0.0-18.0-1.1","6005da505dafb45c7b9f4982","609006691f6f4e337c17f836","60a2782e2b130f3ae0cbc5f8","null","","","","null","","","","key","16.666000000000448","720","410.5","","","","","","","","","","","","","138","-1","5","true","","","",""
"psychophysics","250","431053","0.0-18.0-2.1","6005da505dafb45c7b9f4982","609006691f6f4e337c17f836","60a2782e2b130f3ae0cbc5f8","630.4149999923538","","","","77","","","","key","16.665999999999798","720","410.5","","","","","","","","","","","","","","","","","","","",""
"psychophysics","251","432055","0.0-18.0-0.2","6005da505dafb45c7b9f4982","609006691f6f4e337c17f836","60a2782e2b130f3ae0cbc5f8","null","","","","null","","","","key","16.665999999999904","720","410.5","","","","","","","","","","","","","","","","","","","",""
"psychophysics","252","432559","0.0-18.0-1.2","6005da505dafb45c7b9f4982","609006691f6f4e337c17f836","60a2782e2b130f3ae0cbc5f8","null","","","","null","","","","key","16.666000000000448","720","410.5","","","","","","","","","","","","","138","1","0","true","","","",""
"psychophysics","253","433121","0.0-18.0-2.2","6005da505dafb45c7b9f4982","609006691f6f4e337c17f836","60a2782e2b130f3ae0cbc5f8","558.5399999981746","","","","90","","","","key","16.666000000000086","720","410.5","","","","","","","","","","","","","","","","","","","",""
"psychophysics","254","434122","0.0-18.0-0.3","6005da505dafb45c7b9f4982","609006691f6f4e337c17f836","60a2782e2b130f3ae0cbc5f8","null","","","","null","","","","key","16.665999999999904","720","410.5","","","","","","","","","","","","","","","","","","","",""
"psychophysics","255","434626","0.0-18.0-1.3","6005da505dafb45c7b9f4982","609006691f6f4e337c17f836","60a2782e2b130f3ae0cbc5f8","null","","","","null","","","","key","16.666000000000448","720","410.5","","","","","","","","","","","","","138","1","6","true","","","",""
"psychophysics","256","434876","0.0-18.0-2.3","6005da505dafb45c7b9f4982","609006691f6f4e337c17f836","60a2782e2b130f3ae0cbc5f8","240.1650000247173","","","","77","","","","key","16.666000000001596","720","410.5","","","","","","","","","","","","","","","","","","","",""
"psychophysics","257","435879","0.0-18.0-0.4","6005da505dafb45c7b9f4982","609006691f6f4e337c17f836","60a2782e2b130f3ae0cbc5f8","null","","","","null","","","","key","16.665999999999904","720","410.5","","","","","","","","","","","","","","","","","","","",""
"psychophysics","258","436382","0.0-18.0-1.4","6005da505dafb45c7b9f4982","609006691f6f4e337c17f836","60a2782e2b130f3ae0cbc5f8","null","","","","null","","","","key","16.66599999999938","720","410.5","","","","","","","","","","","","","138","1","5","true","","","",""
"psychophysics","259","436705","0.0-18.0-2.4","6005da505dafb45c7b9f4982","609006691f6f4e337c17f836","60a2782e2b130f3ae0cbc5f8","320.24999998975545","","","","77","","","","key","16.666000000000672","720","410.5","","","","","","","","","","","","","","","","","","","",""
"psychophysics","260","437708","0.0-18.0-0.5","6005da505dafb45c7b9f4982","609006691f6f4e337c17f836","60a2782e2b130f3ae0cbc5f8","null","","","","null","","","","key","16.676338983050517","720","410.5","","","","","","","","","","","","","","","","","","","",""
"psychophysics","261","438213","0.0-18.0-1.5","6005da505dafb45c7b9f4982","609006691f6f4e337c17f836","60a2782e2b130f3ae0cbc5f8","null","","","","null","","","","key","16.666000000000448","720","410.5","","","","","","","","","","","","","138","1","4","true","","","",""
"psychophysics","262","438440","0.0-18.0-2.5","6005da505dafb45c7b9f4982","609006691f6f4e337c17f836","60a2782e2b130f3ae0cbc5f8","222.16999999363907","","","","77","","","","key","16.665999999999677","720","410.5","","","","","","","","","","","","","","","","","","","",""
"psychophysics","263","439442","0.0-18.0-0.6","6005da505dafb45c7b9f4982","609006691f6f4e337c17f836","60a2782e2b130f3ae0cbc5f8","null","","","","null","","","","key","16.665999999999904","720","410.5","","","","","","","","","","","","","","","","","","","",""
"psychophysics","264","439947","0.0-18.0-1.6","6005da505dafb45c7b9f4982","609006691f6f4e337c17f836","60a2782e2b130f3ae0cbc5f8","null","","","","null","","","","key","16.66599999999844","720","410.5","","","","","","","","","","","","","138","-1","0","true","","","",""
"psychophysics","265","440446","0.0-18.0-2.6","6005da505dafb45c7b9f4982","609006691f6f4e337c17f836","60a2782e2b130f3ae0cbc5f8","494.2049999954179","","","","90","","","","key","16.666000000000448","720","410.5","","","","","","","","","","","","","","","","","","","",""
"psychophysics","266","441448","0.0-18.0-0.7","6005da505dafb45c7b9f4982","609006691f6f4e337c17f836","60a2782e2b130f3ae0cbc5f8","null","","","","null","","","","key","16.665999999999904","720","410.5","","","","","","","","","","","","","","","","","","","",""
"psychophysics","267","441951","0.0-18.0-1.7","6005da505dafb45c7b9f4982","609006691f6f4e337c17f836","60a2782e2b130f3ae0cbc5f8","null","","","","null","","","","key","16.66599999999938","720","410.5","","","","","","","","","","","","","138","-1","6","true","","","",""
"psychophysics","268","442228","0.0-18.0-2.7","6005da505dafb45c7b9f4982","609006691f6f4e337c17f836","60a2782e2b130f3ae0cbc5f8","274.70999999786727","","","","77","","","","key","16.66599999999938","720","410.5","","","","","","","","","","","","","","","","","","","",""
"psychophysics","269","443231","0.0-18.0-0.8","6005da505dafb45c7b9f4982","609006691f6f4e337c17f836","60a2782e2b130f3ae0cbc5f8","null","","","","null","","","","key","16.666000000000892","720","410.5","","","","","","","","","","","","","","","","","","","",""
"psychophysics","270","443733","0.0-18.0-1.8","6005da505dafb45c7b9f4982","609006691f6f4e337c17f836","60a2782e2b130f3ae0cbc5f8","null","","","","null","","","","key","16.66599999999938","720","410.5","","","","","","","","","","","","","138","-1","4","true","","","",""
"psychophysics","271","443912","0.0-18.0-2.8","6005da505dafb45c7b9f4982","609006691f6f4e337c17f836","60a2782e2b130f3ae0cbc5f8","171.99500001152046","","","","77","","","","key","16.666000000000672","720","410.5","","","","","","","","","","","","","","","","","","","",""
"psychophysics","272","444915","0.0-18.0-0.9","6005da505dafb45c7b9f4982","609006691f6f4e337c17f836","60a2782e2b130f3ae0cbc5f8","null","","","","null","","","","key","16.665999999999904","720","410.5","","","","","","","","","","","","","","","","","","","",""
"psychophysics","273","445418","0.0-18.0-1.9","6005da505dafb45c7b9f4982","609006691f6f4e337c17f836","60a2782e2b130f3ae0cbc5f8","null","","","","null","","","","key","16.66599999999938","720","410.5","","","","","","","","","","","","","138","-1","2","true","","","",""
"psychophysics","274","445795","0.0-18.0-2.9","6005da505dafb45c7b9f4982","609006691f6f4e337c17f836","60a2782e2b130f3ae0cbc5f8","374.7949999815319","","","","90","","","","key","16.665999999998824","720","410.5","","","","","","","","","","","","","","","","","","","",""
"psychophysics","275","446798","0.0-18.0-0.10","6005da505dafb45c7b9f4982","609006691f6f4e337c17f836","60a2782e2b130f3ae0cbc5f8","null","","","","null","","","","key","16.665999999999904","720","410.5","","","","","","","","","","","","","","","","","","","",""
"psychophysics","276","447301","0.0-18.0-1.10","6005da505dafb45c7b9f4982","609006691f6f4e337c17f836","60a2782e2b130f3ae0cbc5f8","null","","","","null","","","","key","16.682133333334544","720","410.5","","","","","","","","","","","","","138","1","3","true","","","",""
"psychophysics","277","447508","0.0-18.0-2.10","6005da505dafb45c7b9f4982","609006691f6f4e337c17f836","60a2782e2b130f3ae0cbc5f8","204.74999997531995","","","","77","","","","key","16.666000000000086","720","410.5","","","","","","","","","","","","","","","","","","","",""
"psychophysics","278","448511","0.0-18.0-0.11","6005da505dafb45c7b9f4982","609006691f6f4e337c17f836","60a2782e2b130f3ae0cbc5f8","null","","","","null","","","","key","16.665999999999904","720","410.5","","","","","","","","","","","","","","","","","","","",""
"psychophysics","279","449015","0.0-18.0-1.11","6005da505dafb45c7b9f4982","609006691f6f4e337c17f836","60a2782e2b130f3ae0cbc5f8","null","","","","null","","","","key","16.66599999999844","720","410.5","","","","","","","","","","","","","138","-1","3","true","","","",""
"psychophysics","280","449242","0.0-18.0-2.11","6005da505dafb45c7b9f4982","609006691f6f4e337c17f836","60a2782e2b130f3ae0cbc5f8","222.0800000068266","","","","77","","","","key","16.665999999999677","720","410.5","","","","","","","","","","","","","","","","","","","",""
"psychophysics","281","450247","0.0-18.0-0.12","6005da505dafb45c7b9f4982","609006691f6f4e337c17f836","60a2782e2b130f3ae0cbc5f8","null","","","","null","","","","key","16.665999999999904","720","410.5","","","","","","","","","","","","","","","","","","","",""
"psychophysics","282","450750","0.0-18.0-1.12","6005da505dafb45c7b9f4982","609006691f6f4e337c17f836","60a2782e2b130f3ae0cbc5f8","null","","","","null","","","","key","16.66599999999938","720","410.5","","","","","","","","","","","","","138","1","3","true","","","",""
"psychophysics","283","451124","0.0-18.0-2.12","6005da505dafb45c7b9f4982","609006691f6f4e337c17f836","60a2782e2b130f3ae0cbc5f8","371.1649999895599","","","","77","","","","key","16.665999999998824","720","410.5","","","","","","","","","","","","","","","","","","","",""
"psychophysics","284","452127","0.0-18.0-0.13","6005da505dafb45c7b9f4982","609006691f6f4e337c17f836","60a2782e2b130f3ae0cbc5f8","null","","","","null","","","","key","16.665999999999904","720","410.5","","","","","","","","","","","","","","","","","","","",""
"psychophysics","285","452631","0.0-18.0-1.13","6005da505dafb45c7b9f4982","609006691f6f4e337c17f836","60a2782e2b130f3ae0cbc5f8","null","","","","null","","","","key","16.66599999999844","720","410.5","","","","","","","","","","","","","138","-1","2","true","","","",""
"psychophysics","286","452903","0.0-18.0-2.13","6005da505dafb45c7b9f4982","609006691f6f4e337c17f836","60a2782e2b130f3ae0cbc5f8","267.41499998024665","","","","90","","","","key","16.666000000001077","720","410.5","","","","","","","","","","","","","","","","","","","",""
"psychophysics","287","453905","0.0-18.0-0.14","6005da505dafb45c7b9f4982","609006691f6f4e337c17f836","60a2782e2b130f3ae0cbc5f8","null","","","","null","","","","key","16.665999999999904","720","410.5","","","","","","","","","","","","","","","","","","","",""
"psychophysics","288","454409","0.0-18.0-1.14","6005da505dafb45c7b9f4982","609006691f6f4e337c17f836","60a2782e2b130f3ae0cbc5f8","null","","","","null","","","","key","16.666000000000448","720","410.5","","","","","","","","","","","","","138","1","6","true","","","",""
"psychophysics","289","454622","0.0-18.0-2.14","6005da505dafb45c7b9f4982","609006691f6f4e337c17f836","60a2782e2b130f3ae0cbc5f8","208.37000000756234","","","","77","","","","key","16.66600000000229","720","410.5","","","","","","","","","","","","","","","","","","","",""
"psychophysics","290","455624","0.0-18.0-0.15","6005da505dafb45c7b9f4982","609006691f6f4e337c17f836","60a2782e2b130f3ae0cbc5f8","null","","","","null","","","","key","16.665999999999904","720","410.5","","","","","","","","","","","","","","","","","","","",""
"psychophysics","291","456130","0.0-18.0-1.15","6005da505dafb45c7b9f4982","609006691f6f4e337c17f836","60a2782e2b130f3ae0cbc5f8","null","","","","null","","","","key","16.666000000000448","720","410.5","","","","","","","","","","","","","138","1","4","true","","","",""
"psychophysics","292","456311","0.0-18.0-2.15","6005da505dafb45c7b9f4982","609006691f6f4e337c17f836","60a2782e2b130f3ae0cbc5f8","177.08500000298955","","","","77","","","","key","16.666000000003258","720","410.5","","","","","","","","","","","","","","","","","","","",""
"psychophysics","293","457315","0.0-18.0-0.16","6005da505dafb45c7b9f4982","609006691f6f4e337c17f836","60a2782e2b130f3ae0cbc5f8","null","","","","null","","","","key","16.6763389830515","720","410.5","","","","","","","","","","","","","","","","","","","",""
"psychophysics","294","457818","0.0-18.0-1.16","6005da505dafb45c7b9f4982","609006691f6f4e337c17f836","60a2782e2b130f3ae0cbc5f8","null","","","","null","","","","key","16.66599999999938","720","410.5","","","","","","","","","","","","","138","1","0","true","","","",""
"psychophysics","295","458113","0.0-18.0-2.16","6005da505dafb45c7b9f4982","609006691f6f4e337c17f836","60a2782e2b130f3ae0cbc5f8","292.5049999903422","","","","90","","","","key","16.666000000001077","720","410.5","","","","","","","","","","","","","","","","","","","",""
"psychophysics","296","459115","0.0-18.0-0.17","6005da505dafb45c7b9f4982","609006691f6f4e337c17f836","60a2782e2b130f3ae0cbc5f8","null","","","","null","","","","key","16.665999999999904","720","410.5","","","","","","","","","","","","","","","","","","","",""
"psychophysics","297","459617","0.0-18.0-1.17","6005da505dafb45c7b9f4982","609006691f6f4e337c17f836","60a2782e2b130f3ae0cbc5f8","null","","","","null","","","","key","16.66599999999938","720","410.5","","","","","","","","","","","","","138","1","5","true","","","",""
"psychophysics","298","460061","0.0-18.0-2.17","6005da505dafb45c7b9f4982","609006691f6f4e337c17f836","60a2782e2b130f3ae0cbc5f8","441.5850000223145","","","","77","","","","key","16.665999999998604","720","410.5","","","","","","","","","","","","","","","","","","","",""
"psychophysics","299","461064","0.0-18.0-0.18","6005da505dafb45c7b9f4982","609006691f6f4e337c17f836","60a2782e2b130f3ae0cbc5f8","null","","","","null","","","","key","16.665999999999904","720","410.5","","","","","","","","","","","","","","","","","","","",""
"psychophysics","300","461567","0.0-18.0-1.18","6005da505dafb45c7b9f4982","609006691f6f4e337c17f836","60a2782e2b130f3ae0cbc5f8","null","","","","null","","","","key","16.66600000000132","720","410.5","","","","","","","","","","","","","138","-1","6","true","","","",""
"psychophysics","301","461927","0.0-18.0-2.18","6005da505dafb45c7b9f4982","609006691f6f4e337c17f836","60a2782e2b130f3ae0cbc5f8","358.12499999883585","","","","77","","","","key","16.66600000000035","720","410.5","","","","","","","","","","","","","","","","","","","",""
"psychophysics","302","462931","0.0-18.0-0.19","6005da505dafb45c7b9f4982","609006691f6f4e337c17f836","60a2782e2b130f3ae0cbc5f8","null","","","","null","","","","key","16.665999999999904","720","410.5","","","","","","","","","","","","","","","","","","","",""
"psychophysics","303","463433","0.0-18.0-1.19","6005da505dafb45c7b9f4982","609006691f6f4e337c17f836","60a2782e2b130f3ae0cbc5f8","null","","","","null","","","","key","16.66600000000132","720","410.5","","","","","","","","","","","","","138","-1","0","true","","","",""
"psychophysics","304","463769","0.0-18.0-2.19","6005da505dafb45c7b9f4982","609006691f6f4e337c17f836","60a2782e2b130f3ae0cbc5f8","334.29500000784174","","","","90","","","","key","16.666000000002033","720","410.5","","","","","","","","","","","","","","","","","","","",""
"psychophysics","305","464772","0.0-18.0-0.20","6005da505dafb45c7b9f4982","609006691f6f4e337c17f836","60a2782e2b130f3ae0cbc5f8","null","","","","null","","","","key","16.665999999999904","720","410.5","","","","","","","","","","","","","","","","","","","",""
"psychophysics","306","465276","0.0-18.0-1.20","6005da505dafb45c7b9f4982","609006691f6f4e337c17f836","60a2782e2b130f3ae0cbc5f8","null","","","","null","","","","key","16.666000000000448","720","410.5","","","","","","","","","","","","","138","-1","3","true","","","",""
"psychophysics","307","465590","0.0-18.0-2.20","6005da505dafb45c7b9f4982","609006691f6f4e337c17f836","60a2782e2b130f3ae0cbc5f8","311.4600000262726","","","","90","","","","key","16.666000000000672","720","410.5","","","","","","","","","","","","","","","","","","","",""
"psychophysics","308","466593","0.0-18.0-0.21","6005da505dafb45c7b9f4982","609006691f6f4e337c17f836","60a2782e2b130f3ae0cbc5f8","null","","","","null","","","","key","16.666000000000892","720","410.5","","","","","","","","","","","","","","","","","","","",""
"psychophysics","309","467097","0.0-18.0-1.21","6005da505dafb45c7b9f4982","609006691f6f4e337c17f836","60a2782e2b130f3ae0cbc5f8","null","","","","null","","","","key","16.685586206895973","720","410.5","","","","","","","","","","","","","138","1","2","true","","","",""
"psychophysics","310","467461","0.0-18.0-2.21","6005da505dafb45c7b9f4982","609006691f6f4e337c17f836","60a2782e2b130f3ae0cbc5f8","357.9150000005029","","","","90","","","","key","16.665999999998824","720","410.5","","","","","","","","","","","","","","","","","","","",""
"psychophysics","311","468464","0.0-18.0-0.22","6005da505dafb45c7b9f4982","609006691f6f4e337c17f836","60a2782e2b130f3ae0cbc5f8","null","","","","null","","","","key","16.665999999999904","720","410.5","","","","","","","","","","","","","","","","","","","",""
"psychophysics","312","468967","0.0-18.0-1.22","6005da505dafb45c7b9f4982","609006691f6f4e337c17f836","60a2782e2b130f3ae0cbc5f8","null","","","","null","","","","key","16.66599999999938","720","410.5","","","","","","","","","","","","","138","-1","4","true","","","",""
"psychophysics","313","469409","0.0-18.0-2.22","6005da505dafb45c7b9f4982","609006691f6f4e337c17f836","60a2782e2b130f3ae0cbc5f8","439.6249999990687","","","","90","","","","key","16.66600000000093","720","410.5","","","","","","","","","","","","","","","","","","","",""
"psychophysics","314","470414","0.0-18.0-0.23","6005da505dafb45c7b9f4982","609006691f6f4e337c17f836","60a2782e2b130f3ae0cbc5f8","null","","","","null","","","","key","16.665999999999904","720","410.5","","","","","","","","","","","","","","","","","","","",""
"psychophysics","315","470922","0.0-18.0-1.23","6005da505dafb45c7b9f4982","609006691f6f4e337c17f836","60a2782e2b130f3ae0cbc5f8","null","","","","null","","","","key","16.66599999999938","720","410.5","","","","","","","","","","","","","138","-1","5","true","","","",""
"psychophysics","316","471186","0.0-18.0-2.23","6005da505dafb45c7b9f4982","609006691f6f4e337c17f836","60a2782e2b130f3ae0cbc5f8","261.37500000186265","","","","77","","","","key","16.66599999999938","720","410.5","","","","","","","","","","","","","","","","","","","",""
"psychophysics","317","472189","0.0-18.0-0.24","6005da505dafb45c7b9f4982","609006691f6f4e337c17f836","60a2782e2b130f3ae0cbc5f8","null","","","","null","","","","key","16.665999999999904","720","410.5","","","","","","","","","","","","","","","","","","","",""
"psychophysics","318","472692","0.0-18.0-1.24","6005da505dafb45c7b9f4982","609006691f6f4e337c17f836","60a2782e2b130f3ae0cbc5f8","null","","","","null","","","","key","16.666000000000448","720","410.5","","","","","","","","","","","","","138","-1","2","true","","","",""
"psychophysics","319","473123","0.0-18.0-2.24","6005da505dafb45c7b9f4982","609006691f6f4e337c17f836","60a2782e2b130f3ae0cbc5f8","427.71000001812354","","","","90","","","","key","16.665999999998604","720","410.5","","","","","","","","","","","","","","","","","","","",""
"psychophysics","320","474126","0.0-18.0-0.25","6005da505dafb45c7b9f4982","609006691f6f4e337c17f836","60a2782e2b130f3ae0cbc5f8","null","","","","null","","","","key","16.665999999999904","720","410.5","","","","","","","","","","","","","","","","","","","",""
"psychophysics","321","474631","0.0-18.0-1.25","6005da505dafb45c7b9f4982","609006691f6f4e337c17f836","60a2782e2b130f3ae0cbc5f8","null","","","","null","","","","key","16.666000000000448","720","410.5","","","","","","","","","","","","","138","1","0","true","","","",""
"psychophysics","322","475004","0.0-18.0-2.25","6005da505dafb45c7b9f4982","609006691f6f4e337c17f836","60a2782e2b130f3ae0cbc5f8","369.5399999851361","","","","90","","","","key","16.666000000000086","720","410.5","","","","","","","","","","","","","","","","","","","",""
"psychophysics","323","476007","0.0-18.0-0.26","6005da505dafb45c7b9f4982","609006691f6f4e337c17f836","60a2782e2b130f3ae0cbc5f8","null","","","","null","","","","key","16.665999999999904","720","410.5","","","","","","","","","","","","","","","","","","","",""
"psychophysics","324","476511","0.0-18.0-1.26","6005da505dafb45c7b9f4982","609006691f6f4e337c17f836","60a2782e2b130f3ae0cbc5f8","null","","","","null","","","","key","16.666000000000448","720","410.5","","","","","","","","","","","","","138","1","5","true","","","",""
"psychophysics","325","476870","0.0-18.0-2.26","6005da505dafb45c7b9f4982","609006691f6f4e337c17f836","60a2782e2b130f3ae0cbc5f8","355.8799999882467","","","","77","","","","key","16.666000000001596","720","410.5","","","","","","","","","","","","","","","","","","","",""
"psychophysics","326","477872","0.0-18.0-0.27","6005da505dafb45c7b9f4982","609006691f6f4e337c17f836","60a2782e2b130f3ae0cbc5f8","null","","","","null","","","","key","16.675627118644453","720","410.5","","","","","","","","","","","","","","","","","","","",""
"psychophysics","327","478376","0.0-18.0-1.27","6005da505dafb45c7b9f4982","609006691f6f4e337c17f836","60a2782e2b130f3ae0cbc5f8","null","","","","null","","","","key","16.666000000000448","720","410.5","","","","","","","","","","","","","138","1","2","true","","","",""
"psychophysics","328","478746","0.0-18.0-2.27","6005da505dafb45c7b9f4982","609006691f6f4e337c17f836","60a2782e2b130f3ae0cbc5f8","366.7499999864958","","","","90","","","","key","16.665999999998824","720","410.5","","","","","","","","","","","","","","","","","","","",""
