"trial_type","trial_index","time_elapsed","internal_node_id","PROLIFIC_PID","STUDY_ID","SESSION_ID","rt","stimulus","button_pressed","success","key_press","responses","isData","view_history","response_type","avg_frame_time","center_x","center_y","isSC","stim_side","trial_luminance","step_size","nReversal","correct","prev_ans","isThreshold","SC_threshold","final_threshold","isLuminance","FF_luminance","luminance","stimSide","ISInt","isFF","question_order","isSPQ","isCAPS","isAQ"
"pavlovia","0","8","0.0-0.0","59922fa30675b100014daed4","6368f2eea3e9634aebcc2f6b","63691abb0007a7f776d49acf","","","","","","","","","","","","","","","","","","","","","","","","","","","","","","","",""
"html-button-response","1","14720","0.0-1.0","59922fa30675b100014daed4","6368f2eea3e9634aebcc2f6b","63691abb0007a7f776d49acf","14703","<div style='background-color: white; width:60%; margin: auto; padding: 50px; text-align: justify; text-justify: inter-word; margin-bottom: 20px;'><h1 style='text-align: center;'>Consent Form</h1><p>Please read this consent form carefully before deciding whether you would like to participate in this study. You have to be 18 years old or older to participate to this study.</p><p style='text-decoration: underline;'>Participation is voluntary:</p><p>It is your choice whether or not to participate in this research. If you choose to participate, you may change your mind and leave the study at any time. Refusal to participate or stopping your participation will involve no penalty or loss of benefits to which you are otherwise entitled.</p><p style='text-decoration: underline;'>Purpose of the Study:</p><p>To understand the mechanisms underlying human perception.</p><p style='text-decoration: underline;'>What you will do in this study:</p><p>You will be presented with a series of visual images and then you will press buttons on the keyboard of your computer to respond to simple questions about the images (e.g. Were one or two images presented?). In addition, you will be asked to complete a questionnaire concerning your beliefs and everyday mental and perceptual experiences.'</p><p style='text-decoration: underline;'> Time Required:</p><p>The study will take 40 minutes to complete. </p><p style='text-decoration: underline;'>Risks:</p><p>There are no anticipated risks associated with participating in this study that are beyond those experienced in everyday life. </p><p style='text-decoration: underline;'>Benefits:</p><p>There are no benefits to you in participating in the study. However, this study may lead to a better understanding of how different kinds of visual information are used.</p><p style='text-decoration: underline;'>Compensation:</p><p>You will be paid US$6.6/hour. </p><p style='text-decoration: underline;'>Privacy and Confidentiality:</p><p>Your participation in this study will be anonymous. No personal information about your name or identity will be asked or recorded. This anonymous data will be stored for several years and may be used for a variety of research purposes. The overall results of the study may be published, or the data files may be shared with other researchers, but your identity will not be revealed in any way. The online services we are using for this study may temporarily store your data, but this data will be downloaded and then promptly deleted from those services.Your data will not be permanently associated with your name, IP address, or any other identifiable information (e.g., your information will only be connected to your payment, not to any of your responses), though they may be temporarily stored together before we download and separate them. Even so, no guarantee of internet survey security can be given because, although unlikely, transmissions can be intercepted and IP addresses can be identified. The anonymous data may be shared publicly (for example, in conjunction with a resulting academic publication).</p><p style='text-decoration: underline;'>Participation and Withdrawal:</p><p>Your participation in this study is completely voluntary. You may stop responding to the stimuli or stop answering questions if you so choose and without penalty by exiting the full screen mode, closing this tab of your browser or redirecting it to a different website.</p><p style='text-decoration: underline;'>Contact Info of the Researcher: </p><p>If you have questions about this study, or if you would like to talk to the research team, please contact David Melcher (david.melcher@nyu.edu, md5050@nyu.edu) at the Perception and Active Cognition Laboratory, New York University Abu Dhabi, Computational Research Building, Saadiyat Island, Abu Dhabi, UAE.This research has been reviewed by the New York University Abu Dhabi Institutional Review Board (NYUAD IRB). To contact about your rights in this research, for questions, suggestions, or complaints that are not addressed by the researchers, please email IRBnyuad@nyu.edu, or call the NYUAD IRB at +971 2 628 4313. </p></div>","0","","","","","","","","","","","","","","","","","","","","","","","","","","","","",""
"fullscreen","2","16272","0.0-2.0","59922fa30675b100014daed4","6368f2eea3e9634aebcc2f6b","63691abb0007a7f776d49acf","","","","true","","","","","","","","","","","","","","","","","","","","","","","","","","","",""
"html-keyboard-response","3","99498","0.0-3.0","59922fa30675b100014daed4","6368f2eea3e9634aebcc2f6b","63691abb0007a7f776d49acf","83223.20000004768","<p>Welcome !</p><p>READ CAREFULLY THE FOLLOWING INDICATIONS:</p><p>From this moment you have ~40 minutes to complete the experiment.</p><p>During the experiment you will be prompted to take several breaks. Each break should not last longer than 2-3 minutes.</p><p>Make sure that your computer is plugged in and it's not running on battery power, even if the battery is already fully charged.</p><p>Turn off your phone and music, make sure that you are in a quiet room and that you will not be distracted for the next hour.</p><p>Failure to comply with the instructions and indications provided during the experiment will most likely result in the rejection of your data.<p>Press the spacebar to start.</p>","","","32","","","","","","","","","","","","","","","","","","","","","","","","","","",""
"survey-html-form","4","110207","0.0-4.0","59922fa30675b100014daed4","6368f2eea3e9634aebcc2f6b","63691abb0007a7f776d49acf","10705.800000190735","","","","","{""age"":""53"",""sex"":""F""}","true","","","","","","","","","","","","","","","","","","","","","","","","",""
"instructions","5","165433","0.0-5.0","59922fa30675b100014daed4","6368f2eea3e9634aebcc2f6b","63691abb0007a7f776d49acf","55224.39999985695","","","","","","","[{""page_index"":0,""viewing_time"":30043.89999985695},{""page_index"":1,""viewing_time"":16036},{""page_index"":2,""viewing_time"":9143.900000095367}]","","","","","","","","","","","","","","","","","","","","","","","",""
"psychophysics","6","173975","0.0-6.0-0.0","59922fa30675b100014daed4","6368f2eea3e9634aebcc2f6b","63691abb0007a7f776d49acf","7534.099999904633","","","","37","","","","key","16.665914230019496","683","312.5","true","-1","180","30","0","-1","","","","","","","","","","","","","",""
"psychophysics","7","178278","0.0-6.0-0.1","59922fa30675b100014daed4","6368f2eea3e9634aebcc2f6b","63691abb0007a7f776d49acf","3288.399999856949","","","","37","","","","key","16.666089494163415","683","312.5","true","1","180","30","0","1","-1","","","","","","","","","","","","",""
"psychophysics","8","179795","0.0-6.0-0.2","59922fa30675b100014daed4","6368f2eea3e9634aebcc2f6b","63691abb0007a7f776d49acf","507.5","","","","39","","","","key","16.665766666666606","683","312.5","true","1","210","30","0","-1","1","","","","","","","","","","","","",""
"psychophysics","9","180826","0.0-6.0-0.3","59922fa30675b100014daed4","6368f2eea3e9634aebcc2f6b","63691abb0007a7f776d49acf","20.799999952316284","","","","39","","","","key","16.66695081967227","683","312.5","true","1","210","24","1","-1","-1","","","","","","","","","","","","",""
"psychophysics","10","183435","0.0-6.0-0.4","59922fa30675b100014daed4","6368f2eea3e9634aebcc2f6b","63691abb0007a7f776d49acf","1601","","","","39","","","","key","16.665858064516215","683","312.5","true","1","186","24","1","-1","-1","","","","","","","","","","","","",""
"psychophysics","11","186145","0.0-6.0-0.5","59922fa30675b100014daed4","6368f2eea3e9634aebcc2f6b","63691abb0007a7f776d49acf","1705.1000001430511","","","","39","","","","key","16.66611111111113","683","312.5","true","1","186","24","1","-1","-1","","","","","","","","","","","","",""
"psychophysics","12","187191","0.0-6.0-0.6","59922fa30675b100014daed4","6368f2eea3e9634aebcc2f6b","63691abb0007a7f776d49acf","35.299999952316284","","","","39","","","","key","16.666274193548052","683","312.5","true","1","162","24","1","-1","-1","","","","","","","","","","","","",""
"psychophysics","13","188541","0.0-6.0-0.7","59922fa30675b100014daed4","6368f2eea3e9634aebcc2f6b","63691abb0007a7f776d49acf","336.5","","","","39","","","","key","16.664887499999896","683","312.5","true","1","162","24","1","-1","-1","","","","","","","","","","","","",""
"psychophysics","14","192577","0.0-6.0-0.8","59922fa30675b100014daed4","6368f2eea3e9634aebcc2f6b","63691abb0007a7f776d49acf","3030.7999999523163","","","","39","","","","key","16.665900414937834","683","312.5","true","1","138","24","1","-1","-1","","","","","","","","","","","","",""
"psychophysics","15","194882","0.0-6.0-0.9","59922fa30675b100014daed4","6368f2eea3e9634aebcc2f6b","63691abb0007a7f776d49acf","1294","","","","39","","","","key","16.665839416058404","683","312.5","true","-1","138","19.2","2","1","-1","","","","","","","","","","","","",""
"psychophysics","16","196448","0.0-6.0-0.10","59922fa30675b100014daed4","6368f2eea3e9634aebcc2f6b","63691abb0007a7f776d49acf","543.8000001907349","","","","39","","","","key","16.666559139784844","683","312.5","true","1","157.2","19.2","2","-1","1","","","","","","","","","","","","",""
"psychophysics","17","198586","0.0-6.0-0.11","59922fa30675b100014daed4","6368f2eea3e9634aebcc2f6b","63691abb0007a7f776d49acf","1132.2000000476837","","","","37","","","","key","16.665637795275533","683","312.5","true","-1","157.2","15.36","3","-1","-1","","","","","","","","","","","","",""
"psychophysics","18","199651","0.0-6.0-0.12","59922fa30675b100014daed4","6368f2eea3e9634aebcc2f6b","63691abb0007a7f776d49acf","62","","","","37","","","","key","16.667285714286013","683","312.5","true","-1","141.83999999999997","15.36","3","-1","-1","","","","","","","","","","","","",""
"psychophysics","19","200993","0.0-6.0-0.13","59922fa30675b100014daed4","6368f2eea3e9634aebcc2f6b","63691abb0007a7f776d49acf","339.10000014305115","","","","39","","","","key","16.66578750000008","683","312.5","true","1","141.83999999999997","15.36","3","-1","-1","","","","","","","","","","","","",""
"psychophysics","20","203002","0.0-6.0-0.14","59922fa30675b100014daed4","6368f2eea3e9634aebcc2f6b","63691abb0007a7f776d49acf","1007","","","","37","","","","key","16.666697478991594","683","312.5","true","-1","129","15.36","3","-1","-1","","","","","","","","","","","","",""
"psychophysics","21","204248","0.0-6.0-0.15","59922fa30675b100014daed4","6368f2eea3e9634aebcc2f6b","63691abb0007a7f776d49acf","243.79999995231628","","","","39","","","","key","16.66620270270269","683","312.5","true","1","129","15.36","3","-1","-1","","","","","","","","","","","","",""
"psychophysics","22","207056","0.0-6.0-0.16","59922fa30675b100014daed4","6368f2eea3e9634aebcc2f6b","63691abb0007a7f776d49acf","1801.7999999523163","","","","39","","","","key","16.66570238095249","683","312.5","true","-1","129","12.287999999999998","4","1","-1","","","","","","","","","","","","",""
"psychophysics","23","208540","0.0-6.0-0.17","59922fa30675b100014daed4","6368f2eea3e9634aebcc2f6b","63691abb0007a7f776d49acf","468.90000009536743","","","","37","","","","key","16.665488636363577","683","312.5","true","-1","141.288","12.287999999999998","4","-1","1","","","","","","","","","","","","",""
"psychophysics","24","209585","0.0-6.0-0.18","59922fa30675b100014daed4","6368f2eea3e9634aebcc2f6b","63691abb0007a7f776d49acf","38.39999985694885","","","","39","","","","key","16.666573770491684","683","312.5","true","1","141.288","9.8304","5","-1","-1","","","","","","","","","","","","",""
"psychophysics","25","212392","0.0-6.0-0.19","59922fa30675b100014daed4","6368f2eea3e9634aebcc2f6b","63691abb0007a7f776d49acf","1803.3000001907349","","","","39","","","","key","16.66665476190489","683","312.5","true","-1","131.4576","7.864319999999999","6","1","-1","","","","","","","","","","","","",""
"psychophysics","26","213486","0.0-6.0-0.20","59922fa30675b100014daed4","6368f2eea3e9634aebcc2f6b","63691abb0007a7f776d49acf","88.5","","","","39","","","","key","16.664546874999814","683","312.5","true","1","139.32192","7.864319999999999","6","-1","1","","","","","","","","","","","","",""
"psychophysics","27","214747","0.0-6.0-0.21","59922fa30675b100014daed4","6368f2eea3e9634aebcc2f6b","63691abb0007a7f776d49acf","257.39999985694885","","","","39","","","","key","16.667493333333404","683","312.5","true","1","139.32192","6.291456","7","-1","-1","","","","","","","","","","","","",""
"psychophysics","28","216159","0.0-6.0-0.22","59922fa30675b100014daed4","6368f2eea3e9634aebcc2f6b","63691abb0007a7f776d49acf","406.60000014305115","","","","39","","","","key","16.665547619047477","683","312.5","true","1","133.030464","6.291456","7","-1","-1","","","","","","","","","","","","",""
"psychophysics","29","217992","0.0-6.0-0.23","59922fa30675b100014daed4","6368f2eea3e9634aebcc2f6b","63691abb0007a7f776d49acf","822.2000000476837","","","","37","","","","key","16.66594495412834","683","312.5","true","-1","133.030464","6.291456","7","-1","-1","","","","","","","","","","","","",""
"psychophysics","30","220092","0.0-6.0-0.24","59922fa30675b100014daed4","6368f2eea3e9634aebcc2f6b","63691abb0007a7f776d49acf","1088.7999999523163","","","","37","","","","key","16.66604799999995","683","312.5","true","-1","129","6.291456","7","-1","-1","","","","","","","","","","","","",""
"psychophysics","31","221815","0.0-6.0-0.25","59922fa30675b100014daed4","6368f2eea3e9634aebcc2f6b","63691abb0007a7f776d49acf","711.5999999046326","","","","39","","","","key","16.665431372548838","683","312.5","true","1","129","6.291456","7","-1","-1","","","","","","","","","","","","",""
"psychophysics","32","224192","0.0-6.0-0.26","59922fa30675b100014daed4","6368f2eea3e9634aebcc2f6b","63691abb0007a7f776d49acf","1374.5999999046326","","","","39","","","","key","16.666549295774608","683","312.5","true","-1","129","5.033164800000001","8","1","-1","","","","","","","","","","","","",""
"psychophysics","33","226189","0.0-6.0-0.27","59922fa30675b100014daed4","6368f2eea3e9634aebcc2f6b","63691abb0007a7f776d49acf","994.2000000476837","","","","39","","","","key","16.665697478991543","683","312.5","true","1","134.0331648","5.033164800000001","8","-1","1","","","","","","","","","","","","",""
"psychophysics","34","228760","0.0-6.0-0.28","59922fa30675b100014daed4","6368f2eea3e9634aebcc2f6b","63691abb0007a7f776d49acf","1557.3000001907349","","","","37","","","","key","16.66573202614372","683","312.5","true","-1","134.0331648","4.0265318400000005","9","-1","-1","","","","","","","","","","","","",""
"psychophysics","35","231456","0.0-6.0-0.29","59922fa30675b100014daed4","6368f2eea3e9634aebcc2f6b","63691abb0007a7f776d49acf","1689.9000000953674","","","","37","","","","key","16.66550931677017","683","312.5","true","1","130.00663296000002","3.2212254720000004","10","1","-1","","","","","","","","","","","","",""
"psychophysics","36","233380","0.0-6.0-0.30","59922fa30675b100014daed4","6368f2eea3e9634aebcc2f6b","63691abb0007a7f776d49acf","917.7999999523163","","","","39","","","","key","16.666245614035002","683","312.5","true","-1","133.227858432","3.2212254720000004","10","1","1","","","","","","","","","","","","",""
"psychophysics","37","234898","0.0-6.0-0.31","59922fa30675b100014daed4","6368f2eea3e9634aebcc2f6b","63691abb0007a7f776d49acf","511.7000000476837","","","","37","","","","key","16.666266666666747","683","312.5","true","-1","136.44908390400002","3.2212254720000004","10","-1","1","","","","","","","","","","","","",""
"psychophysics","38","236474","0.0-6.0-0.32","59922fa30675b100014daed4","6368f2eea3e9634aebcc2f6b","63691abb0007a7f776d49acf","570.9000000953674","","","","37","","","","key","16.665319148935946","683","312.5","true","-1","136.44908390400002","2.5769803776000004","11","-1","-1","","","","","","","","","","","","",""
"psychophysics","39","239257","0.0-6.0-0.33","59922fa30675b100014daed4","6368f2eea3e9634aebcc2f6b","63691abb0007a7f776d49acf","1779.2999999523163","","","","39","","","","key","16.666475903614515","683","312.5","true","-1","133.87210352640002","2.0615843020800004","12","1","-1","","","","","","","","","","","","",""
"psychophysics","40","240756","0.0-6.0-0.34","59922fa30675b100014daed4","6368f2eea3e9634aebcc2f6b","63691abb0007a7f776d49acf","486.09999990463257","","","","37","","","","key","16.66571910112339","683","312.5","true","-1","135.93368782848003","2.0615843020800004","12","-1","1","","","","","","","","","","","","",""
"psychophysics","41","242434","0.0-6.0-0.35","59922fa30675b100014daed4","6368f2eea3e9634aebcc2f6b","63691abb0007a7f776d49acf","664.2999999523163","","","","37","","","","key","16.665797979797876","683","312.5","true","-1","135.93368782848003","1.6492674416640005","13","-1","-1","","","","","","","","","","","","",""
"psychophysics","42","244023","0.0-6.0-0.36","59922fa30675b100014daed4","6368f2eea3e9634aebcc2f6b","63691abb0007a7f776d49acf","577.9000000953674","","","","37","","","","key","16.665821052631546","683","312.5","true","-1","134.28442038681604","1.6492674416640005","13","-1","-1","","","","","","","","","","","","",""
"psychophysics","43","245641","0.0-6.0-0.37","59922fa30675b100014daed4","6368f2eea3e9634aebcc2f6b","63691abb0007a7f776d49acf","608.2000000476837","","","","37","","","","key","16.665427083333572","683","312.5","true","-1","134.28442038681604","1.6492674416640005","13","-1","-1","","","","","","","","","","","","",""
"psychophysics","44","247447","0.0-6.0-0.38","59922fa30675b100014daed4","6368f2eea3e9634aebcc2f6b","63691abb0007a7f776d49acf","803.5999999046326","","","","39","","","","key","16.66633644859795","683","312.5","true","1","132.63515294515204","1.6492674416640005","13","-1","-1","","","","","","","","","","","","",""
"psychophysics","45","248893","0.0-6.0-0.39","59922fa30675b100014daed4","6368f2eea3e9634aebcc2f6b","63691abb0007a7f776d49acf","440.60000014305115","","","","39","","","","key","16.665209302325398","683","312.5","true","1","132.63515294515204","1.6492674416640005","13","-1","-1","","","","","","","","","","","","",""
"html-keyboard-response","46","253813","0.0-7.0","59922fa30675b100014daed4","6368f2eea3e9634aebcc2f6b","63691abb0007a7f776d49acf","4917.700000047684","<p>Well Done !</p><p>Prepare for a new block.</p><p>DON'T EXIT THE FULL SCREEN MODE</p><p>Press the Spacebar to start.</p>","","","32","","","","","","","","","","","","","","","true","133.4518409764864","","","","","","","","","","",""
"psychophysics","47","255323","0.0-8.0-0.0","59922fa30675b100014daed4","6368f2eea3e9634aebcc2f6b","63691abb0007a7f776d49acf","503.59999990463257","","","","37","","","","key","16.669153846153968","683","312.5","true","-1","180","30","0","-1","","","","","","","","","","","","","",""
"psychophysics","48","256921","0.0-8.0-0.1","59922fa30675b100014daed4","6368f2eea3e9634aebcc2f6b","63691abb0007a7f776d49acf","585.5","","","","37","","","","key","16.665126315789223","683","312.5","true","-1","180","30","0","-1","-1","","","","","","","","","","","","",""
"psychophysics","49","258606","0.0-8.0-0.2","59922fa30675b100014daed4","6368f2eea3e9634aebcc2f6b","63691abb0007a7f776d49acf","678.5999999046326","","","","37","","","","key","16.66412000000011","683","312.5","true","-1","150","30","0","-1","-1","","","","","","","","","","","","",""
"psychophysics","50","260576","0.0-8.0-0.3","59922fa30675b100014daed4","6368f2eea3e9634aebcc2f6b","63691abb0007a7f776d49acf","958.4000000953674","","","","37","","","","key","16.667111111111076","683","312.5","true","-1","150","30","0","-1","-1","","","","","","","","","","","","",""
"psychophysics","51","262164","0.0-8.0-0.4","59922fa30675b100014daed4","6368f2eea3e9634aebcc2f6b","63691abb0007a7f776d49acf","581.3000001907349","","","","37","","","","key","16.666606382978646","683","312.5","true","1","129","24","1","1","-1","","","","","","","","","","","","",""
"psychophysics","52","263672","0.0-8.0-0.5","59922fa30675b100014daed4","6368f2eea3e9634aebcc2f6b","63691abb0007a7f776d49acf","503.2000000476837","","","","39","","","","key","16.666411111110616","683","312.5","true","1","153","24","1","-1","1","","","","","","","","","","","","",""
"psychophysics","53","265218","0.0-8.0-0.6","59922fa30675b100014daed4","6368f2eea3e9634aebcc2f6b","63691abb0007a7f776d49acf","532.9000000953674","","","","37","","","","key","16.664934065934286","683","312.5","true","-1","153","19.2","2","-1","-1","","","","","","","","","","","","",""
"psychophysics","54","266971","0.0-8.0-0.7","59922fa30675b100014daed4","6368f2eea3e9634aebcc2f6b","63691abb0007a7f776d49acf","743.4000000953674","","","","39","","","","key","16.66623809523825","683","312.5","true","1","133.8","19.2","2","-1","-1","","","","","","","","","","","","",""
"psychophysics","55","268762","0.0-8.0-0.8","59922fa30675b100014daed4","6368f2eea3e9634aebcc2f6b","63691abb0007a7f776d49acf","785.2999999523163","","","","39","","","","key","16.664971698112872","683","312.5","true","1","133.8","19.2","2","-1","-1","","","","","","","","","","","","",""
"psychophysics","56","270546","0.0-8.0-0.9","59922fa30675b100014daed4","6368f2eea3e9634aebcc2f6b","63691abb0007a7f776d49acf","778.3999998569489","","","","37","","","","key","16.666509433962485","683","312.5","true","-1","129","19.2","2","-1","-1","","","","","","","","","","","","",""
"psychophysics","57","272681","0.0-8.0-0.10","59922fa30675b100014daed4","6368f2eea3e9634aebcc2f6b","63691abb0007a7f776d49acf","1130.5999999046326","","","","37","","","","key","16.66565354330709","683","312.5","true","-1","129","19.2","2","-1","-1","","","","","","","","","","","","",""
"psychophysics","58","274793","0.0-8.0-0.11","59922fa30675b100014daed4","6368f2eea3e9634aebcc2f6b","63691abb0007a7f776d49acf","1108.7000000476837","","","","39","","","","key","16.665468253968154","683","312.5","true","-1","129","15.36","3","1","-1","","","","","","","","","","","","",""
"psychophysics","59","276525","0.0-8.0-0.12","59922fa30675b100014daed4","6368f2eea3e9634aebcc2f6b","63691abb0007a7f776d49acf","730.7000000476837","","","","39","","","","key","16.66709708737874","683","312.5","true","1","144.36","15.36","3","-1","1","","","","","","","","","","","","",""
"psychophysics","60","278249","0.0-8.0-0.13","59922fa30675b100014daed4","6368f2eea3e9634aebcc2f6b","63691abb0007a7f776d49acf","721.1000001430511","","","","39","","","","key","16.666058823529646","683","312.5","true","1","144.36","12.287999999999998","4","-1","-1","","","","","","","","","","","","",""
"psychophysics","61","279927","0.0-8.0-0.14","59922fa30675b100014daed4","6368f2eea3e9634aebcc2f6b","63691abb0007a7f776d49acf","674.7999999523163","","","","37","","","","key","16.666570000000064","683","312.5","true","1","132.072","9.8304","5","1","-1","","","","","","","","","","","","",""
"psychophysics","62","281473","0.0-8.0-0.15","59922fa30675b100014daed4","6368f2eea3e9634aebcc2f6b","63691abb0007a7f776d49acf","539.2000000476837","","","","39","","","","key","16.665565217391503","683","312.5","true","1","141.9024","9.8304","5","-1","1","","","","","","","","","","","","",""
"psychophysics","63","282981","0.0-8.0-0.16","59922fa30675b100014daed4","6368f2eea3e9634aebcc2f6b","63691abb0007a7f776d49acf","504.69999980926514","","","","37","","","","key","16.666707865168533","683","312.5","true","-1","141.9024","7.864319999999999","6","-1","-1","","","","","","","","","","","","",""
"psychophysics","64","284671","0.0-8.0-0.17","59922fa30675b100014daed4","6368f2eea3e9634aebcc2f6b","63691abb0007a7f776d49acf","688.1000001430511","","","","39","","","","key","16.666237623762168","683","312.5","true","1","134.03808","7.864319999999999","6","-1","-1","","","","","","","","","","","","",""
"psychophysics","65","286470","0.0-8.0-0.18","59922fa30675b100014daed4","6368f2eea3e9634aebcc2f6b","63691abb0007a7f776d49acf","786.6999998092651","","","","39","","","","key","16.66621495327079","683","312.5","true","1","134.03808","7.864319999999999","6","-1","-1","","","","","","","","","","","","",""
"psychophysics","66","288198","0.0-8.0-0.19","59922fa30675b100014daed4","6368f2eea3e9634aebcc2f6b","63691abb0007a7f776d49acf","714.6999998092651","","","","39","","","","key","16.66562745098011","683","312.5","true","-1","129","6.291456","7","1","-1","","","","","","","","","","","","",""
"psychophysics","67","289965","0.0-8.0-0.20","59922fa30675b100014daed4","6368f2eea3e9634aebcc2f6b","63691abb0007a7f776d49acf","766","","","","39","","","","key","16.667609523809958","683","312.5","true","-1","135.291456","6.291456","7","1","1","","","","","","","","","","","","",""
"psychophysics","68","291827","0.0-8.0-0.21","59922fa30675b100014daed4","6368f2eea3e9634aebcc2f6b","63691abb0007a7f776d49acf","846.7000000476837","","","","39","","","","key","16.66645945945958","683","312.5","true","1","141.58291200000002","6.291456","7","-1","1","","","","","","","","","","","","",""
"psychophysics","69","293355","0.0-8.0-0.22","59922fa30675b100014daed4","6368f2eea3e9634aebcc2f6b","63691abb0007a7f776d49acf","522.2999999523163","","","","37","","","","key","16.66707692307722","683","312.5","true","-1","141.58291200000002","5.033164800000001","8","-1","-1","","","","","","","","","","","","",""
"psychophysics","70","294964","0.0-8.0-0.23","59922fa30675b100014daed4","6368f2eea3e9634aebcc2f6b","63691abb0007a7f776d49acf","605.3999998569489","","","","39","","","","key","16.66578947368421","683","312.5","true","1","136.5497472","5.033164800000001","8","-1","-1","","","","","","","","","","","","",""
"psychophysics","71","296575","0.0-8.0-0.24","59922fa30675b100014daed4","6368f2eea3e9634aebcc2f6b","63691abb0007a7f776d49acf","607.6999998092651","","","","39","","","","key","16.666093749999465","683","312.5","true","1","136.5497472","5.033164800000001","8","-1","-1","","","","","","","","","","","","",""
"psychophysics","72","298770","0.0-8.0-0.25","59922fa30675b100014daed4","6368f2eea3e9634aebcc2f6b","63691abb0007a7f776d49acf","1187.2999999523163","","","","39","","","","key","16.665320610687072","683","312.5","true","1","131.5165824","5.033164800000001","8","-1","-1","","","","","","","","","","","","",""
"psychophysics","73","302004","0.0-8.0-0.26","59922fa30675b100014daed4","6368f2eea3e9634aebcc2f6b","63691abb0007a7f776d49acf","2230.2999999523163","","","","39","","","","key","16.666020725388382","683","312.5","true","1","131.5165824","5.033164800000001","8","-1","-1","","","","","","","","","","","","",""
"psychophysics","74","303347","0.0-8.0-0.27","59922fa30675b100014daed4","6368f2eea3e9634aebcc2f6b","63691abb0007a7f776d49acf","336.2000000476837","","","","37","","","","key","16.667265822784533","683","312.5","true","-1","129","5.033164800000001","8","-1","-1","","","","","","","","","","","","",""
"psychophysics","75","304969","0.0-8.0-0.28","59922fa30675b100014daed4","6368f2eea3e9634aebcc2f6b","63691abb0007a7f776d49acf","594.3999998569489","","","","37","","","","key","16.666247422680303","683","312.5","true","-1","129","5.033164800000001","8","-1","-1","","","","","","","","","","","","",""
"psychophysics","76","306566","0.0-8.0-0.29","59922fa30675b100014daed4","6368f2eea3e9634aebcc2f6b","63691abb0007a7f776d49acf","583.8999998569489","","","","39","","","","key","16.66569148936121","683","312.5","true","1","129","5.033164800000001","8","-1","-1","","","","","","","","","","","","",""
"psychophysics","77","308035","0.0-8.0-0.30","59922fa30675b100014daed4","6368f2eea3e9634aebcc2f6b","63691abb0007a7f776d49acf","452.7000000476837","","","","39","","","","key","16.666261363636295","683","312.5","true","-1","129","4.0265318400000005","9","1","-1","","","","","","","","","","","","",""
"psychophysics","78","309703","0.0-8.0-0.31","59922fa30675b100014daed4","6368f2eea3e9634aebcc2f6b","63691abb0007a7f776d49acf","654.2999999523163","","","","37","","","","key","16.665606060606247","683","312.5","true","-1","133.02653184","4.0265318400000005","9","-1","1","","","","","","","","","","","","",""
"psychophysics","79","312104","0.0-8.0-0.32","59922fa30675b100014daed4","6368f2eea3e9634aebcc2f6b","63691abb0007a7f776d49acf","1389.1000001430511","","","","37","","","","key","16.666258741258904","683","312.5","true","1","133.02653184","3.2212254720000004","10","1","-1","","","","","","","","","","","","",""
"psychophysics","80","314792","0.0-8.0-0.33","59922fa30675b100014daed4","6368f2eea3e9634aebcc2f6b","63691abb0007a7f776d49acf","1676.7999999523163","","","","37","","","","key","16.66567499999983","683","312.5","true","1","136.24775731199998","3.2212254720000004","10","1","1","","","","","","","","","","","","",""
"psychophysics","81","316497","0.0-8.0-0.34","59922fa30675b100014daed4","6368f2eea3e9634aebcc2f6b","63691abb0007a7f776d49acf","699","","","","37","","","","key","16.665831683168424","683","312.5","true","-1","139.468982784","3.2212254720000004","10","-1","1","","","","","","","","","","","","",""
"psychophysics","82","318414","0.0-8.0-0.35","59922fa30675b100014daed4","6368f2eea3e9634aebcc2f6b","63691abb0007a7f776d49acf","903","","","","37","","","","key","16.66540350877167","683","312.5","true","-1","139.468982784","2.5769803776000004","11","-1","-1","","","","","","","","","","","","",""
"psychophysics","83","320498","0.0-8.0-0.36","59922fa30675b100014daed4","6368f2eea3e9634aebcc2f6b","63691abb0007a7f776d49acf","1073","","","","37","","","","key","16.6667741935488","683","312.5","true","1","136.8920024064","2.0615843020800004","12","1","-1","","","","","","","","","","","","",""
"psychophysics","84","322363","0.0-8.0-0.37","59922fa30675b100014daed4","6368f2eea3e9634aebcc2f6b","63691abb0007a7f776d49acf","858.5","","","","39","","","","key","16.666162162162323","683","312.5","true","1","138.95358670848","2.0615843020800004","12","-1","1","","","","","","","","","","","","",""
"psychophysics","85","323747","0.0-8.0-0.38","59922fa30675b100014daed4","6368f2eea3e9634aebcc2f6b","63691abb0007a7f776d49acf","380.90000009536743","","","","37","","","","key","16.66640243902462","683","312.5","true","-1","138.95358670848","1.6492674416640005","13","-1","-1","","","","","","","","","","","","",""
"psychophysics","86","325369","0.0-8.0-0.39","59922fa30675b100014daed4","6368f2eea3e9634aebcc2f6b","63691abb0007a7f776d49acf","613.1999998092651","","","","37","","","","key","16.665783505154696","683","312.5","true","-1","137.304319266816","1.6492674416640005","13","-1","-1","","","","","","","","","","","","",""
"html-keyboard-response","87","328880","0.0-9.0","59922fa30675b100014daed4","6368f2eea3e9634aebcc2f6b","63691abb0007a7f776d49acf","3509.2999999523163","<p>Well Done !</p><p>Prepare for a new block.</p><p>DON'T EXIT THE FULL SCREEN MODE</p><p>Press the Spacebar to start.</p>","","","32","","","","","","","","","","","","","","","true","134.1583630966784","","","","","","","","","","",""
"psychophysics","88","329978","0.0-10.0-0.0","59922fa30675b100014daed4","6368f2eea3e9634aebcc2f6b","63691abb0007a7f776d49acf","92.59999990463257","","","","39","","","","key","16.669800000000173","683","312.5","true","1","180","30","0","-1","","","","","","","","","","","","","",""
"psychophysics","89","331023","0.0-10.0-0.1","59922fa30675b100014daed4","6368f2eea3e9634aebcc2f6b","63691abb0007a7f776d49acf","42.40000009536743","","","","37","","","","key","16.66683870967714","683","312.5","true","-1","180","30","0","-1","-1","","","","","","","","","","","","",""
"psychophysics","90","332175","0.0-10.0-0.2","59922fa30675b100014daed4","6368f2eea3e9634aebcc2f6b","63691abb0007a7f776d49acf","144.69999980926514","","","","37","","","","key","16.665279411764725","683","312.5","true","-1","150","30","0","-1","-1","","","","","","","","","","","","",""
"psychophysics","91","333596","0.0-10.0-0.3","59922fa30675b100014daed4","6368f2eea3e9634aebcc2f6b","63691abb0007a7f776d49acf","416.10000014305115","","","","37","","","","key","16.66579761904792","683","312.5","true","-1","150","30","0","-1","-1","","","","","","","","","","","","",""
"psychophysics","92","335135","0.0-10.0-0.4","59922fa30675b100014daed4","6368f2eea3e9634aebcc2f6b","63691abb0007a7f776d49acf","536","","","","37","","","","key","16.665521739130465","683","312.5","true","-1","129","30","0","-1","-1","","","","","","","","","","","","",""
"psychophysics","93","337212","0.0-10.0-0.5","59922fa30675b100014daed4","6368f2eea3e9634aebcc2f6b","63691abb0007a7f776d49acf","1064.6000001430511","","","","39","","","","key","16.667268292683108","683","312.5","true","-1","129","24","1","1","-1","","","","","","","","","","","","",""
"psychophysics","94","338696","0.0-10.0-0.6","59922fa30675b100014daed4","6368f2eea3e9634aebcc2f6b","63691abb0007a7f776d49acf","482.2000000476837","","","","37","","","","key","16.66634090909131","683","312.5","true","-1","153","24","1","-1","1","","","","","","","","","","","","",""
"psychophysics","95","340163","0.0-10.0-0.7","59922fa30675b100014daed4","6368f2eea3e9634aebcc2f6b","63691abb0007a7f776d49acf","461.90000009536743","","","","39","","","","key","16.66606896551762","683","312.5","true","1","153","19.2","2","-1","-1","","","","","","","","","","","","",""
"psychophysics","96","341640","0.0-10.0-0.8","59922fa30675b100014daed4","6368f2eea3e9634aebcc2f6b","63691abb0007a7f776d49acf","463.7999999523163","","","","39","","","","key","16.66625000000005","683","312.5","true","1","133.8","19.2","2","-1","-1","","","","","","","","","","","","",""
"psychophysics","97","343553","0.0-10.0-0.9","59922fa30675b100014daed4","6368f2eea3e9634aebcc2f6b","63691abb0007a7f776d49acf","909.9000000953674","","","","37","","","","key","16.666429824561387","683","312.5","true","1","133.8","15.36","3","1","-1","","","","","","","","","","","","",""
"psychophysics","98","345030","0.0-10.0-0.10","59922fa30675b100014daed4","6368f2eea3e9634aebcc2f6b","63691abb0007a7f776d49acf","465.89999985694885","","","","39","","","","key","16.66480459770102","683","312.5","true","1","149.16000000000003","15.36","3","-1","1","","","","","","","","","","","","",""
"psychophysics","99","346479","0.0-10.0-0.11","59922fa30675b100014daed4","6368f2eea3e9634aebcc2f6b","63691abb0007a7f776d49acf","439.10000014305115","","","","37","","","","key","16.66722093023249","683","312.5","true","-1","149.16000000000003","12.287999999999998","4","-1","-1","","","","","","","","","","","","",""
"psychophysics","100","348018","0.0-10.0-0.12","59922fa30675b100014daed4","6368f2eea3e9634aebcc2f6b","63691abb0007a7f776d49acf","535.8999998569489","","","","37","","","","key","16.666293478260858","683","312.5","true","-1","136.872","12.287999999999998","4","-1","-1","","","","","","","","","","","","",""
"psychophysics","101","349707","0.0-10.0-0.13","59922fa30675b100014daed4","6368f2eea3e9634aebcc2f6b","63691abb0007a7f776d49acf","682.7000000476837","","","","37","","","","key","16.665219999999973","683","312.5","true","-1","136.872","12.287999999999998","4","-1","-1","","","","","","","","","","","","",""
"psychophysics","102","351358","0.0-10.0-0.14","59922fa30675b100014daed4","6368f2eea3e9634aebcc2f6b","63691abb0007a7f776d49acf","647.3999998569489","","","","39","","","","key","16.66579591836697","683","312.5","true","-1","129","9.8304","5","1","-1","","","","","","","","","","","","",""
"psychophysics","103","352898","0.0-10.0-0.15","59922fa30675b100014daed4","6368f2eea3e9634aebcc2f6b","63691abb0007a7f776d49acf","536.2999999523163","","","","39","","","","key","16.665791208791205","683","312.5","true","1","138.8304","9.8304","5","-1","1","","","","","","","","","","","","",""
"psychophysics","104","354496","0.0-10.0-0.16","59922fa30675b100014daed4","6368f2eea3e9634aebcc2f6b","63691abb0007a7f776d49acf","585.5","","","","39","","","","key","16.66670526315789","683","312.5","true","1","138.8304","7.864319999999999","6","-1","-1","","","","","","","","","","","","",""
"psychophysics","105","356026","0.0-10.0-0.17","59922fa30675b100014daed4","6368f2eea3e9634aebcc2f6b","63691abb0007a7f776d49acf","512.2000000476837","","","","37","","","","key","16.666582417582255","683","312.5","true","-1","130.96608","7.864319999999999","6","-1","-1","","","","","","","","","","","","",""
"psychophysics","106","357621","0.0-10.0-0.18","59922fa30675b100014daed4","6368f2eea3e9634aebcc2f6b","63691abb0007a7f776d49acf","587.8000001907349","","","","37","","","","key","16.665168421053156","683","312.5","true","1","130.96608","6.291456","7","1","-1","","","","","","","","","","","","",""
"psychophysics","107","360458","0.0-10.0-0.19","59922fa30675b100014daed4","6368f2eea3e9634aebcc2f6b","63691abb0007a7f776d49acf","1827.2999999523163","","","","37","","","","key","16.66449112426035","683","312.5","true","-1","137.25753600000002","6.291456","7","-1","1","","","","","","","","","","","","",""
"psychophysics","108","362676","0.0-10.0-0.20","59922fa30675b100014daed4","6368f2eea3e9634aebcc2f6b","63691abb0007a7f776d49acf","1213.3999998569489","","","","37","","","","key","16.666378787878784","683","312.5","true","1","137.25753600000002","5.033164800000001","8","1","-1","","","","","","","","","","","","",""
"psychophysics","109","363927","0.0-10.0-0.21","59922fa30675b100014daed4","6368f2eea3e9634aebcc2f6b","63691abb0007a7f776d49acf","246.5","","","","39","","","","key","16.66737837837836","683","312.5","true","1","142.29070080000002","5.033164800000001","8","-1","1","","","","","","","","","","","","",""
"psychophysics","110","365426","0.0-10.0-0.22","59922fa30675b100014daed4","6368f2eea3e9634aebcc2f6b","63691abb0007a7f776d49acf","495.7000000476837","","","","37","","","","key","16.666730337078405","683","312.5","true","-1","142.29070080000002","4.0265318400000005","9","-1","-1","","","","","","","","","","","","",""
"psychophysics","111","367076","0.0-10.0-0.23","59922fa30675b100014daed4","6368f2eea3e9634aebcc2f6b","63691abb0007a7f776d49acf","646.1000001430511","","","","37","","","","key","16.66134693877586","683","312.5","true","-1","138.26416896000003","4.0265318400000005","9","-1","-1","","","","","","","","","","","","",""
"psychophysics","112","368657","0.0-10.0-0.24","59922fa30675b100014daed4","6368f2eea3e9634aebcc2f6b","63691abb0007a7f776d49acf","577.5999999046326","","","","37","","","","key","16.66559574468076","683","312.5","true","-1","138.26416896000003","4.0265318400000005","9","-1","-1","","","","","","","","","","","","",""
"psychophysics","113","370638","0.0-10.0-0.25","59922fa30675b100014daed4","6368f2eea3e9634aebcc2f6b","63691abb0007a7f776d49acf","975.3999998569489","","","","39","","","","key","16.665381355931828","683","312.5","true","1","134.23763712000004","4.0265318400000005","9","-1","-1","","","","","","","","","","","","",""
"psychophysics","114","372250","0.0-10.0-0.26","59922fa30675b100014daed4","6368f2eea3e9634aebcc2f6b","63691abb0007a7f776d49acf","605.9000000953674","","","","39","","","","key","16.665114583333587","683","312.5","true","1","134.23763712000004","4.0265318400000005","9","-1","-1","","","","","","","","","","","","",""
"psychophysics","115","374080","0.0-10.0-0.27","59922fa30675b100014daed4","6368f2eea3e9634aebcc2f6b","63691abb0007a7f776d49acf","819.2999999523163","","","","39","","","","key","16.666009174312205","683","312.5","true","-1","130.21110528000006","3.2212254720000004","10","1","-1","","","","","","","","","","","","",""
"psychophysics","116","375589","0.0-10.0-0.28","59922fa30675b100014daed4","6368f2eea3e9634aebcc2f6b","63691abb0007a7f776d49acf","496.2000000476837","","","","37","","","","key","16.66752808988735","683","312.5","true","1","133.43233075200004","3.2212254720000004","10","1","1","","","","","","","","","","","","",""
"psychophysics","117","377477","0.0-10.0-0.29","59922fa30675b100014daed4","6368f2eea3e9634aebcc2f6b","63691abb0007a7f776d49acf","881.4000000953674","","","","37","","","","key","16.665357142856788","683","312.5","true","-1","136.65355622400006","3.2212254720000004","10","-1","1","","","","","","","","","","","","",""
"psychophysics","118","379672","0.0-10.0-0.30","59922fa30675b100014daed4","6368f2eea3e9634aebcc2f6b","63691abb0007a7f776d49acf","1192.4000000953674","","","","37","","","","key","16.666351145037844","683","312.5","true","1","136.65355622400006","2.5769803776000004","11","1","-1","","","","","","","","","","","","",""
"psychophysics","119","381274","0.0-10.0-0.31","59922fa30675b100014daed4","6368f2eea3e9634aebcc2f6b","63691abb0007a7f776d49acf","595.7000000476837","","","","37","","","","key","16.66681052631527","683","312.5","true","-1","139.23053660160005","2.5769803776000004","11","-1","1","","","","","","","","","","","","",""
"psychophysics","120","383153","0.0-10.0-0.32","59922fa30675b100014daed4","6368f2eea3e9634aebcc2f6b","63691abb0007a7f776d49acf","873.7000000476837","","","","37","","","","key","16.665437500000344","683","312.5","true","-1","139.23053660160005","2.0615843020800004","12","-1","-1","","","","","","","","","","","","",""
"psychophysics","121","384867","0.0-10.0-0.33","59922fa30675b100014daed4","6368f2eea3e9634aebcc2f6b","63691abb0007a7f776d49acf","712.5","","","","37","","","","key","16.66700980392189","683","312.5","true","1","137.16895229952004","1.6492674416640005","13","1","-1","","","","","","","","","","","","",""
"psychophysics","122","386346","0.0-10.0-0.34","59922fa30675b100014daed4","6368f2eea3e9634aebcc2f6b","63691abb0007a7f776d49acf","472.60000014305115","","","","39","","","","key","16.665413793103486","683","312.5","true","1","138.81821974118404","1.6492674416640005","13","-1","1","","","","","","","","","","","","",""
"psychophysics","123","387955","0.0-10.0-0.35","59922fa30675b100014daed4","6368f2eea3e9634aebcc2f6b","63691abb0007a7f776d49acf","602.2000000476837","","","","39","","","","key","16.664781250000186","683","312.5","true","1","138.81821974118404","1.3194139533312006","14","-1","-1","","","","","","","","","","","","",""
"psychophysics","124","389950","0.0-10.0-0.36","59922fa30675b100014daed4","6368f2eea3e9634aebcc2f6b","63691abb0007a7f776d49acf","991.6999998092651","","","","37","","","","key","16.666647058823575","683","312.5","true","-1","137.49880578785283","1.3194139533312006","14","-1","-1","","","","","","","","","","","","",""
"psychophysics","125","391757","0.0-10.0-0.37","59922fa30675b100014daed4","6368f2eea3e9634aebcc2f6b","63691abb0007a7f776d49acf","802","","","","37","","","","key","16.66546728971978","683","312.5","true","1","137.49880578785283","1.0555311626649604","15","1","-1","","","","","","","","","","","","",""
"psychophysics","126","393683","0.0-10.0-0.38","59922fa30675b100014daed4","6368f2eea3e9634aebcc2f6b","63691abb0007a7f776d49acf","920.7999999523163","","","","39","","","","key","16.666052173913215","683","312.5","true","1","138.55433695051778","1.0555311626649604","15","-1","1","","","","","","","","","","","","",""
"psychophysics","127","395221","0.0-10.0-0.39","59922fa30675b100014daed4","6368f2eea3e9634aebcc2f6b","63691abb0007a7f776d49acf","528.5","","","","39","","","","key","16.665725274725336","683","312.5","true","1","138.55433695051778","1","16","-1","-1","","","","","","","","","","","","",""
"html-keyboard-response","128","399521","0.0-11.0","59922fa30675b100014daed4","6368f2eea3e9634aebcc2f6b","63691abb0007a7f776d49acf","4297.900000095367","<p>Well Done !</p><p>Prepare for a new block.</p><p>DON'T EXIT THE FULL SCREEN MODE</p><p>Press the Spacebar to start.</p>","","","32","","","","","","","","","","","","","","","true","136.7199048787887","","","","","","","","","","",""
"psychophysics","129","400576","0.0-12.0-0.0","59922fa30675b100014daed4","6368f2eea3e9634aebcc2f6b","63691abb0007a7f776d49acf","47.200000047683716","","","","37","","","","key","16.669412698412852","683","312.5","true","-1","180","30","0","-1","","","","","","","","","","","","","",""
"psychophysics","130","401595","0.0-12.0-0.1","59922fa30675b100014daed4","6368f2eea3e9634aebcc2f6b","63691abb0007a7f776d49acf","15.200000047683716","","","","37","","","","key","16.665833333333527","683","312.5","true","-1","180","30","0","-1","-1","","","","","","","","","","","","",""
"psychophysics","131","402823","0.0-12.0-0.2","59922fa30675b100014daed4","6368f2eea3e9634aebcc2f6b","63691abb0007a7f776d49acf","220.20000004768372","","","","37","","","","key","16.665547945205766","683","312.5","true","-1","150","30","0","-1","-1","","","","","","","","","","","","",""
"psychophysics","132","404129","0.0-12.0-0.3","59922fa30675b100014daed4","6368f2eea3e9634aebcc2f6b","63691abb0007a7f776d49acf","301.39999985694885","","","","37","","","","key","16.665461538461013","683","312.5","true","-1","150","30","0","-1","-1","","","","","","","","","","","","",""
"psychophysics","133","406192","0.0-12.0-0.4","59922fa30675b100014daed4","6368f2eea3e9634aebcc2f6b","63691abb0007a7f776d49acf","1047.8000001907349","","","","37","","","","key","16.66669672131147","683","312.5","true","1","129","24","1","1","-1","","","","","","","","","","","","",""
"psychophysics","134","407402","0.0-12.0-0.5","59922fa30675b100014daed4","6368f2eea3e9634aebcc2f6b","63691abb0007a7f776d49acf","207.60000014305115","","","","39","","","","key","16.66754166666619","683","312.5","true","1","153","24","1","-1","1","","","","","","","","","","","","",""
"psychophysics","135","408616","0.0-12.0-0.6","59922fa30675b100014daed4","6368f2eea3e9634aebcc2f6b","63691abb0007a7f776d49acf","205.79999995231628","","","","37","","","","key","16.66641666666611","683","312.5","true","-1","153","19.2","2","-1","-1","","","","","","","","","","","","",""
"psychophysics","136","410658","0.0-12.0-0.7","59922fa30675b100014daed4","6368f2eea3e9634aebcc2f6b","63691abb0007a7f776d49acf","1031.1000001430511","","","","39","","","","key","16.664214876033018","683","312.5","true","-1","133.8","15.36","3","1","-1","","","","","","","","","","","","",""
"psychophysics","137","412108","0.0-12.0-0.8","59922fa30675b100014daed4","6368f2eea3e9634aebcc2f6b","63691abb0007a7f776d49acf","447","","","","37","","","","key","16.667000000000264","683","312.5","true","-1","149.16000000000003","15.36","3","-1","1","","","","","","","","","","","","",""
"psychophysics","138","413542","0.0-12.0-0.9","59922fa30675b100014daed4","6368f2eea3e9634aebcc2f6b","63691abb0007a7f776d49acf","431.7999999523163","","","","39","","","","key","16.66550588235259","683","312.5","true","1","149.16000000000003","12.287999999999998","4","-1","-1","","","","","","","","","","","","",""
"psychophysics","139","415083","0.0-12.0-0.10","59922fa30675b100014daed4","6368f2eea3e9634aebcc2f6b","63691abb0007a7f776d49acf","526.2999999523163","","","","39","","","","key","16.66632608695616","683","312.5","true","1","136.872","12.287999999999998","4","-1","-1","","","","","","","","","","","","",""
"psychophysics","140","416541","0.0-12.0-0.11","59922fa30675b100014daed4","6368f2eea3e9634aebcc2f6b","63691abb0007a7f776d49acf","447.7000000476837","","","","37","","","","key","16.665767441860396","683","312.5","true","-1","136.872","12.287999999999998","4","-1","-1","","","","","","","","","","","","",""
"psychophysics","141","418231","0.0-12.0-0.12","59922fa30675b100014daed4","6368f2eea3e9634aebcc2f6b","63691abb0007a7f776d49acf","685.8999998569489","","","","37","","","","key","16.666237623762168","683","312.5","true","1","129","9.8304","5","1","-1","","","","","","","","","","","","",""
"psychophysics","142","419681","0.0-12.0-0.13","59922fa30675b100014daed4","6368f2eea3e9634aebcc2f6b","63691abb0007a7f776d49acf","442.59999990463257","","","","39","","","","key","16.664604651162993","683","312.5","true","1","138.8304","9.8304","5","-1","1","","","","","","","","","","","","",""
"psychophysics","143","420907","0.0-12.0-0.14","59922fa30675b100014daed4","6368f2eea3e9634aebcc2f6b","63691abb0007a7f776d49acf","217.90000009536743","","","","37","","","","key","16.667458333332938","683","312.5","true","-1","138.8304","7.864319999999999","6","-1","-1","","","","","","","","","","","","",""
"psychophysics","144","423142","0.0-12.0-0.15","59922fa30675b100014daed4","6368f2eea3e9634aebcc2f6b","63691abb0007a7f776d49acf","1231.7999999523163","","","","37","","","","key","16.665609022556048","683","312.5","true","-1","130.96608","7.864319999999999","6","-1","-1","","","","","","","","","","","","",""
"psychophysics","145","424849","0.0-12.0-0.16","59922fa30675b100014daed4","6368f2eea3e9634aebcc2f6b","63691abb0007a7f776d49acf","704","","","","39","","","","key","16.666921568627576","683","312.5","true","-1","130.96608","6.291456","7","1","-1","","","","","","","","","","","","",""
"psychophysics","146","426275","0.0-12.0-0.17","59922fa30675b100014daed4","6368f2eea3e9634aebcc2f6b","63691abb0007a7f776d49acf","416.39999985694885","","","","39","","","","key","16.66641666666657","683","312.5","true","1","137.25753600000002","6.291456","7","-1","1","","","","","","","","","","","","",""
"psychophysics","147","427888","0.0-12.0-0.18","59922fa30675b100014daed4","6368f2eea3e9634aebcc2f6b","63691abb0007a7f776d49acf","609.4000000953674","","","","37","","","","key","16.665520833332874","683","312.5","true","-1","137.25753600000002","5.033164800000001","8","-1","-1","","","","","","","","","","","","",""
"psychophysics","148","430714","0.0-12.0-0.19","59922fa30675b100014daed4","6368f2eea3e9634aebcc2f6b","63691abb0007a7f776d49acf","1820.9000000953674","","","","39","","","","key","16.666207100591585","683","312.5","true","1","132.2243712","5.033164800000001","8","-1","-1","","","","","","","","","","","","",""
"psychophysics","149","432604","0.0-12.0-0.20","59922fa30675b100014daed4","6368f2eea3e9634aebcc2f6b","63691abb0007a7f776d49acf","877.8000001907349","","","","37","","","","key","16.665241071428422","683","312.5","true","1","132.2243712","4.0265318400000005","9","1","-1","","","","","","","","","","","","",""
"psychophysics","150","434336","0.0-12.0-0.21","59922fa30675b100014daed4","6368f2eea3e9634aebcc2f6b","63691abb0007a7f776d49acf","727.0999999046326","","","","37","","","","key","16.66542718446592","683","312.5","true","1","136.25090304","4.0265318400000005","9","1","1","","","","","","","","","","","","",""
"psychophysics","151","435857","0.0-12.0-0.22","59922fa30675b100014daed4","6368f2eea3e9634aebcc2f6b","63691abb0007a7f776d49acf","517.5","","","","37","","","","key","16.667611111111345","683","312.5","true","-1","140.27743488","4.0265318400000005","9","-1","1","","","","","","","","","","","","",""
"psychophysics","152","437315","0.0-12.0-0.23","59922fa30675b100014daed4","6368f2eea3e9634aebcc2f6b","63691abb0007a7f776d49acf","454.60000014305115","","","","39","","","","key","16.666264367816385","683","312.5","true","1","140.27743488","3.2212254720000004","10","-1","-1","","","","","","","","","","","","",""
"psychophysics","153","438856","0.0-12.0-0.24","59922fa30675b100014daed4","6368f2eea3e9634aebcc2f6b","63691abb0007a7f776d49acf","530.2999999523163","","","","37","","","","key","16.66550549450599","683","312.5","true","-1","137.05620940799997","3.2212254720000004","10","-1","-1","","","","","","","","","","","","",""
"psychophysics","154","440380","0.0-12.0-0.25","59922fa30675b100014daed4","6368f2eea3e9634aebcc2f6b","63691abb0007a7f776d49acf","520.8999998569489","","","","37","","","","key","16.666604395604637","683","312.5","true","-1","137.05620940799997","3.2212254720000004","10","-1","-1","","","","","","","","","","","","",""
"psychophysics","155","442715","0.0-12.0-0.26","59922fa30675b100014daed4","6368f2eea3e9634aebcc2f6b","63691abb0007a7f776d49acf","1331.2999999523163","","","","39","","","","key","16.665812949640358","683","312.5","true","1","133.83498393599996","3.2212254720000004","10","-1","-1","","","","","","","","","","","","",""
"psychophysics","156","444939","0.0-12.0-0.27","59922fa30675b100014daed4","6368f2eea3e9634aebcc2f6b","63691abb0007a7f776d49acf","1213.4000000953674","","","","37","","","","key","16.66587878787885","683","312.5","true","1","133.83498393599996","2.5769803776000004","11","1","-1","","","","","","","","","","","","",""
"psychophysics","157","447295","0.0-12.0-0.28","59922fa30675b100014daed4","6368f2eea3e9634aebcc2f6b","63691abb0007a7f776d49acf","1352.2000000476837","","","","39","","","","key","16.66672340425554","683","312.5","true","1","136.41196431359995","2.5769803776000004","11","-1","1","","","","","","","","","","","","",""
"psychophysics","158","449713","0.0-12.0-0.29","59922fa30675b100014daed4","6368f2eea3e9634aebcc2f6b","63691abb0007a7f776d49acf","1403.4000000953674","","","","37","","","","key","16.665916666666615","683","312.5","true","-1","136.41196431359995","2.0615843020800004","12","-1","-1","","","","","","","","","","","","",""
"psychophysics","159","453237","0.0-12.0-0.30","59922fa30675b100014daed4","6368f2eea3e9634aebcc2f6b","63691abb0007a7f776d49acf","2511.2000000476837","","","","37","","","","key","16.66571904761922","683","312.5","true","-1","134.35038001151995","2.0615843020800004","12","-1","-1","","","","","","","","","","","","",""
"psychophysics","160","455231","0.0-12.0-0.31","59922fa30675b100014daed4","6368f2eea3e9634aebcc2f6b","63691abb0007a7f776d49acf","989.2000000476837","","","","37","","","","key","16.666218487394705","683","312.5","true","1","134.35038001151995","1.6492674416640005","13","1","-1","","","","","","","","","","","","",""
"psychophysics","161","456824","0.0-12.0-0.32","59922fa30675b100014daed4","6368f2eea3e9634aebcc2f6b","63691abb0007a7f776d49acf","583.7000000476837","","","","37","","","","key","16.66578723404227","683","312.5","true","-1","135.99964745318394","1.6492674416640005","13","-1","1","","","","","","","","","","","","",""
"psychophysics","162","458364","0.0-12.0-0.33","59922fa30675b100014daed4","6368f2eea3e9634aebcc2f6b","63691abb0007a7f776d49acf","527.2000000476837","","","","39","","","","key","16.666347826086998","683","312.5","true","1","135.99964745318394","1.3194139533312006","14","-1","-1","","","","","","","","","","","","",""
"psychophysics","163","460012","0.0-12.0-0.34","59922fa30675b100014daed4","6368f2eea3e9634aebcc2f6b","63691abb0007a7f776d49acf","637","","","","39","","","","key","16.665551020408035","683","312.5","true","1","134.68023349985273","1.3194139533312006","14","-1","-1","","","","","","","","","","","","",""
"psychophysics","164","461826","0.0-12.0-0.35","59922fa30675b100014daed4","6368f2eea3e9634aebcc2f6b","63691abb0007a7f776d49acf","808.1999998092651","","","","39","","","","key","16.66595327102788","683","312.5","true","1","134.68023349985273","1.3194139533312006","14","-1","-1","","","","","","","","","","","","",""
"psychophysics","165","463385","0.0-12.0-0.36","59922fa30675b100014daed4","6368f2eea3e9634aebcc2f6b","63691abb0007a7f776d49acf","544.2000000476837","","","","39","","","","key","16.66494623655879","683","312.5","true","1","133.36081954652153","1.3194139533312006","14","-1","-1","","","","","","","","","","","","",""
"psychophysics","166","464824","0.0-12.0-0.37","59922fa30675b100014daed4","6368f2eea3e9634aebcc2f6b","63691abb0007a7f776d49acf","432.2999999523163","","","","37","","","","key","16.666541176470105","683","312.5","true","-1","133.36081954652153","1.3194139533312006","14","-1","-1","","","","","","","","","","","","",""
"psychophysics","167","466695","0.0-12.0-0.38","59922fa30675b100014daed4","6368f2eea3e9634aebcc2f6b","63691abb0007a7f776d49acf","860.9000000953674","","","","37","","","","key","16.665187499999906","683","312.5","true","1","132.04140559319032","1.0555311626649604","15","1","-1","","","","","","","","","","","","",""
"psychophysics","168","468145","0.0-12.0-0.39","59922fa30675b100014daed4","6368f2eea3e9634aebcc2f6b","63691abb0007a7f776d49acf","446.60000014305115","","","","37","","","","key","16.66595348837206","683","312.5","true","-1","133.09693675585527","1.0555311626649604","15","-1","1","","","","","","","","","","","","",""
"html-keyboard-response","169","470005","0.0-13.0","59922fa30675b100014daed4","6368f2eea3e9634aebcc2f6b","63691abb0007a7f776d49acf","1858.2999999523163","<p>Well Done !</p><p>Prepare for a new block.</p><p>DON'T EXIT THE FULL SCREEN MODE</p><p>Press the Spacebar to start.</p>","","","32","","","","","","","","","","","","","","","true","134.63137395189344","","","","","","","","","","",""
"html-keyboard-response","170","470110","0.0-14.0","59922fa30675b100014daed4","6368f2eea3e9634aebcc2f6b","63691abb0007a7f776d49acf","null","","","","null","","","","","","","","","","","","","","","","","134.74037072596175","true","141.4807414519235","","","","","","","",""
"instructions","171","542647","0.0-15.0","59922fa30675b100014daed4","6368f2eea3e9634aebcc2f6b","63691abb0007a7f776d49acf","72535.09999990463","","","","","","","[{""page_index"":0,""viewing_time"":62322.299999952316},{""page_index"":1,""viewing_time"":5712.5},{""page_index"":2,""viewing_time"":4500}]","","","","","","","","","","","","","","","","","","","","","","","",""
"psychophysics","172","545666","0.0-16.0-0.0","59922fa30675b100014daed4","6368f2eea3e9634aebcc2f6b","63691abb0007a7f776d49acf","null","","","","null","","","","key","16.668000000001243","683","312.5","","","","","","","","","","","","","","","","","","","",""
"psychophysics","173","546170","0.0-16.0-1.0","59922fa30675b100014daed4","6368f2eea3e9634aebcc2f6b","63691abb0007a7f776d49acf","null","","","","null","","","","key","16.665965517244206","683","312.5","","","","","","","","","","","","","141","1","6","false","","","",""
"psychophysics","174","547185","0.0-16.0-2.0","59922fa30675b100014daed4","6368f2eea3e9634aebcc2f6b","63691abb0007a7f776d49acf","1010","","","","77","","","","key","16.667033333333286","683","312.5","","","","","","","","","","","","","","","","","","","",""
"psychophysics","175","548188","0.0-16.0-0.1","59922fa30675b100014daed4","6368f2eea3e9634aebcc2f6b","63691abb0007a7f776d49acf","null","","","","null","","","","key","16.665779661016256","683","312.5","","","","","","","","","","","","","","","","","","","",""
"psychophysics","176","548690","0.0-16.0-1.1","59922fa30675b100014daed4","6368f2eea3e9634aebcc2f6b","63691abb0007a7f776d49acf","null","","","","null","","","","key","16.66803333333228","683","312.5","","","","","","","","","","","","","141","-1","0","false","","","",""
"psychophysics","177","549220","0.0-16.0-2.1","59922fa30675b100014daed4","6368f2eea3e9634aebcc2f6b","63691abb0007a7f776d49acf","525.7999999523163","","","","90","","","","key","16.661933333333582","683","312.5","","","","","","","","","","","","","","","","","","","",""
"psychophysics","178","550222","0.0-16.0-0.2","59922fa30675b100014daed4","6368f2eea3e9634aebcc2f6b","63691abb0007a7f776d49acf","null","","","","null","","","","key","16.95413793103392","683","312.5","","","","","","","","","","","","","","","","","","","",""
"psychophysics","179","550725","0.0-16.0-1.2","59922fa30675b100014daed4","6368f2eea3e9634aebcc2f6b","63691abb0007a7f776d49acf","null","","","","null","","","","key","16.665166666665268","683","312.5","","","","","","","","","","","","","141","-1","5","false","","","",""
"psychophysics","180","551592","0.0-16.0-2.2","59922fa30675b100014daed4","6368f2eea3e9634aebcc2f6b","63691abb0007a7f776d49acf","863.6999998092651","","","","77","","","","key","16.66523529411814","683","312.5","","","","","","","","","","","","","","","","","","","",""
"psychophysics","181","552594","0.0-16.0-0.3","59922fa30675b100014daed4","6368f2eea3e9634aebcc2f6b","63691abb0007a7f776d49acf","null","","","","null","","","","key","16.95293103448308","683","312.5","","","","","","","","","","","","","","","","","","","",""
"psychophysics","182","553096","0.0-16.0-1.3","59922fa30675b100014daed4","6368f2eea3e9634aebcc2f6b","63691abb0007a7f776d49acf","null","","","","null","","","","key","16.664586206898093","683","312.5","","","","","","","","","","","","","141","1","0","false","","","",""
"psychophysics","183","553576","0.0-16.0-2.3","59922fa30675b100014daed4","6368f2eea3e9634aebcc2f6b","63691abb0007a7f776d49acf","477.39999985694885","","","","77","","","","key","16.67060714285721","683","312.5","","","","","","","","","","","","","","","","","","","",""
"psychophysics","184","554579","0.0-16.0-0.4","59922fa30675b100014daed4","6368f2eea3e9634aebcc2f6b","63691abb0007a7f776d49acf","null","","","","null","","","","key","16.665915254237113","683","312.5","","","","","","","","","","","","","","","","","","","",""
"psychophysics","185","555087","0.0-16.0-1.4","59922fa30675b100014daed4","6368f2eea3e9634aebcc2f6b","63691abb0007a7f776d49acf","null","","","","null","","","","key","16.663172413791724","683","312.5","","","","","","","","","","","","","141","1","2","false","","","",""
"psychophysics","186","555679","0.0-16.0-2.4","59922fa30675b100014daed4","6368f2eea3e9634aebcc2f6b","63691abb0007a7f776d49acf","588.2000000476837","","","","90","","","","key","16.669714285716015","683","312.5","","","","","","","","","","","","","","","","","","","",""
"psychophysics","187","556688","0.0-16.0-0.5","59922fa30675b100014daed4","6368f2eea3e9634aebcc2f6b","63691abb0007a7f776d49acf","null","","","","null","","","","key","16.665745762711534","683","312.5","","","","","","","","","","","","","","","","","","","",""
"psychophysics","188","557197","0.0-16.0-1.5","59922fa30675b100014daed4","6368f2eea3e9634aebcc2f6b","63691abb0007a7f776d49acf","null","","","","null","","","","key","16.665566666664866","683","312.5","","","","","","","","","","","","","141","-1","2","false","","","",""
"psychophysics","189","558225","0.0-16.0-2.5","59922fa30675b100014daed4","6368f2eea3e9634aebcc2f6b","63691abb0007a7f776d49acf","1026","","","","77","","","","key","16.665245901638656","683","312.5","","","","","","","","","","","","","","","","","","","",""
"psychophysics","190","559234","0.0-16.0-0.6","59922fa30675b100014daed4","6368f2eea3e9634aebcc2f6b","63691abb0007a7f776d49acf","null","","","","null","","","","key","16.664864406778904","683","312.5","","","","","","","","","","","","","","","","","","","",""
"psychophysics","191","559738","0.0-16.0-1.6","59922fa30675b100014daed4","6368f2eea3e9634aebcc2f6b","63691abb0007a7f776d49acf","null","","","","null","","","","key","16.666931034483273","683","312.5","","","","","","","","","","","","","141","-1","3","false","","","",""
"psychophysics","192","560097","0.0-16.0-2.6","59922fa30675b100014daed4","6368f2eea3e9634aebcc2f6b","63691abb0007a7f776d49acf","327.7000000476837","","","","77","","","","key","16.663476190479873","683","312.5","","","","","","","","","","","","","","","","","","","",""
"psychophysics","193","561105","0.0-16.0-0.7","59922fa30675b100014daed4","6368f2eea3e9634aebcc2f6b","63691abb0007a7f776d49acf","null","","","","null","","","","key","16.664898305085597","683","312.5","","","","","","","","","","","","","","","","","","","",""
"psychophysics","194","561621","0.0-16.0-1.7","59922fa30675b100014daed4","6368f2eea3e9634aebcc2f6b","63691abb0007a7f776d49acf","null","","","","null","","","","key","16.664833333331625","683","312.5","","","","","","","","","","","","","141","1","3","false","","","",""
"psychophysics","195","564090","0.0-16.0-2.7","59922fa30675b100014daed4","6368f2eea3e9634aebcc2f6b","63691abb0007a7f776d49acf","2462.800000190735","","","","90","","","","key","16.665432432432805","683","312.5","","","","","","","","","","","","","","","","","","","",""
"psychophysics","196","565100","0.0-16.0-0.8","59922fa30675b100014daed4","6368f2eea3e9634aebcc2f6b","63691abb0007a7f776d49acf","null","","","","null","","","","key","16.666610169490816","683","312.5","","","","","","","","","","","","","","","","","","","",""
"psychophysics","197","565604","0.0-16.0-1.8","59922fa30675b100014daed4","6368f2eea3e9634aebcc2f6b","63691abb0007a7f776d49acf","null","","","","null","","","","key","16.667724137929074","683","312.5","","","","","","","","","","","","","141","-1","4","false","","","",""
"psychophysics","198","566009","0.0-16.0-2.8","59922fa30675b100014daed4","6368f2eea3e9634aebcc2f6b","63691abb0007a7f776d49acf","399.90000009536743","","","","77","","","","key","16.66941666666632","683","312.5","","","","","","","","","","","","","","","","","","","",""
"psychophysics","199","567020","0.0-16.0-0.9","59922fa30675b100014daed4","6368f2eea3e9634aebcc2f6b","63691abb0007a7f776d49acf","null","","","","null","","","","key","16.663796610169317","683","312.5","","","","","","","","","","","","","","","","","","","",""
"psychophysics","200","567537","0.0-16.0-1.9","59922fa30675b100014daed4","6368f2eea3e9634aebcc2f6b","63691abb0007a7f776d49acf","null","","","","null","","","","key","16.664733333334638","683","312.5","","","","","","","","","","","","","141","1","4","false","","","",""
"psychophysics","201","568368","0.0-16.0-2.9","59922fa30675b100014daed4","6368f2eea3e9634aebcc2f6b","63691abb0007a7f776d49acf","825","","","","77","","","","key","16.66526530612241","683","312.5","","","","","","","","","","","","","","","","","","","",""
"psychophysics","202","569370","0.0-16.0-0.10","59922fa30675b100014daed4","6368f2eea3e9634aebcc2f6b","63691abb0007a7f776d49acf","null","","","","null","","","","key","16.667322033897864","683","312.5","","","","","","","","","","","","","","","","","","","",""
"psychophysics","203","569874","0.0-16.0-1.10","59922fa30675b100014daed4","6368f2eea3e9634aebcc2f6b","63691abb0007a7f776d49acf","null","","","","null","","","","key","16.666533333330882","683","312.5","","","","","","","","","","","","","141","-1","6","false","","","",""
"psychophysics","204","570412","0.0-16.0-2.10","59922fa30675b100014daed4","6368f2eea3e9634aebcc2f6b","63691abb0007a7f776d49acf","535.3999998569489","","","","77","","","","key","16.663129032259025","683","312.5","","","","","","","","","","","","","","","","","","","",""
"psychophysics","205","571416","0.0-16.0-0.11","59922fa30675b100014daed4","6368f2eea3e9634aebcc2f6b","63691abb0007a7f776d49acf","null","","","","null","","","","key","16.66589830508377","683","312.5","","","","","","","","","","","","","","","","","","","",""
"psychophysics","206","571920","0.0-16.0-1.11","59922fa30675b100014daed4","6368f2eea3e9634aebcc2f6b","63691abb0007a7f776d49acf","null","","","","null","","","","key","16.670206896551274","683","312.5","","","","","","","","","","","","","141","1","5","false","","","",""
"psychophysics","207","572614","0.0-16.0-2.11","59922fa30675b100014daed4","6368f2eea3e9634aebcc2f6b","63691abb0007a7f776d49acf","687.2999999523163","","","","90","","","","key","16.665365853659218","683","312.5","","","","","","","","","","","","","","","","","","","",""
"psychophysics","208","573620","0.0-16.0-0.12","59922fa30675b100014daed4","6368f2eea3e9634aebcc2f6b","63691abb0007a7f776d49acf","null","","","","null","","","","key","16.665288135592856","683","312.5","","","","","","","","","","","","","","","","","","","",""
"psychophysics","209","574137","0.0-16.0-1.12","59922fa30675b100014daed4","6368f2eea3e9634aebcc2f6b","63691abb0007a7f776d49acf","null","","","","null","","","","key","16.665566666664866","683","312.5","","","","","","","","","","","","","141","1","0","false","","","",""
"psychophysics","210","575034","0.0-16.0-2.12","59922fa30675b100014daed4","6368f2eea3e9634aebcc2f6b","63691abb0007a7f776d49acf","891.5","","","","77","","","","key","16.666000000001283","683","312.5","","","","","","","","","","","","","","","","","","","",""
"psychophysics","211","576038","0.0-16.0-0.13","59922fa30675b100014daed4","6368f2eea3e9634aebcc2f6b","63691abb0007a7f776d49acf","null","","","","null","","","","key","16.666600000000713","683","312.5","","","","","","","","","","","","","","","","","","","",""
"psychophysics","212","576570","0.0-16.0-1.13","59922fa30675b100014daed4","6368f2eea3e9634aebcc2f6b","63691abb0007a7f776d49acf","null","","","","null","","","","key","16.664199999999255","683","312.5","","","","","","","","","","","","","141","1","3","false","","","",""
"psychophysics","213","577139","0.0-16.0-2.13","59922fa30675b100014daed4","6368f2eea3e9634aebcc2f6b","63691abb0007a7f776d49acf","566.1999998092651","","","","77","","","","key","16.665588235294255","683","312.5","","","","","","","","","","","","","","","","","","","",""
"psychophysics","214","578153","0.0-16.0-0.14","59922fa30675b100014daed4","6368f2eea3e9634aebcc2f6b","63691abb0007a7f776d49acf","null","","","","null","","","","key","16.6667288135603","683","312.5","","","","","","","","","","","","","","","","","","","",""
"psychophysics","215","578668","0.0-16.0-1.14","59922fa30675b100014daed4","6368f2eea3e9634aebcc2f6b","63691abb0007a7f776d49acf","null","","","","null","","","","key","16.665966666664463","683","312.5","","","","","","","","","","","","","141","1","4","false","","","",""
"psychophysics","216","579074","0.0-16.0-2.14","59922fa30675b100014daed4","6368f2eea3e9634aebcc2f6b","63691abb0007a7f776d49acf","401.60000014305115","","","","77","","","","key","16.667333333335893","683","312.5","","","","","","","","","","","","","","","","","","","",""
"psychophysics","217","580087","0.0-16.0-0.15","59922fa30675b100014daed4","6368f2eea3e9634aebcc2f6b","63691abb0007a7f776d49acf","null","","","","null","","","","key","16.665830508474325","683","312.5","","","","","","","","","","","","","","","","","","","",""
"psychophysics","218","580591","0.0-16.0-1.15","59922fa30675b100014daed4","6368f2eea3e9634aebcc2f6b","63691abb0007a7f776d49acf","null","","","","null","","","","key","16.66433333333116","683","312.5","","","","","","","","","","","","","141","1","6","false","","","",""
"psychophysics","219","580830","0.0-16.0-2.15","59922fa30675b100014daed4","6368f2eea3e9634aebcc2f6b","63691abb0007a7f776d49acf","237.70000004768372","","","","77","","","","key","16.671692307689227","683","312.5","","","","","","","","","","","","","","","","","","","",""
"psychophysics","220","581837","0.0-16.0-0.16","59922fa30675b100014daed4","6368f2eea3e9634aebcc2f6b","63691abb0007a7f776d49acf","null","","","","null","","","","key","16.665694915253464","683","312.5","","","","","","","","","","","","","","","","","","","",""
"psychophysics","221","582353","0.0-16.0-1.16","59922fa30675b100014daed4","6368f2eea3e9634aebcc2f6b","63691abb0007a7f776d49acf","null","","","","null","","","","key","16.665200000000187","683","312.5","","","","","","","","","","","","","141","-1","3","false","","","",""
"psychophysics","222","583224","0.0-16.0-2.16","59922fa30675b100014daed4","6368f2eea3e9634aebcc2f6b","63691abb0007a7f776d49acf","864.5","","","","90","","","","key","16.665903846153434","683","312.5","","","","","","","","","","","","","","","","","","","",""
"psychophysics","223","584229","0.0-16.0-0.17","59922fa30675b100014daed4","6368f2eea3e9634aebcc2f6b","63691abb0007a7f776d49acf","null","","","","null","","","","key","16.66545762711844","683","312.5","","","","","","","","","","","","","","","","","","","",""
"psychophysics","224","584736","0.0-16.0-1.17","59922fa30675b100014daed4","6368f2eea3e9634aebcc2f6b","63691abb0007a7f776d49acf","null","","","","null","","","","key","16.66548275862066","683","312.5","","","","","","","","","","","","","141","-1","5","false","","","",""
"psychophysics","225","585363","0.0-16.0-2.17","59922fa30675b100014daed4","6368f2eea3e9634aebcc2f6b","63691abb0007a7f776d49acf","621.1000001430511","","","","77","","","","key","16.664972972971185","683","312.5","","","","","","","","","","","","","","","","","","","",""
"psychophysics","226","586370","0.0-16.0-0.18","59922fa30675b100014daed4","6368f2eea3e9634aebcc2f6b","63691abb0007a7f776d49acf","null","","","","null","","","","key","16.66662711864416","683","312.5","","","","","","","","","","","","","","","","","","","",""
"psychophysics","227","586877","0.0-16.0-1.18","59922fa30675b100014daed4","6368f2eea3e9634aebcc2f6b","63691abb0007a7f776d49acf","null","","","","null","","","","key","16.667533333335694","683","312.5","","","","","","","","","","","","","141","1","5","false","","","",""
"psychophysics","228","587705","0.0-16.0-2.18","59922fa30675b100014daed4","6368f2eea3e9634aebcc2f6b","63691abb0007a7f776d49acf","824.1999998092651","","","","77","","","","key","16.664224489796336","683","312.5","","","","","","","","","","","","","","","","","","","",""
"psychophysics","229","588733","0.0-16.0-0.19","59922fa30675b100014daed4","6368f2eea3e9634aebcc2f6b","63691abb0007a7f776d49acf","null","","","","null","","","","key","16.66664406779751","683","312.5","","","","","","","","","","","","","","","","","","","",""
"psychophysics","230","589236","0.0-16.0-1.19","59922fa30675b100014daed4","6368f2eea3e9634aebcc2f6b","63691abb0007a7f776d49acf","null","","","","null","","","","key","16.668000000001243","683","312.5","","","","","","","","","","","","","141","-1","0","false","","","",""
"psychophysics","231","590123","0.0-16.0-2.19","59922fa30675b100014daed4","6368f2eea3e9634aebcc2f6b","63691abb0007a7f776d49acf","881.3000001907349","","","","90","","","","key","16.665830188679053","683","312.5","","","","","","","","","","","","","","","","","","","",""
"psychophysics","232","591129","0.0-16.0-0.20","59922fa30675b100014daed4","6368f2eea3e9634aebcc2f6b","63691abb0007a7f776d49acf","null","","","","null","","","","key","16.665576271187923","683","312.5","","","","","","","","","","","","","","","","","","","",""
"psychophysics","233","591636","0.0-16.0-1.20","59922fa30675b100014daed4","6368f2eea3e9634aebcc2f6b","63691abb0007a7f776d49acf","null","","","","null","","","","key","16.663586206894752","683","312.5","","","","","","","","","","","","","141","-1","2","false","","","",""
"psychophysics","234","591915","0.0-16.0-2.20","59922fa30675b100014daed4","6368f2eea3e9634aebcc2f6b","63691abb0007a7f776d49acf","276.2999999523163","","","","90","","","","key","16.66662499999802","683","312.5","","","","","","","","","","","","","","","","","","","",""
"psychophysics","235","592919","0.0-16.0-0.21","59922fa30675b100014daed4","6368f2eea3e9634aebcc2f6b","63691abb0007a7f776d49acf","null","","","","null","","","","key","16.665813559320977","683","312.5","","","","","","","","","","","","","","","","","","","",""
"psychophysics","236","593429","0.0-16.0-1.21","59922fa30675b100014daed4","6368f2eea3e9634aebcc2f6b","63691abb0007a7f776d49acf","null","","","","null","","","","key","16.666033333334294","683","312.5","","","","","","","","","","","","","141","-1","4","false","","","",""
"psychophysics","237","594006","0.0-16.0-2.21","59922fa30675b100014daed4","6368f2eea3e9634aebcc2f6b","63691abb0007a7f776d49acf","574.5999999046326","","","","77","","","","key","16.666794117649687","683","312.5","","","","","","","","","","","","","","","","","","","",""
"psychophysics","238","595019","0.0-16.0-0.22","59922fa30675b100014daed4","6368f2eea3e9634aebcc2f6b","63691abb0007a7f776d49acf","null","","","","null","","","","key","16.66589830508377","683","312.5","","","","","","","","","","","","","","","","","","","",""
"psychophysics","239","595535","0.0-16.0-1.22","59922fa30675b100014daed4","6368f2eea3e9634aebcc2f6b","63691abb0007a7f776d49acf","null","","","","null","","","","key","16.667033333335226","683","312.5","","","","","","","","","","","","","141","1","2","false","","","",""
"psychophysics","240","596366","0.0-16.0-2.22","59922fa30675b100014daed4","6368f2eea3e9634aebcc2f6b","63691abb0007a7f776d49acf","824.7999999523163","","","","90","","","","key","16.665795918366378","683","312.5","","","","","","","","","","","","","","","","","","","",""
"psychophysics","241","597369","0.0-16.0-0.23","59922fa30675b100014daed4","6368f2eea3e9634aebcc2f6b","63691abb0007a7f776d49acf","null","","","","null","","","","key","16.66589830508574","683","312.5","","","","","","","","","","","","","","","","","","","",""
"psychophysics","242","597876","0.0-16.0-1.23","59922fa30675b100014daed4","6368f2eea3e9634aebcc2f6b","63691abb0007a7f776d49acf","null","","","","null","","","","key","16.662666666666823","683","312.5","","","","","","","","","","","","","141","-1","6","false","","","",""
"psychophysics","243","598502","0.0-16.0-2.23","59922fa30675b100014daed4","6368f2eea3e9634aebcc2f6b","63691abb0007a7f776d49acf","624.5","","","","77","","","","key","16.66908333333494","683","312.5","","","","","","","","","","","","","","","","","","","",""
"html-keyboard-response","244","603240","0.0-17.0","59922fa30675b100014daed4","6368f2eea3e9634aebcc2f6b","63691abb0007a7f776d49acf","4734.899999856949","<p>Well Done !</p><p>Training Complete. Press the spacebar to start.</p><p>DON'T EXIT THE FULL SCREEN MODE</p>","","","32","","","","","","","","","","","","","","","","","","","","","","","","","","",""
"psychophysics","245","606258","0.0-18.0-0.0","59922fa30675b100014daed4","6368f2eea3e9634aebcc2f6b","63691abb0007a7f776d49acf","null","","","","null","","","","key","16.66746666666586","683","312.5","","","","","","","","","","","","","","","","","","","",""
"psychophysics","246","606760","0.0-18.0-1.0","59922fa30675b100014daed4","6368f2eea3e9634aebcc2f6b","63691abb0007a7f776d49acf","null","","","","null","","","","key","16.663034482758718","683","312.5","","","","","","","","","","","","","141","-1","4","true","","","",""
"psychophysics","247","607275","0.0-18.0-2.0","59922fa30675b100014daed4","6368f2eea3e9634aebcc2f6b","63691abb0007a7f776d49acf","513.7999999523163","","","","77","","","","key","16.665233333335102","683","312.5","","","","","","","","","","","","","","","","","","","",""
"psychophysics","248","608277","0.0-18.0-0.1","59922fa30675b100014daed4","6368f2eea3e9634aebcc2f6b","63691abb0007a7f776d49acf","null","","","","null","","","","key","16.666305084746348","683","312.5","","","","","","","","","","","","","","","","","","","",""
"psychophysics","249","608779","0.0-18.0-1.1","59922fa30675b100014daed4","6368f2eea3e9634aebcc2f6b","63691abb0007a7f776d49acf","null","","","","null","","","","key","16.663344827589","683","312.5","","","","","","","","","","","","","141","-1","2","true","","","",""
"psychophysics","250","609182","0.0-18.0-2.1","59922fa30675b100014daed4","6368f2eea3e9634aebcc2f6b","63691abb0007a7f776d49acf","402.2000000476837","","","","90","","","","key","16.668913043478664","683","312.5","","","","","","","","","","","","","","","","","","","",""
"psychophysics","251","610185","0.0-18.0-0.2","59922fa30675b100014daed4","6368f2eea3e9634aebcc2f6b","63691abb0007a7f776d49acf","null","","","","null","","","","key","16.667406779660652","683","312.5","","","","","","","","","","","","","","","","","","","",""
"psychophysics","252","610687","0.0-18.0-1.2","59922fa30675b100014daed4","6368f2eea3e9634aebcc2f6b","63691abb0007a7f776d49acf","null","","","","null","","","","key","16.666533333334762","683","312.5","","","","","","","","","","","","","141","-1","5","true","","","",""
"psychophysics","253","611139","0.0-18.0-2.2","59922fa30675b100014daed4","6368f2eea3e9634aebcc2f6b","63691abb0007a7f776d49acf","446.60000014305115","","","","77","","","","key","16.665153846153633","683","312.5","","","","","","","","","","","","","","","","","","","",""
"psychophysics","254","612142","0.0-18.0-0.3","59922fa30675b100014daed4","6368f2eea3e9634aebcc2f6b","63691abb0007a7f776d49acf","null","","","","null","","","","key","16.665220338983413","683","312.5","","","","","","","","","","","","","","","","","","","",""
"psychophysics","255","612643","0.0-18.0-1.3","59922fa30675b100014daed4","6368f2eea3e9634aebcc2f6b","63691abb0007a7f776d49acf","null","","","","null","","","","key","16.668551724139153","683","312.5","","","","","","","","","","","","","141","-1","6","true","","","",""
"psychophysics","256","613019","0.0-18.0-2.3","59922fa30675b100014daed4","6368f2eea3e9634aebcc2f6b","63691abb0007a7f776d49acf","347.39999985694885","","","","77","","","","key","16.665952380951715","683","312.5","","","","","","","","","","","","","","","","","","","",""
"psychophysics","257","614034","0.0-18.0-0.4","59922fa30675b100014daed4","6368f2eea3e9634aebcc2f6b","63691abb0007a7f776d49acf","null","","","","null","","","","key","16.66571666666811","683","312.5","","","","","","","","","","","","","","","","","","","",""
"psychophysics","258","614551","0.0-18.0-1.4","59922fa30675b100014daed4","6368f2eea3e9634aebcc2f6b","63691abb0007a7f776d49acf","null","","","","null","","","","key","16.66359999999792","683","312.5","","","","","","","","","","","","","141","-1","0","true","","","",""
"psychophysics","259","614805","0.0-18.0-2.4","59922fa30675b100014daed4","6368f2eea3e9634aebcc2f6b","63691abb0007a7f776d49acf","248.69999980926514","","","","90","","","","key","16.670733333332464","683","312.5","","","","","","","","","","","","","","","","","","","",""
"psychophysics","260","615808","0.0-18.0-0.5","59922fa30675b100014daed4","6368f2eea3e9634aebcc2f6b","63691abb0007a7f776d49acf","null","","","","null","","","","key","16.66655932203472","683","312.5","","","","","","","","","","","","","","","","","","","",""
"psychophysics","261","616318","0.0-18.0-1.5","59922fa30675b100014daed4","6368f2eea3e9634aebcc2f6b","63691abb0007a7f776d49acf","null","","","","null","","","","key","16.66365517241527","683","312.5","","","","","","","","","","","","","141","1","4","true","","","",""
"psychophysics","262","616965","0.0-18.0-2.5","59922fa30675b100014daed4","6368f2eea3e9634aebcc2f6b","63691abb0007a7f776d49acf","640.5","","","","90","","","","key","16.666315789472335","683","312.5","","","","","","","","","","","","","","","","","","","",""
"psychophysics","263","617968","0.0-18.0-0.6","59922fa30675b100014daed4","6368f2eea3e9634aebcc2f6b","63691abb0007a7f776d49acf","null","","","","null","","","","key","16.665474576269812","683","312.5","","","","","","","","","","","","","","","","","","","",""
"psychophysics","264","618483","0.0-18.0-1.6","59922fa30675b100014daed4","6368f2eea3e9634aebcc2f6b","63691abb0007a7f776d49acf","null","","","","null","","","","key","16.6656333333347","683","312.5","","","","","","","","","","","","","141","1","2","true","","","",""
"psychophysics","265","619010","0.0-18.0-2.6","59922fa30675b100014daed4","6368f2eea3e9634aebcc2f6b","63691abb0007a7f776d49acf","523.5999999046326","","","","90","","","","key","16.667806451614464","683","312.5","","","","","","","","","","","","","","","","","","","",""
"psychophysics","266","620018","0.0-18.0-0.7","59922fa30675b100014daed4","6368f2eea3e9634aebcc2f6b","63691abb0007a7f776d49acf","null","","","","null","","","","key","16.665711864406813","683","312.5","","","","","","","","","","","","","","","","","","","",""
"psychophysics","267","620533","0.0-18.0-1.7","59922fa30675b100014daed4","6368f2eea3e9634aebcc2f6b","63691abb0007a7f776d49acf","null","","","","null","","","","key","16.665799999997642","683","312.5","","","","","","","","","","","","","141","1","0","true","","","",""
"psychophysics","268","620629","0.0-18.0-2.7","59922fa30675b100014daed4","6368f2eea3e9634aebcc2f6b","63691abb0007a7f776d49acf","89.90000009536743","","","","90","","","","key","16.65820000001695","683","312.5","","","","","","","","","","","","","","","","","","","",""
"psychophysics","269","621634","0.0-18.0-0.8","59922fa30675b100014daed4","6368f2eea3e9634aebcc2f6b","63691abb0007a7f776d49acf","null","","","","null","","","","key","16.667254237288418","683","312.5","","","","","","","","","","","","","","","","","","","",""
"psychophysics","270","622142","0.0-18.0-1.8","59922fa30675b100014daed4","6368f2eea3e9634aebcc2f6b","63691abb0007a7f776d49acf","null","","","","null","","","","key","16.663466666666015","683","312.5","","","","","","","","","","","","","141","1","6","true","","","",""
"psychophysics","271","622573","0.0-18.0-2.8","59922fa30675b100014daed4","6368f2eea3e9634aebcc2f6b","63691abb0007a7f776d49acf","429.10000014305115","","","","77","","","","key","16.668199999998322","683","312.5","","","","","","","","","","","","","","","","","","","",""
"psychophysics","272","623580","0.0-18.0-0.9","59922fa30675b100014daed4","6368f2eea3e9634aebcc2f6b","63691abb0007a7f776d49acf","null","","","","null","","","","key","16.6655932203393","683","312.5","","","","","","","","","","","","","","","","","","","",""
"psychophysics","273","624084","0.0-18.0-1.9","59922fa30675b100014daed4","6368f2eea3e9634aebcc2f6b","63691abb0007a7f776d49acf","null","","","","null","","","","key","16.666896551723013","683","312.5","","","","","","","","","","","","","141","1","5","true","","","",""
"psychophysics","274","624409","0.0-18.0-2.9","59922fa30675b100014daed4","6368f2eea3e9634aebcc2f6b","63691abb0007a7f776d49acf","319","","","","77","","","","key","16.666842105265363","683","312.5","","","","","","","","","","","","","","","","","","","",""
"psychophysics","275","625417","0.0-18.0-0.10","59922fa30675b100014daed4","6368f2eea3e9634aebcc2f6b","63691abb0007a7f776d49acf","null","","","","null","","","","key","16.666152542374114","683","312.5","","","","","","","","","","","","","","","","","","","",""
"psychophysics","276","625934","0.0-18.0-1.10","59922fa30675b100014daed4","6368f2eea3e9634aebcc2f6b","63691abb0007a7f776d49acf","null","","","","null","","","","key","16.66689999999944","683","312.5","","","","","","","","","","","","","141","-1","3","true","","","",""
"psychophysics","277","626592","0.0-18.0-2.10","59922fa30675b100014daed4","6368f2eea3e9634aebcc2f6b","63691abb0007a7f776d49acf","628.7000000476837","","","","90","","","","key","16.664410256410545","683","312.5","","","","","","","","","","","","","","","","","","","",""
"psychophysics","278","627601","0.0-18.0-0.11","59922fa30675b100014daed4","6368f2eea3e9634aebcc2f6b","63691abb0007a7f776d49acf","null","","","","null","","","","key","16.66522033898144","683","312.5","","","","","","","","","","","","","","","","","","","",""
"psychophysics","279","628112","0.0-18.0-1.11","59922fa30675b100014daed4","6368f2eea3e9634aebcc2f6b","63691abb0007a7f776d49acf","null","","","","null","","","","key","16.665733333331687","683","312.5","","","","","","","","","","","","","141","1","3","true","","","",""
"psychophysics","280","629160","0.0-18.0-2.11","59922fa30675b100014daed4","6368f2eea3e9634aebcc2f6b","63691abb0007a7f776d49acf","1045.0999999046326","","","","90","","","","key","16.66608064516162","683","312.5","","","","","","","","","","","","","","","","","","","",""
"psychophysics","281","630165","0.0-18.0-0.12","59922fa30675b100014daed4","6368f2eea3e9634aebcc2f6b","63691abb0007a7f776d49acf","null","","","","null","","","","key","16.66576271186488","683","312.5","","","","","","","","","","","","","","","","","","","",""
"psychophysics","282","630668","0.0-18.0-1.12","59922fa30675b100014daed4","6368f2eea3e9634aebcc2f6b","63691abb0007a7f776d49acf","null","","","","null","","","","key","16.665666666665736","683","312.5","","","","","","","","","","","","","141","1","2","true","","","",""
"psychophysics","283","630916","0.0-18.0-2.12","59922fa30675b100014daed4","6368f2eea3e9634aebcc2f6b","63691abb0007a7f776d49acf","243.39999985694885","","","","90","","","","key","16.66476923076866","683","312.5","","","","","","","","","","","","","","","","","","","",""
"psychophysics","284","631929","0.0-18.0-0.13","59922fa30675b100014daed4","6368f2eea3e9634aebcc2f6b","63691abb0007a7f776d49acf","null","","","","null","","","","key","16.666516666667302","683","312.5","","","","","","","","","","","","","","","","","","","",""
"psychophysics","285","632434","0.0-18.0-1.13","59922fa30675b100014daed4","6368f2eea3e9634aebcc2f6b","63691abb0007a7f776d49acf","null","","","","null","","","","key","16.666586206896746","683","312.5","","","","","","","","","","","","","141","1","5","true","","","",""
"psychophysics","286","632787","0.0-18.0-2.13","59922fa30675b100014daed4","6368f2eea3e9634aebcc2f6b","63691abb0007a7f776d49acf","346.10000014305115","","","","77","","","","key","16.65880952380775","683","312.5","","","","","","","","","","","","","","","","","","","",""
"psychophysics","287","633795","0.0-18.0-0.14","59922fa30675b100014daed4","6368f2eea3e9634aebcc2f6b","63691abb0007a7f776d49acf","null","","","","null","","","","key","16.6651016949159","683","312.5","","","","","","","","","","","","","","","","","","","",""
"psychophysics","288","634300","0.0-18.0-1.14","59922fa30675b100014daed4","6368f2eea3e9634aebcc2f6b","63691abb0007a7f776d49acf","null","","","","null","","","","key","16.658586206898125","683","312.5","","","","","","","","","","","","","141","1","6","true","","","",""
"psychophysics","289","635013","0.0-18.0-2.14","59922fa30675b100014daed4","6368f2eea3e9634aebcc2f6b","63691abb0007a7f776d49acf","710","","","","77","","","","key","16.665452380952914","683","312.5","","","","","","","","","","","","","","","","","","","",""
"psychophysics","290","636016","0.0-18.0-0.15","59922fa30675b100014daed4","6368f2eea3e9634aebcc2f6b","63691abb0007a7f776d49acf","null","","","","null","","","","key","16.668711864405264","683","312.5","","","","","","","","","","","","","","","","","","","",""
"psychophysics","291","636532","0.0-18.0-1.15","59922fa30675b100014daed4","6368f2eea3e9634aebcc2f6b","63691abb0007a7f776d49acf","null","","","","null","","","","key","16.664999999998447","683","312.5","","","","","","","","","","","","","141","-1","5","true","","","",""
"psychophysics","292","637779","0.0-18.0-2.15","59922fa30675b100014daed4","6368f2eea3e9634aebcc2f6b","63691abb0007a7f776d49acf","1242","","","","77","","","","key","16.6673243243241","683","312.5","","","","","","","","","","","","","","","","","","","",""
"psychophysics","293","638784","0.0-18.0-0.16","59922fa30675b100014daed4","6368f2eea3e9634aebcc2f6b","63691abb0007a7f776d49acf","null","","","","null","","","","key","16.66393220339018","683","312.5","","","","","","","","","","","","","","","","","","","",""
"psychophysics","294","639301","0.0-18.0-1.16","59922fa30675b100014daed4","6368f2eea3e9634aebcc2f6b","63691abb0007a7f776d49acf","null","","","","null","","","","key","16.665741935485013","683","312.5","","","","","","","","","","","","","141","-1","6","true","","","",""
"psychophysics","295","639572","0.0-18.0-2.16","59922fa30675b100014daed4","6368f2eea3e9634aebcc2f6b","63691abb0007a7f776d49acf","266.90000009536743","","","","77","","","","key","16.673733333335257","683","312.5","","","","","","","","","","","","","","","","","","","",""
"psychophysics","296","640579","0.0-18.0-0.17","59922fa30675b100014daed4","6368f2eea3e9634aebcc2f6b","63691abb0007a7f776d49acf","null","","","","null","","","","key","16.667440677965377","683","312.5","","","","","","","","","","","","","","","","","","","",""
"psychophysics","297","641084","0.0-18.0-1.17","59922fa30675b100014daed4","6368f2eea3e9634aebcc2f6b","63691abb0007a7f776d49acf","null","","","","null","","","","key","16.666896551727028","683","312.5","","","","","","","","","","","","","141","-1","2","true","","","",""
"psychophysics","298","641380","0.0-18.0-2.17","59922fa30675b100014daed4","6368f2eea3e9634aebcc2f6b","63691abb0007a7f776d49acf","268.19999980926514","","","","90","","","","key","16.66182352941456","683","312.5","","","","","","","","","","","","","","","","","","","",""
"psychophysics","299","642382","0.0-18.0-0.18","59922fa30675b100014daed4","6368f2eea3e9634aebcc2f6b","63691abb0007a7f776d49acf","null","","","","null","","","","key","16.667322033897864","683","312.5","","","","","","","","","","","","","","","","","","","",""
"psychophysics","300","642885","0.0-18.0-1.18","59922fa30675b100014daed4","6368f2eea3e9634aebcc2f6b","63691abb0007a7f776d49acf","null","","","","null","","","","key","16.66633333333302","683","312.5","","","","","","","","","","","","","141","-1","4","true","","","",""
"psychophysics","301","643037","0.0-18.0-2.18","59922fa30675b100014daed4","6368f2eea3e9634aebcc2f6b","63691abb0007a7f776d49acf","149.39999985694885","","","","77","","","","key","16.672000000005937","683","312.5","","","","","","","","","","","","","","","","","","","",""
"psychophysics","302","644052","0.0-18.0-0.19","59922fa30675b100014daed4","6368f2eea3e9634aebcc2f6b","63691abb0007a7f776d49acf","null","","","","null","","","","key","16.665233333333163","683","312.5","","","","","","","","","","","","","","","","","","","",""
"psychophysics","303","644564","0.0-18.0-1.19","59922fa30675b100014daed4","6368f2eea3e9634aebcc2f6b","63691abb0007a7f776d49acf","null","","","","null","","","","key","16.663275862068485","683","312.5","","","","","","","","","","","","","141","1","3","true","","","",""
"psychophysics","304","645787","0.0-18.0-2.19","59922fa30675b100014daed4","6368f2eea3e9634aebcc2f6b","63691abb0007a7f776d49acf","1220","","","","90","","","","key","16.667109589041402","683","312.5","","","","","","","","","","","","","","","","","","","",""
"psychophysics","305","646800","0.0-18.0-0.20","59922fa30675b100014daed4","6368f2eea3e9634aebcc2f6b","63691abb0007a7f776d49acf","null","","","","null","","","","key","16.66633898305107","683","312.5","","","","","","","","","","","","","","","","","","","",""
"psychophysics","306","647311","0.0-18.0-1.20","59922fa30675b100014daed4","6368f2eea3e9634aebcc2f6b","63691abb0007a7f776d49acf","null","","","","null","","","","key","16.66569999999677","683","312.5","","","","","","","","","","","","","141","-1","3","true","","","",""
"psychophysics","307","647678","0.0-18.0-2.20","59922fa30675b100014daed4","6368f2eea3e9634aebcc2f6b","63691abb0007a7f776d49acf","364.59999990463257","","","","77","","","","key","16.666857142860646","683","312.5","","","","","","","","","","","","","","","","","","","",""
"psychophysics","308","648683","0.0-18.0-0.21","59922fa30675b100014daed4","6368f2eea3e9634aebcc2f6b","63691abb0007a7f776d49acf","null","","","","null","","","","key","16.664169491525204","683","312.5","","","","","","","","","","","","","","","","","","","",""
"psychophysics","309","649196","0.0-18.0-1.21","59922fa30675b100014daed4","6368f2eea3e9634aebcc2f6b","63691abb0007a7f776d49acf","null","","","","null","","","","key","16.668233333334015","683","312.5","","","","","","","","","","","","","141","1","4","true","","","",""
"psychophysics","310","650751","0.0-18.0-2.21","59922fa30675b100014daed4","6368f2eea3e9634aebcc2f6b","63691abb0007a7f776d49acf","1552.9000000953674","","","","90","","","","key","16.66437634408489","683","312.5","","","","","","","","","","","","","","","","","","","",""
"psychophysics","311","651755","0.0-18.0-0.22","59922fa30675b100014daed4","6368f2eea3e9634aebcc2f6b","63691abb0007a7f776d49acf","null","","","","null","","","","key","16.66527118643951","683","312.5","","","","","","","","","","","","","","","","","","","",""
"psychophysics","312","652265","0.0-18.0-1.22","59922fa30675b100014daed4","6368f2eea3e9634aebcc2f6b","63691abb0007a7f776d49acf","null","","","","null","","","","key","16.667517241379567","683","312.5","","","","","","","","","","","","","141","1","0","true","","","",""
"psychophysics","313","652455","0.0-18.0-2.22","59922fa30675b100014daed4","6368f2eea3e9634aebcc2f6b","63691abb0007a7f776d49acf","182.5","","","","77","","","","key","16.666545454539698","683","312.5","","","","","","","","","","","","","","","","","","","",""
"psychophysics","314","653466","0.0-18.0-0.23","59922fa30675b100014daed4","6368f2eea3e9634aebcc2f6b","63691abb0007a7f776d49acf","null","","","","null","","","","key","16.666186440678835","683","312.5","","","","","","","","","","","","","","","","","","","",""
"psychophysics","315","653982","0.0-18.0-1.23","59922fa30675b100014daed4","6368f2eea3e9634aebcc2f6b","63691abb0007a7f776d49acf","null","","","","null","","","","key","16.661799999997797","683","312.5","","","","","","","","","","","","","141","-1","0","true","","","",""
"psychophysics","316","655938","0.0-18.0-2.23","59922fa30675b100014daed4","6368f2eea3e9634aebcc2f6b","63691abb0007a7f776d49acf","1952.6000001430511","","","","90","","","","key","16.66614529914541","683","312.5","","","","","","","","","","","","","","","","","","","",""
"psychophysics","317","656948","0.0-18.0-0.24","59922fa30675b100014daed4","6368f2eea3e9634aebcc2f6b","63691abb0007a7f776d49acf","null","","","","null","","","","key","16.666949152541978","683","312.5","","","","","","","","","","","","","","","","","","","",""
"psychophysics","318","657463","0.0-18.0-1.24","59922fa30675b100014daed4","6368f2eea3e9634aebcc2f6b","63691abb0007a7f776d49acf","null","","","","null","","","","key","16.66636666666794","683","312.5","","","","","","","","","","","","","141","-1","4","true","","","",""
"psychophysics","319","658599","0.0-18.0-2.24","59922fa30675b100014daed4","6368f2eea3e9634aebcc2f6b","63691abb0007a7f776d49acf","1132.7000000476837","","","","90","","","","key","16.66704477611825","683","312.5","","","","","","","","","","","","","","","","","","","",""
"psychophysics","320","659607","0.0-18.0-0.25","59922fa30675b100014daed4","6368f2eea3e9634aebcc2f6b","63691abb0007a7f776d49acf","null","","","","null","","","","key","16.665483333333395","683","312.5","","","","","","","","","","","","","","","","","","","",""
"psychophysics","321","660116","0.0-18.0-1.25","59922fa30675b100014daed4","6368f2eea3e9634aebcc2f6b","63691abb0007a7f776d49acf","null","","","","null","","","","key","16.66758620689607","683","312.5","","","","","","","","","","","","","141","-1","2","true","","","",""
"psychophysics","322","660723","0.0-18.0-2.25","59922fa30675b100014daed4","6368f2eea3e9634aebcc2f6b","63691abb0007a7f776d49acf","601.5","","","","90","","","","key","16.667833333333775","683","312.5","","","","","","","","","","","","","","","","","","","",""
"psychophysics","323","661727","0.0-18.0-0.26","59922fa30675b100014daed4","6368f2eea3e9634aebcc2f6b","63691abb0007a7f776d49acf","null","","","","null","","","","key","16.66713559322091","683","312.5","","","","","","","","","","","","","","","","","","","",""
"psychophysics","324","662232","0.0-18.0-1.26","59922fa30675b100014daed4","6368f2eea3e9634aebcc2f6b","63691abb0007a7f776d49acf","null","","","","null","","","","key","16.66737931034656","683","312.5","","","","","","","","","","","","","141","-1","6","true","","","",""
"psychophysics","325","662825","0.0-18.0-2.26","59922fa30675b100014daed4","6368f2eea3e9634aebcc2f6b","63691abb0007a7f776d49acf","586.9000000953674","","","","77","","","","key","16.665942857145065","683","312.5","","","","","","","","","","","","","","","","","","","",""
"psychophysics","326","663827","0.0-18.0-0.27","59922fa30675b100014daed4","6368f2eea3e9634aebcc2f6b","63691abb0007a7f776d49acf","null","","","","null","","","","key","16.66418644067855","683","312.5","","","","","","","","","","","","","","","","","","","",""
"psychophysics","327","664332","0.0-18.0-1.27","59922fa30675b100014daed4","6368f2eea3e9634aebcc2f6b","63691abb0007a7f776d49acf","null","","","","null","","","","key","16.662103448275893","683","312.5","","","","","","","","","","","","","141","-1","0","true","","","",""
"psychophysics","328","664752","0.0-18.0-2.27","59922fa30675b100014daed4","6368f2eea3e9634aebcc2f6b","63691abb0007a7f776d49acf","417.40000009536743","","","","90","","","","key","16.67779999999795","683","312.5","","","","","","","","","","","","","","","","","","","",""
"psychophysics","329","665762","0.0-18.0-0.28","59922fa30675b100014daed4","6368f2eea3e9634aebcc2f6b","63691abb0007a7f776d49acf","null","","","","null","","","","key","16.668762711863334","683","312.5","","","","","","","","","","","","","","","","","","","",""
