"trial_type","trial_index","time_elapsed","internal_node_id","PROLIFIC_PID","STUDY_ID","SESSION_ID","rt","stimulus","button_pressed","success","key_press","responses","isData","view_history","response_type","avg_frame_time","center_x","center_y","isSC","stim_side","trial_luminance","step_size","nReversal","correct","prev_ans","isThreshold","SC_threshold","final_threshold","isLuminance","FF_luminance","luminance","stimSide","ISInt","isFF","question_order","isSPQ","isCAPS","isAQ"
"pavlovia","0","15","0.0-0.0","5fa507fa0776431b370bc0c7","6368f2eea3e9634aebcc2f6b","6368fe3888dad057c54d9237","","","","","","","","","","","","","","","","","","","","","","","","","","","","","","","",""
"html-button-response","1","308404","0.0-1.0","5fa507fa0776431b370bc0c7","6368f2eea3e9634aebcc2f6b","6368fe3888dad057c54d9237","308386","<div style='background-color: white; width:60%; margin: auto; padding: 50px; text-align: justify; text-justify: inter-word; margin-bottom: 20px;'><h1 style='text-align: center;'>Consent Form</h1><p>Please read this consent form carefully before deciding whether you would like to participate in this study. You have to be 18 years old or older to participate to this study.</p><p style='text-decoration: underline;'>Participation is voluntary:</p><p>It is your choice whether or not to participate in this research. If you choose to participate, you may change your mind and leave the study at any time. Refusal to participate or stopping your participation will involve no penalty or loss of benefits to which you are otherwise entitled.</p><p style='text-decoration: underline;'>Purpose of the Study:</p><p>To understand the mechanisms underlying human perception.</p><p style='text-decoration: underline;'>What you will do in this study:</p><p>You will be presented with a series of visual images and then you will press buttons on the keyboard of your computer to respond to simple questions about the images (e.g. Were one or two images presented?). In addition, you will be asked to complete a questionnaire concerning your beliefs and everyday mental and perceptual experiences.'</p><p style='text-decoration: underline;'> Time Required:</p><p>The study will take 40 minutes to complete. </p><p style='text-decoration: underline;'>Risks:</p><p>There are no anticipated risks associated with participating in this study that are beyond those experienced in everyday life. </p><p style='text-decoration: underline;'>Benefits:</p><p>There are no benefits to you in participating in the study. However, this study may lead to a better understanding of how different kinds of visual information are used.</p><p style='text-decoration: underline;'>Compensation:</p><p>You will be paid US$6.6/hour. </p><p style='text-decoration: underline;'>Privacy and Confidentiality:</p><p>Your participation in this study will be anonymous. No personal information about your name or identity will be asked or recorded. This anonymous data will be stored for several years and may be used for a variety of research purposes. The overall results of the study may be published, or the data files may be shared with other researchers, but your identity will not be revealed in any way. The online services we are using for this study may temporarily store your data, but this data will be downloaded and then promptly deleted from those services.Your data will not be permanently associated with your name, IP address, or any other identifiable information (e.g., your information will only be connected to your payment, not to any of your responses), though they may be temporarily stored together before we download and separate them. Even so, no guarantee of internet survey security can be given because, although unlikely, transmissions can be intercepted and IP addresses can be identified. The anonymous data may be shared publicly (for example, in conjunction with a resulting academic publication).</p><p style='text-decoration: underline;'>Participation and Withdrawal:</p><p>Your participation in this study is completely voluntary. You may stop responding to the stimuli or stop answering questions if you so choose and without penalty by exiting the full screen mode, closing this tab of your browser or redirecting it to a different website.</p><p style='text-decoration: underline;'>Contact Info of the Researcher: </p><p>If you have questions about this study, or if you would like to talk to the research team, please contact David Melcher (david.melcher@nyu.edu, md5050@nyu.edu) at the Perception and Active Cognition Laboratory, New York University Abu Dhabi, Computational Research Building, Saadiyat Island, Abu Dhabi, UAE.This research has been reviewed by the New York University Abu Dhabi Institutional Review Board (NYUAD IRB). To contact about your rights in this research, for questions, suggestions, or complaints that are not addressed by the researchers, please email IRBnyuad@nyu.edu, or call the NYUAD IRB at +971 2 628 4313. </p></div>","0","","","","","","","","","","","","","","","","","","","","","","","","","","","","",""
"fullscreen","2","312996","0.0-2.0","5fa507fa0776431b370bc0c7","6368f2eea3e9634aebcc2f6b","6368fe3888dad057c54d9237","","","","true","","","","","","","","","","","","","","","","","","","","","","","","","","","",""
"html-keyboard-response","3","360696","0.0-3.0","5fa507fa0776431b370bc0c7","6368f2eea3e9634aebcc2f6b","6368fe3888dad057c54d9237","47699","<p>Welcome !</p><p>READ CAREFULLY THE FOLLOWING INDICATIONS:</p><p>From this moment you have ~40 minutes to complete the experiment.</p><p>During the experiment you will be prompted to take several breaks. Each break should not last longer than 2-3 minutes.</p><p>Make sure that your computer is plugged in and it's not running on battery power, even if the battery is already fully charged.</p><p>Turn off your phone and music, make sure that you are in a quiet room and that you will not be distracted for the next hour.</p><p>Failure to comply with the instructions and indications provided during the experiment will most likely result in the rejection of your data.<p>Press the spacebar to start.</p>","","","32","","","","","","","","","","","","","","","","","","","","","","","","","","",""
"survey-html-form","4","369451","0.0-4.0","5fa507fa0776431b370bc0c7","6368f2eea3e9634aebcc2f6b","6368fe3888dad057c54d9237","8753.199999988079","","","","","{""age"":""41"",""sex"":""F""}","true","","","","","","","","","","","","","","","","","","","","","","","","",""
"instructions","5","468498","0.0-5.0","5fa507fa0776431b370bc0c7","6368f2eea3e9634aebcc2f6b","6368fe3888dad057c54d9237","99045.80000001192","","","","","","","[{""page_index"":0,""viewing_time"":57077.60000002384},{""page_index"":1,""viewing_time"":31759.80000001192},{""page_index"":2,""viewing_time"":10208.099999964237}]","","","","","","","","","","","","","","","","","","","","","","","",""
"psychophysics","6","472468","0.0-6.0-0.0","5fa507fa0776431b370bc0c7","6368f2eea3e9634aebcc2f6b","6368fe3888dad057c54d9237","2963.099999964237","","","","37","","","","key","16.645138655462205","683","328.5","true","-1","180","30","0","-1","","","","","","","","","","","","","",""
"psychophysics","7","473777","0.0-6.0-0.1","5fa507fa0776431b370bc0c7","6368f2eea3e9634aebcc2f6b","6368fe3888dad057c54d9237","306.19999998807907","","","","39","","","","key","16.645051282051448","683","328.5","true","1","180","30","0","-1","-1","","","","","","","","","","","","",""
"psychophysics","8","477440","0.0-6.0-0.2","5fa507fa0776431b370bc0c7","6368f2eea3e9634aebcc2f6b","6368fe3888dad057c54d9237","2659.5","","","","37","","","","key","16.64559360730598","683","328.5","true","1","150","24","1","1","-1","","","","","","","","","","","","",""
"psychophysics","9","479269","0.0-6.0-0.3","5fa507fa0776431b370bc0c7","6368f2eea3e9634aebcc2f6b","6368fe3888dad057c54d9237","825.7000000476837","","","","39","","","","key","16.64342201834837","683","328.5","true","1","174","24","1","-1","1","","","","","","","","","","","","",""
"psychophysics","10","480392","0.0-6.0-0.4","5fa507fa0776431b370bc0c7","6368f2eea3e9634aebcc2f6b","6368fe3888dad057c54d9237","118.40000003576279","","","","37","","","","key","16.64158208955187","683","328.5","true","-1","174","19.2","2","-1","-1","","","","","","","","","","","","",""
"psychophysics","11","481607","0.0-6.0-0.5","5fa507fa0776431b370bc0c7","6368f2eea3e9634aebcc2f6b","6368fe3888dad057c54d9237","207.69999998807907","","","","39","","","","key","16.6445555555555","683","328.5","true","1","154.8","19.2","2","-1","-1","","","","","","","","","","","","",""
"psychophysics","12","482634","0.0-6.0-0.6","5fa507fa0776431b370bc0c7","6368f2eea3e9634aebcc2f6b","6368fe3888dad057c54d9237","18.899999976158142","","","","39","","","","key","16.650050000000434","683","328.5","true","1","154.8","19.2","2","-1","-1","","","","","","","","","","","","",""
"psychophysics","13","483754","0.0-6.0-0.7","5fa507fa0776431b370bc0c7","6368f2eea3e9634aebcc2f6b","6368fe3888dad057c54d9237","106.69999998807907","","","","39","","","","key","16.646134328358606","683","328.5","true","1","135.60000000000002","19.2","2","-1","-1","","","","","","","","","","","","",""
"psychophysics","14","484815","0.0-6.0-0.8","5fa507fa0776431b370bc0c7","6368f2eea3e9634aebcc2f6b","6368fe3888dad057c54d9237","55.89999997615814","","","","39","","","","key","16.642516129031485","683","328.5","true","1","135.60000000000002","19.2","2","-1","-1","","","","","","","","","","","","",""
"psychophysics","15","487071","0.0-6.0-0.9","5fa507fa0776431b370bc0c7","6368f2eea3e9634aebcc2f6b","6368fe3888dad057c54d9237","1253.800000011921","","","","37","","","","key","16.64583703703678","683","328.5","true","-1","129","19.2","2","-1","-1","","","","","","","","","","","","",""
"psychophysics","16","488840","0.0-6.0-0.10","5fa507fa0776431b370bc0c7","6368f2eea3e9634aebcc2f6b","6368fe3888dad057c54d9237","760.4000000357628","","","","37","","","","key","16.643285714285557","683","328.5","true","1","129","15.36","3","1","-1","","","","","","","","","","","","",""
"psychophysics","17","489988","0.0-6.0-0.11","5fa507fa0776431b370bc0c7","6368f2eea3e9634aebcc2f6b","6368fe3888dad057c54d9237","144.60000002384186","","","","39","","","","key","16.644602941176238","683","328.5","true","1","144.36","15.36","3","-1","1","","","","","","","","","","","","",""
"psychophysics","18","491072","0.0-6.0-0.12","5fa507fa0776431b370bc0c7","6368f2eea3e9634aebcc2f6b","6368fe3888dad057c54d9237","80.29999995231628","","","","37","","","","key","16.644078125000306","683","328.5","true","-1","144.36","12.287999999999998","4","-1","-1","","","","","","","","","","","","",""
"psychophysics","19","492692","0.0-6.0-0.13","5fa507fa0776431b370bc0c7","6368f2eea3e9634aebcc2f6b","6368fe3888dad057c54d9237","617.7000000476837","","","","37","","","","key","16.644340206185458","683","328.5","true","1","132.072","9.8304","5","1","-1","","","","","","","","","","","","",""
"psychophysics","20","493829","0.0-6.0-0.14","5fa507fa0776431b370bc0c7","6368f2eea3e9634aebcc2f6b","6368fe3888dad057c54d9237","132.69999998807907","","","","39","","","","key","16.643925373134056","683","328.5","true","1","141.9024","9.8304","5","-1","1","","","","","","","","","","","","",""
"psychophysics","21","495488","0.0-6.0-0.15","5fa507fa0776431b370bc0c7","6368f2eea3e9634aebcc2f6b","6368fe3888dad057c54d9237","653.3999999761581","","","","37","","","","key","16.644734693877638","683","328.5","true","1","141.9024","7.864319999999999","6","1","-1","","","","","","","","","","","","",""
"psychophysics","22","498013","0.0-6.0-0.16","5fa507fa0776431b370bc0c7","6368f2eea3e9634aebcc2f6b","6368fe3888dad057c54d9237","1518.300000011921","","","","39","","","","key","16.644483443708484","683","328.5","true","1","149.76672","7.864319999999999","6","-1","1","","","","","","","","","","","","",""
"psychophysics","23","500292","0.0-6.0-0.17","5fa507fa0776431b370bc0c7","6368f2eea3e9634aebcc2f6b","6368fe3888dad057c54d9237","1275.9000000357628","","","","39","","","","key","16.645301470588226","683","328.5","true","-1","149.76672","6.291456","7","1","-1","","","","","","","","","","","","",""
"psychophysics","24","502851","0.0-6.0-0.18","5fa507fa0776431b370bc0c7","6368f2eea3e9634aebcc2f6b","6368fe3888dad057c54d9237","1556","","","","39","","","","key","16.643477124182944","683","328.5","true","-1","156.058176","6.291456","7","1","1","","","","","","","","","","","","",""
"psychophysics","25","505237","0.0-6.0-0.19","5fa507fa0776431b370bc0c7","6368f2eea3e9634aebcc2f6b","6368fe3888dad057c54d9237","1382.300000011921","","","","39","","","","key","16.644359154929653","683","328.5","true","-1","162.349632","6.291456","7","1","1","","","","","","","","","","","","",""
"psychophysics","26","507923","0.0-6.0-0.20","5fa507fa0776431b370bc0c7","6368f2eea3e9634aebcc2f6b","6368fe3888dad057c54d9237","1683.1000000238419","","","","39","","","","key","16.64340000000011","683","328.5","true","-1","168.64108800000002","6.291456","7","1","1","","","","","","","","","","","","",""
"psychophysics","27","508957","0.0-6.0-0.21","5fa507fa0776431b370bc0c7","6368f2eea3e9634aebcc2f6b","6368fe3888dad057c54d9237","30.599999964237213","","","","39","","","","key","16.6387741935492","683","328.5","true","1","174.93254400000004","6.291456","7","-1","1","","","","","","","","","","","","",""
"psychophysics","28","511312","0.0-6.0-0.22","5fa507fa0776431b370bc0c7","6368f2eea3e9634aebcc2f6b","6368fe3888dad057c54d9237","1353.5","","","","39","","","","key","16.642921428571157","683","328.5","true","-1","174.93254400000004","5.033164800000001","8","1","-1","","","","","","","","","","","","",""
"psychophysics","29","512317","0.0-6.0-0.23","5fa507fa0776431b370bc0c7","6368f2eea3e9634aebcc2f6b","6368fe3888dad057c54d9237","1.4000000357627869","","","","37","","","","key","16.64438333333334","683","328.5","true","-1","179.96570880000004","5.033164800000001","8","-1","1","","","","","","","","","","","","",""
"psychophysics","30","514509","0.0-6.0-0.24","5fa507fa0776431b370bc0c7","6368f2eea3e9634aebcc2f6b","6368fe3888dad057c54d9237","1190.2999999523163","","","","37","","","","key","16.64530000000019","683","328.5","true","-1","179.96570880000004","4.0265318400000005","9","-1","-1","","","","","","","","","","","","",""
"psychophysics","31","516947","0.0-6.0-0.25","5fa507fa0776431b370bc0c7","6368f2eea3e9634aebcc2f6b","6368fe3888dad057c54d9237","1434.7000000476837","","","","39","","","","key","16.645047945205253","683","328.5","true","-1","175.93917696000005","3.2212254720000004","10","1","-1","","","","","","","","","","","","",""
"psychophysics","32","519174","0.0-6.0-0.26","5fa507fa0776431b370bc0c7","6368f2eea3e9634aebcc2f6b","6368fe3888dad057c54d9237","1222.1000000238419","","","","39","","","","key","16.645234848484645","683","328.5","true","-1","179.16040243200007","3.2212254720000004","10","1","1","","","","","","","","","","","","",""
"psychophysics","33","521406","0.0-6.0-0.27","5fa507fa0776431b370bc0c7","6368f2eea3e9634aebcc2f6b","6368fe3888dad057c54d9237","1223.699999988079","","","","39","","","","key","16.645440298507907","683","328.5","true","-1","182.38162790400008","3.2212254720000004","10","1","1","","","","","","","","","","","","",""
"psychophysics","34","523542","0.0-6.0-0.28","5fa507fa0776431b370bc0c7","6368f2eea3e9634aebcc2f6b","6368fe3888dad057c54d9237","1127.1000000238419","","","","37","","","","key","16.6436141732279","683","328.5","true","1","185.6028533760001","3.2212254720000004","10","1","1","","","","","","","","","","","","",""
"psychophysics","35","525599","0.0-6.0-0.29","5fa507fa0776431b370bc0c7","6368f2eea3e9634aebcc2f6b","6368fe3888dad057c54d9237","1050.1000000238419","","","","39","","","","key","16.64368852459039","683","328.5","true","-1","188.8240788480001","3.2212254720000004","10","1","1","","","","","","","","","","","","",""
"psychophysics","36","527779","0.0-6.0-0.30","5fa507fa0776431b370bc0c7","6368f2eea3e9634aebcc2f6b","6368fe3888dad057c54d9237","1173","","","","37","","","","key","16.645015267175374","683","328.5","true","1","192.04530432000013","3.2212254720000004","10","1","1","","","","","","","","","","","","",""
"psychophysics","37","530171","0.0-6.0-0.31","5fa507fa0776431b370bc0c7","6368f2eea3e9634aebcc2f6b","6368fe3888dad057c54d9237","1389.1000000238419","","","","39","","","","key","16.644718309858664","683","328.5","true","1","195.26652979200014","3.2212254720000004","10","-1","1","","","","","","","","","","","","",""
"psychophysics","38","532131","0.0-6.0-0.32","5fa507fa0776431b370bc0c7","6368f2eea3e9634aebcc2f6b","6368fe3888dad057c54d9237","957.5999999642372","","","","37","","","","key","16.644991452991764","683","328.5","true","1","195.26652979200014","2.5769803776000004","11","1","-1","","","","","","","","","","","","",""
"psychophysics","39","534219","0.0-6.0-0.33","5fa507fa0776431b370bc0c7","6368f2eea3e9634aebcc2f6b","6368fe3888dad057c54d9237","1082.300000011921","","","","39","","","","key","16.643814516128906","683","328.5","true","-1","197.84351016960014","2.5769803776000004","11","1","1","","","","","","","","","","","","",""
"psychophysics","40","536344","0.0-6.0-0.34","5fa507fa0776431b370bc0c7","6368f2eea3e9634aebcc2f6b","6368fe3888dad057c54d9237","1121.0999999642372","","","","37","","","","key","16.6445433070863","683","328.5","true","-1","200.42049054720013","2.5769803776000004","11","-1","1","","","","","","","","","","","","",""
"psychophysics","41","537478","0.0-6.0-0.35","5fa507fa0776431b370bc0c7","6368f2eea3e9634aebcc2f6b","6368fe3888dad057c54d9237","129.19999998807907","","","","39","","","","key","16.645149253730995","683","328.5","true","1","200.42049054720013","2.0615843020800004","12","-1","-1","","","","","","","","","","","","",""
"psychophysics","42","539548","0.0-6.0-0.36","5fa507fa0776431b370bc0c7","6368f2eea3e9634aebcc2f6b","6368fe3888dad057c54d9237","1067.5999999642372","","","","39","","","","key","16.645298387096712","683","328.5","true","-1","198.35890624512012","1.6492674416640005","13","1","-1","","","","","","","","","","","","",""
"psychophysics","43","541532","0.0-6.0-0.37","5fa507fa0776431b370bc0c7","6368f2eea3e9634aebcc2f6b","6368fe3888dad057c54d9237","980.4000000357628","","","","37","","","","key","16.644999999999882","683","328.5","true","1","200.00817368678412","1.6492674416640005","13","1","1","","","","","","","","","","","","",""
"psychophysics","44","543588","0.0-6.0-0.38","5fa507fa0776431b370bc0c7","6368f2eea3e9634aebcc2f6b","6368fe3888dad057c54d9237","1052.800000011921","","","","37","","","","key","16.645360655738155","683","328.5","true","-1","201.6574411284481","1.6492674416640005","13","-1","1","","","","","","","","","","","","",""
"psychophysics","45","545864","0.0-6.0-0.39","5fa507fa0776431b370bc0c7","6368f2eea3e9634aebcc2f6b","6368fe3888dad057c54d9237","1274.199999988079","","","","39","","","","key","16.64587499999941","683","328.5","true","-1","201.6574411284481","1.3194139533312006","14","1","-1","","","","","","","","","","","","",""
"html-keyboard-response","46","551319","0.0-7.0","5fa507fa0776431b370bc0c7","6368f2eea3e9634aebcc2f6b","6368fe3888dad057c54d9237","5454.600000023842","<p>Well Done !</p><p>Prepare for a new block.</p><p>DON'T EXIT THE FULL SCREEN MODE</p><p>Press the Spacebar to start.</p>","","","32","","","","","","","","","","","","","","","true","192.99019712512015","","","","","","","","","","",""
"psychophysics","47","552415","0.0-8.0-0.0","5fa507fa0776431b370bc0c7","6368f2eea3e9634aebcc2f6b","6368fe3888dad057c54d9237","88.10000002384186","","","","39","","","","key","16.63396969696888","683","328.5","true","1","180","30","0","-1","","","","","","","","","","","","","",""
"psychophysics","48","554807","0.0-8.0-0.1","5fa507fa0776431b370bc0c7","6368f2eea3e9634aebcc2f6b","6368fe3888dad057c54d9237","1384.5","","","","37","","","","key","16.64502112676052","683","328.5","true","-1","180","30","0","-1","-1","","","","","","","","","","","","",""
"psychophysics","49","556848","0.0-8.0-0.2","5fa507fa0776431b370bc0c7","6368f2eea3e9634aebcc2f6b","6368fe3888dad057c54d9237","1034","","","","39","","","","key","16.64550000000039","683","328.5","true","-1","150","24","1","1","-1","","","","","","","","","","","","",""
"psychophysics","50","559207","0.0-8.0-0.3","5fa507fa0776431b370bc0c7","6368f2eea3e9634aebcc2f6b","6368fe3888dad057c54d9237","1352.5999999642372","","","","37","","","","key","16.64448226950336","683","328.5","true","1","174","24","1","1","1","","","","","","","","","","","","",""
"psychophysics","51","561371","0.0-8.0-0.4","5fa507fa0776431b370bc0c7","6368f2eea3e9634aebcc2f6b","6368fe3888dad057c54d9237","1156.5","","","","39","","","","key","16.645023255813832","683","328.5","true","1","198","24","1","-1","1","","","","","","","","","","","","",""
"psychophysics","52","563584","0.0-8.0-0.5","5fa507fa0776431b370bc0c7","6368f2eea3e9634aebcc2f6b","6368fe3888dad057c54d9237","1209.800000011921","","","","37","","","","key","16.645424242424212","683","328.5","true","1","198","19.2","2","1","-1","","","","","","","","","","","","",""
"psychophysics","53","564660","0.0-8.0-0.6","5fa507fa0776431b370bc0c7","6368f2eea3e9634aebcc2f6b","6368fe3888dad057c54d9237","69.80000001192093","","","","37","","","","key","16.64453968254014","683","328.5","true","-1","217.2","19.2","2","-1","1","","","","","","","","","","","","",""
"psychophysics","54","566546","0.0-8.0-0.7","5fa507fa0776431b370bc0c7","6368f2eea3e9634aebcc2f6b","6368fe3888dad057c54d9237","883.5","","","","39","","","","key","16.64498230088523","683","328.5","true","-1","217.2","15.36","3","1","-1","","","","","","","","","","","","",""
"psychophysics","55","568290","0.0-8.0-0.8","5fa507fa0776431b370bc0c7","6368f2eea3e9634aebcc2f6b","6368fe3888dad057c54d9237","738.3999999761581","","","","39","","","","key","16.64500970873887","683","328.5","true","-1","232.56","15.36","3","1","1","","","","","","","","","","","","",""
"psychophysics","56","570250","0.0-8.0-0.9","5fa507fa0776431b370bc0c7","6368f2eea3e9634aebcc2f6b","6368fe3888dad057c54d9237","955.3999999761581","","","","37","","","","key","16.64465811965752","683","328.5","true","-1","247.92000000000002","15.36","3","-1","1","","","","","","","","","","","","",""
"psychophysics","57","571262","0.0-8.0-0.10","5fa507fa0776431b370bc0c7","6368f2eea3e9634aebcc2f6b","6368fe3888dad057c54d9237","8.699999988079071","","","","39","","","","key","16.64291666666589","683","328.5","true","1","247.92000000000002","12.287999999999998","4","-1","-1","","","","","","","","","","","","",""
"psychophysics","58","573292","0.0-8.0-0.11","5fa507fa0776431b370bc0c7","6368f2eea3e9634aebcc2f6b","6368fe3888dad057c54d9237","1023.6999999880791","","","","39","","","","key","16.644438016528557","683","328.5","true","-1","235.632","9.8304","5","1","-1","","","","","","","","","","","","",""
"psychophysics","59","575191","0.0-8.0-0.12","5fa507fa0776431b370bc0c7","6368f2eea3e9634aebcc2f6b","6368fe3888dad057c54d9237","895.9000000357628","","","","37","","","","key","16.646141592920056","683","328.5","true","-1","245.4624","9.8304","5","-1","1","","","","","","","","","","","","",""
"psychophysics","60","577129","0.0-8.0-0.13","5fa507fa0776431b370bc0c7","6368f2eea3e9634aebcc2f6b","6368fe3888dad057c54d9237","932.4000000357628","","","","39","","","","key","16.644808695652603","683","328.5","true","-1","245.4624","7.864319999999999","6","1","-1","","","","","","","","","","","","",""
"psychophysics","61","578267","0.0-8.0-0.14","5fa507fa0776431b370bc0c7","6368f2eea3e9634aebcc2f6b","6368fe3888dad057c54d9237","131.80000001192093","","","","39","","","","key","16.646397058822913","683","328.5","true","1","253.32672","7.864319999999999","6","-1","1","","","","","","","","","","","","",""
"psychophysics","62","581512","0.0-8.0-0.15","5fa507fa0776431b370bc0c7","6368f2eea3e9634aebcc2f6b","6368fe3888dad057c54d9237","2241","","","","39","","","","key","16.64471649484572","683","328.5","true","1","253.32672","6.291456","7","-1","-1","","","","","","","","","","","","",""
"psychophysics","63","582773","0.0-8.0-0.16","5fa507fa0776431b370bc0c7","6368f2eea3e9634aebcc2f6b","6368fe3888dad057c54d9237","254.20000004768372","","","","39","","","","key","16.645573333332624","683","328.5","true","1","247.03526399999998","6.291456","7","-1","-1","","","","","","","","","","","","",""
"psychophysics","64","583992","0.0-8.0-0.17","5fa507fa0776431b370bc0c7","6368f2eea3e9634aebcc2f6b","6368fe3888dad057c54d9237","209.30000001192093","","","","37","","","","key","16.6427916666661","683","328.5","true","-1","247.03526399999998","6.291456","7","-1","-1","","","","","","","","","","","","",""
"psychophysics","65","585058","0.0-8.0-0.18","5fa507fa0776431b370bc0c7","6368f2eea3e9634aebcc2f6b","6368fe3888dad057c54d9237","59.69999998807907","","","","39","","","","key","16.64500000000015","683","328.5","true","1","240.74380799999997","6.291456","7","-1","-1","","","","","","","","","","","","",""
"psychophysics","66","587658","0.0-8.0-0.19","5fa507fa0776431b370bc0c7","6368f2eea3e9634aebcc2f6b","6368fe3888dad057c54d9237","1593.300000011921","","","","39","","","","key","16.645045161290817","683","328.5","true","-1","240.74380799999997","5.033164800000001","8","1","-1","","","","","","","","","","","","",""
"psychophysics","67","590116","0.0-8.0-0.20","5fa507fa0776431b370bc0c7","6368f2eea3e9634aebcc2f6b","6368fe3888dad057c54d9237","1452.8999999761581","","","","37","","","","key","16.644074829932","683","328.5","true","-1","245.77697279999998","5.033164800000001","8","-1","1","","","","","","","","","","","","",""
"psychophysics","68","591174","0.0-8.0-0.21","5fa507fa0776431b370bc0c7","6368f2eea3e9634aebcc2f6b","6368fe3888dad057c54d9237","53.799999952316284","","","","39","","","","key","16.647645161290008","683","328.5","true","1","245.77697279999998","4.0265318400000005","9","-1","-1","","","","","","","","","","","","",""
"psychophysics","69","592231","0.0-8.0-0.22","5fa507fa0776431b370bc0c7","6368f2eea3e9634aebcc2f6b","6368fe3888dad057c54d9237","55.80000001192093","","","","39","","","","key","16.645523809524814","683","328.5","true","1","241.75044096","4.0265318400000005","9","-1","-1","","","","","","","","","","","","",""
"psychophysics","70","594578","0.0-8.0-0.23","5fa507fa0776431b370bc0c7","6368f2eea3e9634aebcc2f6b","6368fe3888dad057c54d9237","1346.1000000238419","","","","39","","","","key","16.644778571429196","683","328.5","true","-1","241.75044096","3.2212254720000004","10","1","-1","","","","","","","","","","","","",""
"psychophysics","71","596958","0.0-8.0-0.24","5fa507fa0776431b370bc0c7","6368f2eea3e9634aebcc2f6b","6368fe3888dad057c54d9237","1374","","","","37","","","","key","16.64402112676057","683","328.5","true","-1","244.971666432","3.2212254720000004","10","-1","1","","","","","","","","","","","","",""
"psychophysics","72","597997","0.0-8.0-0.25","5fa507fa0776431b370bc0c7","6368f2eea3e9634aebcc2f6b","6368fe3888dad057c54d9237","37.19999998807907","","","","39","","","","key","16.644590163935494","683","328.5","true","1","244.971666432","2.5769803776000004","11","-1","-1","","","","","","","","","","","","",""
"psychophysics","73","599036","0.0-8.0-0.26","5fa507fa0776431b370bc0c7","6368f2eea3e9634aebcc2f6b","6368fe3888dad057c54d9237","36.19999998807907","","","","39","","","","key","16.64703278688592","683","328.5","true","1","242.3946860544","2.5769803776000004","11","-1","-1","","","","","","","","","","","","",""
"psychophysics","74","600945","0.0-8.0-0.27","5fa507fa0776431b370bc0c7","6368f2eea3e9634aebcc2f6b","6368fe3888dad057c54d9237","906.0999999642372","","","","39","","","","key","16.639649122806365","683","328.5","true","-1","242.3946860544","2.0615843020800004","12","1","-1","","","","","","","","","","","","",""
"psychophysics","75","603214","0.0-8.0-0.28","5fa507fa0776431b370bc0c7","6368f2eea3e9634aebcc2f6b","6368fe3888dad057c54d9237","1266.699999988079","","","","37","","","","key","16.644742647059235","683","328.5","true","1","244.45627035648002","2.0615843020800004","12","1","1","","","","","","","","","","","","",""
"psychophysics","76","605347","0.0-8.0-0.29","5fa507fa0776431b370bc0c7","6368f2eea3e9634aebcc2f6b","6368fe3888dad057c54d9237","1123.6000000238419","","","","37","","","","key","16.64513385826795","683","328.5","true","1","246.51785465856003","2.0615843020800004","12","1","1","","","","","","","","","","","","",""
"psychophysics","77","606452","0.0-8.0-0.30","5fa507fa0776431b370bc0c7","6368f2eea3e9634aebcc2f6b","6368fe3888dad057c54d9237","100.90000003576279","","","","37","","","","key","16.64429230769344","683","328.5","true","-1","248.57943896064003","2.0615843020800004","12","-1","1","","","","","","","","","","","","",""
"psychophysics","78","607638","0.0-8.0-0.31","5fa507fa0776431b370bc0c7","6368f2eea3e9634aebcc2f6b","6368fe3888dad057c54d9237","181.80000001192093","","","","39","","","","key","16.646842857142577","683","328.5","true","1","248.57943896064003","1.6492674416640005","13","-1","-1","","","","","","","","","","","","",""
"psychophysics","79","609778","0.0-8.0-0.32","5fa507fa0776431b370bc0c7","6368f2eea3e9634aebcc2f6b","6368fe3888dad057c54d9237","1138.8999999761581","","","","37","","","","key","16.645414062500095","683","328.5","true","-1","246.93017151897604","1.6492674416640005","13","-1","-1","","","","","","","","","","","","",""
"psychophysics","80","612970","0.0-8.0-0.33","5fa507fa0776431b370bc0c7","6368f2eea3e9634aebcc2f6b","6368fe3888dad057c54d9237","2187.100000023842","","","","39","","","","key","16.64517801047147","683","328.5","true","1","246.93017151897604","1.6492674416640005","13","-1","-1","","","","","","","","","","","","",""
"psychophysics","81","613986","0.0-8.0-0.34","5fa507fa0776431b370bc0c7","6368f2eea3e9634aebcc2f6b","6368fe3888dad057c54d9237","9.899999976158142","","","","37","","","","key","16.64484999999986","683","328.5","true","-1","245.28090407731204","1.6492674416640005","13","-1","-1","","","","","","","","","","","","",""
"psychophysics","82","615094","0.0-8.0-0.35","5fa507fa0776431b370bc0c7","6368f2eea3e9634aebcc2f6b","6368fe3888dad057c54d9237","102.19999998807907","","","","37","","","","key","16.64213846153938","683","328.5","true","-1","245.28090407731204","1.6492674416640005","13","-1","-1","","","","","","","","","","","","",""
"psychophysics","83","616283","0.0-8.0-0.36","5fa507fa0776431b370bc0c7","6368f2eea3e9634aebcc2f6b","6368fe3888dad057c54d9237","187.19999998807907","","","","37","","","","key","16.64347887323992","683","328.5","true","-1","243.63163663564805","1.6492674416640005","13","-1","-1","","","","","","","","","","","","",""
"psychophysics","84","617294","0.0-8.0-0.37","5fa507fa0776431b370bc0c7","6368f2eea3e9634aebcc2f6b","6368fe3888dad057c54d9237","6","","","","39","","","","key","16.64594915254294","683","328.5","true","1","243.63163663564805","1.6492674416640005","13","-1","-1","","","","","","","","","","","","",""
"psychophysics","85","619532","0.0-8.0-0.38","5fa507fa0776431b370bc0c7","6368f2eea3e9634aebcc2f6b","6368fe3888dad057c54d9237","1236.9000000357628","","","","37","","","","key","16.6448507462689","683","328.5","true","1","241.98236919398406","1.3194139533312006","14","1","-1","","","","","","","","","","","","",""
"psychophysics","86","622364","0.0-8.0-0.39","5fa507fa0776431b370bc0c7","6368f2eea3e9634aebcc2f6b","6368fe3888dad057c54d9237","1828.6000000238419","","","","37","","","","key","16.64447928994092","683","328.5","true","1","243.30178314731526","1.3194139533312006","14","1","1","","","","","","","","","","","","",""
"html-keyboard-response","87","627389","0.0-9.0","5fa507fa0776431b370bc0c7","6368f2eea3e9634aebcc2f6b","6368fe3888dad057c54d9237","5024.300000011921","<p>Well Done !</p><p>Prepare for a new block.</p><p>DON'T EXIT THE FULL SCREEN MODE</p><p>Press the Spacebar to start.</p>","","","32","","","","","","","","","","","","","","","true","244.99090788548617","","","","","","","","","","",""
"psychophysics","88","629197","0.0-10.0-0.0","5fa507fa0776431b370bc0c7","6368f2eea3e9634aebcc2f6b","6368fe3888dad057c54d9237","800.7000000476837","","","","37","","","","key","16.63897247706463","683","328.5","true","-1","180","30","0","-1","","","","","","","","","","","","","",""
"psychophysics","89","631500","0.0-10.0-0.1","5fa507fa0776431b370bc0c7","6368f2eea3e9634aebcc2f6b","6368fe3888dad057c54d9237","1300.3999999761581","","","","39","","","","key","16.644474452555208","683","328.5","true","-1","180","30","0","1","-1","","","","","","","","","","","","",""
"psychophysics","90","633617","0.0-10.0-0.2","5fa507fa0776431b370bc0c7","6368f2eea3e9634aebcc2f6b","6368fe3888dad057c54d9237","1114.1000000238419","","","","39","","","","key","16.64564285714305","683","328.5","true","-1","210","30","0","1","1","","","","","","","","","","","","",""
"psychophysics","91","635742","0.0-10.0-0.3","5fa507fa0776431b370bc0c7","6368f2eea3e9634aebcc2f6b","6368fe3888dad057c54d9237","1120.5","","","","37","","","","key","16.64456692913375","683","328.5","true","-1","240","30","0","-1","1","","","","","","","","","","","","",""
"psychophysics","92","636853","0.0-10.0-0.4","5fa507fa0776431b370bc0c7","6368f2eea3e9634aebcc2f6b","6368fe3888dad057c54d9237","109","","","","37","","","","key","16.64507692307771","683","328.5","true","-1","240","24","1","-1","-1","","","","","","","","","","","","",""
"psychophysics","93","637935","0.0-10.0-0.5","5fa507fa0776431b370bc0c7","6368f2eea3e9634aebcc2f6b","6368fe3888dad057c54d9237","80.09999996423721","","","","37","","","","key","16.644953846154163","683","328.5","true","-1","216","24","1","-1","-1","","","","","","","","","","","","",""
"psychophysics","94","638950","0.0-10.0-0.6","5fa507fa0776431b370bc0c7","6368f2eea3e9634aebcc2f6b","6368fe3888dad057c54d9237","5.699999988079071","","","","37","","","","key","16.64637288135492","683","328.5","true","-1","216","24","1","-1","-1","","","","","","","","","","","","",""
"psychophysics","95","639979","0.0-10.0-0.7","5fa507fa0776431b370bc0c7","6368f2eea3e9634aebcc2f6b","6368fe3888dad057c54d9237","26.599999964237213","","","","37","","","","key","16.644360655739323","683","328.5","true","-1","192","24","1","-1","-1","","","","","","","","","","","","",""
"psychophysics","96","641934","0.0-10.0-0.8","5fa507fa0776431b370bc0c7","6368f2eea3e9634aebcc2f6b","6368fe3888dad057c54d9237","953.7999999523163","","","","37","","","","key","16.644641025640613","683","328.5","true","1","192","19.2","2","1","-1","","","","","","","","","","","","",""
"psychophysics","97","643123","0.0-10.0-0.9","5fa507fa0776431b370bc0c7","6368f2eea3e9634aebcc2f6b","6368fe3888dad057c54d9237","188","","","","39","","","","key","16.6460142857129","683","328.5","true","1","211.2","19.2","2","-1","1","","","","","","","","","","","","",""
"psychophysics","98","644173","0.0-10.0-0.10","5fa507fa0776431b370bc0c7","6368f2eea3e9634aebcc2f6b","6368fe3888dad057c54d9237","47.19999998807907","","","","39","","","","key","16.64506451613007","683","328.5","true","1","211.2","15.36","3","-1","-1","","","","","","","","","","","","",""
"psychophysics","99","645261","0.0-10.0-0.11","5fa507fa0776431b370bc0c7","6368f2eea3e9634aebcc2f6b","6368fe3888dad057c54d9237","85.90000003576279","","","","37","","","","key","16.644784615384058","683","328.5","true","-1","195.83999999999997","15.36","3","-1","-1","","","","","","","","","","","","",""
"psychophysics","100","646267","0.0-10.0-0.12","5fa507fa0776431b370bc0c7","6368f2eea3e9634aebcc2f6b","6368fe3888dad057c54d9237","3.800000011920929","","","","39","","","","key","16.64832203389911","683","328.5","true","1","195.83999999999997","15.36","3","-1","-1","","","","","","","","","","","","",""
"psychophysics","101","648359","0.0-10.0-0.13","5fa507fa0776431b370bc0c7","6368f2eea3e9634aebcc2f6b","6368fe3888dad057c54d9237","1087","","","","37","","","","key","16.645671999999323","683","328.5","true","-1","180.47999999999996","15.36","3","-1","-1","","","","","","","","","","","","",""
"psychophysics","102","649502","0.0-10.0-0.14","5fa507fa0776431b370bc0c7","6368f2eea3e9634aebcc2f6b","6368fe3888dad057c54d9237","135.39999997615814","","","","39","","","","key","16.64210447761119","683","328.5","true","1","180.47999999999996","15.36","3","-1","-1","","","","","","","","","","","","",""
"psychophysics","103","651223","0.0-10.0-0.15","5fa507fa0776431b370bc0c7","6368f2eea3e9634aebcc2f6b","6368fe3888dad057c54d9237","719.6000000238419","","","","39","","","","key","16.644650485436657","683","328.5","true","1","165.11999999999995","15.36","3","-1","-1","","","","","","","","","","","","",""
"psychophysics","104","653641","0.0-10.0-0.16","5fa507fa0776431b370bc0c7","6368f2eea3e9634aebcc2f6b","6368fe3888dad057c54d9237","1409.8999999761581","","","","37","","","","key","16.645270833333296","683","328.5","true","-1","165.11999999999995","15.36","3","-1","-1","","","","","","","","","","","","",""
"psychophysics","105","654773","0.0-10.0-0.17","5fa507fa0776431b370bc0c7","6368f2eea3e9634aebcc2f6b","6368fe3888dad057c54d9237","128","","","","37","","","","key","16.643014925373926","683","328.5","true","-1","149.75999999999993","15.36","3","-1","-1","","","","","","","","","","","","",""
"psychophysics","106","655870","0.0-10.0-0.18","5fa507fa0776431b370bc0c7","6368f2eea3e9634aebcc2f6b","6368fe3888dad057c54d9237","95.90000003576279","","","","37","","","","key","16.64681538461457","683","328.5","true","-1","149.75999999999993","15.36","3","-1","-1","","","","","","","","","","","","",""
"psychophysics","107","657346","0.0-10.0-0.19","5fa507fa0776431b370bc0c7","6368f2eea3e9634aebcc2f6b","6368fe3888dad057c54d9237","470.7999999523163","","","","39","","","","key","16.643772727272747","683","328.5","true","1","134.39999999999992","15.36","3","-1","-1","","","","","","","","","","","","",""
"psychophysics","108","659033","0.0-10.0-0.20","5fa507fa0776431b370bc0c7","6368f2eea3e9634aebcc2f6b","6368fe3888dad057c54d9237","681.3999999761581","","","","39","","","","key","16.6451800000004","683","328.5","true","1","134.39999999999992","15.36","3","-1","-1","","","","","","","","","","","","",""
"psychophysics","109","660991","0.0-10.0-0.21","5fa507fa0776431b370bc0c7","6368f2eea3e9634aebcc2f6b","6368fe3888dad057c54d9237","952.8999999761581","","","","37","","","","key","16.64544444444438","683","328.5","true","1","129","12.287999999999998","4","1","-1","","","","","","","","","","","","",""
"psychophysics","110","663301","0.0-10.0-0.22","5fa507fa0776431b370bc0c7","6368f2eea3e9634aebcc2f6b","6368fe3888dad057c54d9237","1301.699999988079","","","","37","","","","key","16.645854014598246","683","328.5","true","1","141.288","12.287999999999998","4","1","1","","","","","","","","","","","","",""
"psychophysics","111","664858","0.0-10.0-0.23","5fa507fa0776431b370bc0c7","6368f2eea3e9634aebcc2f6b","6368fe3888dad057c54d9237","555.5","","","","37","","","","key","16.64532258064531","683","328.5","true","-1","153.57600000000002","12.287999999999998","4","-1","1","","","","","","","","","","","","",""
"psychophysics","112","665875","0.0-10.0-0.24","5fa507fa0776431b370bc0c7","6368f2eea3e9634aebcc2f6b","6368fe3888dad057c54d9237","11.599999964237213","","","","39","","","","key","16.64501666666668","683","328.5","true","1","153.57600000000002","9.8304","5","-1","-1","","","","","","","","","","","","",""
"psychophysics","113","666935","0.0-10.0-0.25","5fa507fa0776431b370bc0c7","6368f2eea3e9634aebcc2f6b","6368fe3888dad057c54d9237","55.80000001192093","","","","37","","","","key","16.646063492062414","683","328.5","true","-1","143.74560000000002","9.8304","5","-1","-1","","","","","","","","","","","","",""
"psychophysics","114","671003","0.0-10.0-0.26","5fa507fa0776431b370bc0c7","6368f2eea3e9634aebcc2f6b","6368fe3888dad057c54d9237","3062","","","","37","","","","key","16.645004115226474","683","328.5","true","1","143.74560000000002","7.864319999999999","6","1","-1","","","","","","","","","","","","",""
"psychophysics","115","672748","0.0-10.0-0.27","5fa507fa0776431b370bc0c7","6368f2eea3e9634aebcc2f6b","6368fe3888dad057c54d9237","742","","","","39","","","","key","16.64443269230721","683","328.5","true","1","151.60992000000002","7.864319999999999","6","-1","1","","","","","","","","","","","","",""
"psychophysics","116","673862","0.0-10.0-0.28","5fa507fa0776431b370bc0c7","6368f2eea3e9634aebcc2f6b","6368fe3888dad057c54d9237","111.20000004768372","","","","39","","","","key","16.64515151515088","683","328.5","true","1","151.60992000000002","6.291456","7","-1","-1","","","","","","","","","","","","",""
"psychophysics","117","675011","0.0-10.0-0.29","5fa507fa0776431b370bc0c7","6368f2eea3e9634aebcc2f6b","6368fe3888dad057c54d9237","142.5","","","","39","","","","key","16.6458235294113","683","328.5","true","1","145.318464","6.291456","7","-1","-1","","","","","","","","","","","","",""
"psychophysics","118","676182","0.0-10.0-0.30","5fa507fa0776431b370bc0c7","6368f2eea3e9634aebcc2f6b","6368fe3888dad057c54d9237","167.10000002384186","","","","39","","","","key","16.645826086957022","683","328.5","true","1","145.318464","6.291456","7","-1","-1","","","","","","","","","","","","",""
"psychophysics","119","678181","0.0-10.0-0.31","5fa507fa0776431b370bc0c7","6368f2eea3e9634aebcc2f6b","6368fe3888dad057c54d9237","990.6000000238419","","","","39","","","","key","16.645756302520773","683","328.5","true","1","139.027008","6.291456","7","-1","-1","","","","","","","","","","","","",""
"psychophysics","120","679400","0.0-10.0-0.32","5fa507fa0776431b370bc0c7","6368f2eea3e9634aebcc2f6b","6368fe3888dad057c54d9237","217.80000001192093","","","","37","","","","key","16.64586301369924","683","328.5","true","-1","139.027008","6.291456","7","-1","-1","","","","","","","","","","","","",""
"psychophysics","121","681259","0.0-10.0-0.33","5fa507fa0776431b370bc0c7","6368f2eea3e9634aebcc2f6b","6368fe3888dad057c54d9237","853.0999999642372","","","","37","","","","key","16.64535454545509","683","328.5","true","-1","132.73555199999998","6.291456","7","-1","-1","","","","","","","","","","","","",""
"psychophysics","122","683191","0.0-10.0-0.34","5fa507fa0776431b370bc0c7","6368f2eea3e9634aebcc2f6b","6368fe3888dad057c54d9237","928.1000000238419","","","","37","","","","key","16.646469565217746","683","328.5","true","1","132.73555199999998","5.033164800000001","8","1","-1","","","","","","","","","","","","",""
"psychophysics","123","685147","0.0-10.0-0.35","5fa507fa0776431b370bc0c7","6368f2eea3e9634aebcc2f6b","6368fe3888dad057c54d9237","948.9000000357628","","","","37","","","","key","16.64563247863239","683","328.5","true","-1","137.7687168","5.033164800000001","8","-1","1","","","","","","","","","","","","",""
"psychophysics","124","686390","0.0-10.0-0.36","5fa507fa0776431b370bc0c7","6368f2eea3e9634aebcc2f6b","6368fe3888dad057c54d9237","238.0999999642372","","","","39","","","","key","16.643310810810558","683","328.5","true","1","137.7687168","4.0265318400000005","9","-1","-1","","","","","","","","","","","","",""
"psychophysics","125","688036","0.0-10.0-0.37","5fa507fa0776431b370bc0c7","6368f2eea3e9634aebcc2f6b","6368fe3888dad057c54d9237","637.9000000357628","","","","39","","","","key","16.644918367347433","683","328.5","true","1","133.74218496","4.0265318400000005","9","-1","-1","","","","","","","","","","","","",""
"psychophysics","126","689759","0.0-10.0-0.38","5fa507fa0776431b370bc0c7","6368f2eea3e9634aebcc2f6b","6368fe3888dad057c54d9237","712.2999999523163","","","","37","","","","key","16.646598039215487","683","328.5","true","-1","133.74218496","4.0265318400000005","9","-1","-1","","","","","","","","","","","","",""
"psychophysics","127","691575","0.0-10.0-0.39","5fa507fa0776431b370bc0c7","6368f2eea3e9634aebcc2f6b","6368fe3888dad057c54d9237","810.4000000357628","","","","37","","","","key","16.64524074074062","683","328.5","true","-1","129.71565312","4.0265318400000005","9","-1","-1","","","","","","","","","","","","",""
"html-keyboard-response","128","699377","0.0-11.0","5fa507fa0776431b370bc0c7","6368f2eea3e9634aebcc2f6b","6368fe3888dad057c54d9237","7801.700000047684","<p>Well Done !</p><p>Prepare for a new block.</p><p>DON'T EXIT THE FULL SCREEN MODE</p><p>Press the Spacebar to start.</p>","","","32","","","","","","","","","","","","","","","true","139.84070297600002","","","","","","","","","","",""
"psychophysics","129","702602","0.0-12.0-0.0","5fa507fa0776431b370bc0c7","6368f2eea3e9634aebcc2f6b","6368fe3888dad057c54d9237","2218.899999976158","","","","39","","","","key","16.640871134020756","683","328.5","true","1","180","30","0","-1","","","","","","","","","","","","","",""
"psychophysics","130","705884","0.0-12.0-0.1","5fa507fa0776431b370bc0c7","6368f2eea3e9634aebcc2f6b","6368fe3888dad057c54d9237","2276.699999988079","","","","37","","","","key","16.645392857142724","683","328.5","true","-1","180","30","0","-1","-1","","","","","","","","","","","","",""
"psychophysics","131","707099","0.0-12.0-0.2","5fa507fa0776431b370bc0c7","6368f2eea3e9634aebcc2f6b","6368fe3888dad057c54d9237","211.80000001192093","","","","39","","","","key","16.642611111111666","683","328.5","true","1","150","30","0","-1","-1","","","","","","","","","","","","",""
"psychophysics","132","708265","0.0-12.0-0.3","5fa507fa0776431b370bc0c7","6368f2eea3e9634aebcc2f6b","6368fe3888dad057c54d9237","161.5","","","","37","","","","key","16.644898550723262","683","328.5","true","-1","150","30","0","-1","-1","","","","","","","","","","","","",""
"psychophysics","133","710553","0.0-12.0-0.4","5fa507fa0776431b370bc0c7","6368f2eea3e9634aebcc2f6b","6368fe3888dad057c54d9237","1280.7999999523163","","","","39","","","","key","16.645102941176873","683","328.5","true","1","129","30","0","-1","-1","","","","","","","","","","","","",""
"psychophysics","134","712891","0.0-12.0-0.5","5fa507fa0776431b370bc0c7","6368f2eea3e9634aebcc2f6b","6368fe3888dad057c54d9237","1336.300000011921","","","","39","","","","key","16.643928571427907","683","328.5","true","-1","129","24","1","1","-1","","","","","","","","","","","","",""
"psychophysics","135","714712","0.0-12.0-0.6","5fa507fa0776431b370bc0c7","6368f2eea3e9634aebcc2f6b","6368fe3888dad057c54d9237","816.3999999761581","","","","39","","","","key","16.644324074074607","683","328.5","true","1","153","24","1","-1","1","","","","","","","","","","","","",""
"psychophysics","136","716513","0.0-12.0-0.7","5fa507fa0776431b370bc0c7","6368f2eea3e9634aebcc2f6b","6368fe3888dad057c54d9237","797","","","","37","","","","key","16.645065420560723","683","328.5","true","-1","153","19.2","2","-1","-1","","","","","","","","","","","","",""
"psychophysics","137","718536","0.0-12.0-0.8","5fa507fa0776431b370bc0c7","6368f2eea3e9634aebcc2f6b","6368fe3888dad057c54d9237","1022.1999999880791","","","","37","","","","key","16.645066115702118","683","328.5","true","1","133.8","15.36","3","1","-1","","","","","","","","","","","","",""
"psychophysics","138","720682","0.0-12.0-0.9","5fa507fa0776431b370bc0c7","6368f2eea3e9634aebcc2f6b","6368fe3888dad057c54d9237","1137.6000000238419","","","","39","","","","key","16.64397656250003","683","328.5","true","1","149.16000000000003","15.36","3","-1","1","","","","","","","","","","","","",""
"psychophysics","139","722863","0.0-12.0-0.10","5fa507fa0776431b370bc0c7","6368f2eea3e9634aebcc2f6b","6368fe3888dad057c54d9237","1175.300000011921","","","","37","","","","key","16.64549230769223","683","328.5","true","-1","149.16000000000003","12.287999999999998","4","-1","-1","","","","","","","","","","","","",""
"psychophysics","140","724725","0.0-12.0-0.11","5fa507fa0776431b370bc0c7","6368f2eea3e9634aebcc2f6b","6368fe3888dad057c54d9237","853.6999999880791","","","","39","","","","key","16.644702702703015","683","328.5","true","1","136.872","12.287999999999998","4","-1","-1","","","","","","","","","","","","",""
"psychophysics","141","726877","0.0-12.0-0.12","5fa507fa0776431b370bc0c7","6368f2eea3e9634aebcc2f6b","6368fe3888dad057c54d9237","1149","","","","39","","","","key","16.644742187500015","683","328.5","true","1","136.872","12.287999999999998","4","-1","-1","","","","","","","","","","","","",""
"psychophysics","142","728795","0.0-12.0-0.13","5fa507fa0776431b370bc0c7","6368f2eea3e9634aebcc2f6b","6368fe3888dad057c54d9237","914.9000000357628","","","","39","","","","key","16.644859649122512","683","328.5","true","1","129","12.287999999999998","4","-1","-1","","","","","","","","","","","","",""
"psychophysics","143","730533","0.0-12.0-0.14","5fa507fa0776431b370bc0c7","6368f2eea3e9634aebcc2f6b","6368fe3888dad057c54d9237","734.5999999642372","","","","37","","","","key","16.643105769231063","683","328.5","true","-1","129","12.287999999999998","4","-1","-1","","","","","","","","","","","","",""
"psychophysics","144","732332","0.0-12.0-0.15","5fa507fa0776431b370bc0c7","6368f2eea3e9634aebcc2f6b","6368fe3888dad057c54d9237","795.5999999642372","","","","37","","","","key","16.64445794392573","683","328.5","true","1","129","9.8304","5","1","-1","","","","","","","","","","","","",""
"psychophysics","145","734001","0.0-12.0-0.16","5fa507fa0776431b370bc0c7","6368f2eea3e9634aebcc2f6b","6368fe3888dad057c54d9237","665.5","","","","39","","","","key","16.64644444444466","683","328.5","true","1","138.8304","9.8304","5","-1","1","","","","","","","","","","","","",""
"psychophysics","146","736270","0.0-12.0-0.17","5fa507fa0776431b370bc0c7","6368f2eea3e9634aebcc2f6b","6368fe3888dad057c54d9237","1261.800000011921","","","","37","","","","key","16.644414814815132","683","328.5","true","1","138.8304","7.864319999999999","6","1","-1","","","","","","","","","","","","",""
"psychophysics","147","738100","0.0-12.0-0.18","5fa507fa0776431b370bc0c7","6368f2eea3e9634aebcc2f6b","6368fe3888dad057c54d9237","828.6000000238419","","","","37","","","","key","16.645422018348846","683","328.5","true","-1","146.69472","7.864319999999999","6","-1","1","","","","","","","","","","","","",""
"psychophysics","148","740179","0.0-12.0-0.19","5fa507fa0776431b370bc0c7","6368f2eea3e9634aebcc2f6b","6368fe3888dad057c54d9237","1076.5999999642372","","","","39","","","","key","16.644096774193684","683","328.5","true","1","146.69472","6.291456","7","-1","-1","","","","","","","","","","","","",""
"psychophysics","149","742350","0.0-12.0-0.20","5fa507fa0776431b370bc0c7","6368f2eea3e9634aebcc2f6b","6368fe3888dad057c54d9237","1166.5","","","","37","","","","key","16.645599999999664","683","328.5","true","-1","140.40326399999998","6.291456","7","-1","-1","","","","","","","","","","","","",""
"psychophysics","150","744248","0.0-12.0-0.21","5fa507fa0776431b370bc0c7","6368f2eea3e9634aebcc2f6b","6368fe3888dad057c54d9237","895.7000000476837","","","","39","","","","key","16.64481415929153","683","328.5","true","-1","140.40326399999998","5.033164800000001","8","1","-1","","","","","","","","","","","","",""
"psychophysics","151","746033","0.0-12.0-0.22","5fa507fa0776431b370bc0c7","6368f2eea3e9634aebcc2f6b","6368fe3888dad057c54d9237","777.7999999523163","","","","37","","","","key","16.64270754716961","683","328.5","true","-1","145.4364288","5.033164800000001","8","-1","1","","","","","","","","","","","","",""
"psychophysics","152","747844","0.0-12.0-0.23","5fa507fa0776431b370bc0c7","6368f2eea3e9634aebcc2f6b","6368fe3888dad057c54d9237","804.2999999523163","","","","37","","","","key","16.64449074074057","683","328.5","true","-1","145.4364288","4.0265318400000005","9","-1","-1","","","","","","","","","","","","",""
"psychophysics","153","749569","0.0-12.0-0.24","5fa507fa0776431b370bc0c7","6368f2eea3e9634aebcc2f6b","6368fe3888dad057c54d9237","721.1000000238419","","","","39","","","","key","16.644549019607332","683","328.5","true","1","141.40989696","4.0265318400000005","9","-1","-1","","","","","","","","","","","","",""
"psychophysics","154","751600","0.0-12.0-0.25","5fa507fa0776431b370bc0c7","6368f2eea3e9634aebcc2f6b","6368fe3888dad057c54d9237","1028.9000000357628","","","","37","","","","key","16.644256198347723","683","328.5","true","-1","141.40989696","4.0265318400000005","9","-1","-1","","","","","","","","","","","","",""
"psychophysics","155","753501","0.0-12.0-0.26","5fa507fa0776431b370bc0c7","6368f2eea3e9634aebcc2f6b","6368fe3888dad057c54d9237","899.3999999761581","","","","37","","","","key","16.645646017698976","683","328.5","true","1","137.38336512","3.2212254720000004","10","1","-1","","","","","","","","","","","","",""
"psychophysics","156","755541","0.0-12.0-0.27","5fa507fa0776431b370bc0c7","6368f2eea3e9634aebcc2f6b","6368fe3888dad057c54d9237","1037.9000000357628","","","","37","","","","key","16.64557377049188","683","328.5","true","1","140.60459059200002","3.2212254720000004","10","1","1","","","","","","","","","","","","",""
"psychophysics","157","757384","0.0-12.0-0.28","5fa507fa0776431b370bc0c7","6368f2eea3e9634aebcc2f6b","6368fe3888dad057c54d9237","840.3000000119209","","","","39","","","","key","16.644418181818697","683","328.5","true","1","143.82581606400004","3.2212254720000004","10","-1","1","","","","","","","","","","","","",""
"psychophysics","158","759307","0.0-12.0-0.29","5fa507fa0776431b370bc0c7","6368f2eea3e9634aebcc2f6b","6368fe3888dad057c54d9237","916.0999999642372","","","","39","","","","key","16.644728070176043","683","328.5","true","1","143.82581606400004","2.5769803776000004","11","-1","-1","","","","","","","","","","","","",""
"psychophysics","159","761102","0.0-12.0-0.30","5fa507fa0776431b370bc0c7","6368f2eea3e9634aebcc2f6b","6368fe3888dad057c54d9237","793.1000000238419","","","","37","","","","key","16.64633644859755","683","328.5","true","1","141.24883568640004","2.0615843020800004","12","1","-1","","","","","","","","","","","","",""
"psychophysics","160","763727","0.0-12.0-0.31","5fa507fa0776431b370bc0c7","6368f2eea3e9634aebcc2f6b","6368fe3888dad057c54d9237","1623.5","","","","37","","","","key","16.645878980891293","683","328.5","true","-1","143.31041998848005","2.0615843020800004","12","-1","1","","","","","","","","","","","","",""
"psychophysics","161","765525","0.0-12.0-0.32","5fa507fa0776431b370bc0c7","6368f2eea3e9634aebcc2f6b","6368fe3888dad057c54d9237","790.1000000238419","","","","37","","","","key","16.646317757008962","683","328.5","true","-1","143.31041998848005","1.6492674416640005","13","-1","-1","","","","","","","","","","","","",""
"psychophysics","162","767714","0.0-12.0-0.33","5fa507fa0776431b370bc0c7","6368f2eea3e9634aebcc2f6b","6368fe3888dad057c54d9237","1187.300000011921","","","","37","","","","key","16.645507692307447","683","328.5","true","-1","141.66115254681606","1.6492674416640005","13","-1","-1","","","","","","","","","","","","",""
"psychophysics","163","769738","0.0-12.0-0.34","5fa507fa0776431b370bc0c7","6368f2eea3e9634aebcc2f6b","6368fe3888dad057c54d9237","1019.9000000357628","","","","37","","","","key","16.64502479338899","683","328.5","true","-1","141.66115254681606","1.6492674416640005","13","-1","-1","","","","","","","","","","","","",""
"psychophysics","164","772153","0.0-12.0-0.35","5fa507fa0776431b370bc0c7","6368f2eea3e9634aebcc2f6b","6368fe3888dad057c54d9237","1410","","","","39","","","","key","16.645090277778056","683","328.5","true","1","140.01188510515206","1.6492674416640005","13","-1","-1","","","","","","","","","","","","",""
"psychophysics","165","773904","0.0-12.0-0.36","5fa507fa0776431b370bc0c7","6368f2eea3e9634aebcc2f6b","6368fe3888dad057c54d9237","746.4000000357628","","","","37","","","","key","16.64509615384584","683","328.5","true","-1","140.01188510515206","1.6492674416640005","13","-1","-1","","","","","","","","","","","","",""
"psychophysics","166","776995","0.0-12.0-0.37","5fa507fa0776431b370bc0c7","6368f2eea3e9634aebcc2f6b","6368fe3888dad057c54d9237","2089.399999976158","","","","37","","","","key","16.645437837837616","683","328.5","true","-1","138.36261766348807","1.6492674416640005","13","-1","-1","","","","","","","","","","","","",""
"psychophysics","167","779709","0.0-12.0-0.38","5fa507fa0776431b370bc0c7","6368f2eea3e9634aebcc2f6b","6368fe3888dad057c54d9237","1709.699999988079","","","","39","","","","key","16.645277777777977","683","328.5","true","-1","138.36261766348807","1.3194139533312006","14","1","-1","","","","","","","","","","","","",""
"psychophysics","168","781643","0.0-12.0-0.39","5fa507fa0776431b370bc0c7","6368f2eea3e9634aebcc2f6b","6368fe3888dad057c54d9237","932.5","","","","39","","","","key","16.645043478260302","683","328.5","true","-1","139.68203161681927","1.3194139533312006","14","1","1","","","","","","","","","","","","",""
"html-keyboard-response","169","787003","0.0-13.0","5fa507fa0776431b370bc0c7","6368f2eea3e9634aebcc2f6b","6368fe3888dad057c54d9237","5358.699999988079","<p>Well Done !</p><p>Prepare for a new block.</p><p>DON'T EXIT THE FULL SCREEN MODE</p><p>Press the Spacebar to start.</p>","","","32","","","","","","","","","","","","","","","true","140.9781668474061","","","","","","","","","","",""
"html-keyboard-response","170","787113","0.0-14.0","5fa507fa0776431b370bc0c7","6368f2eea3e9634aebcc2f6b","6368fe3888dad057c54d9237","null","","","","null","","","","","","","","","","","","","","","","","179.69999370850311","true","231.39998741700623","","","","","","","",""
"instructions","171","842898","0.0-15.0","5fa507fa0776431b370bc0c7","6368f2eea3e9634aebcc2f6b","6368fe3888dad057c54d9237","55784","","","","","","","[{""page_index"":0,""viewing_time"":44791.80000001192},{""page_index"":1,""viewing_time"":3063.800000011921},{""page_index"":2,""viewing_time"":7928}]","","","","","","","","","","","","","","","","","","","","","","","",""
"psychophysics","172","845927","0.0-16.0-0.0","5fa507fa0776431b370bc0c7","6368f2eea3e9634aebcc2f6b","6368fe3888dad057c54d9237","null","","","","null","","","","key","16.641700000001585","683","328.5","","","","","","","","","","","","","","","","","","","",""
"psychophysics","173","846429","0.0-16.0-1.0","5fa507fa0776431b370bc0c7","6368f2eea3e9634aebcc2f6b","6368fe3888dad057c54d9237","null","","","","null","","","","key","16.64448275862278","683","328.5","","","","","","","","","","","","","231","-1","0","false","","","",""
"psychophysics","174","847268","0.0-16.0-2.0","5fa507fa0776431b370bc0c7","6368f2eea3e9634aebcc2f6b","6368fe3888dad057c54d9237","836.1999999880791","","","","90","","","","key","16.646359999999405","683","328.5","","","","","","","","","","","","","","","","","","","",""
"psychophysics","175","848271","0.0-16.0-0.1","5fa507fa0776431b370bc0c7","6368f2eea3e9634aebcc2f6b","6368fe3888dad057c54d9237","null","","","","null","","","","key","16.644050847458796","683","328.5","","","","","","","","","","","","","","","","","","","",""
"psychophysics","176","848775","0.0-16.0-1.1","5fa507fa0776431b370bc0c7","6368f2eea3e9634aebcc2f6b","6368fe3888dad057c54d9237","null","","","","null","","","","key","16.64706896551772","683","328.5","","","","","","","","","","","","","231","-1","4","false","","","",""
"psychophysics","177","848956","0.0-16.0-2.1","5fa507fa0776431b370bc0c7","6368f2eea3e9634aebcc2f6b","6368fe3888dad057c54d9237","178","","","","90","","","","key","16.659400000004098","683","328.5","","","","","","","","","","","","","","","","","","","",""
"psychophysics","178","849958","0.0-16.0-0.2","5fa507fa0776431b370bc0c7","6368f2eea3e9634aebcc2f6b","6368fe3888dad057c54d9237","null","","","","null","","","","key","16.646406779661618","683","328.5","","","","","","","","","","","","","","","","","","","",""
"psychophysics","179","850463","0.0-16.0-1.2","5fa507fa0776431b370bc0c7","6368f2eea3e9634aebcc2f6b","6368fe3888dad057c54d9237","null","","","","null","","","","key","16.64639999999975","683","328.5","","","","","","","","","","","","","231","-1","5","false","","","",""
"psychophysics","180","850550","0.0-16.0-2.2","5fa507fa0776431b370bc0c7","6368f2eea3e9634aebcc2f6b","6368fe3888dad057c54d9237","86.19999998807907","","","","90","","","","key","16.64650000000256","683","328.5","","","","","","","","","","","","","","","","","","","",""
"psychophysics","181","851551","0.0-16.0-0.3","5fa507fa0776431b370bc0c7","6368f2eea3e9634aebcc2f6b","6368fe3888dad057c54d9237","null","","","","null","","","","key","16.64498305084752","683","328.5","","","","","","","","","","","","","","","","","","","",""
"psychophysics","182","852055","0.0-16.0-1.3","5fa507fa0776431b370bc0c7","6368f2eea3e9634aebcc2f6b","6368fe3888dad057c54d9237","null","","","","null","","","","key","16.644999999998554","683","328.5","","","","","","","","","","","","","231","-1","6","false","","","",""
"psychophysics","183","852105","0.0-16.0-2.3","5fa507fa0776431b370bc0c7","6368f2eea3e9634aebcc2f6b","6368fe3888dad057c54d9237","47.19999998807907","","","","90","","","","key","16.65700000000652","683","328.5","","","","","","","","","","","","","","","","","","","",""
"psychophysics","184","853111","0.0-16.0-0.4","5fa507fa0776431b370bc0c7","6368f2eea3e9634aebcc2f6b","6368fe3888dad057c54d9237","null","","","","null","","","","key","16.64521666666648","683","328.5","","","","","","","","","","","","","","","","","","","",""
"psychophysics","185","853615","0.0-16.0-1.4","5fa507fa0776431b370bc0c7","6368f2eea3e9634aebcc2f6b","6368fe3888dad057c54d9237","null","","","","null","","","","key","16.64755172414127","683","328.5","","","","","","","","","","","","","231","1","4","false","","","",""
"psychophysics","186","854009","0.0-16.0-2.4","5fa507fa0776431b370bc0c7","6368f2eea3e9634aebcc2f6b","6368fe3888dad057c54d9237","393.0999999642372","","","","77","","","","key","16.64152173913064","683","328.5","","","","","","","","","","","","","","","","","","","",""
"psychophysics","187","855016","0.0-16.0-0.5","5fa507fa0776431b370bc0c7","6368f2eea3e9634aebcc2f6b","6368fe3888dad057c54d9237","null","","","","null","","","","key","16.644169491524334","683","328.5","","","","","","","","","","","","","","","","","","","",""
"psychophysics","188","855517","0.0-16.0-1.5","5fa507fa0776431b370bc0c7","6368f2eea3e9634aebcc2f6b","6368fe3888dad057c54d9237","null","","","","null","","","","key","16.642103448273325","683","328.5","","","","","","","","","","","","","231","1","2","false","","","",""
"psychophysics","189","855594","0.0-16.0-2.5","5fa507fa0776431b370bc0c7","6368f2eea3e9634aebcc2f6b","6368fe3888dad057c54d9237","70.30000001192093","","","","90","","","","key","16.65174999998999","683","328.5","","","","","","","","","","","","","","","","","","","",""
"psychophysics","190","856599","0.0-16.0-0.6","5fa507fa0776431b370bc0c7","6368f2eea3e9634aebcc2f6b","6368fe3888dad057c54d9237","null","","","","null","","","","key","16.64567796610122","683","328.5","","","","","","","","","","","","","","","","","","","",""
"psychophysics","191","857104","0.0-16.0-1.6","5fa507fa0776431b370bc0c7","6368f2eea3e9634aebcc2f6b","6368fe3888dad057c54d9237","null","","","","null","","","","key","16.647366666669647","683","328.5","","","","","","","","","","","","","231","-1","3","false","","","",""
"psychophysics","192","859728","0.0-16.0-2.6","5fa507fa0776431b370bc0c7","6368f2eea3e9634aebcc2f6b","6368fe3888dad057c54d9237","2622.800000011921","","","","90","","","","key","16.644833333333597","683","328.5","","","","","","","","","","","","","","","","","","","",""
"psychophysics","193","860735","0.0-16.0-0.7","5fa507fa0776431b370bc0c7","6368f2eea3e9634aebcc2f6b","6368fe3888dad057c54d9237","null","","","","null","","","","key","16.64806666666603","683","328.5","","","","","","","","","","","","","","","","","","","",""
"psychophysics","194","861239","0.0-16.0-1.7","5fa507fa0776431b370bc0c7","6368f2eea3e9634aebcc2f6b","6368fe3888dad057c54d9237","null","","","","null","","","","key","16.649517241379662","683","328.5","","","","","","","","","","","","","231","1","5","false","","","",""
"psychophysics","195","861347","0.0-16.0-2.7","5fa507fa0776431b370bc0c7","6368f2eea3e9634aebcc2f6b","6368fe3888dad057c54d9237","106.89999997615814","","","","90","","","","key","16.65983333331921","683","328.5","","","","","","","","","","","","","","","","","","","",""
"psychophysics","196","862351","0.0-16.0-0.8","5fa507fa0776431b370bc0c7","6368f2eea3e9634aebcc2f6b","6368fe3888dad057c54d9237","null","","","","null","","","","key","16.64516949152645","683","328.5","","","","","","","","","","","","","","","","","","","",""
"psychophysics","197","862855","0.0-16.0-1.8","5fa507fa0776431b370bc0c7","6368f2eea3e9634aebcc2f6b","6368fe3888dad057c54d9237","null","","","","null","","","","key","16.649517241379662","683","328.5","","","","","","","","","","","","","231","1","0","false","","","",""
"psychophysics","198","863378","0.0-16.0-2.8","5fa507fa0776431b370bc0c7","6368f2eea3e9634aebcc2f6b","6368fe3888dad057c54d9237","521.5","","","","90","","","","key","16.645483870968043","683","328.5","","","","","","","","","","","","","","","","","","","",""
"psychophysics","199","864383","0.0-16.0-0.9","5fa507fa0776431b370bc0c7","6368f2eea3e9634aebcc2f6b","6368fe3888dad057c54d9237","null","","","","null","","","","key","16.64437288135661","683","328.5","","","","","","","","","","","","","","","","","","","",""
"psychophysics","200","864887","0.0-16.0-1.9","5fa507fa0776431b370bc0c7","6368f2eea3e9634aebcc2f6b","6368fe3888dad057c54d9237","null","","","","null","","","","key","16.644793103449047","683","328.5","","","","","","","","","","","","","231","1","6","false","","","",""
"psychophysics","201","864961","0.0-16.0-2.9","5fa507fa0776431b370bc0c7","6368f2eea3e9634aebcc2f6b","6368fe3888dad057c54d9237","73.90000003576279","","","","90","","","","key","16.68100000001141","683","328.5","","","","","","","","","","","","","","","","","","","",""
"psychophysics","202","865967","0.0-16.0-0.10","5fa507fa0776431b370bc0c7","6368f2eea3e9634aebcc2f6b","6368fe3888dad057c54d9237","null","","","","null","","","","key","16.646288135594105","683","328.5","","","","","","","","","","","","","","","","","","","",""
"psychophysics","203","866470","0.0-16.0-1.10","5fa507fa0776431b370bc0c7","6368f2eea3e9634aebcc2f6b","6368fe3888dad057c54d9237","null","","","","null","","","","key","16.64527586206858","683","328.5","","","","","","","","","","","","","231","1","3","false","","","",""
"psychophysics","204","866567","0.0-16.0-2.10","5fa507fa0776431b370bc0c7","6368f2eea3e9634aebcc2f6b","6368fe3888dad057c54d9237","96","","","","90","","","","key","16.659000000008383","683","328.5","","","","","","","","","","","","","","","","","","","",""
"psychophysics","205","867568","0.0-16.0-0.11","5fa507fa0776431b370bc0c7","6368f2eea3e9634aebcc2f6b","6368fe3888dad057c54d9237","null","","","","null","","","","key","16.648033898304043","683","328.5","","","","","","","","","","","","","","","","","","","",""
"psychophysics","206","868071","0.0-16.0-1.11","5fa507fa0776431b370bc0c7","6368f2eea3e9634aebcc2f6b","6368fe3888dad057c54d9237","null","","","","null","","","","key","16.642866666665455","683","328.5","","","","","","","","","","","","","231","-1","2","false","","","",""
"psychophysics","207","870341","0.0-16.0-2.11","5fa507fa0776431b370bc0c7","6368f2eea3e9634aebcc2f6b","6368fe3888dad057c54d9237","2268.899999976158","","","","90","","","","key","16.645125925925527","683","328.5","","","","","","","","","","","","","","","","","","","",""
"psychophysics","208","871343","0.0-16.0-0.12","5fa507fa0776431b370bc0c7","6368f2eea3e9634aebcc2f6b","6368fe3888dad057c54d9237","null","","","","null","","","","key","16.646999999999178","683","328.5","","","","","","","","","","","","","","","","","","","",""
"psychophysics","209","871846","0.0-16.0-1.12","5fa507fa0776431b370bc0c7","6368f2eea3e9634aebcc2f6b","6368fe3888dad057c54d9237","null","","","","null","","","","key","16.64441379310226","683","328.5","","","","","","","","","","","","","231","-1","0","false","","","",""
"psychophysics","210","872045","0.0-16.0-2.12","5fa507fa0776431b370bc0c7","6368f2eea3e9634aebcc2f6b","6368fe3888dad057c54d9237","196.70000004768372","","","","90","","","","key","16.642727272722617","683","328.5","","","","","","","","","","","","","","","","","","","",""
"psychophysics","211","873048","0.0-16.0-0.13","5fa507fa0776431b370bc0c7","6368f2eea3e9634aebcc2f6b","6368fe3888dad057c54d9237","null","","","","null","","","","key","16.64768333333389","683","328.5","","","","","","","","","","","","","","","","","","","",""
"psychophysics","212","873551","0.0-16.0-1.13","5fa507fa0776431b370bc0c7","6368f2eea3e9634aebcc2f6b","6368fe3888dad057c54d9237","null","","","","null","","","","key","16.638896551721825","683","328.5","","","","","","","","","","","","","231","-1","3","false","","","",""
"psychophysics","213","873597","0.0-16.0-2.13","5fa507fa0776431b370bc0c7","6368f2eea3e9634aebcc2f6b","6368fe3888dad057c54d9237","44.59999996423721","","","","90","","","","key","16.59699999995064","683","328.5","","","","","","","","","","","","","","","","","","","",""
"psychophysics","214","874598","0.0-16.0-0.14","5fa507fa0776431b370bc0c7","6368f2eea3e9634aebcc2f6b","6368fe3888dad057c54d9237","null","","","","null","","","","key","16.644932203389452","683","328.5","","","","","","","","","","","","","","","","","","","",""
"psychophysics","215","875112","0.0-16.0-1.14","5fa507fa0776431b370bc0c7","6368f2eea3e9634aebcc2f6b","6368fe3888dad057c54d9237","null","","","","null","","","","key","16.648700000000343","683","328.5","","","","","","","","","","","","","231","-1","6","false","","","",""
"psychophysics","216","875223","0.0-16.0-2.14","5fa507fa0776431b370bc0c7","6368f2eea3e9634aebcc2f6b","6368fe3888dad057c54d9237","109.19999998807907","","","","90","","","","key","16.67160000000149","683","328.5","","","","","","","","","","","","","","","","","","","",""
"psychophysics","217","876224","0.0-16.0-0.15","5fa507fa0776431b370bc0c7","6368f2eea3e9634aebcc2f6b","6368fe3888dad057c54d9237","null","","","","null","","","","key","16.643600000000635","683","328.5","","","","","","","","","","","","","","","","","","","",""
"psychophysics","218","876735","0.0-16.0-1.15","5fa507fa0776431b370bc0c7","6368f2eea3e9634aebcc2f6b","6368fe3888dad057c54d9237","null","","","","null","","","","key","16.64779310344702","683","328.5","","","","","","","","","","","","","231","1","0","false","","","",""
"psychophysics","219","876890","0.0-16.0-2.15","5fa507fa0776431b370bc0c7","6368f2eea3e9634aebcc2f6b","6368fe3888dad057c54d9237","153.80000001192093","","","","90","","","","key","16.640625","683","328.5","","","","","","","","","","","","","","","","","","","",""
"psychophysics","220","877895","0.0-16.0-0.16","5fa507fa0776431b370bc0c7","6368f2eea3e9634aebcc2f6b","6368fe3888dad057c54d9237","null","","","","null","","","","key","16.644550000001132","683","328.5","","","","","","","","","","","","","","","","","","","",""
"psychophysics","221","878399","0.0-16.0-1.16","5fa507fa0776431b370bc0c7","6368f2eea3e9634aebcc2f6b","6368fe3888dad057c54d9237","null","","","","null","","","","key","16.64441379310226","683","328.5","","","","","","","","","","","","","231","1","3","false","","","",""
"psychophysics","222","878517","0.0-16.0-2.16","5fa507fa0776431b370bc0c7","6368f2eea3e9634aebcc2f6b","6368fe3888dad057c54d9237","115.80000001192093","","","","90","","","","key","16.65549999999348","683","328.5","","","","","","","","","","","","","","","","","","","",""
"psychophysics","223","879519","0.0-16.0-0.17","5fa507fa0776431b370bc0c7","6368f2eea3e9634aebcc2f6b","6368fe3888dad057c54d9237","null","","","","null","","","","key","16.645881355931525","683","328.5","","","","","","","","","","","","","","","","","","","",""
"psychophysics","224","880023","0.0-16.0-1.17","5fa507fa0776431b370bc0c7","6368f2eea3e9634aebcc2f6b","6368fe3888dad057c54d9237","null","","","","null","","","","key","16.649966666665083","683","328.5","","","","","","","","","","","","","231","1","5","false","","","",""
"psychophysics","225","880544","0.0-16.0-2.17","5fa507fa0776431b370bc0c7","6368f2eea3e9634aebcc2f6b","6368fe3888dad057c54d9237","521","","","","90","","","","key","16.650466666665547","683","328.5","","","","","","","","","","","","","","","","","","","",""
"psychophysics","226","881550","0.0-16.0-0.18","5fa507fa0776431b370bc0c7","6368f2eea3e9634aebcc2f6b","6368fe3888dad057c54d9237","null","","","","null","","","","key","16.644830508475287","683","328.5","","","","","","","","","","","","","","","","","","","",""
"psychophysics","227","882055","0.0-16.0-1.18","5fa507fa0776431b370bc0c7","6368f2eea3e9634aebcc2f6b","6368fe3888dad057c54d9237","null","","","","null","","","","key","16.647100000001956","683","328.5","","","","","","","","","","","","","231","1","2","false","","","",""
"psychophysics","228","882199","0.0-16.0-2.18","5fa507fa0776431b370bc0c7","6368f2eea3e9634aebcc2f6b","6368fe3888dad057c54d9237","143.19999998807907","","","","90","","","","key","16.61714285715217","683","328.5","","","","","","","","","","","","","","","","","","","",""
"psychophysics","229","883206","0.0-16.0-0.19","5fa507fa0776431b370bc0c7","6368f2eea3e9634aebcc2f6b","6368fe3888dad057c54d9237","null","","","","null","","","","key","16.645233333333938","683","328.5","","","","","","","","","","","","","","","","","","","",""
"psychophysics","230","883711","0.0-16.0-1.19","5fa507fa0776431b370bc0c7","6368f2eea3e9634aebcc2f6b","6368fe3888dad057c54d9237","null","","","","null","","","","key","16.64368965517296","683","328.5","","","","","","","","","","","","","231","1","4","false","","","",""
"psychophysics","231","883801","0.0-16.0-2.19","5fa507fa0776431b370bc0c7","6368f2eea3e9634aebcc2f6b","6368fe3888dad057c54d9237","89.5","","","","90","","","","key","16.654799999995156","683","328.5","","","","","","","","","","","","","","","","","","","",""
"psychophysics","232","884806","0.0-16.0-0.20","5fa507fa0776431b370bc0c7","6368f2eea3e9634aebcc2f6b","6368fe3888dad057c54d9237","null","","","","null","","","","key","16.643898305084587","683","328.5","","","","","","","","","","","","","","","","","","","",""
"psychophysics","233","885311","0.0-16.0-1.20","5fa507fa0776431b370bc0c7","6368f2eea3e9634aebcc2f6b","6368fe3888dad057c54d9237","null","","","","null","","","","key","16.642586206896873","683","328.5","","","","","","","","","","","","","231","-1","4","false","","","",""
"psychophysics","234","885456","0.0-16.0-2.20","5fa507fa0776431b370bc0c7","6368f2eea3e9634aebcc2f6b","6368fe3888dad057c54d9237","137.79999995231628","","","","90","","","","key","16.653000000005704","683","328.5","","","","","","","","","","","","","","","","","","","",""
"psychophysics","235","886460","0.0-16.0-0.21","5fa507fa0776431b370bc0c7","6368f2eea3e9634aebcc2f6b","6368fe3888dad057c54d9237","null","","","","null","","","","key","16.644169491524334","683","328.5","","","","","","","","","","","","","","","","","","","",""
"psychophysics","236","886967","0.0-16.0-1.21","5fa507fa0776431b370bc0c7","6368f2eea3e9634aebcc2f6b","6368fe3888dad057c54d9237","null","","","","null","","","","key","16.64236666666887","683","328.5","","","","","","","","","","","","","231","-1","5","false","","","",""
"psychophysics","237","887023","0.0-16.0-2.21","5fa507fa0776431b370bc0c7","6368f2eea3e9634aebcc2f6b","6368fe3888dad057c54d9237","54.59999996423721","","","","90","","","","key","16.650999999954365","683","328.5","","","","","","","","","","","","","","","","","","","",""
"psychophysics","238","888025","0.0-16.0-0.22","5fa507fa0776431b370bc0c7","6368f2eea3e9634aebcc2f6b","6368fe3888dad057c54d9237","null","","","","null","","","","key","16.64476271186387","683","328.5","","","","","","","","","","","","","","","","","","","",""
"psychophysics","239","888527","0.0-16.0-1.22","5fa507fa0776431b370bc0c7","6368f2eea3e9634aebcc2f6b","6368fe3888dad057c54d9237","null","","","","null","","","","key","16.64743333333172","683","328.5","","","","","","","","","","","","","231","1","6","false","","","",""
"psychophysics","240","888637","0.0-16.0-2.22","5fa507fa0776431b370bc0c7","6368f2eea3e9634aebcc2f6b","6368fe3888dad057c54d9237","108.80000001192093","","","","90","","","","key","16.652600000007077","683","328.5","","","","","","","","","","","","","","","","","","","",""
"psychophysics","241","889650","0.0-16.0-0.23","5fa507fa0776431b370bc0c7","6368f2eea3e9634aebcc2f6b","6368fe3888dad057c54d9237","null","","","","null","","","","key","16.644016949154075","683","328.5","","","","","","","","","","","","","","","","","","","",""
"psychophysics","242","890156","0.0-16.0-1.23","5fa507fa0776431b370bc0c7","6368f2eea3e9634aebcc2f6b","6368fe3888dad057c54d9237","null","","","","null","","","","key","16.650566666666418","683","328.5","","","","","","","","","","","","","231","-1","2","false","","","",""
"psychophysics","243","890194","0.0-16.0-2.23","5fa507fa0776431b370bc0c7","6368f2eea3e9634aebcc2f6b","6368fe3888dad057c54d9237","36.10000002384186","","","","90","","","","key","16.663000000000466","683","328.5","","","","","","","","","","","","","","","","","","","",""
"html-keyboard-response","244","892742","0.0-17.0","5fa507fa0776431b370bc0c7","6368f2eea3e9634aebcc2f6b","6368fe3888dad057c54d9237","2547.099999964237","<p>Well Done !</p><p>Training Complete. Press the spacebar to start.</p><p>DON'T EXIT THE FULL SCREEN MODE</p>","","","32","","","","","","","","","","","","","","","","","","","","","","","","","","",""
"psychophysics","245","895775","0.0-18.0-0.0","5fa507fa0776431b370bc0c7","6368f2eea3e9634aebcc2f6b","6368fe3888dad057c54d9237","null","","","","null","","","","key","16.63843333333498","683","328.5","","","","","","","","","","","","","","","","","","","",""
"psychophysics","246","896279","0.0-18.0-1.0","5fa507fa0776431b370bc0c7","6368f2eea3e9634aebcc2f6b","6368fe3888dad057c54d9237","null","","","","null","","","","key","16.642999999999905","683","328.5","","","","","","","","","","","","","231","-1","3","true","","","",""
"psychophysics","247","898598","0.0-18.0-2.0","5fa507fa0776431b370bc0c7","6368f2eea3e9634aebcc2f6b","6368fe3888dad057c54d9237","2316.800000011921","","","","90","","","","key","16.645913669064797","683","328.5","","","","","","","","","","","","","","","","","","","",""
"psychophysics","248","899607","0.0-18.0-0.1","5fa507fa0776431b370bc0c7","6368f2eea3e9634aebcc2f6b","6368fe3888dad057c54d9237","null","","","","null","","","","key","16.642864406779726","683","328.5","","","","","","","","","","","","","","","","","","","",""
"psychophysics","249","900109","0.0-18.0-1.1","5fa507fa0776431b370bc0c7","6368f2eea3e9634aebcc2f6b","6368fe3888dad057c54d9237","null","","","","null","","","","key","16.64775862069078","683","328.5","","","","","","","","","","","","","231","1","0","true","","","",""
"psychophysics","250","900191","0.0-18.0-2.1","5fa507fa0776431b370bc0c7","6368f2eea3e9634aebcc2f6b","6368fe3888dad057c54d9237","79.69999998807907","","","","90","","","","key","16.643249999993714","683","328.5","","","","","","","","","","","","","","","","","","","",""
"psychophysics","251","901191","0.0-18.0-0.2","5fa507fa0776431b370bc0c7","6368f2eea3e9634aebcc2f6b","6368fe3888dad057c54d9237","null","","","","null","","","","key","16.646633333334467","683","328.5","","","","","","","","","","","","","","","","","","","",""
"psychophysics","252","901694","0.0-18.0-1.2","5fa507fa0776431b370bc0c7","6368f2eea3e9634aebcc2f6b","6368fe3888dad057c54d9237","null","","","","null","","","","key","16.642999999999905","683","328.5","","","","","","","","","","","","","231","1","6","true","","","",""
"psychophysics","253","901798","0.0-18.0-2.2","5fa507fa0776431b370bc0c7","6368f2eea3e9634aebcc2f6b","6368fe3888dad057c54d9237","102.29999995231628","","","","90","","","","key","16.63519999999553","683","328.5","","","","","","","","","","","","","","","","","","","",""
"psychophysics","254","902799","0.0-18.0-0.3","5fa507fa0776431b370bc0c7","6368f2eea3e9634aebcc2f6b","6368fe3888dad057c54d9237","null","","","","null","","","","key","16.646932203389735","683","328.5","","","","","","","","","","","","","","","","","","","",""
"psychophysics","255","903303","0.0-18.0-1.3","5fa507fa0776431b370bc0c7","6368f2eea3e9634aebcc2f6b","6368fe3888dad057c54d9237","null","","","","null","","","","key","16.644206896552753","683","328.5","","","","","","","","","","","","","231","1","3","true","","","",""
"psychophysics","256","903355","0.0-18.0-2.3","5fa507fa0776431b370bc0c7","6368f2eea3e9634aebcc2f6b","6368fe3888dad057c54d9237","50.5","","","","90","","","","key","16.68999999994412","683","328.5","","","","","","","","","","","","","","","","","","","",""
"psychophysics","257","904359","0.0-18.0-0.4","5fa507fa0776431b370bc0c7","6368f2eea3e9634aebcc2f6b","6368fe3888dad057c54d9237","null","","","","null","","","","key","16.645183333333502","683","328.5","","","","","","","","","","","","","","","","","","","",""
"psychophysics","258","904862","0.0-18.0-1.4","5fa507fa0776431b370bc0c7","6368f2eea3e9634aebcc2f6b","6368fe3888dad057c54d9237","null","","","","null","","","","key","16.64624137931166","683","328.5","","","","","","","","","","","","","231","-1","2","true","","","",""
"psychophysics","259","906735","0.0-18.0-2.4","5fa507fa0776431b370bc0c7","6368f2eea3e9634aebcc2f6b","6368fe3888dad057c54d9237","1871.800000011921","","","","90","","","","key","16.644900900900137","683","328.5","","","","","","","","","","","","","","","","","","","",""
"psychophysics","260","907743","0.0-18.0-0.5","5fa507fa0776431b370bc0c7","6368f2eea3e9634aebcc2f6b","6368fe3888dad057c54d9237","null","","","","null","","","","key","16.647266666666837","683","328.5","","","","","","","","","","","","","","","","","","","",""
"psychophysics","261","908246","0.0-18.0-1.5","5fa507fa0776431b370bc0c7","6368f2eea3e9634aebcc2f6b","6368fe3888dad057c54d9237","null","","","","null","","","","key","16.647413793100238","683","328.5","","","","","","","","","","","","","231","-1","6","true","","","",""
"psychophysics","262","908339","0.0-18.0-2.5","5fa507fa0776431b370bc0c7","6368f2eea3e9634aebcc2f6b","6368fe3888dad057c54d9237","91.80000001192093","","","","90","","","","key","16.578000000002795","683","328.5","","","","","","","","","","","","","","","","","","","",""
"psychophysics","263","909342","0.0-18.0-0.6","5fa507fa0776431b370bc0c7","6368f2eea3e9634aebcc2f6b","6368fe3888dad057c54d9237","null","","","","null","","","","key","16.646525423727155","683","328.5","","","","","","","","","","","","","","","","","","","",""
"psychophysics","264","909847","0.0-18.0-1.6","5fa507fa0776431b370bc0c7","6368f2eea3e9634aebcc2f6b","6368fe3888dad057c54d9237","null","","","","null","","","","key","16.64379310344972","683","328.5","","","","","","","","","","","","","231","-1","5","true","","","",""
"psychophysics","265","909869","0.0-18.0-2.6","5fa507fa0776431b370bc0c7","6368f2eea3e9634aebcc2f6b","6368fe3888dad057c54d9237","20.400000035762787","","","","90","","","","key","16.67399999999907","683","328.5","","","","","","","","","","","","","","","","","","","",""
"psychophysics","266","910871","0.0-18.0-0.7","5fa507fa0776431b370bc0c7","6368f2eea3e9634aebcc2f6b","6368fe3888dad057c54d9237","null","","","","null","","","","key","16.646016949152383","683","328.5","","","","","","","","","","","","","","","","","","","",""
"psychophysics","267","911375","0.0-18.0-1.7","5fa507fa0776431b370bc0c7","6368f2eea3e9634aebcc2f6b","6368fe3888dad057c54d9237","null","","","","null","","","","key","16.644896551721793","683","328.5","","","","","","","","","","","","","231","-1","0","true","","","",""
"psychophysics","268","911424","0.0-18.0-2.7","5fa507fa0776431b370bc0c7","6368f2eea3e9634aebcc2f6b","6368fe3888dad057c54d9237","47.90000003576279","","","","90","","","","key","16.603000000002794","683","328.5","","","","","","","","","","","","","","","","","","","",""
"psychophysics","269","912427","0.0-18.0-0.8","5fa507fa0776431b370bc0c7","6368f2eea3e9634aebcc2f6b","6368fe3888dad057c54d9237","null","","","","null","","","","key","16.646305084745478","683","328.5","","","","","","","","","","","","","","","","","","","",""
"psychophysics","270","912935","0.0-18.0-1.8","5fa507fa0776431b370bc0c7","6368f2eea3e9634aebcc2f6b","6368fe3888dad057c54d9237","null","","","","null","","","","key","16.64679999999935","683","328.5","","","","","","","","","","","","","231","1","4","true","","","",""
"psychophysics","271","912985","0.0-18.0-2.8","5fa507fa0776431b370bc0c7","6368f2eea3e9634aebcc2f6b","6368fe3888dad057c54d9237","49.59999996423721","","","","90","","","","key","16.581000000005588","683","328.5","","","","","","","","","","","","","","","","","","","",""
"psychophysics","272","913990","0.0-18.0-0.9","5fa507fa0776431b370bc0c7","6368f2eea3e9634aebcc2f6b","6368fe3888dad057c54d9237","null","","","","null","","","","key","16.64503389830559","683","328.5","","","","","","","","","","","","","","","","","","","",""
"psychophysics","273","914492","0.0-18.0-1.9","5fa507fa0776431b370bc0c7","6368f2eea3e9634aebcc2f6b","6368fe3888dad057c54d9237","null","","","","null","","","","key","16.648199999999875","683","328.5","","","","","","","","","","","","","231","-1","4","true","","","",""
"psychophysics","274","914522","0.0-18.0-2.9","5fa507fa0776431b370bc0c7","6368f2eea3e9634aebcc2f6b","6368fe3888dad057c54d9237","27.599999964237213","","","","90","","","","key","NaN","683","328.5","","","","","","","","","","","","","","","","","","","",""
"psychophysics","275","915527","0.0-18.0-0.10","5fa507fa0776431b370bc0c7","6368f2eea3e9634aebcc2f6b","6368fe3888dad057c54d9237","null","","","","null","","","","key","16.642416666665426","683","328.5","","","","","","","","","","","","","","","","","","","",""
"psychophysics","276","916031","0.0-18.0-1.10","5fa507fa0776431b370bc0c7","6368f2eea3e9634aebcc2f6b","6368fe3888dad057c54d9237","null","","","","null","","","","key","16.640344827588454","683","328.5","","","","","","","","","","","","","231","1","2","true","","","",""
"psychophysics","277","918153","0.0-18.0-2.10","5fa507fa0776431b370bc0c7","6368f2eea3e9634aebcc2f6b","6368fe3888dad057c54d9237","2121.300000011921","","","","77","","","","key","16.645269841269872","683","328.5","","","","","","","","","","","","","","","","","","","",""
"psychophysics","278","919159","0.0-18.0-0.11","5fa507fa0776431b370bc0c7","6368f2eea3e9634aebcc2f6b","6368fe3888dad057c54d9237","null","","","","null","","","","key","16.64946666666656","683","328.5","","","","","","","","","","","","","","","","","","","",""
"psychophysics","279","919663","0.0-18.0-1.11","5fa507fa0776431b370bc0c7","6368f2eea3e9634aebcc2f6b","6368fe3888dad057c54d9237","null","","","","null","","","","key","16.648965517239613","683","328.5","","","","","","","","","","","","","231","1","5","true","","","",""
"psychophysics","280","919869","0.0-18.0-2.11","5fa507fa0776431b370bc0c7","6368f2eea3e9634aebcc2f6b","6368fe3888dad057c54d9237","204.4000000357628","","","","90","","","","key","16.63999999999457","683","328.5","","","","","","","","","","","","","","","","","","","",""
"psychophysics","281","920879","0.0-18.0-0.12","5fa507fa0776431b370bc0c7","6368f2eea3e9634aebcc2f6b","6368fe3888dad057c54d9237","null","","","","null","","","","key","16.644525423728844","683","328.5","","","","","","","","","","","","","","","","","","","",""
"psychophysics","282","921382","0.0-18.0-1.12","5fa507fa0776431b370bc0c7","6368f2eea3e9634aebcc2f6b","6368fe3888dad057c54d9237","null","","","","null","","","","key","16.656103448275925","683","328.5","","","","","","","","","","","","","231","1","5","true","","","",""
"psychophysics","283","923351","0.0-18.0-2.12","5fa507fa0776431b370bc0c7","6368f2eea3e9634aebcc2f6b","6368fe3888dad057c54d9237","1966.8999999761581","","","","90","","","","key","16.646305084745478","683","328.5","","","","","","","","","","","","","","","","","","","",""
"psychophysics","284","924358","0.0-18.0-0.13","5fa507fa0776431b370bc0c7","6368f2eea3e9634aebcc2f6b","6368fe3888dad057c54d9237","null","","","","null","","","","key","16.64323728813561","683","328.5","","","","","","","","","","","","","","","","","","","",""
"psychophysics","285","924861","0.0-18.0-1.13","5fa507fa0776431b370bc0c7","6368f2eea3e9634aebcc2f6b","6368fe3888dad057c54d9237","null","","","","null","","","","key","16.640758620691486","683","328.5","","","","","","","","","","","","","231","-1","5","true","","","",""
"psychophysics","286","924890","0.0-18.0-2.13","5fa507fa0776431b370bc0c7","6368f2eea3e9634aebcc2f6b","6368fe3888dad057c54d9237","14.200000047683716","","","","90","","","","key","16.730999999912456","683","328.5","","","","","","","","","","","","","","","","","","","",""
"psychophysics","287","925893","0.0-18.0-0.14","5fa507fa0776431b370bc0c7","6368f2eea3e9634aebcc2f6b","6368fe3888dad057c54d9237","null","","","","null","","","","key","16.644440677966056","683","328.5","","","","","","","","","","","","","","","","","","","",""
"psychophysics","288","926397","0.0-18.0-1.14","5fa507fa0776431b370bc0c7","6368f2eea3e9634aebcc2f6b","6368fe3888dad057c54d9237","null","","","","null","","","","key","16.64953333333445","683","328.5","","","","","","","","","","","","","231","1","3","true","","","",""
"psychophysics","289","928057","0.0-18.0-2.14","5fa507fa0776431b370bc0c7","6368f2eea3e9634aebcc2f6b","6368fe3888dad057c54d9237","1659.6000000238419","","","","90","","","","key","16.644408163265325","683","328.5","","","","","","","","","","","","","","","","","","","",""
"psychophysics","290","929062","0.0-18.0-0.15","5fa507fa0776431b370bc0c7","6368f2eea3e9634aebcc2f6b","6368fe3888dad057c54d9237","null","","","","null","","","","key","16.643316666667427","683","328.5","","","","","","","","","","","","","","","","","","","",""
"psychophysics","291","929567","0.0-18.0-1.15","5fa507fa0776431b370bc0c7","6368f2eea3e9634aebcc2f6b","6368fe3888dad057c54d9237","null","","","","null","","","","key","16.64958620690018","683","328.5","","","","","","","","","","","","","231","-1","6","true","","","",""
"psychophysics","292","929684","0.0-18.0-2.15","5fa507fa0776431b370bc0c7","6368f2eea3e9634aebcc2f6b","6368fe3888dad057c54d9237","115.19999998807907","","","","90","","","","key","16.650500000008225","683","328.5","","","","","","","","","","","","","","","","","","","",""
"psychophysics","293","930687","0.0-18.0-0.16","5fa507fa0776431b370bc0c7","6368f2eea3e9634aebcc2f6b","6368fe3888dad057c54d9237","null","","","","null","","","","key","16.644389830509958","683","328.5","","","","","","","","","","","","","","","","","","","",""
"psychophysics","294","931190","0.0-18.0-1.16","5fa507fa0776431b370bc0c7","6368f2eea3e9634aebcc2f6b","6368fe3888dad057c54d9237","null","","","","null","","","","key","16.644999999999225","683","328.5","","","","","","","","","","","","","231","-1","3","true","","","",""
"psychophysics","295","931264","0.0-18.0-2.16","5fa507fa0776431b370bc0c7","6368f2eea3e9634aebcc2f6b","6368fe3888dad057c54d9237","72.80000001192093","","","","90","","","","key","16.614999999990687","683","328.5","","","","","","","","","","","","","","","","","","","",""
"psychophysics","296","932268","0.0-18.0-0.17","5fa507fa0776431b370bc0c7","6368f2eea3e9634aebcc2f6b","6368fe3888dad057c54d9237","null","","","","null","","","","key","16.647389830508413","683","328.5","","","","","","","","","","","","","","","","","","","",""
"psychophysics","297","932774","0.0-18.0-1.17","5fa507fa0776431b370bc0c7","6368f2eea3e9634aebcc2f6b","6368fe3888dad057c54d9237","null","","","","null","","","","key","16.645799999998417","683","328.5","","","","","","","","","","","","","231","1","4","true","","","",""
"psychophysics","298","932824","0.0-18.0-2.17","5fa507fa0776431b370bc0c7","6368f2eea3e9634aebcc2f6b","6368fe3888dad057c54d9237","48.799999952316284","","","","90","","","","key","17.1589999999851","683","328.5","","","","","","","","","","","","","","","","","","","",""
"psychophysics","299","933831","0.0-18.0-0.18","5fa507fa0776431b370bc0c7","6368f2eea3e9634aebcc2f6b","6368fe3888dad057c54d9237","null","","","","null","","","","key","16.64489830508473","683","328.5","","","","","","","","","","","","","","","","","","","",""
"psychophysics","300","934332","0.0-18.0-1.18","5fa507fa0776431b370bc0c7","6368f2eea3e9634aebcc2f6b","6368fe3888dad057c54d9237","null","","","","null","","","","key","16.644965517242312","683","328.5","","","","","","","","","","","","","231","-1","0","true","","","",""
"psychophysics","301","934401","0.0-18.0-2.18","5fa507fa0776431b370bc0c7","6368f2eea3e9634aebcc2f6b","6368fe3888dad057c54d9237","66.69999998807907","","","","90","","","","key","16.664749999996275","683","328.5","","","","","","","","","","","","","","","","","","","",""
"psychophysics","302","935406","0.0-18.0-0.19","5fa507fa0776431b370bc0c7","6368f2eea3e9634aebcc2f6b","6368fe3888dad057c54d9237","null","","","","null","","","","key","16.644576271186914","683","328.5","","","","","","","","","","","","","","","","","","","",""
"psychophysics","303","935911","0.0-18.0-1.19","5fa507fa0776431b370bc0c7","6368f2eea3e9634aebcc2f6b","6368fe3888dad057c54d9237","null","","","","null","","","","key","16.64665517241068","683","328.5","","","","","","","","","","","","","231","-1","4","true","","","",""
"psychophysics","304","936008","0.0-18.0-2.19","5fa507fa0776431b370bc0c7","6368f2eea3e9634aebcc2f6b","6368fe3888dad057c54d9237","93.69999998807907","","","","90","","","","key","16.675199999986216","683","328.5","","","","","","","","","","","","","","","","","","","",""
"psychophysics","305","937012","0.0-18.0-0.20","5fa507fa0776431b370bc0c7","6368f2eea3e9634aebcc2f6b","6368fe3888dad057c54d9237","null","","","","null","","","","key","16.644084745761543","683","328.5","","","","","","","","","","","","","","","","","","","",""
"psychophysics","306","937518","0.0-18.0-1.20","5fa507fa0776431b370bc0c7","6368f2eea3e9634aebcc2f6b","6368fe3888dad057c54d9237","null","","","","null","","","","key","16.647466666666634","683","328.5","","","","","","","","","","","","","231","1","0","true","","","",""
"psychophysics","307","937548","0.0-18.0-2.20","5fa507fa0776431b370bc0c7","6368f2eea3e9634aebcc2f6b","6368fe3888dad057c54d9237","29.19999998807907","","","","90","","","","key","16.630000000004657","683","328.5","","","","","","","","","","","","","","","","","","","",""
"psychophysics","308","938551","0.0-18.0-0.21","5fa507fa0776431b370bc0c7","6368f2eea3e9634aebcc2f6b","6368fe3888dad057c54d9237","null","","","","null","","","","key","16.643135593221444","683","328.5","","","","","","","","","","","","","","","","","","","",""
"psychophysics","309","939055","0.0-18.0-1.21","5fa507fa0776431b370bc0c7","6368f2eea3e9634aebcc2f6b","6368fe3888dad057c54d9237","null","","","","null","","","","key","16.642758620690138","683","328.5","","","","","","","","","","","","","231","1","6","true","","","",""
"psychophysics","310","939156","0.0-18.0-2.21","5fa507fa0776431b370bc0c7","6368f2eea3e9634aebcc2f6b","6368fe3888dad057c54d9237","99.89999997615814","","","","90","","","","key","16.655799999996088","683","328.5","","","","","","","","","","","","","","","","","","","",""
"psychophysics","311","940158","0.0-18.0-0.22","5fa507fa0776431b370bc0c7","6368f2eea3e9634aebcc2f6b","6368fe3888dad057c54d9237","null","","","","null","","","","key","16.64652542372913","683","328.5","","","","","","","","","","","","","","","","","","","",""
"psychophysics","312","940664","0.0-18.0-1.22","5fa507fa0776431b370bc0c7","6368f2eea3e9634aebcc2f6b","6368fe3888dad057c54d9237","null","","","","null","","","","key","16.647299999999813","683","328.5","","","","","","","","","","","","","231","-1","2","true","","","",""
"psychophysics","313","940711","0.0-18.0-2.22","5fa507fa0776431b370bc0c7","6368f2eea3e9634aebcc2f6b","6368fe3888dad057c54d9237","46.10000002384186","","","","90","","","","key","16.65799999999581","683","328.5","","","","","","","","","","","","","","","","","","","",""
"psychophysics","314","941719","0.0-18.0-0.23","5fa507fa0776431b370bc0c7","6368f2eea3e9634aebcc2f6b","6368fe3888dad057c54d9237","null","","","","null","","","","key","16.64415254237296","683","328.5","","","","","","","","","","","","","","","","","","","",""
"psychophysics","315","942222","0.0-18.0-1.23","5fa507fa0776431b370bc0c7","6368f2eea3e9634aebcc2f6b","6368fe3888dad057c54d9237","null","","","","null","","","","key","16.647517241377","683","328.5","","","","","","","","","","","","","231","1","2","true","","","",""
"psychophysics","316","942329","0.0-18.0-2.23","5fa507fa0776431b370bc0c7","6368f2eea3e9634aebcc2f6b","6368fe3888dad057c54d9237","92.79999995231628","","","","90","","","","key","16.62733333334715","683","328.5","","","","","","","","","","","","","","","","","","","",""
"psychophysics","317","943334","0.0-18.0-0.24","5fa507fa0776431b370bc0c7","6368f2eea3e9634aebcc2f6b","6368fe3888dad057c54d9237","null","","","","null","","","","key","16.64679661017085","683","328.5","","","","","","","","","","","","","","","","","","","",""
"psychophysics","318","943836","0.0-18.0-1.24","5fa507fa0776431b370bc0c7","6368f2eea3e9634aebcc2f6b","6368fe3888dad057c54d9237","null","","","","null","","","","key","16.64451724137902","683","328.5","","","","","","","","","","","","","231","1","3","true","","","",""
"psychophysics","319","944023","0.0-18.0-2.24","5fa507fa0776431b370bc0c7","6368f2eea3e9634aebcc2f6b","6368fe3888dad057c54d9237","184.69999998807907","","","","90","","","","key","16.673454545448873","683","328.5","","","","","","","","","","","","","","","","","","","",""
"psychophysics","320","945031","0.0-18.0-0.25","5fa507fa0776431b370bc0c7","6368f2eea3e9634aebcc2f6b","6368fe3888dad057c54d9237","null","","","","null","","","","key","16.645796610168734","683","328.5","","","","","","","","","","","","","","","","","","","",""
"psychophysics","321","945534","0.0-18.0-1.25","5fa507fa0776431b370bc0c7","6368f2eea3e9634aebcc2f6b","6368fe3888dad057c54d9237","null","","","","null","","","","key","16.646275862067906","683","328.5","","","","","","","","","","","","","231","1","2","true","","","",""
"psychophysics","322","945703","0.0-18.0-2.25","5fa507fa0776431b370bc0c7","6368f2eea3e9634aebcc2f6b","6368fe3888dad057c54d9237","167.5","","","","90","","","","key","16.661899999994784","683","328.5","","","","","","","","","","","","","","","","","","","",""
"psychophysics","323","946711","0.0-18.0-0.26","5fa507fa0776431b370bc0c7","6368f2eea3e9634aebcc2f6b","6368fe3888dad057c54d9237","null","","","","null","","","","key","16.64637288135492","683","328.5","","","","","","","","","","","","","","","","","","","",""
"psychophysics","324","947215","0.0-18.0-1.26","5fa507fa0776431b370bc0c7","6368f2eea3e9634aebcc2f6b","6368fe3888dad057c54d9237","null","","","","null","","","","key","16.643517241379694","683","328.5","","","","","","","","","","","","","231","-1","0","true","","","",""
"psychophysics","325","947221","0.0-18.0-2.26","5fa507fa0776431b370bc0c7","6368f2eea3e9634aebcc2f6b","6368fe3888dad057c54d9237","3.100000023841858","","","","90","","","","key","NaN","683","328.5","","","","","","","","","","","","","","","","","","","",""
"psychophysics","326","948223","0.0-18.0-0.27","5fa507fa0776431b370bc0c7","6368f2eea3e9634aebcc2f6b","6368fe3888dad057c54d9237","null","","","","null","","","","key","16.646576271187197","683","328.5","","","","","","","","","","","","","","","","","","","",""
"psychophysics","327","948743","0.0-18.0-1.27","5fa507fa0776431b370bc0c7","6368f2eea3e9634aebcc2f6b","6368fe3888dad057c54d9237","null","","","","null","","","","key","16.652333333331626","683","328.5","","","","","","","","","","","","","231","-1","6","true","","","",""
"psychophysics","328","948882","0.0-18.0-2.27","5fa507fa0776431b370bc0c7","6368f2eea3e9634aebcc2f6b","6368fe3888dad057c54d9237","137.5","","","","90","","","","key","16.6548749999929","683","328.5","","","","","","","","","","","","","","","","","","","",""
"psychophysics","329","949887","0.0-18.0-0.28","5fa507fa0776431b370bc0c7","6368f2eea3e9634aebcc2f6b","6368fe3888dad057c54d9237","null","","","","null","","","","key","16.647288135594245","683","328.5","","","","","","","","","","","","","","","","","","","",""
