"trial_type","trial_index","time_elapsed","internal_node_id","PROLIFIC_PID","STUDY_ID","SESSION_ID","rt","stimulus","button_pressed","success","key_press","responses","isData","view_history","response_type","avg_frame_time","center_x","center_y","isSC","stim_side","trial_luminance","step_size","nReversal","correct","prev_ans","isThreshold","SC_threshold","final_threshold","isLuminance","FF_luminance","luminance","stimSide","ISInt","isFF","question_order","isSPQ","isCAPS","isAQ"
"pavlovia","0","4","0.0-0.0","614f70b55373b6760cb9d5c9","6368f2eea3e9634aebcc2f6b","636b489b315a97c8905d6f56","","","","","","","","","","","","","","","","","","","","","","","","","","","","","","","",""
"html-button-response","1","219455","0.0-1.0","614f70b55373b6760cb9d5c9","6368f2eea3e9634aebcc2f6b","636b489b315a97c8905d6f56","219450.79999998212","<div style='background-color: white; width:60%; margin: auto; padding: 50px; text-align: justify; text-justify: inter-word; margin-bottom: 20px;'><h1 style='text-align: center;'>Consent Form</h1><p>Please read this consent form carefully before deciding whether you would like to participate in this study. You have to be 18 years old or older to participate to this study.</p><p style='text-decoration: underline;'>Participation is voluntary:</p><p>It is your choice whether or not to participate in this research. If you choose to participate, you may change your mind and leave the study at any time. Refusal to participate or stopping your participation will involve no penalty or loss of benefits to which you are otherwise entitled.</p><p style='text-decoration: underline;'>Purpose of the Study:</p><p>To understand the mechanisms underlying human perception.</p><p style='text-decoration: underline;'>What you will do in this study:</p><p>You will be presented with a series of visual images and then you will press buttons on the keyboard of your computer to respond to simple questions about the images (e.g. Were one or two images presented?). In addition, you will be asked to complete a questionnaire concerning your beliefs and everyday mental and perceptual experiences.'</p><p style='text-decoration: underline;'> Time Required:</p><p>The study will take 40 minutes to complete. </p><p style='text-decoration: underline;'>Risks:</p><p>There are no anticipated risks associated with participating in this study that are beyond those experienced in everyday life. </p><p style='text-decoration: underline;'>Benefits:</p><p>There are no benefits to you in participating in the study. However, this study may lead to a better understanding of how different kinds of visual information are used.</p><p style='text-decoration: underline;'>Compensation:</p><p>You will be paid US$6.6/hour. </p><p style='text-decoration: underline;'>Privacy and Confidentiality:</p><p>Your participation in this study will be anonymous. No personal information about your name or identity will be asked or recorded. This anonymous data will be stored for several years and may be used for a variety of research purposes. The overall results of the study may be published, or the data files may be shared with other researchers, but your identity will not be revealed in any way. The online services we are using for this study may temporarily store your data, but this data will be downloaded and then promptly deleted from those services.Your data will not be permanently associated with your name, IP address, or any other identifiable information (e.g., your information will only be connected to your payment, not to any of your responses), though they may be temporarily stored together before we download and separate them. Even so, no guarantee of internet survey security can be given because, although unlikely, transmissions can be intercepted and IP addresses can be identified. The anonymous data may be shared publicly (for example, in conjunction with a resulting academic publication).</p><p style='text-decoration: underline;'>Participation and Withdrawal:</p><p>Your participation in this study is completely voluntary. You may stop responding to the stimuli or stop answering questions if you so choose and without penalty by exiting the full screen mode, closing this tab of your browser or redirecting it to a different website.</p><p style='text-decoration: underline;'>Contact Info of the Researcher: </p><p>If you have questions about this study, or if you would like to talk to the research team, please contact David Melcher (david.melcher@nyu.edu, md5050@nyu.edu) at the Perception and Active Cognition Laboratory, New York University Abu Dhabi, Computational Research Building, Saadiyat Island, Abu Dhabi, UAE.This research has been reviewed by the New York University Abu Dhabi Institutional Review Board (NYUAD IRB). To contact about your rights in this research, for questions, suggestions, or complaints that are not addressed by the researchers, please email IRBnyuad@nyu.edu, or call the NYUAD IRB at +971 2 628 4313. </p></div>","0","","","","","","","","","","","","","","","","","","","","","","","","","","","","",""
"fullscreen","2","233220","0.0-2.0","614f70b55373b6760cb9d5c9","6368f2eea3e9634aebcc2f6b","636b489b315a97c8905d6f56","","","","true","","","","","","","","","","","","","","","","","","","","","","","","","","","",""
"html-keyboard-response","3","257415","0.0-3.0","614f70b55373b6760cb9d5c9","6368f2eea3e9634aebcc2f6b","636b489b315a97c8905d6f56","24194.30000001192","<p>Welcome !</p><p>READ CAREFULLY THE FOLLOWING INDICATIONS:</p><p>From this moment you have ~40 minutes to complete the experiment.</p><p>During the experiment you will be prompted to take several breaks. Each break should not last longer than 2-3 minutes.</p><p>Make sure that your computer is plugged in and it's not running on battery power, even if the battery is already fully charged.</p><p>Turn off your phone and music, make sure that you are in a quiet room and that you will not be distracted for the next hour.</p><p>Failure to comply with the instructions and indications provided during the experiment will most likely result in the rejection of your data.<p>Press the spacebar to start.</p>","","","32","","","","","","","","","","","","","","","","","","","","","","","","","","",""
"survey-html-form","4","267801","0.0-4.0","614f70b55373b6760cb9d5c9","6368f2eea3e9634aebcc2f6b","636b489b315a97c8905d6f56","10385.299999982119","","","","","{""age"":""56"",""sex"":""M""}","true","","","","","","","","","","","","","","","","","","","","","","","","",""
"instructions","5","353462","0.0-5.0","614f70b55373b6760cb9d5c9","6368f2eea3e9634aebcc2f6b","636b489b315a97c8905d6f56","85661.19999998808","","","","","","","[{""page_index"":0,""viewing_time"":33908.79999998212},{""page_index"":1,""viewing_time"":44160.59999999404},{""page_index"":2,""viewing_time"":7591.600000023842}]","","","","","","","","","","","","","","","","","","","","","","","",""
"psychophysics","6","354654","0.0-6.0-0.0","614f70b55373b6760cb9d5c9","6368f2eea3e9634aebcc2f6b","636b489b315a97c8905d6f56","186.39999997615814","","","","39","","","","key","16.668611111111304","960","487.5","true","1","180","30","0","-1","","","","","","","","","","","","","",""
"psychophysics","7","356406","0.0-6.0-0.1","614f70b55373b6760cb9d5c9","6368f2eea3e9634aebcc2f6b","636b489b315a97c8905d6f56","738.7000000178814","","","","39","","","","key","16.666855769230796","960","487.5","true","1","180","30","0","-1","-1","","","","","","","","","","","","",""
"psychophysics","8","357606","0.0-6.0-0.2","614f70b55373b6760cb9d5c9","6368f2eea3e9634aebcc2f6b","636b489b315a97c8905d6f56","193.5","","","","39","","","","key","16.666690140845365","960","487.5","true","1","150","30","0","-1","-1","","","","","","","","","","","","",""
"psychophysics","9","359398","0.0-6.0-0.3","614f70b55373b6760cb9d5c9","6368f2eea3e9634aebcc2f6b","636b489b315a97c8905d6f56","786.2999999821186","","","","39","","","","key","16.666867924528525","960","487.5","true","1","150","30","0","-1","-1","","","","","","","","","","","","",""
"psychophysics","10","365750","0.0-6.0-0.4","614f70b55373b6760cb9d5c9","6368f2eea3e9634aebcc2f6b","636b489b315a97c8905d6f56","5349.0999999940395","","","","37","","","","key","16.66680789473681","960","487.5","true","1","129","24","1","1","-1","","","","","","","","","","","","",""
"psychophysics","11","367286","0.0-6.0-0.5","614f70b55373b6760cb9d5c9","6368f2eea3e9634aebcc2f6b","636b489b315a97c8905d6f56","535.2000000178814","","","","39","","","","key","16.666880434782637","960","487.5","true","1","153","24","1","-1","1","","","","","","","","","","","","",""
"psychophysics","12","368470","0.0-6.0-0.6","614f70b55373b6760cb9d5c9","6368f2eea3e9634aebcc2f6b","636b489b315a97c8905d6f56","169.10000002384186","","","","37","","","","key","16.66678571428555","960","487.5","true","-1","153","19.2","2","-1","-1","","","","","","","","","","","","",""
"psychophysics","13","371062","0.0-6.0-0.7","614f70b55373b6760cb9d5c9","6368f2eea3e9634aebcc2f6b","636b489b315a97c8905d6f56","1577.699999988079","","","","37","","","","key","16.667071428571376","960","487.5","true","1","133.8","15.36","3","1","-1","","","","","","","","","","","","",""
"psychophysics","14","372718","0.0-6.0-0.8","614f70b55373b6760cb9d5c9","6368f2eea3e9634aebcc2f6b","636b489b315a97c8905d6f56","650.4000000059605","","","","39","","","","key","16.666747474747787","960","487.5","true","1","149.16000000000003","15.36","3","-1","1","","","","","","","","","","","","",""
"psychophysics","15","374326","0.0-6.0-0.9","614f70b55373b6760cb9d5c9","6368f2eea3e9634aebcc2f6b","636b489b315a97c8905d6f56","604.6000000238419","","","","37","","","","key","16.666842105262912","960","487.5","true","-1","149.16000000000003","12.287999999999998","4","-1","-1","","","","","","","","","","","","",""
"psychophysics","16","375870","0.0-6.0-0.10","614f70b55373b6760cb9d5c9","6368f2eea3e9634aebcc2f6b","636b489b315a97c8905d6f56","535.5999999940395","","","","39","","","","key","16.666902173912842","960","487.5","true","1","136.872","12.287999999999998","4","-1","-1","","","","","","","","","","","","",""
"psychophysics","17","377310","0.0-6.0-0.11","614f70b55373b6760cb9d5c9","6368f2eea3e9634aebcc2f6b","636b489b315a97c8905d6f56","425.80000001192093","","","","37","","","","key","16.66642352941186","960","487.5","true","-1","136.872","12.287999999999998","4","-1","-1","","","","","","","","","","","","",""
"psychophysics","18","379958","0.0-6.0-0.12","614f70b55373b6760cb9d5c9","6368f2eea3e9634aebcc2f6b","636b489b315a97c8905d6f56","1640.2999999821186","","","","37","","","","key","16.666854430379825","960","487.5","true","-1","129","12.287999999999998","4","-1","-1","","","","","","","","","","","","",""
"psychophysics","19","382686","0.0-6.0-0.13","614f70b55373b6760cb9d5c9","6368f2eea3e9634aebcc2f6b","636b489b315a97c8905d6f56","1718.199999988079","","","","37","","","","key","16.66677300613502","960","487.5","true","1","129","9.8304","5","1","-1","","","","","","","","","","","","",""
"psychophysics","20","384294","0.0-6.0-0.14","614f70b55373b6760cb9d5c9","6368f2eea3e9634aebcc2f6b","636b489b315a97c8905d6f56","597.5","","","","37","","","","key","16.66688421052623","960","487.5","true","-1","138.8304","9.8304","5","-1","1","","","","","","","","","","","","",""
"psychophysics","21","385926","0.0-6.0-0.15","614f70b55373b6760cb9d5c9","6368f2eea3e9634aebcc2f6b","636b489b315a97c8905d6f56","624.7999999821186","","","","37","","","","key","16.66682474226835","960","487.5","true","-1","138.8304","7.864319999999999","6","-1","-1","","","","","","","","","","","","",""
"psychophysics","22","388710","0.0-6.0-0.16","614f70b55373b6760cb9d5c9","6368f2eea3e9634aebcc2f6b","636b489b315a97c8905d6f56","1775.7000000178814","","","","37","","","","key","16.666771084337398","960","487.5","true","-1","130.96608","7.864319999999999","6","-1","-1","","","","","","","","","","","","",""
"psychophysics","23","391942","0.0-6.0-0.17","614f70b55373b6760cb9d5c9","6368f2eea3e9634aebcc2f6b","636b489b315a97c8905d6f56","2228.100000023842","","","","39","","","","key","16.666839378238404","960","487.5","true","-1","130.96608","6.291456","7","1","-1","","","","","","","","","","","","",""
"psychophysics","24","393518","0.0-6.0-0.18","614f70b55373b6760cb9d5c9","6368f2eea3e9634aebcc2f6b","636b489b315a97c8905d6f56","566.9000000059605","","","","39","","","","key","16.667234042553513","960","487.5","true","1","137.25753600000002","6.291456","7","-1","1","","","","","","","","","","","","",""
"psychophysics","25","395110","0.0-6.0-0.19","614f70b55373b6760cb9d5c9","6368f2eea3e9634aebcc2f6b","636b489b315a97c8905d6f56","583.6999999880791","","","","39","","","","key","16.666797872340464","960","487.5","true","1","137.25753600000002","5.033164800000001","8","-1","-1","","","","","","","","","","","","",""
"psychophysics","26","397686","0.0-6.0-0.20","614f70b55373b6760cb9d5c9","6368f2eea3e9634aebcc2f6b","636b489b315a97c8905d6f56","1568.1000000238419","","","","39","","","","key","16.66680519480535","960","487.5","true","-1","132.2243712","4.0265318400000005","9","1","-1","","","","","","","","","","","","",""
"psychophysics","27","399278","0.0-6.0-0.21","614f70b55373b6760cb9d5c9","6368f2eea3e9634aebcc2f6b","636b489b315a97c8905d6f56","580.0999999940395","","","","37","","","","key","16.66688297872377","960","487.5","true","-1","136.25090304","4.0265318400000005","9","-1","1","","","","","","","","","","","","",""
"psychophysics","28","400966","0.0-6.0-0.22","614f70b55373b6760cb9d5c9","6368f2eea3e9634aebcc2f6b","636b489b315a97c8905d6f56","681.3999999761581","","","","37","","","","key","16.666819999999717","960","487.5","true","-1","136.25090304","3.2212254720000004","10","-1","-1","","","","","","","","","","","","",""
"psychophysics","29","402582","0.0-6.0-0.23","614f70b55373b6760cb9d5c9","6368f2eea3e9634aebcc2f6b","636b489b315a97c8905d6f56","614","","","","39","","","","key","16.66681250000026","960","487.5","true","1","133.029677568","3.2212254720000004","10","-1","-1","","","","","","","","","","","","",""
"psychophysics","30","405150","0.0-6.0-0.24","614f70b55373b6760cb9d5c9","6368f2eea3e9634aebcc2f6b","636b489b315a97c8905d6f56","1565.6000000238419","","","","37","","","","key","16.666588235294196","960","487.5","true","-1","133.029677568","3.2212254720000004","10","-1","-1","","","","","","","","","","","","",""
"psychophysics","31","407118","0.0-6.0-0.25","614f70b55373b6760cb9d5c9","6368f2eea3e9634aebcc2f6b","636b489b315a97c8905d6f56","966.5999999940395","","","","37","","","","key","16.66679487179499","960","487.5","true","1","129.808452096","2.5769803776000004","11","1","-1","","","","","","","","","","","","",""
"psychophysics","32","408934","0.0-6.0-0.26","614f70b55373b6760cb9d5c9","6368f2eea3e9634aebcc2f6b","636b489b315a97c8905d6f56","800.4000000059605","","","","39","","","","key","16.666814814814845","960","487.5","true","1","132.3854324736","2.5769803776000004","11","-1","1","","","","","","","","","","","","",""
"psychophysics","33","410494","0.0-6.0-0.27","614f70b55373b6760cb9d5c9","6368f2eea3e9634aebcc2f6b","636b489b315a97c8905d6f56","559.3000000119209","","","","37","","","","key","16.666860215053568","960","487.5","true","-1","132.3854324736","2.0615843020800004","12","-1","-1","","","","","","","","","","","","",""
"psychophysics","34","413670","0.0-6.0-0.28","614f70b55373b6760cb9d5c9","6368f2eea3e9634aebcc2f6b","636b489b315a97c8905d6f56","2168.7000000178814","","","","37","","","","key","16.666826315789702","960","487.5","true","-1","130.32384817151998","2.0615843020800004","12","-1","-1","","","","","","","","","","","","",""
"psychophysics","35","417214","0.0-6.0-0.29","614f70b55373b6760cb9d5c9","6368f2eea3e9634aebcc2f6b","636b489b315a97c8905d6f56","2529.2999999821186","","","","37","","","","key","16.666805687203773","960","487.5","true","1","130.32384817151998","1.6492674416640005","13","1","-1","","","","","","","","","","","","",""
"psychophysics","36","419638","0.0-6.0-0.30","614f70b55373b6760cb9d5c9","6368f2eea3e9634aebcc2f6b","636b489b315a97c8905d6f56","1419.8999999761581","","","","37","","","","key","16.666882758620517","960","487.5","true","-1","131.97311561318398","1.6492674416640005","13","-1","1","","","","","","","","","","","","",""
"psychophysics","37","422982","0.0-6.0-0.31","614f70b55373b6760cb9d5c9","6368f2eea3e9634aebcc2f6b","636b489b315a97c8905d6f56","2330.800000011921","","","","37","","","","key","16.666894472361808","960","487.5","true","-1","131.97311561318398","1.3194139533312006","14","-1","-1","","","","","","","","","","","","",""
"psychophysics","38","424486","0.0-6.0-0.32","614f70b55373b6760cb9d5c9","6368f2eea3e9634aebcc2f6b","636b489b315a97c8905d6f56","501.19999998807907","","","","39","","","","key","16.666666666666668","960","487.5","true","1","130.65370165985277","1.3194139533312006","14","-1","-1","","","","","","","","","","","","",""
"psychophysics","39","427942","0.0-6.0-0.33","614f70b55373b6760cb9d5c9","6368f2eea3e9634aebcc2f6b","636b489b315a97c8905d6f56","2443.5999999940395","","","","39","","","","key","16.666859223301074","960","487.5","true","-1","130.65370165985277","1.0555311626649604","15","1","-1","","","","","","","","","","","","",""
"psychophysics","40","429806","0.0-6.0-0.34","614f70b55373b6760cb9d5c9","6368f2eea3e9634aebcc2f6b","636b489b315a97c8905d6f56","858.3999999761581","","","","39","","","","key","16.666747747747927","960","487.5","true","1","131.70923282251772","1.0555311626649604","15","-1","1","","","","","","","","","","","","",""
"psychophysics","41","431374","0.0-6.0-0.35","614f70b55373b6760cb9d5c9","6368f2eea3e9634aebcc2f6b","636b489b315a97c8905d6f56","558.6999999880791","","","","37","","","","key","16.666817204301342","960","487.5","true","-1","131.70923282251772","1","16","-1","-1","","","","","","","","","","","","",""
"psychophysics","42","433094","0.0-6.0-0.36","614f70b55373b6760cb9d5c9","6368f2eea3e9634aebcc2f6b","636b489b315a97c8905d6f56","712.5","","","","39","","","","key","16.666833333333262","960","487.5","true","-1","130.70923282251772","1","17","1","-1","","","","","","","","","","","","",""
"psychophysics","43","436174","0.0-6.0-0.37","614f70b55373b6760cb9d5c9","6368f2eea3e9634aebcc2f6b","636b489b315a97c8905d6f56","2075.699999988079","","","","39","","","","key","16.666815217391083","960","487.5","true","1","131.70923282251772","1","17","-1","1","","","","","","","","","","","","",""
"psychophysics","44","439110","0.0-6.0-0.38","614f70b55373b6760cb9d5c9","6368f2eea3e9634aebcc2f6b","636b489b315a97c8905d6f56","1933","","","","39","","","","key","16.666765714285763","960","487.5","true","1","131.70923282251772","1","18","-1","-1","","","","","","","","","","","","",""
"psychophysics","45","441118","0.0-6.0-0.39","614f70b55373b6760cb9d5c9","6368f2eea3e9634aebcc2f6b","636b489b315a97c8905d6f56","999.5999999940395","","","","37","","","","key","16.666831932773132","960","487.5","true","-1","130.70923282251772","1","18","-1","-1","","","","","","","","","","","","",""
"html-keyboard-response","46","446446","0.0-7.0","614f70b55373b6760cb9d5c9","6368f2eea3e9634aebcc2f6b","636b489b315a97c8905d6f56","5327.700000017881","<p>Well Done !</p><p>Prepare for a new block.</p><p>DON'T EXIT THE FULL SCREEN MODE</p><p>Press the Spacebar to start.</p>","","","32","","","","","","","","","","","","","","","true","131.24906965782793","","","","","","","","","","",""
"psychophysics","47","447942","0.0-8.0-0.0","614f70b55373b6760cb9d5c9","6368f2eea3e9634aebcc2f6b","636b489b315a97c8905d6f56","493.5","","","","37","","","","key","16.669733333333472","960","487.5","true","-1","180","30","0","-1","","","","","","","","","","","","","",""
"psychophysics","48","449110","0.0-8.0-0.1","614f70b55373b6760cb9d5c9","6368f2eea3e9634aebcc2f6b","636b489b315a97c8905d6f56","165.19999998807907","","","","39","","","","key","16.6668260869565","960","487.5","true","1","180","30","0","-1","-1","","","","","","","","","","","","",""
"psychophysics","49","450526","0.0-8.0-0.2","614f70b55373b6760cb9d5c9","6368f2eea3e9634aebcc2f6b","636b489b315a97c8905d6f56","413.19999998807907","","","","37","","","","key","16.66682142857185","960","487.5","true","-1","150","30","0","-1","-1","","","","","","","","","","","","",""
"psychophysics","50","452062","0.0-8.0-0.3","614f70b55373b6760cb9d5c9","6368f2eea3e9634aebcc2f6b","636b489b315a97c8905d6f56","532.8999999761581","","","","37","","","","key","16.66681318681311","960","487.5","true","-1","150","30","0","-1","-1","","","","","","","","","","","","",""
"psychophysics","51","454854","0.0-8.0-0.4","614f70b55373b6760cb9d5c9","6368f2eea3e9634aebcc2f6b","636b489b315a97c8905d6f56","1789.5","","","","39","","","","key","16.666778443113852","960","487.5","true","-1","129","24","1","1","-1","","","","","","","","","","","","",""
"psychophysics","52","456414","0.0-8.0-0.5","614f70b55373b6760cb9d5c9","6368f2eea3e9634aebcc2f6b","636b489b315a97c8905d6f56","556.9000000059605","","","","39","","","","key","16.666793478261198","960","487.5","true","1","153","24","1","-1","1","","","","","","","","","","","","",""
"psychophysics","53","458030","0.0-8.0-0.6","614f70b55373b6760cb9d5c9","6368f2eea3e9634aebcc2f6b","636b489b315a97c8905d6f56","613.7000000178814","","","","37","","","","key","16.666802083333096","960","487.5","true","-1","153","19.2","2","-1","-1","","","","","","","","","","","","",""
"psychophysics","54","459574","0.0-8.0-0.7","614f70b55373b6760cb9d5c9","6368f2eea3e9634aebcc2f6b","636b489b315a97c8905d6f56","541.1000000238419","","","","39","","","","key","16.6668260869565","960","487.5","true","1","133.8","19.2","2","-1","-1","","","","","","","","","","","","",""
"psychophysics","55","461342","0.0-8.0-0.8","614f70b55373b6760cb9d5c9","6368f2eea3e9634aebcc2f6b","636b489b315a97c8905d6f56","765.6999999880791","","","","39","","","","key","16.666809523809103","960","487.5","true","1","133.8","19.2","2","-1","-1","","","","","","","","","","","","",""
"psychophysics","56","462966","0.0-8.0-0.9","614f70b55373b6760cb9d5c9","6368f2eea3e9634aebcc2f6b","636b489b315a97c8905d6f56","621.0999999940395","","","","39","","","","key","16.66681250000026","960","487.5","true","-1","129","15.36","3","1","-1","","","","","","","","","","","","",""
"psychophysics","57","464574","0.0-8.0-0.10","614f70b55373b6760cb9d5c9","6368f2eea3e9634aebcc2f6b","636b489b315a97c8905d6f56","605.5999999940395","","","","37","","","","key","16.66685416666648","960","487.5","true","-1","144.36","15.36","3","-1","1","","","","","","","","","","","","",""
"psychophysics","58","466070","0.0-8.0-0.11","614f70b55373b6760cb9d5c9","6368f2eea3e9634aebcc2f6b","636b489b315a97c8905d6f56","493.09999999403954","","","","39","","","","key","16.666696629212943","960","487.5","true","1","144.36","12.287999999999998","4","-1","-1","","","","","","","","","","","","",""
"psychophysics","59","468198","0.0-8.0-0.12","614f70b55373b6760cb9d5c9","6368f2eea3e9634aebcc2f6b","636b489b315a97c8905d6f56","1125","","","","39","","","","key","16.666992063492273","960","487.5","true","-1","132.072","9.8304","5","1","-1","","","","","","","","","","","","",""
"psychophysics","60","469822","0.0-8.0-0.13","614f70b55373b6760cb9d5c9","6368f2eea3e9634aebcc2f6b","636b489b315a97c8905d6f56","620.8999999761581","","","","37","","","","key","16.66688659793839","960","487.5","true","-1","141.9024","9.8304","5","-1","1","","","","","","","","","","","","",""
"psychophysics","61","471222","0.0-8.0-0.14","614f70b55373b6760cb9d5c9","6368f2eea3e9634aebcc2f6b","636b489b315a97c8905d6f56","397.39999997615814","","","","37","","","","key","16.666831325301313","960","487.5","true","-1","141.9024","7.864319999999999","6","-1","-1","","","","","","","","","","","","",""
"psychophysics","62","472662","0.0-8.0-0.15","614f70b55373b6760cb9d5c9","6368f2eea3e9634aebcc2f6b","636b489b315a97c8905d6f56","437.09999999403954","","","","39","","","","key","16.66675294117646","960","487.5","true","1","134.03808","7.864319999999999","6","-1","-1","","","","","","","","","","","","",""
"psychophysics","63","474014","0.0-8.0-0.16","614f70b55373b6760cb9d5c9","6368f2eea3e9634aebcc2f6b","636b489b315a97c8905d6f56","348.7999999821186","","","","39","","","","key","16.666662499999802","960","487.5","true","1","134.03808","7.864319999999999","6","-1","-1","","","","","","","","","","","","",""
"psychophysics","64","475382","0.0-8.0-0.17","614f70b55373b6760cb9d5c9","6368f2eea3e9634aebcc2f6b","636b489b315a97c8905d6f56","365.60000002384186","","","","39","","","","key","16.666839506172426","960","487.5","true","-1","129","6.291456","7","1","-1","","","","","","","","","","","","",""
"psychophysics","65","476870","0.0-8.0-0.18","614f70b55373b6760cb9d5c9","6368f2eea3e9634aebcc2f6b","636b489b315a97c8905d6f56","485.2999999821186","","","","37","","","","key","16.666786516854394","960","487.5","true","-1","135.291456","6.291456","7","-1","1","","","","","","","","","","","","",""
"psychophysics","66","478222","0.0-8.0-0.19","614f70b55373b6760cb9d5c9","6368f2eea3e9634aebcc2f6b","636b489b315a97c8905d6f56","349.2000000178814","","","","39","","","","key","16.66687499999971","960","487.5","true","1","135.291456","5.033164800000001","8","-1","-1","","","","","","","","","","","","",""
"psychophysics","67","480430","0.0-8.0-0.20","614f70b55373b6760cb9d5c9","6368f2eea3e9634aebcc2f6b","636b489b315a97c8905d6f56","1204.699999988079","","","","37","","","","key","16.66685496183212","960","487.5","true","-1","130.2582912","5.033164800000001","8","-1","-1","","","","","","","","","","","","",""
"psychophysics","68","482198","0.0-8.0-0.21","614f70b55373b6760cb9d5c9","6368f2eea3e9634aebcc2f6b","636b489b315a97c8905d6f56","764.6999999880791","","","","39","","","","key","16.666742857142594","960","487.5","true","1","130.2582912","5.033164800000001","8","-1","-1","","","","","","","","","","","","",""
"psychophysics","69","484526","0.0-8.0-0.22","614f70b55373b6760cb9d5c9","6368f2eea3e9634aebcc2f6b","636b489b315a97c8905d6f56","1325.199999988079","","","","37","","","","key","16.666820143884646","960","487.5","true","1","129","4.0265318400000005","9","1","-1","","","","","","","","","","","","",""
"psychophysics","70","486950","0.0-8.0-0.23","614f70b55373b6760cb9d5c9","6368f2eea3e9634aebcc2f6b","636b489b315a97c8905d6f56","1421","","","","39","","","","key","16.666833333333166","960","487.5","true","1","133.02653184","4.0265318400000005","9","-1","1","","","","","","","","","","","","",""
"psychophysics","71","488894","0.0-8.0-0.24","614f70b55373b6760cb9d5c9","6368f2eea3e9634aebcc2f6b","636b489b315a97c8905d6f56","941.9000000059605","","","","37","","","","key","16.666784482758697","960","487.5","true","1","133.02653184","3.2212254720000004","10","1","-1","","","","","","","","","","","","",""
"psychophysics","72","490302","0.0-8.0-0.25","614f70b55373b6760cb9d5c9","6368f2eea3e9634aebcc2f6b","636b489b315a97c8905d6f56","405","","","","39","","","","key","16.66672289156613","960","487.5","true","1","136.24775731199998","3.2212254720000004","10","-1","1","","","","","","","","","","","","",""
"psychophysics","73","491678","0.0-8.0-0.26","614f70b55373b6760cb9d5c9","6368f2eea3e9634aebcc2f6b","636b489b315a97c8905d6f56","375.5","","","","39","","","","key","16.666853658536947","960","487.5","true","1","136.24775731199998","2.5769803776000004","11","-1","-1","","","","","","","","","","","","",""
"psychophysics","74","493230","0.0-8.0-0.27","614f70b55373b6760cb9d5c9","6368f2eea3e9634aebcc2f6b","636b489b315a97c8905d6f56","549.5","","","","37","","","","key","16.6667826086961","960","487.5","true","-1","133.67077693439998","2.5769803776000004","11","-1","-1","","","","","","","","","","","","",""
"psychophysics","75","494734","0.0-8.0-0.28","614f70b55373b6760cb9d5c9","6368f2eea3e9634aebcc2f6b","636b489b315a97c8905d6f56","501.09999999403954","","","","37","","","","key","16.666853932584008","960","487.5","true","-1","133.67077693439998","2.5769803776000004","11","-1","-1","","","","","","","","","","","","",""
"psychophysics","76","498174","0.0-8.0-0.29","614f70b55373b6760cb9d5c9","6368f2eea3e9634aebcc2f6b","636b489b315a97c8905d6f56","2438.399999976158","","","","37","","","","key","16.666820388349468","960","487.5","true","1","131.0937965568","2.0615843020800004","12","1","-1","","","","","","","","","","","","",""
"psychophysics","77","499662","0.0-8.0-0.30","614f70b55373b6760cb9d5c9","6368f2eea3e9634aebcc2f6b","636b489b315a97c8905d6f56","485.80000001192093","","","","39","","","","key","16.66676136363623","960","487.5","true","1","133.15538085888","2.0615843020800004","12","-1","1","","","","","","","","","","","","",""
"psychophysics","78","501078","0.0-8.0-0.31","614f70b55373b6760cb9d5c9","6368f2eea3e9634aebcc2f6b","636b489b315a97c8905d6f56","413.2999999821186","","","","39","","","","key","16.666464285714376","960","487.5","true","1","133.15538085888","1.6492674416640005","13","-1","-1","","","","","","","","","","","","",""
"psychophysics","79","502742","0.0-8.0-0.32","614f70b55373b6760cb9d5c9","6368f2eea3e9634aebcc2f6b","636b489b315a97c8905d6f56","661","","","","37","","","","key","16.666777777777764","960","487.5","true","-1","131.506113417216","1.6492674416640005","13","-1","-1","","","","","","","","","","","","",""
"psychophysics","80","504182","0.0-8.0-0.33","614f70b55373b6760cb9d5c9","6368f2eea3e9634aebcc2f6b","636b489b315a97c8905d6f56","437.39999997615814","","","","37","","","","key","16.667176470587798","960","487.5","true","-1","131.506113417216","1.6492674416640005","13","-1","-1","","","","","","","","","","","","",""
"psychophysics","81","506894","0.0-8.0-0.34","614f70b55373b6760cb9d5c9","6368f2eea3e9634aebcc2f6b","636b489b315a97c8905d6f56","1709.0999999940395","","","","39","","","","key","16.666858024691106","960","487.5","true","-1","129.856845975552","1.3194139533312006","14","1","-1","","","","","","","","","","","","",""
"psychophysics","82","508318","0.0-8.0-0.35","614f70b55373b6760cb9d5c9","6368f2eea3e9634aebcc2f6b","636b489b315a97c8905d6f56","421.80000001192093","","","","37","","","","key","16.666738095238024","960","487.5","true","1","131.1762599288832","1.3194139533312006","14","1","1","","","","","","","","","","","","",""
"psychophysics","83","510982","0.0-8.0-0.36","614f70b55373b6760cb9d5c9","6368f2eea3e9634aebcc2f6b","636b489b315a97c8905d6f56","1663.1000000238419","","","","37","","","","key","16.66678616352183","960","487.5","true","-1","132.49567388221442","1.3194139533312006","14","-1","1","","","","","","","","","","","","",""
"psychophysics","84","514006","0.0-8.0-0.37","614f70b55373b6760cb9d5c9","6368f2eea3e9634aebcc2f6b","636b489b315a97c8905d6f56","2021","","","","39","","","","key","16.666861878453307","960","487.5","true","1","132.49567388221442","1.0555311626649604","15","-1","-1","","","","","","","","","","","","",""
"psychophysics","85","516598","0.0-8.0-0.38","614f70b55373b6760cb9d5c9","6368f2eea3e9634aebcc2f6b","636b489b315a97c8905d6f56","1589.0999999940395","","","","39","","","","key","16.666850649350316","960","487.5","true","-1","131.44014271954947","1","16","1","-1","","","","","","","","","","","","",""
"psychophysics","86","517942","0.0-8.0-0.39","614f70b55373b6760cb9d5c9","6368f2eea3e9634aebcc2f6b","636b489b315a97c8905d6f56","340.89999997615814","","","","39","","","","key","16.66672500000059","960","487.5","true","1","132.44014271954947","1","16","-1","1","","","","","","","","","","","","",""
"html-keyboard-response","87","523414","0.0-9.0","614f70b55373b6760cb9d5c9","6368f2eea3e9634aebcc2f6b","636b489b315a97c8905d6f56","5471.800000011921","<p>Well Done !</p><p>Prepare for a new block.</p><p>DON'T EXIT THE FULL SCREEN MODE</p><p>Press the Spacebar to start.</p>","","","32","","","","","","","","","","","","","","","true","132.67723951398366","","","","","","","","","","",""
"psychophysics","88","524630","0.0-10.0-0.0","614f70b55373b6760cb9d5c9","6368f2eea3e9634aebcc2f6b","636b489b315a97c8905d6f56","213.69999998807907","","","","39","","","","key","16.670643835617167","960","487.5","true","1","180","30","0","-1","","","","","","","","","","","","","",""
"psychophysics","89","525710","0.0-10.0-0.1","614f70b55373b6760cb9d5c9","6368f2eea3e9634aebcc2f6b","636b489b315a97c8905d6f56","77.5","","","","39","","","","key","16.66668750000099","960","487.5","true","1","180","30","0","-1","-1","","","","","","","","","","","","",""
"psychophysics","90","526790","0.0-10.0-0.2","614f70b55373b6760cb9d5c9","6368f2eea3e9634aebcc2f6b","636b489b315a97c8905d6f56","77.59999999403954","","","","39","","","","key","16.666828124998574","960","487.5","true","1","150","30","0","-1","-1","","","","","","","","","","","","",""
"psychophysics","91","528166","0.0-10.0-0.3","614f70b55373b6760cb9d5c9","6368f2eea3e9634aebcc2f6b","636b489b315a97c8905d6f56","373.5","","","","37","","","","key","16.666888888889382","960","487.5","true","-1","150","30","0","-1","-1","","","","","","","","","","","","",""
"psychophysics","92","529814","0.0-10.0-0.4","614f70b55373b6760cb9d5c9","6368f2eea3e9634aebcc2f6b","636b489b315a97c8905d6f56","645.1999999880791","","","","37","","","","key","16.666693877551126","960","487.5","true","1","129","24","1","1","-1","","","","","","","","","","","","",""
"psychophysics","93","531150","0.0-10.0-0.5","614f70b55373b6760cb9d5c9","6368f2eea3e9634aebcc2f6b","636b489b315a97c8905d6f56","332.7999999821186","","","","37","","","","key","16.666873417721025","960","487.5","true","-1","153","24","1","-1","1","","","","","","","","","","","","",""
"psychophysics","94","533006","0.0-10.0-0.6","614f70b55373b6760cb9d5c9","6368f2eea3e9634aebcc2f6b","636b489b315a97c8905d6f56","853.5999999940395","","","","39","","","","key","16.666819819819754","960","487.5","true","1","153","19.2","2","-1","-1","","","","","","","","","","","","",""
"psychophysics","95","534502","0.0-10.0-0.7","614f70b55373b6760cb9d5c9","6368f2eea3e9634aebcc2f6b","636b489b315a97c8905d6f56","493.09999999403954","","","","37","","","","key","16.666715909090602","960","487.5","true","-1","133.8","19.2","2","-1","-1","","","","","","","","","","","","",""
"psychophysics","96","536462","0.0-10.0-0.8","614f70b55373b6760cb9d5c9","6368f2eea3e9634aebcc2f6b","636b489b315a97c8905d6f56","959.2999999821186","","","","37","","","","key","16.666811965811902","960","487.5","true","1","133.8","15.36","3","1","-1","","","","","","","","","","","","",""
"psychophysics","97","537934","0.0-10.0-0.9","614f70b55373b6760cb9d5c9","6368f2eea3e9634aebcc2f6b","636b489b315a97c8905d6f56","468.69999998807907","","","","39","","","","key","16.66677011494209","960","487.5","true","1","149.16000000000003","15.36","3","-1","1","","","","","","","","","","","","",""
"psychophysics","98","539326","0.0-10.0-0.10","614f70b55373b6760cb9d5c9","6368f2eea3e9634aebcc2f6b","636b489b315a97c8905d6f56","389.90000000596046","","","","39","","","","key","16.666903614457866","960","487.5","true","1","149.16000000000003","12.287999999999998","4","-1","-1","","","","","","","","","","","","",""
"psychophysics","99","540654","0.0-10.0-0.11","614f70b55373b6760cb9d5c9","6368f2eea3e9634aebcc2f6b","636b489b315a97c8905d6f56","325.19999998807907","","","","39","","","","key","16.6667848101263","960","487.5","true","1","136.872","12.287999999999998","4","-1","-1","","","","","","","","","","","","",""
"psychophysics","100","542078","0.0-10.0-0.12","614f70b55373b6760cb9d5c9","6368f2eea3e9634aebcc2f6b","636b489b315a97c8905d6f56","420.7999999821186","","","","37","","","","key","16.66683333333432","960","487.5","true","-1","136.872","12.287999999999998","4","-1","-1","","","","","","","","","","","","",""
"psychophysics","101","543582","0.0-10.0-0.13","614f70b55373b6760cb9d5c9","6368f2eea3e9634aebcc2f6b","636b489b315a97c8905d6f56","500.69999998807907","","","","39","","","","key","16.66671910112347","960","487.5","true","1","129","12.287999999999998","4","-1","-1","","","","","","","","","","","","",""
"psychophysics","102","545478","0.0-10.0-0.14","614f70b55373b6760cb9d5c9","6368f2eea3e9634aebcc2f6b","636b489b315a97c8905d6f56","893.4000000059605","","","","37","","","","key","16.666796460176975","960","487.5","true","1","129","9.8304","5","1","-1","","","","","","","","","","","","",""
"psychophysics","103","546990","0.0-10.0-0.15","614f70b55373b6760cb9d5c9","6368f2eea3e9634aebcc2f6b","636b489b315a97c8905d6f56","509.5","","","","39","","","","key","16.666888888889098","960","487.5","true","1","138.8304","9.8304","5","-1","1","","","","","","","","","","","","",""
"psychophysics","104","548454","0.0-10.0-0.16","614f70b55373b6760cb9d5c9","6368f2eea3e9634aebcc2f6b","636b489b315a97c8905d6f56","461.19999998807907","","","","37","","","","key","16.666724137931087","960","487.5","true","-1","138.8304","7.864319999999999","6","-1","-1","","","","","","","","","","","","",""
"psychophysics","105","549926","0.0-10.0-0.17","614f70b55373b6760cb9d5c9","6368f2eea3e9634aebcc2f6b","636b489b315a97c8905d6f56","468.7999999821186","","","","37","","","","key","16.66685057471335","960","487.5","true","-1","130.96608","7.864319999999999","6","-1","-1","","","","","","","","","","","","",""
"psychophysics","106","552838","0.0-10.0-0.18","614f70b55373b6760cb9d5c9","6368f2eea3e9634aebcc2f6b","636b489b315a97c8905d6f56","1909.5999999940395","","","","37","","","","key","16.666712643678338","960","487.5","true","1","130.96608","6.291456","7","1","-1","","","","","","","","","","","","",""
"psychophysics","107","554198","0.0-10.0-0.19","614f70b55373b6760cb9d5c9","6368f2eea3e9634aebcc2f6b","636b489b315a97c8905d6f56","356.89999997615814","","","","39","","","","key","16.66689999999944","960","487.5","true","1","137.25753600000002","6.291456","7","-1","1","","","","","","","","","","","","",""
"psychophysics","108","555574","0.0-10.0-0.20","614f70b55373b6760cb9d5c9","6368f2eea3e9634aebcc2f6b","636b489b315a97c8905d6f56","373.80000001192093","","","","37","","","","key","16.666804878048247","960","487.5","true","-1","137.25753600000002","5.033164800000001","8","-1","-1","","","","","","","","","","","","",""
"psychophysics","109","557014","0.0-10.0-0.21","614f70b55373b6760cb9d5c9","6368f2eea3e9634aebcc2f6b","636b489b315a97c8905d6f56","437.39999997615814","","","","39","","","","key","16.666811764705926","960","487.5","true","-1","132.2243712","4.0265318400000005","9","1","-1","","","","","","","","","","","","",""
"psychophysics","110","558846","0.0-10.0-0.22","614f70b55373b6760cb9d5c9","6368f2eea3e9634aebcc2f6b","636b489b315a97c8905d6f56","829","","","","39","","","","key","16.666825688073473","960","487.5","true","1","136.25090304","4.0265318400000005","9","-1","1","","","","","","","","","","","","",""
"psychophysics","111","560502","0.0-10.0-0.23","614f70b55373b6760cb9d5c9","6368f2eea3e9634aebcc2f6b","636b489b315a97c8905d6f56","653.2999999821186","","","","37","","","","key","16.666765306122382","960","487.5","true","-1","136.25090304","3.2212254720000004","10","-1","-1","","","","","","","","","","","","",""
"psychophysics","112","561846","0.0-10.0-0.24","614f70b55373b6760cb9d5c9","6368f2eea3e9634aebcc2f6b","636b489b315a97c8905d6f56","343.09999999403954","","","","37","","","","key","16.66678749999992","960","487.5","true","-1","133.029677568","3.2212254720000004","10","-1","-1","","","","","","","","","","","","",""
"psychophysics","113","563518","0.0-10.0-0.25","614f70b55373b6760cb9d5c9","6368f2eea3e9634aebcc2f6b","636b489b315a97c8905d6f56","668.6999999880791","","","","37","","","","key","16.667262626262712","960","487.5","true","-1","133.029677568","3.2212254720000004","10","-1","-1","","","","","","","","","","","","",""
"psychophysics","114","565478","0.0-10.0-0.26","614f70b55373b6760cb9d5c9","6368f2eea3e9634aebcc2f6b","636b489b315a97c8905d6f56","958.3999999761581","","","","39","","","","key","16.66670940170944","960","487.5","true","-1","129.808452096","2.5769803776000004","11","1","-1","","","","","","","","","","","","",""
"psychophysics","115","566910","0.0-10.0-0.27","614f70b55373b6760cb9d5c9","6368f2eea3e9634aebcc2f6b","636b489b315a97c8905d6f56","429.5","","","","37","","","","key","16.66692941176486","960","487.5","true","-1","132.3854324736","2.5769803776000004","11","-1","1","","","","","","","","","","","","",""
"psychophysics","116","568462","0.0-10.0-0.28","614f70b55373b6760cb9d5c9","6368f2eea3e9634aebcc2f6b","636b489b315a97c8905d6f56","549.0999999940395","","","","39","","","","key","16.666717391304225","960","487.5","true","1","132.3854324736","2.0615843020800004","12","-1","-1","","","","","","","","","","","","",""
"psychophysics","117","570526","0.0-10.0-0.29","614f70b55373b6760cb9d5c9","6368f2eea3e9634aebcc2f6b","636b489b315a97c8905d6f56","1060.699999988079","","","","37","","","","key","16.666829268292833","960","487.5","true","-1","130.32384817151998","2.0615843020800004","12","-1","-1","","","","","","","","","","","","",""
"psychophysics","118","572246","0.0-10.0-0.30","614f70b55373b6760cb9d5c9","6368f2eea3e9634aebcc2f6b","636b489b315a97c8905d6f56","716.7999999821186","","","","37","","","","key","16.666637254902845","960","487.5","true","1","130.32384817151998","1.6492674416640005","13","1","-1","","","","","","","","","","","","",""
"psychophysics","119","574694","0.0-10.0-0.31","614f70b55373b6760cb9d5c9","6368f2eea3e9634aebcc2f6b","636b489b315a97c8905d6f56","1445.2999999821186","","","","39","","","","key","16.666787671233042","960","487.5","true","-1","131.97311561318398","1.6492674416640005","13","1","1","","","","","","","","","","","","",""
"psychophysics","120","575990","0.0-10.0-0.32","614f70b55373b6760cb9d5c9","6368f2eea3e9634aebcc2f6b","636b489b315a97c8905d6f56","293.09999999403954","","","","39","","","","key","16.66681818181933","960","487.5","true","1","133.62238305484797","1.6492674416640005","13","-1","1","","","","","","","","","","","","",""
"psychophysics","121","577350","0.0-10.0-0.33","614f70b55373b6760cb9d5c9","6368f2eea3e9634aebcc2f6b","636b489b315a97c8905d6f56","357","","","","37","","","","key","16.666712499999267","960","487.5","true","-1","133.62238305484797","1.3194139533312006","14","-1","-1","","","","","","","","","","","","",""
"psychophysics","122","579494","0.0-10.0-0.34","614f70b55373b6760cb9d5c9","6368f2eea3e9634aebcc2f6b","636b489b315a97c8905d6f56","1141.5999999940395","","","","37","","","","key","16.66681250000056","960","487.5","true","-1","132.30296910151677","1.3194139533312006","14","-1","-1","","","","","","","","","","","","",""
"psychophysics","123","581670","0.0-10.0-0.35","614f70b55373b6760cb9d5c9","6368f2eea3e9634aebcc2f6b","636b489b315a97c8905d6f56","1172.699999988079","","","","37","","","","key","16.66689230769228","960","487.5","true","-1","132.30296910151677","1.3194139533312006","14","-1","-1","","","","","","","","","","","","",""
"psychophysics","124","583238","0.0-10.0-0.36","614f70b55373b6760cb9d5c9","6368f2eea3e9634aebcc2f6b","636b489b315a97c8905d6f56","564.5999999940395","","","","39","","","","key","16.66678494623717","960","487.5","true","-1","130.98355514818556","1.0555311626649604","15","1","-1","","","","","","","","","","","","",""
"psychophysics","125","585702","0.0-10.0-0.37","614f70b55373b6760cb9d5c9","6368f2eea3e9634aebcc2f6b","636b489b315a97c8905d6f56","1461.2999999821186","","","","39","","","","key","16.66679452054764","960","487.5","true","-1","132.0390863108505","1.0555311626649604","15","1","1","","","","","","","","","","","","",""
"psychophysics","126","587086","0.0-10.0-0.38","614f70b55373b6760cb9d5c9","6368f2eea3e9634aebcc2f6b","636b489b315a97c8905d6f56","382.69999998807907","","","","39","","","","key","16.666804878048247","960","487.5","true","1","133.09461747351546","1.0555311626649604","15","-1","1","","","","","","","","","","","","",""
"psychophysics","127","588526","0.0-10.0-0.39","614f70b55373b6760cb9d5c9","6368f2eea3e9634aebcc2f6b","636b489b315a97c8905d6f56","439.7000000178814","","","","39","","","","key","16.666941860466004","960","487.5","true","1","133.09461747351546","1","16","-1","-1","","","","","","","","","","","","",""
"html-keyboard-response","128","591294","0.0-11.0","614f70b55373b6760cb9d5c9","6368f2eea3e9634aebcc2f6b","636b489b315a97c8905d6f56","2767.5","<p>Well Done !</p><p>Prepare for a new block.</p><p>DON'T EXIT THE FULL SCREEN MODE</p><p>Press the Spacebar to start.</p>","","","32","","","","","","","","","","","","","","","true","132.0861591524147","","","","","","","","","","",""
"psychophysics","129","592374","0.0-12.0-0.0","614f70b55373b6760cb9d5c9","6368f2eea3e9634aebcc2f6b","636b489b315a97c8905d6f56","76.89999997615814","","","","37","","","","key","16.668907692308466","960","487.5","true","-1","180","30","0","-1","","","","","","","","","","","","","",""
"psychophysics","130","595142","0.0-12.0-0.1","614f70b55373b6760cb9d5c9","6368f2eea3e9634aebcc2f6b","636b489b315a97c8905d6f56","1765","","","","39","","","","key","16.666866666666994","960","487.5","true","1","180","30","0","-1","-1","","","","","","","","","","","","",""
"psychophysics","131","596630","0.0-12.0-0.2","614f70b55373b6760cb9d5c9","6368f2eea3e9634aebcc2f6b","636b489b315a97c8905d6f56","485.5","","","","37","","","","key","16.666772727273795","960","487.5","true","-1","150","30","0","-1","-1","","","","","","","","","","","","",""
"psychophysics","132","597982","0.0-12.0-0.3","614f70b55373b6760cb9d5c9","6368f2eea3e9634aebcc2f6b","636b489b315a97c8905d6f56","349.09999999403954","","","","37","","","","key","16.66671250000072","960","487.5","true","-1","150","30","0","-1","-1","","","","","","","","","","","","",""
"psychophysics","133","600878","0.0-12.0-0.4","614f70b55373b6760cb9d5c9","6368f2eea3e9634aebcc2f6b","636b489b315a97c8905d6f56","1893","","","","37","","","","key","16.66687283236964","960","487.5","true","-1","129","30","0","-1","-1","","","","","","","","","","","","",""
"psychophysics","134","602574","0.0-12.0-0.5","614f70b55373b6760cb9d5c9","6368f2eea3e9634aebcc2f6b","636b489b315a97c8905d6f56","693.1999999880791","","","","39","","","","key","16.66676237623756","960","487.5","true","1","129","30","0","-1","-1","","","","","","","","","","","","",""
"psychophysics","135","604342","0.0-12.0-0.6","614f70b55373b6760cb9d5c9","6368f2eea3e9634aebcc2f6b","636b489b315a97c8905d6f56","764.6999999880791","","","","39","","","","key","16.66682857142961","960","487.5","true","-1","129","24","1","1","-1","","","","","","","","","","","","",""
"psychophysics","136","605686","0.0-12.0-0.7","614f70b55373b6760cb9d5c9","6368f2eea3e9634aebcc2f6b","636b489b315a97c8905d6f56","341.09999999403954","","","","39","","","","key","16.666886075949474","960","487.5","true","1","153","24","1","-1","1","","","","","","","","","","","","",""
"psychophysics","137","607238","0.0-12.0-0.8","614f70b55373b6760cb9d5c9","6368f2eea3e9634aebcc2f6b","636b489b315a97c8905d6f56","551.1999999880791","","","","39","","","","key","16.667129032258746","960","487.5","true","1","153","19.2","2","-1","-1","","","","","","","","","","","","",""
"psychophysics","138","608566","0.0-12.0-0.9","614f70b55373b6760cb9d5c9","6368f2eea3e9634aebcc2f6b","636b489b315a97c8905d6f56","325.5","","","","39","","","","key","16.666743589744257","960","487.5","true","1","133.8","19.2","2","-1","-1","","","","","","","","","","","","",""
"psychophysics","139","611598","0.0-12.0-0.10","614f70b55373b6760cb9d5c9","6368f2eea3e9634aebcc2f6b","636b489b315a97c8905d6f56","2029.4000000059605","","","","37","","","","key","16.666828729281747","960","487.5","true","1","133.8","15.36","3","1","-1","","","","","","","","","","","","",""
"psychophysics","140","612926","0.0-12.0-0.11","614f70b55373b6760cb9d5c9","6368f2eea3e9634aebcc2f6b","636b489b315a97c8905d6f56","325.40000000596046","","","","37","","","","key","16.666772151899323","960","487.5","true","-1","149.16000000000003","15.36","3","-1","1","","","","","","","","","","","","",""
"psychophysics","141","614302","0.0-12.0-0.12","614f70b55373b6760cb9d5c9","6368f2eea3e9634aebcc2f6b","636b489b315a97c8905d6f56","373.2999999821186","","","","39","","","","key","16.666913580247144","960","487.5","true","1","149.16000000000003","12.287999999999998","4","-1","-1","","","","","","","","","","","","",""
"psychophysics","142","616054","0.0-12.0-0.13","614f70b55373b6760cb9d5c9","6368f2eea3e9634aebcc2f6b","636b489b315a97c8905d6f56","750.6000000238419","","","","37","","","","key","16.666780952381945","960","487.5","true","-1","136.872","12.287999999999998","4","-1","-1","","","","","","","","","","","","",""
"psychophysics","143","617398","0.0-12.0-0.14","614f70b55373b6760cb9d5c9","6368f2eea3e9634aebcc2f6b","636b489b315a97c8905d6f56","341.2999999821186","","","","39","","","","key","16.666772151899323","960","487.5","true","1","136.872","12.287999999999998","4","-1","-1","","","","","","","","","","","","",""
"psychophysics","144","618990","0.0-12.0-0.15","614f70b55373b6760cb9d5c9","6368f2eea3e9634aebcc2f6b","636b489b315a97c8905d6f56","589.4000000059605","","","","37","","","","key","16.66691578947326","960","487.5","true","1","129","9.8304","5","1","-1","","","","","","","","","","","","",""
"psychophysics","145","620334","0.0-12.0-0.16","614f70b55373b6760cb9d5c9","6368f2eea3e9634aebcc2f6b","636b489b315a97c8905d6f56","340.59999999403954","","","","39","","","","key","16.666632911392277","960","487.5","true","1","138.8304","9.8304","5","-1","1","","","","","","","","","","","","",""
"psychophysics","146","621654","0.0-12.0-0.17","614f70b55373b6760cb9d5c9","6368f2eea3e9634aebcc2f6b","636b489b315a97c8905d6f56","317.80000001192093","","","","39","","","","key","16.6667848101263","960","487.5","true","1","138.8304","7.864319999999999","6","-1","-1","","","","","","","","","","","","",""
"psychophysics","147","623982","0.0-12.0-0.18","614f70b55373b6760cb9d5c9","6368f2eea3e9634aebcc2f6b","636b489b315a97c8905d6f56","1325.199999988079","","","","39","","","","key","16.666847826087125","960","487.5","true","-1","130.96608","6.291456","7","1","-1","","","","","","","","","","","","",""
"psychophysics","148","625398","0.0-12.0-0.19","614f70b55373b6760cb9d5c9","6368f2eea3e9634aebcc2f6b","636b489b315a97c8905d6f56","413.09999999403954","","","","39","","","","key","16.66686904761896","960","487.5","true","1","137.25753600000002","6.291456","7","-1","1","","","","","","","","","","","","",""
"psychophysics","149","626934","0.0-12.0-0.20","614f70b55373b6760cb9d5c9","6368f2eea3e9634aebcc2f6b","636b489b315a97c8905d6f56","532.8999999761581","","","","37","","","","key","16.666835164834215","960","487.5","true","-1","137.25753600000002","5.033164800000001","8","-1","-1","","","","","","","","","","","","",""
"psychophysics","150","629902","0.0-12.0-0.21","614f70b55373b6760cb9d5c9","6368f2eea3e9634aebcc2f6b","636b489b315a97c8905d6f56","1965.5999999940395","","","","37","","","","key","16.66675141242946","960","487.5","true","-1","132.2243712","5.033164800000001","8","-1","-1","","","","","","","","","","","","",""
"psychophysics","151","632198","0.0-12.0-0.22","614f70b55373b6760cb9d5c9","6368f2eea3e9634aebcc2f6b","636b489b315a97c8905d6f56","1294.5","","","","39","","","","key","16.6668759124085","960","487.5","true","1","132.2243712","5.033164800000001","8","-1","-1","","","","","","","","","","","","",""
"psychophysics","152","636326","0.0-12.0-0.23","614f70b55373b6760cb9d5c9","6368f2eea3e9634aebcc2f6b","636b489b315a97c8905d6f56","3124.699999988079","","","","39","","","","key","16.666809716598916","960","487.5","true","1","129","5.033164800000001","8","-1","-1","","","","","","","","","","","","",""
"psychophysics","153","638014","0.0-12.0-0.24","614f70b55373b6760cb9d5c9","6368f2eea3e9634aebcc2f6b","636b489b315a97c8905d6f56","685","","","","39","","","","key","16.666959999999964","960","487.5","true","1","129","5.033164800000001","8","-1","-1","","","","","","","","","","","","",""
"psychophysics","154","639638","0.0-12.0-0.25","614f70b55373b6760cb9d5c9","6368f2eea3e9634aebcc2f6b","636b489b315a97c8905d6f56","621.5","","","","39","","","","key","16.66685567010367","960","487.5","true","-1","129","4.0265318400000005","9","1","-1","","","","","","","","","","","","",""
"psychophysics","155","641494","0.0-12.0-0.26","614f70b55373b6760cb9d5c9","6368f2eea3e9634aebcc2f6b","636b489b315a97c8905d6f56","853","","","","37","","","","key","16.666809090909506","960","487.5","true","-1","133.02653184","4.0265318400000005","9","-1","1","","","","","","","","","","","","",""
"psychophysics","156","643262","0.0-12.0-0.27","614f70b55373b6760cb9d5c9","6368f2eea3e9634aebcc2f6b","636b489b315a97c8905d6f56","765.5","","","","37","","","","key","16.66675238095202","960","487.5","true","1","133.02653184","3.2212254720000004","10","1","-1","","","","","","","","","","","","",""
"psychophysics","157","644438","0.0-12.0-0.28","614f70b55373b6760cb9d5c9","6368f2eea3e9634aebcc2f6b","636b489b315a97c8905d6f56","172.59999999403954","","","","37","","","","key","16.666814285714644","960","487.5","true","-1","136.24775731199998","3.2212254720000004","10","-1","1","","","","","","","","","","","","",""
"psychophysics","158","645726","0.0-12.0-0.29","614f70b55373b6760cb9d5c9","6368f2eea3e9634aebcc2f6b","636b489b315a97c8905d6f56","285.5","","","","37","","","","key","16.666842105263832","960","487.5","true","-1","136.24775731199998","2.5769803776000004","11","-1","-1","","","","","","","","","","","","",""
"psychophysics","159","647646","0.0-12.0-0.30","614f70b55373b6760cb9d5c9","6368f2eea3e9634aebcc2f6b","636b489b315a97c8905d6f56","917.2999999821186","","","","37","","","","key","16.66682456140386","960","487.5","true","-1","133.67077693439998","2.5769803776000004","11","-1","-1","","","","","","","","","","","","",""
"psychophysics","160","649206","0.0-12.0-0.31","614f70b55373b6760cb9d5c9","6368f2eea3e9634aebcc2f6b","636b489b315a97c8905d6f56","556.7999999821186","","","","37","","","","key","16.666881720430307","960","487.5","true","-1","133.67077693439998","2.5769803776000004","11","-1","-1","","","","","","","","","","","","",""
"psychophysics","161","650638","0.0-12.0-0.32","614f70b55373b6760cb9d5c9","6368f2eea3e9634aebcc2f6b","636b489b315a97c8905d6f56","429.19999998807907","","","","37","","","","key","16.66691764705842","960","487.5","true","-1","131.0937965568","2.5769803776000004","11","-1","-1","","","","","","","","","","","","",""
"psychophysics","162","652590","0.0-12.0-0.33","614f70b55373b6760cb9d5c9","6368f2eea3e9634aebcc2f6b","636b489b315a97c8905d6f56","948.9000000059605","","","","39","","","","key","16.666879310343887","960","487.5","true","1","131.0937965568","2.5769803776000004","11","-1","-1","","","","","","","","","","","","",""
"psychophysics","163","654206","0.0-12.0-0.34","614f70b55373b6760cb9d5c9","6368f2eea3e9634aebcc2f6b","636b489b315a97c8905d6f56","613.3000000119209","","","","39","","","","key","16.666729166666","960","487.5","true","1","129","2.5769803776000004","11","-1","-1","","","","","","","","","","","","",""
"psychophysics","164","655814","0.0-12.0-0.35","614f70b55373b6760cb9d5c9","6368f2eea3e9634aebcc2f6b","636b489b315a97c8905d6f56","604.6999999880791","","","","37","","","","key","16.66681052631527","960","487.5","true","-1","129","2.5769803776000004","11","-1","-1","","","","","","","","","","","","",""
"psychophysics","165","657430","0.0-12.0-0.36","614f70b55373b6760cb9d5c9","6368f2eea3e9634aebcc2f6b","636b489b315a97c8905d6f56","613.1999999880791","","","","39","","","","key","16.66685416666587","960","487.5","true","-1","129","2.0615843020800004","12","1","-1","","","","","","","","","","","","",""
"psychophysics","166","659094","0.0-12.0-0.37","614f70b55373b6760cb9d5c9","6368f2eea3e9634aebcc2f6b","636b489b315a97c8905d6f56","660.8999999761581","","","","39","","","","key","16.66677777777835","960","487.5","true","1","131.06158430208","2.0615843020800004","12","-1","1","","","","","","","","","","","","",""
"psychophysics","167","660646","0.0-12.0-0.38","614f70b55373b6760cb9d5c9","6368f2eea3e9634aebcc2f6b","636b489b315a97c8905d6f56","549.1999999880791","","","","39","","","","key","16.66711956521739","960","487.5","true","-1","131.06158430208","1.6492674416640005","13","1","-1","","","","","","","","","","","","",""
"psychophysics","168","662078","0.0-12.0-0.39","614f70b55373b6760cb9d5c9","6368f2eea3e9634aebcc2f6b","636b489b315a97c8905d6f56","428.90000000596046","","","","39","","","","key","16.666788235294412","960","487.5","true","1","132.710851743744","1.6492674416640005","13","-1","1","","","","","","","","","","","","",""
"html-keyboard-response","169","664782","0.0-13.0","614f70b55373b6760cb9d5c9","6368f2eea3e9634aebcc2f6b","636b489b315a97c8905d6f56","2703.800000011921","<p>Well Done !</p><p>Prepare for a new block.</p><p>DON'T EXIT THE FULL SCREEN MODE</p><p>Press the Spacebar to start.</p>","","","32","","","","","","","","","","","","","","","true","131.92744970895362","","","","","","","","","","",""
"html-keyboard-response","170","664889","0.0-14.0","614f70b55373b6760cb9d5c9","6368f2eea3e9634aebcc2f6b","636b489b315a97c8905d6f56","null","","","","null","","","","","","","","","","","","","","","","","131.98497950829497","true","135.96995901658994","","","","","","","",""
"instructions","171","717143","0.0-15.0","614f70b55373b6760cb9d5c9","6368f2eea3e9634aebcc2f6b","636b489b315a97c8905d6f56","52252.90000000596","","","","","","","[{""page_index"":0,""viewing_time"":37365},{""page_index"":1,""viewing_time"":5127.5},{""page_index"":2,""viewing_time"":9760.200000017881}]","","","","","","","","","","","","","","","","","","","","","","","",""
"psychophysics","172","720154","0.0-16.0-0.0","614f70b55373b6760cb9d5c9","6368f2eea3e9634aebcc2f6b","636b489b315a97c8905d6f56","null","","","","null","","","","key","16.668416666666356","960","487.5","","","","","","","","","","","","","","","","","","","",""
"psychophysics","173","720655","0.0-16.0-1.0","614f70b55373b6760cb9d5c9","6368f2eea3e9634aebcc2f6b","636b489b315a97c8905d6f56","null","","","","null","","","","key","16.666655172413247","960","487.5","","","","","","","","","","","","","136","-1","5","false","","","",""
"psychophysics","174","725158","0.0-16.0-2.0","614f70b55373b6760cb9d5c9","6368f2eea3e9634aebcc2f6b","636b489b315a97c8905d6f56","4502.0999999940395","","","","90","","","","key","16.66682222222228","960","487.5","","","","","","","","","","","","","","","","","","","",""
"psychophysics","175","726161","0.0-16.0-0.1","614f70b55373b6760cb9d5c9","6368f2eea3e9634aebcc2f6b","636b489b315a97c8905d6f56","null","","","","null","","","","key","16.666830508474465","960","487.5","","","","","","","","","","","","","","","","","","","",""
"psychophysics","176","726666","0.0-16.0-1.1","614f70b55373b6760cb9d5c9","6368f2eea3e9634aebcc2f6b","636b489b315a97c8905d6f56","null","","","","null","","","","key","16.66703448275602","960","487.5","","","","","","","","","","","","","136","1","2","false","","","",""
"psychophysics","177","727566","0.0-16.0-2.1","614f70b55373b6760cb9d5c9","6368f2eea3e9634aebcc2f6b","636b489b315a97c8905d6f56","900.3000000119209","","","","77","","","","key","16.666207547169968","960","487.5","","","","","","","","","","","","","","","","","","","",""
"psychophysics","178","728569","0.0-16.0-0.2","614f70b55373b6760cb9d5c9","6368f2eea3e9634aebcc2f6b","636b489b315a97c8905d6f56","null","","","","null","","","","key","16.666813559323092","960","487.5","","","","","","","","","","","","","","","","","","","",""
"psychophysics","179","729072","0.0-16.0-1.2","614f70b55373b6760cb9d5c9","6368f2eea3e9634aebcc2f6b","636b489b315a97c8905d6f56","null","","","","null","","","","key","16.666689655173506","960","487.5","","","","","","","","","","","","","136","1","6","false","","","",""
"psychophysics","180","729582","0.0-16.0-2.2","614f70b55373b6760cb9d5c9","6368f2eea3e9634aebcc2f6b","636b489b315a97c8905d6f56","509.7999999821186","","","","77","","","","key","16.66683333333349","960","487.5","","","","","","","","","","","","","","","","","","","",""
"psychophysics","181","730585","0.0-16.0-0.3","614f70b55373b6760cb9d5c9","6368f2eea3e9634aebcc2f6b","636b489b315a97c8905d6f56","null","","","","null","","","","key","16.666661016948883","960","487.5","","","","","","","","","","","","","","","","","","","",""
"psychophysics","182","731088","0.0-16.0-1.3","614f70b55373b6760cb9d5c9","6368f2eea3e9634aebcc2f6b","636b489b315a97c8905d6f56","null","","","","null","","","","key","16.666724137933763","960","487.5","","","","","","","","","","","","","136","-1","4","false","","","",""
"psychophysics","183","731734","0.0-16.0-2.3","614f70b55373b6760cb9d5c9","6368f2eea3e9634aebcc2f6b","636b489b315a97c8905d6f56","645","","","","77","","","","key","16.666947368422132","960","487.5","","","","","","","","","","","","","","","","","","","",""
"psychophysics","184","732737","0.0-16.0-0.4","614f70b55373b6760cb9d5c9","6368f2eea3e9634aebcc2f6b","636b489b315a97c8905d6f56","null","","","","null","","","","key","16.666694915253604","960","487.5","","","","","","","","","","","","","","","","","","","",""
"psychophysics","185","733238","0.0-16.0-1.4","614f70b55373b6760cb9d5c9","6368f2eea3e9634aebcc2f6b","636b489b315a97c8905d6f56","null","","","","null","","","","key","16.666896551723013","960","487.5","","","","","","","","","","","","","136","-1","0","false","","","",""
"psychophysics","186","733758","0.0-16.0-2.4","614f70b55373b6760cb9d5c9","6368f2eea3e9634aebcc2f6b","636b489b315a97c8905d6f56","519","","","","90","","","","key","16.666741935483692","960","487.5","","","","","","","","","","","","","","","","","","","",""
"psychophysics","187","734761","0.0-16.0-0.5","614f70b55373b6760cb9d5c9","6368f2eea3e9634aebcc2f6b","636b489b315a97c8905d6f56","null","","","","null","","","","key","16.666813559321117","960","487.5","","","","","","","","","","","","","","","","","","","",""
"psychophysics","188","735265","0.0-16.0-1.5","614f70b55373b6760cb9d5c9","6368f2eea3e9634aebcc2f6b","636b489b315a97c8905d6f56","null","","","","null","","","","key","16.666689655173506","960","487.5","","","","","","","","","","","","","136","1","0","false","","","",""
"psychophysics","189","735614","0.0-16.0-2.5","614f70b55373b6760cb9d5c9","6368f2eea3e9634aebcc2f6b","636b489b315a97c8905d6f56","348.30000001192093","","","","90","","","","key","16.666849999997066","960","487.5","","","","","","","","","","","","","","","","","","","",""
"psychophysics","190","736618","0.0-16.0-0.6","614f70b55373b6760cb9d5c9","6368f2eea3e9634aebcc2f6b","636b489b315a97c8905d6f56","null","","","","null","","","","key","16.66693220338863","960","487.5","","","","","","","","","","","","","","","","","","","",""
"psychophysics","191","737121","0.0-16.0-1.6","614f70b55373b6760cb9d5c9","6368f2eea3e9634aebcc2f6b","636b489b315a97c8905d6f56","null","","","","null","","","","key","16.666896551727028","960","487.5","","","","","","","","","","","","","136","1","5","false","","","",""
"psychophysics","192","737422","0.0-16.0-2.6","614f70b55373b6760cb9d5c9","6368f2eea3e9634aebcc2f6b","636b489b315a97c8905d6f56","300.7999999821186","","","","77","","","","key","16.66649999999855","960","487.5","","","","","","","","","","","","","","","","","","","",""
"psychophysics","193","738425","0.0-16.0-0.7","614f70b55373b6760cb9d5c9","6368f2eea3e9634aebcc2f6b","636b489b315a97c8905d6f56","null","","","","null","","","","key","16.666694915253604","960","487.5","","","","","","","","","","","","","","","","","","","",""
"psychophysics","194","738930","0.0-16.0-1.7","614f70b55373b6760cb9d5c9","6368f2eea3e9634aebcc2f6b","636b489b315a97c8905d6f56","null","","","","null","","","","key","16.666931034483273","960","487.5","","","","","","","","","","","","","136","1","4","false","","","",""
"psychophysics","195","739191","0.0-16.0-2.7","614f70b55373b6760cb9d5c9","6368f2eea3e9634aebcc2f6b","636b489b315a97c8905d6f56","260.2000000178814","","","","77","","","","key","16.66626666666319","960","487.5","","","","","","","","","","","","","","","","","","","",""
"psychophysics","196","740193","0.0-16.0-0.8","614f70b55373b6760cb9d5c9","6368f2eea3e9634aebcc2f6b","636b489b315a97c8905d6f56","null","","","","null","","","","key","16.666915254237257","960","487.5","","","","","","","","","","","","","","","","","","","",""
"psychophysics","197","740697","0.0-16.0-1.8","614f70b55373b6760cb9d5c9","6368f2eea3e9634aebcc2f6b","636b489b315a97c8905d6f56","null","","","","null","","","","key","16.66672413792975","960","487.5","","","","","","","","","","","","","136","1","3","false","","","",""
"psychophysics","198","741078","0.0-16.0-2.8","614f70b55373b6760cb9d5c9","6368f2eea3e9634aebcc2f6b","636b489b315a97c8905d6f56","380.40000000596046","","","","90","","","","key","16.666818181814794","960","487.5","","","","","","","","","","","","","","","","","","","",""
"psychophysics","199","742082","0.0-16.0-0.9","614f70b55373b6760cb9d5c9","6368f2eea3e9634aebcc2f6b","636b489b315a97c8905d6f56","null","","","","null","","","","key","16.66684745762584","960","487.5","","","","","","","","","","","","","","","","","","","",""
"psychophysics","200","742585","0.0-16.0-1.9","614f70b55373b6760cb9d5c9","6368f2eea3e9634aebcc2f6b","636b489b315a97c8905d6f56","null","","","","null","","","","key","16.666586206896746","960","487.5","","","","","","","","","","","","","136","-1","2","false","","","",""
"psychophysics","201","742862","0.0-16.0-2.9","614f70b55373b6760cb9d5c9","6368f2eea3e9634aebcc2f6b","636b489b315a97c8905d6f56","276.59999999403954","","","","90","","","","key","16.666874999995343","960","487.5","","","","","","","","","","","","","","","","","","","",""
"psychophysics","202","743865","0.0-16.0-0.10","614f70b55373b6760cb9d5c9","6368f2eea3e9634aebcc2f6b","636b489b315a97c8905d6f56","null","","","","null","","","","key","16.66674576271365","960","487.5","","","","","","","","","","","","","","","","","","","",""
"psychophysics","203","744370","0.0-16.0-1.10","614f70b55373b6760cb9d5c9","6368f2eea3e9634aebcc2f6b","636b489b315a97c8905d6f56","null","","","","null","","","","key","16.66706896551628","960","487.5","","","","","","","","","","","","","136","-1","3","false","","","",""
"psychophysics","204","744734","0.0-16.0-2.10","614f70b55373b6760cb9d5c9","6368f2eea3e9634aebcc2f6b","636b489b315a97c8905d6f56","364","","","","90","","","","key","16.66680952380522","960","487.5","","","","","","","","","","","","","","","","","","","",""
"psychophysics","205","745737","0.0-16.0-0.11","614f70b55373b6760cb9d5c9","6368f2eea3e9634aebcc2f6b","636b489b315a97c8905d6f56","null","","","","null","","","","key","16.66659322033944","960","487.5","","","","","","","","","","","","","","","","","","","",""
"psychophysics","206","746238","0.0-16.0-1.11","614f70b55373b6760cb9d5c9","6368f2eea3e9634aebcc2f6b","636b489b315a97c8905d6f56","null","","","","null","","","","key","16.666931034483273","960","487.5","","","","","","","","","","","","","136","-1","6","false","","","",""
"psychophysics","207","746646","0.0-16.0-2.11","614f70b55373b6760cb9d5c9","6368f2eea3e9634aebcc2f6b","636b489b315a97c8905d6f56","406.90000000596046","","","","77","","","","key","16.666791666667752","960","487.5","","","","","","","","","","","","","","","","","","","",""
"psychophysics","208","747650","0.0-16.0-0.12","614f70b55373b6760cb9d5c9","6368f2eea3e9634aebcc2f6b","636b489b315a97c8905d6f56","null","","","","null","","","","key","16.6667288135603","960","487.5","","","","","","","","","","","","","","","","","","","",""
"psychophysics","209","748153","0.0-16.0-1.12","614f70b55373b6760cb9d5c9","6368f2eea3e9634aebcc2f6b","636b489b315a97c8905d6f56","null","","","","null","","","","key","16.666793103450267","960","487.5","","","","","","","","","","","","","136","-1","2","false","","","",""
"psychophysics","210","748654","0.0-16.0-2.12","614f70b55373b6760cb9d5c9","6368f2eea3e9634aebcc2f6b","636b489b315a97c8905d6f56","500.59999999403954","","","","90","","","","key","16.665965517244206","960","487.5","","","","","","","","","","","","","","","","","","","",""
"psychophysics","211","749655","0.0-16.0-0.13","614f70b55373b6760cb9d5c9","6368f2eea3e9634aebcc2f6b","636b489b315a97c8905d6f56","null","","","","null","","","","key","16.66696610169335","960","487.5","","","","","","","","","","","","","","","","","","","",""
"psychophysics","212","750161","0.0-16.0-1.13","614f70b55373b6760cb9d5c9","6368f2eea3e9634aebcc2f6b","636b489b315a97c8905d6f56","null","","","","null","","","","key","16.66683333333349","960","487.5","","","","","","","","","","","","","136","1","2","false","","","",""
"psychophysics","213","750654","0.0-16.0-2.13","614f70b55373b6760cb9d5c9","6368f2eea3e9634aebcc2f6b","636b489b315a97c8905d6f56","493.10000002384186","","","","90","","","","key","16.666821428570465","960","487.5","","","","","","","","","","","","","","","","","","","",""
"psychophysics","214","751655","0.0-16.0-0.14","614f70b55373b6760cb9d5c9","6368f2eea3e9634aebcc2f6b","636b489b315a97c8905d6f56","null","","","","null","","","","key","16.666762711865022","960","487.5","","","","","","","","","","","","","","","","","","","",""
"psychophysics","215","752161","0.0-16.0-1.14","614f70b55373b6760cb9d5c9","6368f2eea3e9634aebcc2f6b","636b489b315a97c8905d6f56","null","","","","null","","","","key","16.666866666664525","960","487.5","","","","","","","","","","","","","136","1","0","false","","","",""
"psychophysics","216","754094","0.0-16.0-2.14","614f70b55373b6760cb9d5c9","6368f2eea3e9634aebcc2f6b","636b489b315a97c8905d6f56","1932.9000000059605","","","","90","","","","key","16.667156521739113","960","487.5","","","","","","","","","","","","","","","","","","","",""
"psychophysics","217","755097","0.0-16.0-0.15","614f70b55373b6760cb9d5c9","6368f2eea3e9634aebcc2f6b","636b489b315a97c8905d6f56","null","","","","null","","","","key","16.66667796610223","960","487.5","","","","","","","","","","","","","","","","","","","",""
"psychophysics","218","755601","0.0-16.0-1.15","614f70b55373b6760cb9d5c9","6368f2eea3e9634aebcc2f6b","636b489b315a97c8905d6f56","null","","","","null","","","","key","16.666586206896746","960","487.5","","","","","","","","","","","","","136","1","5","false","","","",""
"psychophysics","219","755870","0.0-16.0-2.15","614f70b55373b6760cb9d5c9","6368f2eea3e9634aebcc2f6b","636b489b315a97c8905d6f56","268.7999999821186","","","","77","","","","key","16.668800000000434","960","487.5","","","","","","","","","","","","","","","","","","","",""
"psychophysics","220","756872","0.0-16.0-0.16","614f70b55373b6760cb9d5c9","6368f2eea3e9634aebcc2f6b","636b489b315a97c8905d6f56","null","","","","null","","","","key","16.666067796609347","960","487.5","","","","","","","","","","","","","","","","","","","",""
"psychophysics","221","757377","0.0-16.0-1.16","614f70b55373b6760cb9d5c9","6368f2eea3e9634aebcc2f6b","636b489b315a97c8905d6f56","null","","","","null","","","","key","16.667066666666262","960","487.5","","","","","","","","","","","","","136","-1","3","false","","","",""
"psychophysics","222","757798","0.0-16.0-2.16","614f70b55373b6760cb9d5c9","6368f2eea3e9634aebcc2f6b","636b489b315a97c8905d6f56","420.09999999403954","","","","90","","","","key","16.666333333336905","960","487.5","","","","","","","","","","","","","","","","","","","",""
"psychophysics","223","758801","0.0-16.0-0.17","614f70b55373b6760cb9d5c9","6368f2eea3e9634aebcc2f6b","636b489b315a97c8905d6f56","null","","","","null","","","","key","16.666796610167772","960","487.5","","","","","","","","","","","","","","","","","","","",""
"psychophysics","224","759305","0.0-16.0-1.17","614f70b55373b6760cb9d5c9","6368f2eea3e9634aebcc2f6b","636b489b315a97c8905d6f56","null","","","","null","","","","key","16.667137931036795","960","487.5","","","","","","","","","","","","","136","-1","4","false","","","",""
"psychophysics","225","760710","0.0-16.0-2.17","614f70b55373b6760cb9d5c9","6368f2eea3e9634aebcc2f6b","636b489b315a97c8905d6f56","1404.199999988079","","","","77","","","","key","16.666309523810575","960","487.5","","","","","","","","","","","","","","","","","","","",""
"psychophysics","226","761713","0.0-16.0-0.18","614f70b55373b6760cb9d5c9","6368f2eea3e9634aebcc2f6b","636b489b315a97c8905d6f56","null","","","","null","","","","key","16.666813559321117","960","487.5","","","","","","","","","","","","","","","","","","","",""
"psychophysics","227","762217","0.0-16.0-1.18","614f70b55373b6760cb9d5c9","6368f2eea3e9634aebcc2f6b","636b489b315a97c8905d6f56","null","","","","null","","","","key","16.66713793103278","960","487.5","","","","","","","","","","","","","136","1","6","false","","","",""
"psychophysics","228","764126","0.0-16.0-2.18","614f70b55373b6760cb9d5c9","6368f2eea3e9634aebcc2f6b","636b489b315a97c8905d6f56","1908.8999999761581","","","","90","","","","key","16.666807017543377","960","487.5","","","","","","","","","","","","","","","","","","","",""
"psychophysics","229","765130","0.0-16.0-0.19","614f70b55373b6760cb9d5c9","6368f2eea3e9634aebcc2f6b","636b489b315a97c8905d6f56","null","","","","null","","","","key","16.666694915253604","960","487.5","","","","","","","","","","","","","","","","","","","",""
"psychophysics","230","765633","0.0-16.0-1.19","614f70b55373b6760cb9d5c9","6368f2eea3e9634aebcc2f6b","636b489b315a97c8905d6f56","null","","","","null","","","","key","16.66724137930954","960","487.5","","","","","","","","","","","","","136","1","4","false","","","",""
"psychophysics","231","766254","0.0-16.0-2.19","614f70b55373b6760cb9d5c9","6368f2eea3e9634aebcc2f6b","636b489b315a97c8905d6f56","620.7999999821186","","","","77","","","","key","16.666833333334782","960","487.5","","","","","","","","","","","","","","","","","","","",""
"psychophysics","232","767255","0.0-16.0-0.20","614f70b55373b6760cb9d5c9","6368f2eea3e9634aebcc2f6b","636b489b315a97c8905d6f56","null","","","","null","","","","key","16.666796610169744","960","487.5","","","","","","","","","","","","","","","","","","","",""
"psychophysics","233","767761","0.0-16.0-1.20","614f70b55373b6760cb9d5c9","6368f2eea3e9634aebcc2f6b","636b489b315a97c8905d6f56","null","","","","null","","","","key","16.66700000000031","960","487.5","","","","","","","","","","","","","136","1","3","false","","","",""
"psychophysics","234","768302","0.0-16.0-2.20","614f70b55373b6760cb9d5c9","6368f2eea3e9634aebcc2f6b","636b489b315a97c8905d6f56","540.7999999821186","","","","77","","","","key","16.666838709678082","960","487.5","","","","","","","","","","","","","","","","","","","",""
"psychophysics","235","769305","0.0-16.0-0.21","614f70b55373b6760cb9d5c9","6368f2eea3e9634aebcc2f6b","636b489b315a97c8905d6f56","null","","","","null","","","","key","16.666762711865022","960","487.5","","","","","","","","","","","","","","","","","","","",""
"psychophysics","236","769809","0.0-16.0-1.21","614f70b55373b6760cb9d5c9","6368f2eea3e9634aebcc2f6b","636b489b315a97c8905d6f56","null","","","","null","","","","key","16.665499999998914","960","487.5","","","","","","","","","","","","","136","-1","6","false","","","",""
"psychophysics","237","770262","0.0-16.0-2.21","614f70b55373b6760cb9d5c9","6368f2eea3e9634aebcc2f6b","636b489b315a97c8905d6f56","453.09999999403954","","","","77","","","","key","16.666769230769624","960","487.5","","","","","","","","","","","","","","","","","","","",""
"psychophysics","238","771265","0.0-16.0-0.22","614f70b55373b6760cb9d5c9","6368f2eea3e9634aebcc2f6b","636b489b315a97c8905d6f56","null","","","","null","","","","key","16.666813559323092","960","487.5","","","","","","","","","","","","","","","","","","","",""
"psychophysics","239","771770","0.0-16.0-1.22","614f70b55373b6760cb9d5c9","6368f2eea3e9634aebcc2f6b","636b489b315a97c8905d6f56","null","","","","null","","","","key","16.666793103450267","960","487.5","","","","","","","","","","","","","136","-1","5","false","","","",""
"psychophysics","240","772054","0.0-16.0-2.22","614f70b55373b6760cb9d5c9","6368f2eea3e9634aebcc2f6b","636b489b315a97c8905d6f56","284.2999999821186","","","","77","","","","key","16.667124999999942","960","487.5","","","","","","","","","","","","","","","","","","","",""
"psychophysics","241","773055","0.0-16.0-0.23","614f70b55373b6760cb9d5c9","6368f2eea3e9634aebcc2f6b","636b489b315a97c8905d6f56","null","","","","null","","","","key","16.66669491525558","960","487.5","","","","","","","","","","","","","","","","","","","",""
"psychophysics","242","773561","0.0-16.0-1.23","614f70b55373b6760cb9d5c9","6368f2eea3e9634aebcc2f6b","636b489b315a97c8905d6f56","null","","","","null","","","","key","16.66693333333436","960","487.5","","","","","","","","","","","","","136","-1","0","false","","","",""
"psychophysics","243","773854","0.0-16.0-2.23","614f70b55373b6760cb9d5c9","6368f2eea3e9634aebcc2f6b","636b489b315a97c8905d6f56","292.5","","","","77","","","","key","16.66668750000099","960","487.5","","","","","","","","","","","","","","","","","","","",""
"html-keyboard-response","244","787655","0.0-17.0","614f70b55373b6760cb9d5c9","6368f2eea3e9634aebcc2f6b","636b489b315a97c8905d6f56","13799.90000000596","<p>Well Done !</p><p>Training Complete. Press the spacebar to start.</p><p>DON'T EXIT THE FULL SCREEN MODE</p>","","","32","","","","","","","","","","","","","","","","","","","","","","","","","","",""
"psychophysics","245","790665","0.0-18.0-0.0","614f70b55373b6760cb9d5c9","6368f2eea3e9634aebcc2f6b","636b489b315a97c8905d6f56","null","","","","null","","","","key","16.66826666666505","960","487.5","","","","","","","","","","","","","","","","","","","",""
"psychophysics","246","791169","0.0-18.0-1.0","614f70b55373b6760cb9d5c9","6368f2eea3e9634aebcc2f6b","636b489b315a97c8905d6f56","null","","","","null","","","","key","16.666999999999774","960","487.5","","","","","","","","","","","","","136","-1","3","true","","","",""
"psychophysics","247","791750","0.0-18.0-2.0","614f70b55373b6760cb9d5c9","6368f2eea3e9634aebcc2f6b","636b489b315a97c8905d6f56","580.5","","","","90","","","","key","16.666499999998933","960","487.5","","","","","","","","","","","","","","","","","","","",""
"psychophysics","248","792754","0.0-18.0-0.1","614f70b55373b6760cb9d5c9","6368f2eea3e9634aebcc2f6b","636b489b315a97c8905d6f56","null","","","","null","","","","key","16.666711864406953","960","487.5","","","","","","","","","","","","","","","","","","","",""
"psychophysics","249","793256","0.0-18.0-1.1","614f70b55373b6760cb9d5c9","6368f2eea3e9634aebcc2f6b","636b489b315a97c8905d6f56","null","","","","null","","","","key","16.66724137930954","960","487.5","","","","","","","","","","","","","136","1","3","true","","","",""
"psychophysics","250","793686","0.0-18.0-2.1","614f70b55373b6760cb9d5c9","6368f2eea3e9634aebcc2f6b","636b489b315a97c8905d6f56","428.69999998807907","","","","90","","","","key","16.666999999997206","960","487.5","","","","","","","","","","","","","","","","","","","",""
"psychophysics","251","794689","0.0-18.0-0.2","614f70b55373b6760cb9d5c9","6368f2eea3e9634aebcc2f6b","636b489b315a97c8905d6f56","null","","","","null","","","","key","16.666881355932535","960","487.5","","","","","","","","","","","","","","","","","","","",""
"psychophysics","252","795193","0.0-18.0-1.2","614f70b55373b6760cb9d5c9","6368f2eea3e9634aebcc2f6b","636b489b315a97c8905d6f56","null","","","","null","","","","key","16.66663333333175","960","487.5","","","","","","","","","","","","","136","-1","4","true","","","",""
"psychophysics","253","795502","0.0-18.0-2.2","614f70b55373b6760cb9d5c9","6368f2eea3e9634aebcc2f6b","636b489b315a97c8905d6f56","308.90000000596046","","","","77","","","","key","16.66694117646993","960","487.5","","","","","","","","","","","","","","","","","","","",""
"psychophysics","254","796505","0.0-18.0-0.3","614f70b55373b6760cb9d5c9","6368f2eea3e9634aebcc2f6b","636b489b315a97c8905d6f56","null","","","","null","","","","key","16.66667796610026","960","487.5","","","","","","","","","","","","","","","","","","","",""
"psychophysics","255","797006","0.0-18.0-1.3","614f70b55373b6760cb9d5c9","6368f2eea3e9634aebcc2f6b","636b489b315a97c8905d6f56","null","","","","null","","","","key","16.666896551727028","960","487.5","","","","","","","","","","","","","136","-1","2","true","","","",""
"psychophysics","256","797302","0.0-18.0-2.3","614f70b55373b6760cb9d5c9","6368f2eea3e9634aebcc2f6b","636b489b315a97c8905d6f56","294.59999999403954","","","","90","","","","key","16.66694117646993","960","487.5","","","","","","","","","","","","","","","","","","","",""
"psychophysics","257","798306","0.0-18.0-0.4","614f70b55373b6760cb9d5c9","6368f2eea3e9634aebcc2f6b","636b489b315a97c8905d6f56","null","","","","null","","","","key","16.666813559321117","960","487.5","","","","","","","","","","","","","","","","","","","",""
"psychophysics","258","798809","0.0-18.0-1.4","614f70b55373b6760cb9d5c9","6368f2eea3e9634aebcc2f6b","636b489b315a97c8905d6f56","null","","","","null","","","","key","16.66683333333349","960","487.5","","","","","","","","","","","","","136","-1","6","true","","","",""
"psychophysics","259","799270","0.0-18.0-2.4","614f70b55373b6760cb9d5c9","6368f2eea3e9634aebcc2f6b","636b489b315a97c8905d6f56","460.69999998807907","","","","77","","","","key","16.666807692309913","960","487.5","","","","","","","","","","","","","","","","","","","",""
"psychophysics","260","800272","0.0-18.0-0.5","614f70b55373b6760cb9d5c9","6368f2eea3e9634aebcc2f6b","636b489b315a97c8905d6f56","null","","","","null","","","","key","16.666864406781162","960","487.5","","","","","","","","","","","","","","","","","","","",""
"psychophysics","261","800777","0.0-18.0-1.5","614f70b55373b6760cb9d5c9","6368f2eea3e9634aebcc2f6b","636b489b315a97c8905d6f56","null","","","","null","","","","key","16.66679999999857","960","487.5","","","","","","","","","","","","","136","-1","5","true","","","",""
"psychophysics","262","801054","0.0-18.0-2.5","614f70b55373b6760cb9d5c9","6368f2eea3e9634aebcc2f6b","636b489b315a97c8905d6f56","276.69999998807907","","","","77","","","","key","16.666933333330476","960","487.5","","","","","","","","","","","","","","","","","","","",""
"psychophysics","263","802056","0.0-18.0-0.6","614f70b55373b6760cb9d5c9","6368f2eea3e9634aebcc2f6b","636b489b315a97c8905d6f56","null","","","","null","","","","key","16.666864406779187","960","487.5","","","","","","","","","","","","","","","","","","","",""
"psychophysics","264","802561","0.0-18.0-1.6","614f70b55373b6760cb9d5c9","6368f2eea3e9634aebcc2f6b","636b489b315a97c8905d6f56","null","","","","null","","","","key","16.66683333333349","960","487.5","","","","","","","","","","","","","136","1","2","true","","","",""
"psychophysics","265","802894","0.0-18.0-2.6","614f70b55373b6760cb9d5c9","6368f2eea3e9634aebcc2f6b","636b489b315a97c8905d6f56","332.19999998807907","","","","90","","","","key","16.6666315789457","960","487.5","","","","","","","","","","","","","","","","","","","",""
"psychophysics","266","803897","0.0-18.0-0.7","614f70b55373b6760cb9d5c9","6368f2eea3e9634aebcc2f6b","636b489b315a97c8905d6f56","null","","","","null","","","","key","16.666745762711674","960","487.5","","","","","","","","","","","","","","","","","","","",""
"psychophysics","267","804401","0.0-18.0-1.7","614f70b55373b6760cb9d5c9","6368f2eea3e9634aebcc2f6b","636b489b315a97c8905d6f56","null","","","","null","","","","key","16.666758620690008","960","487.5","","","","","","","","","","","","","136","1","0","true","","","",""
"psychophysics","268","805454","0.0-18.0-2.7","614f70b55373b6760cb9d5c9","6368f2eea3e9634aebcc2f6b","636b489b315a97c8905d6f56","1052.5","","","","90","","","","key","16.66670967741952","960","487.5","","","","","","","","","","","","","","","","","","","",""
"psychophysics","269","806456","0.0-18.0-0.8","614f70b55373b6760cb9d5c9","6368f2eea3e9634aebcc2f6b","636b489b315a97c8905d6f56","null","","","","null","","","","key","16.666796610167772","960","487.5","","","","","","","","","","","","","","","","","","","",""
"psychophysics","270","806961","0.0-18.0-1.8","614f70b55373b6760cb9d5c9","6368f2eea3e9634aebcc2f6b","636b489b315a97c8905d6f56","null","","","","null","","","","key","16.666966666665395","960","487.5","","","","","","","","","","","","","136","-1","0","true","","","",""
"psychophysics","271","807382","0.0-18.0-2.8","614f70b55373b6760cb9d5c9","6368f2eea3e9634aebcc2f6b","636b489b315a97c8905d6f56","420.2999999821186","","","","90","","","","key","16.666750000003958","960","487.5","","","","","","","","","","","","","","","","","","","",""
"psychophysics","272","808385","0.0-18.0-0.9","614f70b55373b6760cb9d5c9","6368f2eea3e9634aebcc2f6b","636b489b315a97c8905d6f56","null","","","","null","","","","key","16.66672881355833","960","487.5","","","","","","","","","","","","","","","","","","","",""
"psychophysics","273","808889","0.0-18.0-1.9","614f70b55373b6760cb9d5c9","6368f2eea3e9634aebcc2f6b","636b489b315a97c8905d6f56","null","","","","null","","","","key","16.666793103450267","960","487.5","","","","","","","","","","","","","136","1","5","true","","","",""
"psychophysics","274","809086","0.0-18.0-2.9","614f70b55373b6760cb9d5c9","6368f2eea3e9634aebcc2f6b","636b489b315a97c8905d6f56","195.09999999403954","","","","77","","","","key","16.66754545454486","960","487.5","","","","","","","","","","","","","","","","","","","",""
"psychophysics","275","810089","0.0-18.0-0.10","614f70b55373b6760cb9d5c9","6368f2eea3e9634aebcc2f6b","636b489b315a97c8905d6f56","null","","","","null","","","","key","16.667406779660652","960","487.5","","","","","","","","","","","","","","","","","","","",""
"psychophysics","276","810593","0.0-18.0-1.10","614f70b55373b6760cb9d5c9","6368f2eea3e9634aebcc2f6b","636b489b315a97c8905d6f56","null","","","","null","","","","key","16.66679999999857","960","487.5","","","","","","","","","","","","","136","1","6","true","","","",""
"psychophysics","277","812254","0.0-18.0-2.10","614f70b55373b6760cb9d5c9","6368f2eea3e9634aebcc2f6b","636b489b315a97c8905d6f56","1661.1000000238419","","","","90","","","","key","16.66688775510185","960","487.5","","","","","","","","","","","","","","","","","","","",""
"psychophysics","278","813256","0.0-18.0-0.11","614f70b55373b6760cb9d5c9","6368f2eea3e9634aebcc2f6b","636b489b315a97c8905d6f56","null","","","","null","","","","key","16.666932203390605","960","487.5","","","","","","","","","","","","","","","","","","","",""
"psychophysics","279","813762","0.0-18.0-1.11","614f70b55373b6760cb9d5c9","6368f2eea3e9634aebcc2f6b","636b489b315a97c8905d6f56","null","","","","null","","","","key","16.66673333333262","960","487.5","","","","","","","","","","","","","136","1","4","true","","","",""
"psychophysics","280","814614","0.0-18.0-2.11","614f70b55373b6760cb9d5c9","6368f2eea3e9634aebcc2f6b","636b489b315a97c8905d6f56","852.0999999940395","","","","90","","","","key","16.666699999999256","960","487.5","","","","","","","","","","","","","","","","","","","",""
"psychophysics","281","815617","0.0-18.0-0.12","614f70b55373b6760cb9d5c9","6368f2eea3e9634aebcc2f6b","636b489b315a97c8905d6f56","null","","","","null","","","","key","16.666694915253604","960","487.5","","","","","","","","","","","","","","","","","","","",""
"psychophysics","282","816121","0.0-18.0-1.12","614f70b55373b6760cb9d5c9","6368f2eea3e9634aebcc2f6b","636b489b315a97c8905d6f56","null","","","","null","","","","key","16.666793103446253","960","487.5","","","","","","","","","","","","","136","1","2","true","","","",""
"psychophysics","283","816598","0.0-18.0-2.12","614f70b55373b6760cb9d5c9","6368f2eea3e9634aebcc2f6b","636b489b315a97c8905d6f56","476.7999999821186","","","","77","","","","key","16.6667499999998","960","487.5","","","","","","","","","","","","","","","","","","","",""
"psychophysics","284","817601","0.0-18.0-0.13","614f70b55373b6760cb9d5c9","6368f2eea3e9634aebcc2f6b","636b489b315a97c8905d6f56","null","","","","null","","","","key","16.666779661016395","960","487.5","","","","","","","","","","","","","","","","","","","",""
"psychophysics","285","818106","0.0-18.0-1.13","614f70b55373b6760cb9d5c9","6368f2eea3e9634aebcc2f6b","636b489b315a97c8905d6f56","null","","","","null","","","","key","16.66672413792975","960","487.5","","","","","","","","","","","","","136","-1","4","true","","","",""
"psychophysics","286","818894","0.0-18.0-2.13","614f70b55373b6760cb9d5c9","6368f2eea3e9634aebcc2f6b","636b489b315a97c8905d6f56","786.5","","","","90","","","","key","16.66695744680994","960","487.5","","","","","","","","","","","","","","","","","","","",""
"psychophysics","287","819897","0.0-18.0-0.14","614f70b55373b6760cb9d5c9","6368f2eea3e9634aebcc2f6b","636b489b315a97c8905d6f56","null","","","","null","","","","key","16.666661016948883","960","487.5","","","","","","","","","","","","","","","","","","","",""
"psychophysics","288","820401","0.0-18.0-1.14","614f70b55373b6760cb9d5c9","6368f2eea3e9634aebcc2f6b","636b489b315a97c8905d6f56","null","","","","null","","","","key","16.666758620690008","960","487.5","","","","","","","","","","","","","136","-1","6","true","","","",""
"psychophysics","289","820990","0.0-18.0-2.14","614f70b55373b6760cb9d5c9","6368f2eea3e9634aebcc2f6b","636b489b315a97c8905d6f56","588.9000000059605","","","","77","","","","key","16.66688571428614","960","487.5","","","","","","","","","","","","","","","","","","","",""
"psychophysics","290","821993","0.0-18.0-0.15","614f70b55373b6760cb9d5c9","6368f2eea3e9634aebcc2f6b","636b489b315a97c8905d6f56","null","","","","null","","","","key","16.666864406781162","960","487.5","","","","","","","","","","","","","","","","","","","",""
"psychophysics","291","822498","0.0-18.0-1.15","614f70b55373b6760cb9d5c9","6368f2eea3e9634aebcc2f6b","636b489b315a97c8905d6f56","null","","","","null","","","","key","16.666931034483273","960","487.5","","","","","","","","","","","","","136","-1","2","true","","","",""
"psychophysics","292","822838","0.0-18.0-2.15","614f70b55373b6760cb9d5c9","6368f2eea3e9634aebcc2f6b","636b489b315a97c8905d6f56","340.19999998807907","","","","90","","","","key","16.666842105259235","960","487.5","","","","","","","","","","","","","","","","","","","",""
"psychophysics","293","823839","0.0-18.0-0.16","614f70b55373b6760cb9d5c9","6368f2eea3e9634aebcc2f6b","636b489b315a97c8905d6f56","null","","","","null","","","","key","16.66667796610223","960","487.5","","","","","","","","","","","","","","","","","","","",""
"psychophysics","294","824345","0.0-18.0-1.16","614f70b55373b6760cb9d5c9","6368f2eea3e9634aebcc2f6b","636b489b315a97c8905d6f56","null","","","","null","","","","key","16.666766666667534","960","487.5","","","","","","","","","","","","","136","1","0","true","","","",""
"psychophysics","295","824630","0.0-18.0-2.16","614f70b55373b6760cb9d5c9","6368f2eea3e9634aebcc2f6b","636b489b315a97c8905d6f56","284.2999999821186","","","","90","","","","key","16.666937499998312","960","487.5","","","","","","","","","","","","","","","","","","","",""
"psychophysics","296","825633","0.0-18.0-0.17","614f70b55373b6760cb9d5c9","6368f2eea3e9634aebcc2f6b","636b489b315a97c8905d6f56","null","","","","null","","","","key","16.666796610169744","960","487.5","","","","","","","","","","","","","","","","","","","",""
"psychophysics","297","826137","0.0-18.0-1.17","614f70b55373b6760cb9d5c9","6368f2eea3e9634aebcc2f6b","636b489b315a97c8905d6f56","null","","","","null","","","","key","16.666965517243533","960","487.5","","","","","","","","","","","","","136","1","6","true","","","",""
"psychophysics","298","826390","0.0-18.0-2.17","614f70b55373b6760cb9d5c9","6368f2eea3e9634aebcc2f6b","636b489b315a97c8905d6f56","252.69999998807907","","","","77","","","","key","16.669133333334077","960","487.5","","","","","","","","","","","","","","","","","","","",""
"psychophysics","299","827393","0.0-18.0-0.18","614f70b55373b6760cb9d5c9","6368f2eea3e9634aebcc2f6b","636b489b315a97c8905d6f56","null","","","","null","","","","key","16.667016949153396","960","487.5","","","","","","","","","","","","","","","","","","","",""
"psychophysics","300","827897","0.0-18.0-1.18","614f70b55373b6760cb9d5c9","6368f2eea3e9634aebcc2f6b","636b489b315a97c8905d6f56","null","","","","null","","","","key","16.666931034483273","960","487.5","","","","","","","","","","","","","136","1","5","true","","","",""
"psychophysics","301","828158","0.0-18.0-2.18","614f70b55373b6760cb9d5c9","6368f2eea3e9634aebcc2f6b","636b489b315a97c8905d6f56","260.09999999403954","","","","77","","","","key","16.666866666668405","960","487.5","","","","","","","","","","","","","","","","","","","",""
"psychophysics","302","829162","0.0-18.0-0.19","614f70b55373b6760cb9d5c9","6368f2eea3e9634aebcc2f6b","636b489b315a97c8905d6f56","null","","","","null","","","","key","16.666830508474465","960","487.5","","","","","","","","","","","","","","","","","","","",""
"psychophysics","303","829665","0.0-18.0-1.19","614f70b55373b6760cb9d5c9","6368f2eea3e9634aebcc2f6b","636b489b315a97c8905d6f56","null","","","","null","","","","key","16.666896551723013","960","487.5","","","","","","","","","","","","","136","1","3","true","","","",""
"psychophysics","304","829974","0.0-18.0-2.19","614f70b55373b6760cb9d5c9","6368f2eea3e9634aebcc2f6b","636b489b315a97c8905d6f56","308.40000000596046","","","","90","","","","key","16.666944444444702","960","487.5","","","","","","","","","","","","","","","","","","","",""
"psychophysics","305","830977","0.0-18.0-0.20","614f70b55373b6760cb9d5c9","6368f2eea3e9634aebcc2f6b","636b489b315a97c8905d6f56","null","","","","null","","","","key","16.666864406779187","960","487.5","","","","","","","","","","","","","","","","","","","",""
"psychophysics","306","831481","0.0-18.0-1.20","614f70b55373b6760cb9d5c9","6368f2eea3e9634aebcc2f6b","636b489b315a97c8905d6f56","null","","","","null","","","","key","16.666517241376226","960","487.5","","","","","","","","","","","","","136","-1","3","true","","","",""
"psychophysics","307","831886","0.0-18.0-2.20","614f70b55373b6760cb9d5c9","6368f2eea3e9634aebcc2f6b","636b489b315a97c8905d6f56","404.7999999821186","","","","77","","","","key","16.666869565216906","960","487.5","","","","","","","","","","","","","","","","","","","",""
"psychophysics","308","832889","0.0-18.0-0.21","614f70b55373b6760cb9d5c9","6368f2eea3e9634aebcc2f6b","636b489b315a97c8905d6f56","null","","","","null","","","","key","16.666881355932535","960","487.5","","","","","","","","","","","","","","","","","","","",""
"psychophysics","309","833393","0.0-18.0-1.21","614f70b55373b6760cb9d5c9","6368f2eea3e9634aebcc2f6b","636b489b315a97c8905d6f56","null","","","","null","","","","key","16.666866666668405","960","487.5","","","","","","","","","","","","","136","1","4","true","","","",""
"psychophysics","310","834078","0.0-18.0-2.21","614f70b55373b6760cb9d5c9","6368f2eea3e9634aebcc2f6b","636b489b315a97c8905d6f56","684.4000000059605","","","","77","","","","key","16.66702499999956","960","487.5","","","","","","","","","","","","","","","","","","","",""
"psychophysics","311","835081","0.0-18.0-0.22","614f70b55373b6760cb9d5c9","6368f2eea3e9634aebcc2f6b","636b489b315a97c8905d6f56","null","","","","null","","","","key","16.6667288135603","960","487.5","","","","","","","","","","","","","","","","","","","",""
"psychophysics","312","835585","0.0-18.0-1.22","614f70b55373b6760cb9d5c9","6368f2eea3e9634aebcc2f6b","636b489b315a97c8905d6f56","null","","","","null","","","","key","16.66672413792975","960","487.5","","","","","","","","","","","","","136","-1","5","true","","","",""
"psychophysics","313","835878","0.0-18.0-2.22","614f70b55373b6760cb9d5c9","6368f2eea3e9634aebcc2f6b","636b489b315a97c8905d6f56","292.09999999403954","","","","77","","","","key","16.666999999995287","960","487.5","","","","","","","","","","","","","","","","","","","",""
"psychophysics","314","836881","0.0-18.0-0.23","614f70b55373b6760cb9d5c9","6368f2eea3e9634aebcc2f6b","636b489b315a97c8905d6f56","null","","","","null","","","","key","16.66672881355833","960","487.5","","","","","","","","","","","","","","","","","","","",""
"psychophysics","315","837385","0.0-18.0-1.23","614f70b55373b6760cb9d5c9","6368f2eea3e9634aebcc2f6b","636b489b315a97c8905d6f56","null","","","","null","","","","key","16.66651724138024","960","487.5","","","","","","","","","","","","","136","-1","0","true","","","",""
"psychophysics","316","837718","0.0-18.0-2.23","614f70b55373b6760cb9d5c9","6368f2eea3e9634aebcc2f6b","636b489b315a97c8905d6f56","332.5","","","","90","","","","key","16.66642105262604","960","487.5","","","","","","","","","","","","","","","","","","","",""
"psychophysics","317","838721","0.0-18.0-0.24","614f70b55373b6760cb9d5c9","6368f2eea3e9634aebcc2f6b","636b489b315a97c8905d6f56","null","","","","null","","","","key","16.666796610169744","960","487.5","","","","","","","","","","","","","","","","","","","",""
"psychophysics","318","839223","0.0-18.0-1.24","614f70b55373b6760cb9d5c9","6368f2eea3e9634aebcc2f6b","636b489b315a97c8905d6f56","null","","","","null","","","","key","16.667103448276535","960","487.5","","","","","","","","","","","","","136","1","3","true","","","",""
"psychophysics","319","839574","0.0-18.0-2.24","614f70b55373b6760cb9d5c9","6368f2eea3e9634aebcc2f6b","636b489b315a97c8905d6f56","350.5","","","","90","","","","key","16.666952380954864","960","487.5","","","","","","","","","","","","","","","","","","","",""
"psychophysics","320","840577","0.0-18.0-0.25","614f70b55373b6760cb9d5c9","6368f2eea3e9634aebcc2f6b","636b489b315a97c8905d6f56","null","","","","null","","","","key","16.666932203390605","960","487.5","","","","","","","","","","","","","","","","","","","",""
"psychophysics","321","841081","0.0-18.0-1.25","614f70b55373b6760cb9d5c9","6368f2eea3e9634aebcc2f6b","636b489b315a97c8905d6f56","null","","","","null","","","","key","16.66565517241392","960","487.5","","","","","","","","","","","","","136","1","5","true","","","",""
"psychophysics","322","841798","0.0-18.0-2.25","614f70b55373b6760cb9d5c9","6368f2eea3e9634aebcc2f6b","636b489b315a97c8905d6f56","716.0999999940395","","","","90","","","","key","16.66659523809462","960","487.5","","","","","","","","","","","","","","","","","","","",""
"psychophysics","323","842801","0.0-18.0-0.26","614f70b55373b6760cb9d5c9","6368f2eea3e9634aebcc2f6b","636b489b315a97c8905d6f56","null","","","","null","","","","key","16.666813559323092","960","487.5","","","","","","","","","","","","","","","","","","","",""
"psychophysics","324","843305","0.0-18.0-1.26","614f70b55373b6760cb9d5c9","6368f2eea3e9634aebcc2f6b","636b489b315a97c8905d6f56","null","","","","null","","","","key","16.667034482760034","960","487.5","","","","","","","","","","","","","136","-1","4","true","","","",""
"psychophysics","325","843806","0.0-18.0-2.26","614f70b55373b6760cb9d5c9","6368f2eea3e9634aebcc2f6b","636b489b315a97c8905d6f56","500.19999998807907","","","","90","","","","key","16.66673333333262","960","487.5","","","","","","","","","","","","","","","","","","","",""
"psychophysics","326","844809","0.0-18.0-0.27","614f70b55373b6760cb9d5c9","6368f2eea3e9634aebcc2f6b","636b489b315a97c8905d6f56","null","","","","null","","","","key","16.66703389830477","960","487.5","","","","","","","","","","","","","","","","","","","",""
"psychophysics","327","845313","0.0-18.0-1.27","614f70b55373b6760cb9d5c9","6368f2eea3e9634aebcc2f6b","636b489b315a97c8905d6f56","null","","","","null","","","","key","16.667034482760034","960","487.5","","","","","","","","","","","","","136","-1","2","true","","","",""
"psychophysics","328","846294","0.0-18.0-2.27","614f70b55373b6760cb9d5c9","6368f2eea3e9634aebcc2f6b","636b489b315a97c8905d6f56","980.6000000238419","","","","77","","","","key","16.66686206896476","960","487.5","","","","","","","","","","","","","","","","","","","",""
"psychophysics","329","847297","0.0-18.0-0.28","614f70b55373b6760cb9d5c9","6368f2eea3e9634aebcc2f6b","636b489b315a97c8905d6f56","null","","","","null","","","","key","16.666694915253604","960","487.5","","","","","","","","","","","","","","","","","","","",""
