"trial_type","trial_index","time_elapsed","internal_node_id","PROLIFIC_PID","STUDY_ID","SESSION_ID","rt","stimulus","button_pressed","success","key_press","responses","isData","view_history","response_type","avg_frame_time","center_x","center_y","isSC","stim_side","trial_luminance","step_size","nReversal","correct","prev_ans","isThreshold","SC_threshold","final_threshold","isLuminance","FF_luminance","luminance","stimSide","ISInt","isFF","question_order","isSPQ","isCAPS","isAQ"
"pavlovia","0","18","0.0-0.0","614eb0a92921d8c1e64f4873","6368f2eea3e9634aebcc2f6b","636b6fc5eec83d6069b2e572","","","","","","","","","","","","","","","","","","","","","","","","","","","","","","","",""
"html-button-response","1","96043","0.0-1.0","614eb0a92921d8c1e64f4873","6368f2eea3e9634aebcc2f6b","636b6fc5eec83d6069b2e572","96016.40000000037","<div style='background-color: white; width:60%; margin: auto; padding: 50px; text-align: justify; text-justify: inter-word; margin-bottom: 20px;'><h1 style='text-align: center;'>Consent Form</h1><p>Please read this consent form carefully before deciding whether you would like to participate in this study. You have to be 18 years old or older to participate to this study.</p><p style='text-decoration: underline;'>Participation is voluntary:</p><p>It is your choice whether or not to participate in this research. If you choose to participate, you may change your mind and leave the study at any time. Refusal to participate or stopping your participation will involve no penalty or loss of benefits to which you are otherwise entitled.</p><p style='text-decoration: underline;'>Purpose of the Study:</p><p>To understand the mechanisms underlying human perception.</p><p style='text-decoration: underline;'>What you will do in this study:</p><p>You will be presented with a series of visual images and then you will press buttons on the keyboard of your computer to respond to simple questions about the images (e.g. Were one or two images presented?). In addition, you will be asked to complete a questionnaire concerning your beliefs and everyday mental and perceptual experiences.'</p><p style='text-decoration: underline;'> Time Required:</p><p>The study will take 40 minutes to complete. </p><p style='text-decoration: underline;'>Risks:</p><p>There are no anticipated risks associated with participating in this study that are beyond those experienced in everyday life. </p><p style='text-decoration: underline;'>Benefits:</p><p>There are no benefits to you in participating in the study. However, this study may lead to a better understanding of how different kinds of visual information are used.</p><p style='text-decoration: underline;'>Compensation:</p><p>You will be paid US$6.6/hour. </p><p style='text-decoration: underline;'>Privacy and Confidentiality:</p><p>Your participation in this study will be anonymous. No personal information about your name or identity will be asked or recorded. This anonymous data will be stored for several years and may be used for a variety of research purposes. The overall results of the study may be published, or the data files may be shared with other researchers, but your identity will not be revealed in any way. The online services we are using for this study may temporarily store your data, but this data will be downloaded and then promptly deleted from those services.Your data will not be permanently associated with your name, IP address, or any other identifiable information (e.g., your information will only be connected to your payment, not to any of your responses), though they may be temporarily stored together before we download and separate them. Even so, no guarantee of internet survey security can be given because, although unlikely, transmissions can be intercepted and IP addresses can be identified. The anonymous data may be shared publicly (for example, in conjunction with a resulting academic publication).</p><p style='text-decoration: underline;'>Participation and Withdrawal:</p><p>Your participation in this study is completely voluntary. You may stop responding to the stimuli or stop answering questions if you so choose and without penalty by exiting the full screen mode, closing this tab of your browser or redirecting it to a different website.</p><p style='text-decoration: underline;'>Contact Info of the Researcher: </p><p>If you have questions about this study, or if you would like to talk to the research team, please contact David Melcher (david.melcher@nyu.edu, md5050@nyu.edu) at the Perception and Active Cognition Laboratory, New York University Abu Dhabi, Computational Research Building, Saadiyat Island, Abu Dhabi, UAE.This research has been reviewed by the New York University Abu Dhabi Institutional Review Board (NYUAD IRB). To contact about your rights in this research, for questions, suggestions, or complaints that are not addressed by the researchers, please email IRBnyuad@nyu.edu, or call the NYUAD IRB at +971 2 628 4313. </p></div>","0","","","","","","","","","","","","","","","","","","","","","","","","","","","","",""
"fullscreen","2","107275","0.0-2.0","614eb0a92921d8c1e64f4873","6368f2eea3e9634aebcc2f6b","636b6fc5eec83d6069b2e572","","","","true","","","","","","","","","","","","","","","","","","","","","","","","","","","",""
"html-keyboard-response","3","197546","0.0-3.0","614eb0a92921d8c1e64f4873","6368f2eea3e9634aebcc2f6b","636b6fc5eec83d6069b2e572","90268.6000000001","<p>Welcome !</p><p>READ CAREFULLY THE FOLLOWING INDICATIONS:</p><p>From this moment you have ~40 minutes to complete the experiment.</p><p>During the experiment you will be prompted to take several breaks. Each break should not last longer than 2-3 minutes.</p><p>Make sure that your computer is plugged in and it's not running on battery power, even if the battery is already fully charged.</p><p>Turn off your phone and music, make sure that you are in a quiet room and that you will not be distracted for the next hour.</p><p>Failure to comply with the instructions and indications provided during the experiment will most likely result in the rejection of your data.<p>Press the spacebar to start.</p>","","","32","","","","","","","","","","","","","","","","","","","","","","","","","","",""
"survey-html-form","4","205802","0.0-4.0","614eb0a92921d8c1e64f4873","6368f2eea3e9634aebcc2f6b","636b6fc5eec83d6069b2e572","8250.899999999907","","","","","{""age"":""52"",""sex"":""F""}","true","","","","","","","","","","","","","","","","","","","","","","","","",""
"instructions","5","315540","0.0-5.0","614eb0a92921d8c1e64f4873","6368f2eea3e9634aebcc2f6b","636b6fc5eec83d6069b2e572","109736.5","","","","","","","[{""page_index"":0,""viewing_time"":59879.299999999814},{""page_index"":1,""viewing_time"":37075.89999999991},{""page_index"":2,""viewing_time"":12780.100000000093}]","","","","","","","","","","","","","","","","","","","","","","","",""
"psychophysics","6","317944","0.0-6.0-0.0","614eb0a92921d8c1e64f4873","6368f2eea3e9634aebcc2f6b","636b6fc5eec83d6069b2e572","1392.5","","","","39","","","","key","16.77834507042229","683","308.5","true","1","180","30","0","-1","","","","","","","","","","","","","",""
"psychophysics","7","319476","0.0-6.0-0.1","614eb0a92921d8c1e64f4873","6368f2eea3e9634aebcc2f6b","636b6fc5eec83d6069b2e572","528.4000000003725","","","","37","","","","key","16.843722222222198","683","308.5","true","-1","180","30","0","-1","-1","","","","","","","","","","","","",""
"psychophysics","8","320896","0.0-6.0-0.2","614eb0a92921d8c1e64f4873","6368f2eea3e9634aebcc2f6b","636b6fc5eec83d6069b2e572","412.1999999997206","","","","39","","","","key","16.65868235294132","683","308.5","true","1","150","30","0","-1","-1","","","","","","","","","","","","",""
"psychophysics","9","322018","0.0-6.0-0.3","614eb0a92921d8c1e64f4873","6368f2eea3e9634aebcc2f6b","636b6fc5eec83d6069b2e572","116.3000000002794","","","","37","","","","key","16.658833333333448","683","308.5","true","-1","150","30","0","-1","-1","","","","","","","","","","","","",""
"psychophysics","10","324463","0.0-6.0-0.4","614eb0a92921d8c1e64f4873","6368f2eea3e9634aebcc2f6b","636b6fc5eec83d6069b2e572","1442.3999999999069","","","","37","","","","key","16.658712328767265","683","308.5","true","-1","129","30","0","-1","-1","","","","","","","","","","","","",""
"psychophysics","11","326550","0.0-6.0-0.5","614eb0a92921d8c1e64f4873","6368f2eea3e9634aebcc2f6b","636b6fc5eec83d6069b2e572","1083.3999999999069","","","","39","","","","key","16.658766129032536","683","308.5","true","1","129","30","0","-1","-1","","","","","","","","","","","","",""
"psychophysics","12","328419","0.0-6.0-0.6","614eb0a92921d8c1e64f4873","6368f2eea3e9634aebcc2f6b","636b6fc5eec83d6069b2e572","866.0999999996275","","","","39","","","","key","16.658864864864523","683","308.5","true","1","129","30","0","-1","-1","","","","","","","","","","","","",""
"psychophysics","13","330280","0.0-6.0-0.7","614eb0a92921d8c1e64f4873","6368f2eea3e9634aebcc2f6b","636b6fc5eec83d6069b2e572","855.2000000001863","","","","39","","","","key","16.658567567567786","683","308.5","true","-1","129","24","1","1","-1","","","","","","","","","","","","",""
"psychophysics","14","331829","0.0-6.0-0.8","614eb0a92921d8c1e64f4873","6368f2eea3e9634aebcc2f6b","636b6fc5eec83d6069b2e572","545.7999999998137","","","","39","","","","key","16.65853260869588","683","308.5","true","1","153","24","1","-1","1","","","","","","","","","","","","",""
"psychophysics","15","333376","0.0-6.0-0.9","614eb0a92921d8c1e64f4873","6368f2eea3e9634aebcc2f6b","636b6fc5eec83d6069b2e572","543.5","","","","39","","","","key","16.65847826086911","683","308.5","true","1","153","19.2","2","-1","-1","","","","","","","","","","","","",""
"psychophysics","16","335135","0.0-6.0-0.10","614eb0a92921d8c1e64f4873","6368f2eea3e9634aebcc2f6b","636b6fc5eec83d6069b2e572","740.3999999999069","","","","37","","","","key","16.65867307692343","683","308.5","true","-1","133.8","19.2","2","-1","-1","","","","","","","","","","","","",""
"psychophysics","17","336887","0.0-6.0-0.11","614eb0a92921d8c1e64f4873","6368f2eea3e9634aebcc2f6b","636b6fc5eec83d6069b2e572","747.6000000000931","","","","37","","","","key","16.65870192307697","683","308.5","true","1","133.8","15.36","3","1","-1","","","","","","","","","","","","",""
"psychophysics","18","338447","0.0-6.0-0.12","614eb0a92921d8c1e64f4873","6368f2eea3e9634aebcc2f6b","636b6fc5eec83d6069b2e572","555.1000000000931","","","","37","","","","key","16.658935483871154","683","308.5","true","-1","149.16000000000003","15.36","3","-1","1","","","","","","","","","","","","",""
"psychophysics","19","339645","0.0-6.0-0.13","614eb0a92921d8c1e64f4873","6368f2eea3e9634aebcc2f6b","636b6fc5eec83d6069b2e572","192.70000000018626","","","","37","","","","key","16.658802816901737","683","308.5","true","-1","149.16000000000003","12.287999999999998","4","-1","-1","","","","","","","","","","","","",""
"psychophysics","20","340808","0.0-6.0-0.14","614eb0a92921d8c1e64f4873","6368f2eea3e9634aebcc2f6b","636b6fc5eec83d6069b2e572","157.39999999990687","","","","39","","","","key","16.65844927536175","683","308.5","true","1","136.872","12.287999999999998","4","-1","-1","","","","","","","","","","","","",""
"psychophysics","21","341971","0.0-6.0-0.15","614eb0a92921d8c1e64f4873","6368f2eea3e9634aebcc2f6b","636b6fc5eec83d6069b2e572","159.8000000002794","","","","37","","","","key","16.65827536231845","683","308.5","true","-1","136.872","12.287999999999998","4","-1","-1","","","","","","","","","","","","",""
"psychophysics","22","343556","0.0-6.0-0.16","614eb0a92921d8c1e64f4873","6368f2eea3e9634aebcc2f6b","636b6fc5eec83d6069b2e572","582.1000000000931","","","","37","","","","key","16.658677419354657","683","308.5","true","1","129","9.8304","5","1","-1","","","","","","","","","","","","",""
"psychophysics","23","344768","0.0-6.0-0.17","614eb0a92921d8c1e64f4873","6368f2eea3e9634aebcc2f6b","636b6fc5eec83d6069b2e572","206.90000000037253","","","","39","","","","key","16.658739726028042","683","308.5","true","1","138.8304","9.8304","5","-1","1","","","","","","","","","","","","",""
"psychophysics","24","346080","0.0-6.0-0.18","614eb0a92921d8c1e64f4873","6368f2eea3e9634aebcc2f6b","636b6fc5eec83d6069b2e572","307.20000000018626","","","","37","","","","key","16.65851948051955","683","308.5","true","-1","138.8304","7.864319999999999","6","-1","-1","","","","","","","","","","","","",""
"psychophysics","25","347615","0.0-6.0-0.19","614eb0a92921d8c1e64f4873","6368f2eea3e9634aebcc2f6b","636b6fc5eec83d6069b2e572","532.2999999998137","","","","37","","","","key","16.658934782608412","683","308.5","true","1","130.96608","6.291456","7","1","-1","","","","","","","","","","","","",""
"psychophysics","26","348862","0.0-6.0-0.20","614eb0a92921d8c1e64f4873","6368f2eea3e9634aebcc2f6b","636b6fc5eec83d6069b2e572","243.09999999962747","","","","39","","","","key","16.6583972602743","683","308.5","true","1","137.25753600000002","6.291456","7","-1","1","","","","","","","","","","","","",""
"psychophysics","27","349986","0.0-6.0-0.21","614eb0a92921d8c1e64f4873","6368f2eea3e9634aebcc2f6b","636b6fc5eec83d6069b2e572","121","","","","37","","","","key","16.658999999999867","683","308.5","true","-1","137.25753600000002","5.033164800000001","8","-1","-1","","","","","","","","","","","","",""
"psychophysics","28","351182","0.0-6.0-0.22","614eb0a92921d8c1e64f4873","6368f2eea3e9634aebcc2f6b","636b6fc5eec83d6069b2e572","192.29999999981374","","","","37","","","","key","16.658563380281304","683","308.5","true","-1","132.2243712","5.033164800000001","8","-1","-1","","","","","","","","","","","","",""
"psychophysics","29","353098","0.0-6.0-0.23","614eb0a92921d8c1e64f4873","6368f2eea3e9634aebcc2f6b","636b6fc5eec83d6069b2e572","913.2000000001863","","","","39","","","","key","16.805920353982458","683","308.5","true","1","132.2243712","5.033164800000001","8","-1","-1","","","","","","","","","","","","",""
"psychophysics","30","355117","0.0-6.0-0.24","614eb0a92921d8c1e64f4873","6368f2eea3e9634aebcc2f6b","636b6fc5eec83d6069b2e572","1016.1999999997206","","","","39","","","","key","16.65855833333335","683","308.5","true","1","129","5.033164800000001","8","-1","-1","","","","","","","","","","","","",""
"psychophysics","31","356785","0.0-6.0-0.25","614eb0a92921d8c1e64f4873","6368f2eea3e9634aebcc2f6b","636b6fc5eec83d6069b2e572","665.5","","","","39","","","","key","16.65859595959597","683","308.5","true","-1","129","4.0265318400000005","9","1","-1","","","","","","","","","","","","",""
"psychophysics","32","358580","0.0-6.0-0.26","614eb0a92921d8c1e64f4873","6368f2eea3e9634aebcc2f6b","636b6fc5eec83d6069b2e572","792.1000000000931","","","","37","","","","key","16.658682242991123","683","308.5","true","-1","133.02653184","4.0265318400000005","9","-1","1","","","","","","","","","","","","",""
"psychophysics","33","360132","0.0-6.0-0.27","614eb0a92921d8c1e64f4873","6368f2eea3e9634aebcc2f6b","636b6fc5eec83d6069b2e572","548.1999999997206","","","","39","","","","key","16.65861956521732","683","308.5","true","1","133.02653184","3.2212254720000004","10","-1","-1","","","","","","","","","","","","",""
"psychophysics","34","361935","0.0-6.0-0.28","614eb0a92921d8c1e64f4873","6368f2eea3e9634aebcc2f6b","636b6fc5eec83d6069b2e572","800","","","","37","","","","key","16.658607476635698","683","308.5","true","-1","129.805306368","3.2212254720000004","10","-1","-1","","","","","","","","","","","","",""
"psychophysics","35","363595","0.0-6.0-0.29","614eb0a92921d8c1e64f4873","6368f2eea3e9634aebcc2f6b","636b6fc5eec83d6069b2e572","655.7000000001863","","","","37","","","","key","16.65879797979759","683","308.5","true","-1","129.805306368","3.2212254720000004","10","-1","-1","","","","","","","","","","","","",""
"psychophysics","36","365415","0.0-6.0-0.30","614eb0a92921d8c1e64f4873","6368f2eea3e9634aebcc2f6b","636b6fc5eec83d6069b2e572","815.7000000001863","","","","37","","","","key","16.658574074073975","683","308.5","true","1","129","2.5769803776000004","11","1","-1","","","","","","","","","","","","",""
"psychophysics","37","367009","0.0-6.0-0.31","614eb0a92921d8c1e64f4873","6368f2eea3e9634aebcc2f6b","636b6fc5eec83d6069b2e572","590.9000000003725","","","","39","","","","key","16.65871578947347","683","308.5","true","-1","131.5769803776","2.5769803776000004","11","1","1","","","","","","","","","","","","",""
"psychophysics","38","368413","0.0-6.0-0.32","614eb0a92921d8c1e64f4873","6368f2eea3e9634aebcc2f6b","636b6fc5eec83d6069b2e572","398.90000000037253","","","","37","","","","key","16.65886746988006","683","308.5","true","-1","134.1539607552","2.5769803776000004","11","-1","1","","","","","","","","","","","","",""
"psychophysics","39","369587","0.0-6.0-0.33","614eb0a92921d8c1e64f4873","6368f2eea3e9634aebcc2f6b","636b6fc5eec83d6069b2e572","169.79999999981374","","","","37","","","","key","16.65873913043533","683","308.5","true","-1","134.1539607552","2.0615843020800004","12","-1","-1","","","","","","","","","","","","",""
"psychophysics","40","371310","0.0-6.0-0.34","614eb0a92921d8c1e64f4873","6368f2eea3e9634aebcc2f6b","636b6fc5eec83d6069b2e572","720.2000000001863","","","","39","","","","key","16.658660194174796","683","308.5","true","1","132.09237645311998","2.0615843020800004","12","-1","-1","","","","","","","","","","","","",""
"psychophysics","41","373174","0.0-6.0-0.35","614eb0a92921d8c1e64f4873","6368f2eea3e9634aebcc2f6b","636b6fc5eec83d6069b2e572","861.3000000002794","","","","39","","","","key","16.658684684684697","683","308.5","true","1","132.09237645311998","2.0615843020800004","12","-1","-1","","","","","","","","","","","","",""
"psychophysics","42","374724","0.0-6.0-0.36","614eb0a92921d8c1e64f4873","6368f2eea3e9634aebcc2f6b","636b6fc5eec83d6069b2e572","546.1000000000931","","","","39","","","","key","16.658663043477723","683","308.5","true","-1","130.03079215103998","1.6492674416640005","13","1","-1","","","","","","","","","","","","",""
"psychophysics","43","376082","0.0-6.0-0.37","614eb0a92921d8c1e64f4873","6368f2eea3e9634aebcc2f6b","636b6fc5eec83d6069b2e572","354.10000000009313","","","","37","","","","key","16.658774999999878","683","308.5","true","-1","131.68005959270397","1.6492674416640005","13","-1","1","","","","","","","","","","","","",""
"psychophysics","44","377894","0.0-6.0-0.38","614eb0a92921d8c1e64f4873","6368f2eea3e9634aebcc2f6b","636b6fc5eec83d6069b2e572","808.1999999997206","","","","39","","","","key","16.658657407407492","683","308.5","true","1","131.68005959270397","1.3194139533312006","14","-1","-1","","","","","","","","","","","","",""
"psychophysics","45","379269","0.0-6.0-0.39","614eb0a92921d8c1e64f4873","6368f2eea3e9634aebcc2f6b","636b6fc5eec83d6069b2e572","367.79999999981374","","","","39","","","","key","16.65887804878038","683","308.5","true","1","130.36064563937276","1.3194139533312006","14","-1","-1","","","","","","","","","","","","",""
"html-keyboard-response","46","395724","0.0-7.0","614eb0a92921d8c1e64f4873","6368f2eea3e9634aebcc2f6b","636b6fc5eec83d6069b2e572","16450.200000000186","<p>Well Done !</p><p>Prepare for a new block.</p><p>DON'T EXIT THE FULL SCREEN MODE</p><p>Press the Spacebar to start.</p>","","","32","","","","","","","","","","","","","","","true","131.43232587907067","","","","","","","","","","",""
"psychophysics","47","396744","0.0-8.0-0.0","614eb0a92921d8c1e64f4873","6368f2eea3e9634aebcc2f6b","636b6fc5eec83d6069b2e572","9.5","","","","39","","","","key","16.528064516128882","683","308.5","true","1","180","30","0","-1","","","","","","","","","","","","","",""
"psychophysics","48","397869","0.0-8.0-0.1","614eb0a92921d8c1e64f4873","6368f2eea3e9634aebcc2f6b","636b6fc5eec83d6069b2e572","122.10000000009313","","","","37","","","","key","16.65869696969678","683","308.5","true","-1","180","30","0","-1","-1","","","","","","","","","","","","",""
"psychophysics","49","399028","0.0-8.0-0.2","614eb0a92921d8c1e64f4873","6368f2eea3e9634aebcc2f6b","636b6fc5eec83d6069b2e572","153.79999999981374","","","","37","","","","key","16.658797101449203","683","308.5","true","-1","150","30","0","-1","-1","","","","","","","","","","","","",""
"psychophysics","50","400128","0.0-8.0-0.3","614eb0a92921d8c1e64f4873","6368f2eea3e9634aebcc2f6b","636b6fc5eec83d6069b2e572","97.09999999962747","","","","37","","","","key","16.658861538461554","683","308.5","true","-1","150","30","0","-1","-1","","","","","","","","","","","","",""
"psychophysics","51","401812","0.0-8.0-0.4","614eb0a92921d8c1e64f4873","6368f2eea3e9634aebcc2f6b","636b6fc5eec83d6069b2e572","678.5","","","","39","","","","key","16.65866999999969","683","308.5","true","-1","129","24","1","1","-1","","","","","","","","","","","","",""
"psychophysics","52","402875","0.0-8.0-0.5","614eb0a92921d8c1e64f4873","6368f2eea3e9634aebcc2f6b","636b6fc5eec83d6069b2e572","58.89999999990687","","","","37","","","","key","16.658746031746787","683","308.5","true","-1","153","24","1","-1","1","","","","","","","","","","","","",""
"psychophysics","53","403928","0.0-8.0-0.6","614eb0a92921d8c1e64f4873","6368f2eea3e9634aebcc2f6b","636b6fc5eec83d6069b2e572","49.799999999813735","","","","37","","","","key","16.658645161290487","683","308.5","true","-1","153","19.2","2","-1","-1","","","","","","","","","","","","",""
"psychophysics","54","405333","0.0-8.0-0.7","614eb0a92921d8c1e64f4873","6368f2eea3e9634aebcc2f6b","636b6fc5eec83d6069b2e572","401.20000000018626","","","","39","","","","key","16.658783132530164","683","308.5","true","-1","133.8","15.36","3","1","-1","","","","","","","","","","","","",""
"psychophysics","55","406351","0.0-8.0-0.8","614eb0a92921d8c1e64f4873","6368f2eea3e9634aebcc2f6b","636b6fc5eec83d6069b2e572","7.7999999998137355","","","","37","","","","key","16.65898333333316","683","308.5","true","-1","149.16000000000003","15.36","3","-1","1","","","","","","","","","","","","",""
"psychophysics","56","407465","0.0-8.0-0.9","614eb0a92921d8c1e64f4873","6368f2eea3e9634aebcc2f6b","636b6fc5eec83d6069b2e572","110","","","","37","","","","key","16.658772727272606","683","308.5","true","-1","149.16000000000003","12.287999999999998","4","-1","-1","","","","","","","","","","","","",""
"psychophysics","57","408588","0.0-8.0-0.10","614eb0a92921d8c1e64f4873","6368f2eea3e9634aebcc2f6b","636b6fc5eec83d6069b2e572","118.10000000009313","","","","39","","","","key","16.658597014925213","683","308.5","true","1","136.872","12.287999999999998","4","-1","-1","","","","","","","","","","","","",""
"psychophysics","58","409660","0.0-8.0-0.11","614eb0a92921d8c1e64f4873","6368f2eea3e9634aebcc2f6b","636b6fc5eec83d6069b2e572","69.8000000002794","","","","39","","","","key","16.65868253968305","683","308.5","true","1","136.872","12.287999999999998","4","-1","-1","","","","","","","","","","","","",""
"psychophysics","59","411422","0.0-8.0-0.12","614eb0a92921d8c1e64f4873","6368f2eea3e9634aebcc2f6b","636b6fc5eec83d6069b2e572","757.8000000002794","","","","37","","","","key","16.658628571428736","683","308.5","true","1","129","9.8304","5","1","-1","","","","","","","","","","","","",""
"psychophysics","60","412450","0.0-8.0-0.13","614eb0a92921d8c1e64f4873","6368f2eea3e9634aebcc2f6b","636b6fc5eec83d6069b2e572","24.399999999906868","","","","39","","","","key","16.658655737705153","683","308.5","true","1","138.8304","9.8304","5","-1","1","","","","","","","","","","","","",""
"psychophysics","61","413547","0.0-8.0-0.14","614eb0a92921d8c1e64f4873","6368f2eea3e9634aebcc2f6b","636b6fc5eec83d6069b2e572","93","","","","39","","","","key","16.65868749999936","683","308.5","true","1","138.8304","7.864319999999999","6","-1","-1","","","","","","","","","","","","",""
"psychophysics","62","415054","0.0-8.0-0.15","614eb0a92921d8c1e64f4873","6368f2eea3e9634aebcc2f6b","636b6fc5eec83d6069b2e572","504.60000000009313","","","","37","","","","key","16.658877777777768","683","308.5","true","1","130.96608","6.291456","7","1","-1","","","","","","","","","","","","",""
"psychophysics","63","416128","0.0-8.0-0.16","614eb0a92921d8c1e64f4873","6368f2eea3e9634aebcc2f6b","636b6fc5eec83d6069b2e572","69.10000000009313","","","","39","","","","key","16.658412698413326","683","308.5","true","1","137.25753600000002","6.291456","7","-1","1","","","","","","","","","","","","",""
"psychophysics","64","417291","0.0-8.0-0.17","614eb0a92921d8c1e64f4873","6368f2eea3e9634aebcc2f6b","636b6fc5eec83d6069b2e572","157.29999999981374","","","","39","","","","key","16.658550724637713","683","308.5","true","1","137.25753600000002","5.033164800000001","8","-1","-1","","","","","","","","","","","","",""
"psychophysics","65","418372","0.0-8.0-0.18","614eb0a92921d8c1e64f4873","6368f2eea3e9634aebcc2f6b","636b6fc5eec83d6069b2e572","77.5","","","","39","","","","key","16.658734375000677","683","308.5","true","1","132.2243712","5.033164800000001","8","-1","-1","","","","","","","","","","","","",""
"psychophysics","66","419902","0.0-8.0-0.19","614eb0a92921d8c1e64f4873","6368f2eea3e9634aebcc2f6b","636b6fc5eec83d6069b2e572","526.1999999997206","","","","37","","","","key","16.658505494505484","683","308.5","true","-1","132.2243712","5.033164800000001","8","-1","-1","","","","","","","","","","","","",""
"psychophysics","67","421468","0.0-8.0-0.20","614eb0a92921d8c1e64f4873","6368f2eea3e9634aebcc2f6b","636b6fc5eec83d6069b2e572","561.5","","","","37","","","","key","16.658623655913747","683","308.5","true","1","129","4.0265318400000005","9","1","-1","","","","","","","","","","","","",""
"psychophysics","68","422833","0.0-8.0-0.21","614eb0a92921d8c1e64f4873","6368f2eea3e9634aebcc2f6b","636b6fc5eec83d6069b2e572","361","","","","37","","","","key","16.658654320987235","683","308.5","true","-1","133.02653184","4.0265318400000005","9","-1","1","","","","","","","","","","","","",""
"psychophysics","69","424179","0.0-8.0-0.22","614eb0a92921d8c1e64f4873","6368f2eea3e9634aebcc2f6b","636b6fc5eec83d6069b2e572","343.5","","","","37","","","","key","16.658812500000202","683","308.5","true","-1","133.02653184","3.2212254720000004","10","-1","-1","","","","","","","","","","","","",""
"psychophysics","70","425528","0.0-8.0-0.23","614eb0a92921d8c1e64f4873","6368f2eea3e9634aebcc2f6b","636b6fc5eec83d6069b2e572","345","","","","37","","","","key","16.658455696202303","683","308.5","true","1","129.805306368","2.5769803776000004","11","1","-1","","","","","","","","","","","","",""
"psychophysics","71","426898","0.0-8.0-0.24","614eb0a92921d8c1e64f4873","6368f2eea3e9634aebcc2f6b","636b6fc5eec83d6069b2e572","366.29999999981374","","","","37","","","","key","16.658609756097487","683","308.5","true","-1","132.3822867456","2.5769803776000004","11","-1","1","","","","","","","","","","","","",""
"psychophysics","72","427939","0.0-8.0-0.25","614eb0a92921d8c1e64f4873","6368f2eea3e9634aebcc2f6b","636b6fc5eec83d6069b2e572","37.10000000009313","","","","39","","","","key","16.65875409836079","683","308.5","true","1","132.3822867456","2.0615843020800004","12","-1","-1","","","","","","","","","","","","",""
"psychophysics","73","429460","0.0-8.0-0.26","614eb0a92921d8c1e64f4873","6368f2eea3e9634aebcc2f6b","636b6fc5eec83d6069b2e572","514.3999999999069","","","","39","","","","key","16.658505494505484","683","308.5","true","1","130.32070244352","2.0615843020800004","12","-1","-1","","","","","","","","","","","","",""
"psychophysics","74","430914","0.0-8.0-0.27","614eb0a92921d8c1e64f4873","6368f2eea3e9634aebcc2f6b","636b6fc5eec83d6069b2e572","449.90000000037253","","","","37","","","","key","16.658662790697893","683","308.5","true","-1","130.32070244352","2.0615843020800004","12","-1","-1","","","","","","","","","","","","",""
"psychophysics","75","432678","0.0-8.0-0.28","614eb0a92921d8c1e64f4873","6368f2eea3e9634aebcc2f6b","636b6fc5eec83d6069b2e572","759.3000000002794","","","","37","","","","key","16.658638095238157","683","308.5","true","-1","129","2.0615843020800004","12","-1","-1","","","","","","","","","","","","",""
"psychophysics","76","434490","0.0-8.0-0.29","614eb0a92921d8c1e64f4873","6368f2eea3e9634aebcc2f6b","636b6fc5eec83d6069b2e572","806.7000000001863","","","","37","","","","key","16.658611111111153","683","308.5","true","-1","129","2.0615843020800004","12","-1","-1","","","","","","","","","","","","",""
"psychophysics","77","435921","0.0-8.0-0.30","614eb0a92921d8c1e64f4873","6368f2eea3e9634aebcc2f6b","636b6fc5eec83d6069b2e572","427","","","","39","","","","key","16.65878571428558","683","308.5","true","1","129","2.0615843020800004","12","-1","-1","","","","","","","","","","","","",""
"psychophysics","78","437548","0.0-8.0-0.31","614eb0a92921d8c1e64f4873","6368f2eea3e9634aebcc2f6b","636b6fc5eec83d6069b2e572","623.8999999999069","","","","37","","","","key","16.658597938143938","683","308.5","true","-1","129","2.0615843020800004","12","-1","-1","","","","","","","","","","","","",""
"psychophysics","79","439345","0.0-8.0-0.32","614eb0a92921d8c1e64f4873","6368f2eea3e9634aebcc2f6b","636b6fc5eec83d6069b2e572","789.1000000000931","","","","39","","","","key","16.658560747663692","683","308.5","true","1","129","2.0615843020800004","12","-1","-1","","","","","","","","","","","","",""
"psychophysics","80","441291","0.0-8.0-0.33","614eb0a92921d8c1e64f4873","6368f2eea3e9634aebcc2f6b","636b6fc5eec83d6069b2e572","943.2000000001863","","","","39","","","","key","16.658741379310257","683","308.5","true","1","129","2.0615843020800004","12","-1","-1","","","","","","","","","","","","",""
"psychophysics","81","442792","0.0-8.0-0.34","614eb0a92921d8c1e64f4873","6368f2eea3e9634aebcc2f6b","636b6fc5eec83d6069b2e572","498.20000000018626","","","","37","","","","key","16.658921348314937","683","308.5","true","-1","129","2.0615843020800004","12","-1","-1","","","","","","","","","","","","",""
"psychophysics","82","444344","0.0-8.0-0.35","614eb0a92921d8c1e64f4873","6368f2eea3e9634aebcc2f6b","636b6fc5eec83d6069b2e572","548.6999999997206","","","","37","","","","key","16.65860869565222","683","308.5","true","1","129","1.6492674416640005","13","1","-1","","","","","","","","","","","","",""
"psychophysics","83","445997","0.0-8.0-0.36","614eb0a92921d8c1e64f4873","6368f2eea3e9634aebcc2f6b","636b6fc5eec83d6069b2e572","642.5","","","","37","","","","key","16.658357142856847","683","308.5","true","1","130.649267441664","1.6492674416640005","13","1","1","","","","","","","","","","","","",""
"psychophysics","84","447385","0.0-8.0-0.37","614eb0a92921d8c1e64f4873","6368f2eea3e9634aebcc2f6b","636b6fc5eec83d6069b2e572","384.1999999997206","","","","39","","","","key","16.65859036144579","683","308.5","true","-1","132.298534883328","1.6492674416640005","13","1","1","","","","","","","","","","","","",""
"psychophysics","85","448538","0.0-8.0-0.38","614eb0a92921d8c1e64f4873","6368f2eea3e9634aebcc2f6b","636b6fc5eec83d6069b2e572","147.59999999962747","","","","37","","","","key","16.65905882352929","683","308.5","true","-1","133.94780232499198","1.6492674416640005","13","-1","1","","","","","","","","","","","","",""
"psychophysics","86","450442","0.0-8.0-0.39","614eb0a92921d8c1e64f4873","6368f2eea3e9634aebcc2f6b","636b6fc5eec83d6069b2e572","899.1000000000931","","","","39","","","","key","16.658610619469112","683","308.5","true","1","133.94780232499198","1.3194139533312006","14","-1","-1","","","","","","","","","","","","",""
"html-keyboard-response","87","455664","0.0-9.0","614eb0a92921d8c1e64f4873","6368f2eea3e9634aebcc2f6b","636b6fc5eec83d6069b2e572","5217.9000000003725","<p>Well Done !</p><p>Prepare for a new block.</p><p>DON'T EXIT THE FULL SCREEN MODE</p><p>Press the Spacebar to start.</p>","","","32","","","","","","","","","","","","","","","true","130.3911399071744","","","","","","","","","","",""
"psychophysics","88","458817","0.0-10.0-0.0","614eb0a92921d8c1e64f4873","6368f2eea3e9634aebcc2f6b","636b6fc5eec83d6069b2e572","2144.8000000002794","","","","39","","","","key","16.673005291005467","683","308.5","true","1","180","30","0","-1","","","","","","","","","","","","","",""
"psychophysics","89","460049","0.0-10.0-0.1","614eb0a92921d8c1e64f4873","6368f2eea3e9634aebcc2f6b","636b6fc5eec83d6069b2e572","226.5","","","","37","","","","key","16.658520547945006","683","308.5","true","-1","180","30","0","-1","-1","","","","","","","","","","","","",""
"psychophysics","90","461105","0.0-10.0-0.2","614eb0a92921d8c1e64f4873","6368f2eea3e9634aebcc2f6b","636b6fc5eec83d6069b2e572","51.6999999997206","","","","37","","","","key","16.658483870967757","683","308.5","true","-1","150","30","0","-1","-1","","","","","","","","","","","","",""
"psychophysics","91","462341","0.0-10.0-0.3","614eb0a92921d8c1e64f4873","6368f2eea3e9634aebcc2f6b","636b6fc5eec83d6069b2e572","231.1999999997206","","","","39","","","","key","16.65849315068423","683","308.5","true","1","150","30","0","-1","-1","","","","","","","","","","","","",""
"psychophysics","92","463981","0.0-10.0-0.4","614eb0a92921d8c1e64f4873","6368f2eea3e9634aebcc2f6b","636b6fc5eec83d6069b2e572","637.2999999998137","","","","37","","","","key","16.65873469387737","683","308.5","true","1","129","24","1","1","-1","","","","","","","","","","","","",""
"psychophysics","93","465525","0.0-10.0-0.5","614eb0a92921d8c1e64f4873","6368f2eea3e9634aebcc2f6b","636b6fc5eec83d6069b2e572","539.8999999999069","","","","39","","","","key","16.658538461538097","683","308.5","true","1","153","24","1","-1","1","","","","","","","","","","","","",""
"psychophysics","94","466780","0.0-10.0-0.6","614eb0a92921d8c1e64f4873","6368f2eea3e9634aebcc2f6b","636b6fc5eec83d6069b2e572","246.60000000009313","","","","37","","","","key","16.65860000000025","683","308.5","true","-1","153","19.2","2","-1","-1","","","","","","","","","","","","",""
"psychophysics","95","468327","0.0-10.0-0.7","614eb0a92921d8c1e64f4873","6368f2eea3e9634aebcc2f6b","636b6fc5eec83d6069b2e572","543.1000000000931","","","","39","","","","key","16.65876086956553","683","308.5","true","-1","133.8","15.36","3","1","-1","","","","","","","","","","","","",""
"psychophysics","96","469564","0.0-10.0-0.8","614eb0a92921d8c1e64f4873","6368f2eea3e9634aebcc2f6b","636b6fc5eec83d6069b2e572","232.1999999997206","","","","37","","","","key","16.65895890410948","683","308.5","true","-1","149.16000000000003","15.36","3","-1","1","","","","","","","","","","","","",""
"psychophysics","97","471125","0.0-10.0-0.9","614eb0a92921d8c1e64f4873","6368f2eea3e9634aebcc2f6b","636b6fc5eec83d6069b2e572","557.7000000001863","","","","37","","","","key","16.658763440860366","683","308.5","true","-1","149.16000000000003","12.287999999999998","4","-1","-1","","","","","","","","","","","","",""
"psychophysics","98","472300","0.0-10.0-0.10","614eb0a92921d8c1e64f4873","6368f2eea3e9634aebcc2f6b","636b6fc5eec83d6069b2e572","170.89999999990687","","","","37","","","","key","16.658681159420613","683","308.5","true","-1","136.872","12.287999999999998","4","-1","-1","","","","","","","","","","","","",""
"psychophysics","99","473753","0.0-10.0-0.11","614eb0a92921d8c1e64f4873","6368f2eea3e9634aebcc2f6b","636b6fc5eec83d6069b2e572","446.79999999981374","","","","39","","","","key","16.658755813954063","683","308.5","true","1","136.872","12.287999999999998","4","-1","-1","","","","","","","","","","","","",""
"psychophysics","100","475956","0.0-10.0-0.12","614eb0a92921d8c1e64f4873","6368f2eea3e9634aebcc2f6b","636b6fc5eec83d6069b2e572","1200","","","","39","","","","key","16.65882575757595","683","308.5","true","-1","129","9.8304","5","1","-1","","","","","","","","","","","","",""
"psychophysics","101","477510","0.0-10.0-0.13","614eb0a92921d8c1e64f4873","6368f2eea3e9634aebcc2f6b","636b6fc5eec83d6069b2e572","550.3999999999069","","","","39","","","","key","16.658663043478356","683","308.5","true","1","138.8304","9.8304","5","-1","1","","","","","","","","","","","","",""
"psychophysics","102","478925","0.0-10.0-0.14","614eb0a92921d8c1e64f4873","6368f2eea3e9634aebcc2f6b","636b6fc5eec83d6069b2e572","411.20000000018626","","","","39","","","","key","16.658666666666424","683","308.5","true","1","138.8304","7.864319999999999","6","-1","-1","","","","","","","","","","","","",""
"psychophysics","103","480429","0.0-10.0-0.15","614eb0a92921d8c1e64f4873","6368f2eea3e9634aebcc2f6b","636b6fc5eec83d6069b2e572","499.60000000009313","","","","39","","","","key","16.658617977528397","683","308.5","true","-1","130.96608","6.291456","7","1","-1","","","","","","","","","","","","",""
"psychophysics","104","481960","0.0-10.0-0.16","614eb0a92921d8c1e64f4873","6368f2eea3e9634aebcc2f6b","636b6fc5eec83d6069b2e572","525.1000000000931","","","","37","","","","key","16.658692307692217","683","308.5","true","-1","137.25753600000002","6.291456","7","-1","1","","","","","","","","","","","","",""
"psychophysics","105","483507","0.0-10.0-0.17","614eb0a92921d8c1e64f4873","6368f2eea3e9634aebcc2f6b","636b6fc5eec83d6069b2e572","540.5999999996275","","","","39","","","","key","16.65861956521732","683","308.5","true","1","137.25753600000002","5.033164800000001","8","-1","-1","","","","","","","","","","","","",""
"psychophysics","106","485023","0.0-10.0-0.18","614eb0a92921d8c1e64f4873","6368f2eea3e9634aebcc2f6b","636b6fc5eec83d6069b2e572","510.59999999962747","","","","39","","","","key","16.65874444444457","683","308.5","true","1","132.2243712","5.033164800000001","8","-1","-1","","","","","","","","","","","","",""
"psychophysics","107","486642","0.0-10.0-0.19","614eb0a92921d8c1e64f4873","6368f2eea3e9634aebcc2f6b","636b6fc5eec83d6069b2e572","616.1999999997206","","","","37","","","","key","16.658708333333077","683","308.5","true","1","132.2243712","4.0265318400000005","9","1","-1","","","","","","","","","","","","",""
"psychophysics","108","487986","0.0-10.0-0.20","614eb0a92921d8c1e64f4873","6368f2eea3e9634aebcc2f6b","636b6fc5eec83d6069b2e572","340.90000000037253","","","","39","","","","key","16.65882500000007","683","308.5","true","1","136.25090304","4.0265318400000005","9","-1","1","","","","","","","","","","","","",""
"psychophysics","109","489270","0.0-10.0-0.21","614eb0a92921d8c1e64f4873","6368f2eea3e9634aebcc2f6b","636b6fc5eec83d6069b2e572","278.90000000037253","","","","39","","","","key","16.65897368421046","683","308.5","true","1","136.25090304","3.2212254720000004","10","-1","-1","","","","","","","","","","","","",""
"psychophysics","110","491117","0.0-10.0-0.22","614eb0a92921d8c1e64f4873","6368f2eea3e9634aebcc2f6b","636b6fc5eec83d6069b2e572","841.9000000003725","","","","37","","","","key","16.65866363636398","683","308.5","true","1","133.029677568","2.5769803776000004","11","1","-1","","","","","","","","","","","","",""
"psychophysics","111","492587","0.0-10.0-0.23","614eb0a92921d8c1e64f4873","6368f2eea3e9634aebcc2f6b","636b6fc5eec83d6069b2e572","465.89999999990687","","","","37","","","","key","16.65871264367838","683","308.5","true","-1","135.6066579456","2.5769803776000004","11","-1","1","","","","","","","","","","","","",""
"psychophysics","112","494058","0.0-10.0-0.24","614eb0a92921d8c1e64f4873","6368f2eea3e9634aebcc2f6b","636b6fc5eec83d6069b2e572","466.79999999981374","","","","37","","","","key","16.658471264367943","683","308.5","true","-1","135.6066579456","2.0615843020800004","12","-1","-1","","","","","","","","","","","","",""
"psychophysics","113","495366","0.0-10.0-0.25","614eb0a92921d8c1e64f4873","6368f2eea3e9634aebcc2f6b","636b6fc5eec83d6069b2e572","304.40000000037253","","","","39","","","","key","16.658564102564316","683","308.5","true","1","133.54507364352","2.0615843020800004","12","-1","-1","","","","","","","","","","","","",""
"psychophysics","114","496956","0.0-10.0-0.26","614eb0a92921d8c1e64f4873","6368f2eea3e9634aebcc2f6b","636b6fc5eec83d6069b2e572","582.3999999999069","","","","37","","","","key","16.65892553191503","683","308.5","true","-1","133.54507364352","2.0615843020800004","12","-1","-1","","","","","","","","","","","","",""
"psychophysics","115","498370","0.0-10.0-0.27","614eb0a92921d8c1e64f4873","6368f2eea3e9634aebcc2f6b","636b6fc5eec83d6069b2e572","409.10000000009313","","","","39","","","","key","16.658773809523804","683","308.5","true","-1","131.48348934144","1.6492674416640005","13","1","-1","","","","","","","","","","","","",""
"psychophysics","116","499812","0.0-10.0-0.28","614eb0a92921d8c1e64f4873","6368f2eea3e9634aebcc2f6b","636b6fc5eec83d6069b2e572","432.59999999962747","","","","39","","","","key","16.658523255813634","683","308.5","true","1","133.13275678310399","1.6492674416640005","13","-1","1","","","","","","","","","","","","",""
"psychophysics","117","501263","0.0-10.0-0.29","614eb0a92921d8c1e64f4873","6368f2eea3e9634aebcc2f6b","636b6fc5eec83d6069b2e572","446.6999999997206","","","","39","","","","key","16.658476744186224","683","308.5","true","1","133.13275678310399","1.3194139533312006","14","-1","-1","","","","","","","","","","","","",""
"psychophysics","118","502666","0.0-10.0-0.30","614eb0a92921d8c1e64f4873","6368f2eea3e9634aebcc2f6b","636b6fc5eec83d6069b2e572","398.89999999990687","","","","39","","","","key","16.658939759036617","683","308.5","true","-1","131.81334282977278","1.0555311626649604","15","1","-1","","","","","","","","","","","","",""
"psychophysics","119","504408","0.0-10.0-0.31","614eb0a92921d8c1e64f4873","6368f2eea3e9634aebcc2f6b","636b6fc5eec83d6069b2e572","738.7999999998137","","","","37","","","","key","16.658894230769455","683","308.5","true","-1","132.86887399243773","1.0555311626649604","15","-1","1","","","","","","","","","","","","",""
"psychophysics","120","506278","0.0-10.0-0.32","614eb0a92921d8c1e64f4873","6368f2eea3e9634aebcc2f6b","636b6fc5eec83d6069b2e572","864.5","","","","37","","","","key","16.658621621621784","683","308.5","true","1","132.86887399243773","1","16","1","-1","","","","","","","","","","","","",""
"psychophysics","121","507999","0.0-10.0-0.33","614eb0a92921d8c1e64f4873","6368f2eea3e9634aebcc2f6b","636b6fc5eec83d6069b2e572","717.3999999999069","","","","37","","","","key","16.658637254901787","683","308.5","true","-1","133.86887399243773","1","16","-1","1","","","","","","","","","","","","",""
"psychophysics","122","509505","0.0-10.0-0.34","614eb0a92921d8c1e64f4873","6368f2eea3e9634aebcc2f6b","636b6fc5eec83d6069b2e572","502.89999999990687","","","","39","","","","key","16.658752808988282","683","308.5","true","1","133.86887399243773","1","17","-1","-1","","","","","","","","","","","","",""
"psychophysics","123","511351","0.0-10.0-0.35","614eb0a92921d8c1e64f4873","6368f2eea3e9634aebcc2f6b","636b6fc5eec83d6069b2e572","840.6000000000931","","","","37","","","","key","16.658736363635928","683","308.5","true","-1","132.86887399243773","1","17","-1","-1","","","","","","","","","","","","",""
"psychophysics","124","512722","0.0-10.0-0.36","614eb0a92921d8c1e64f4873","6368f2eea3e9634aebcc2f6b","636b6fc5eec83d6069b2e572","366.10000000009313","","","","39","","","","key","16.658585365853845","683","308.5","true","1","132.86887399243773","1","17","-1","-1","","","","","","","","","","","","",""
"psychophysics","125","514290","0.0-10.0-0.37","614eb0a92921d8c1e64f4873","6368f2eea3e9634aebcc2f6b","636b6fc5eec83d6069b2e572","564.7999999998137","","","","39","","","","key","16.6586666666666","683","308.5","true","-1","131.86887399243773","1","18","1","-1","","","","","","","","","","","","",""
"psychophysics","126","515837","0.0-10.0-0.38","614eb0a92921d8c1e64f4873","6368f2eea3e9634aebcc2f6b","636b6fc5eec83d6069b2e572","542.3999999999069","","","","37","","","","key","16.658663043478356","683","308.5","true","-1","132.86887399243773","1","18","-1","1","","","","","","","","","","","","",""
"psychophysics","127","517287","0.0-10.0-0.39","614eb0a92921d8c1e64f4873","6368f2eea3e9634aebcc2f6b","636b6fc5eec83d6069b2e572","446.8000000002794","","","","39","","","","key","16.658872093023263","683","308.5","true","1","132.86887399243773","1","19","-1","-1","","","","","","","","","","","","",""
"html-keyboard-response","128","530257","0.0-11.0","614eb0a92921d8c1e64f4873","6368f2eea3e9634aebcc2f6b","636b6fc5eec83d6069b2e572","12965.69999999972","<p>Well Done !</p><p>Prepare for a new block.</p><p>DON'T EXIT THE FULL SCREEN MODE</p><p>Press the Spacebar to start.</p>","","","32","","","","","","","","","","","","","","","true","132.89815726376006","","","","","","","","","","",""
"psychophysics","129","531396","0.0-12.0-0.0","614eb0a92921d8c1e64f4873","6368f2eea3e9634aebcc2f6b","636b6fc5eec83d6069b2e572","133.70000000018626","","","","39","","","","key","16.757691176471244","683","308.5","true","1","180","30","0","-1","","","","","","","","","","","","","",""
"psychophysics","130","532735","0.0-12.0-0.1","614eb0a92921d8c1e64f4873","6368f2eea3e9634aebcc2f6b","636b6fc5eec83d6069b2e572","334.5","","","","37","","","","key","16.658759493671088","683","308.5","true","-1","180","30","0","-1","-1","","","","","","","","","","","","",""
"psychophysics","131","533905","0.0-12.0-0.2","614eb0a92921d8c1e64f4873","6368f2eea3e9634aebcc2f6b","636b6fc5eec83d6069b2e572","167.39999999990687","","","","39","","","","key","16.658492753623","683","308.5","true","1","150","30","0","-1","-1","","","","","","","","","","","","",""
"psychophysics","132","535148","0.0-12.0-0.3","614eb0a92921d8c1e64f4873","6368f2eea3e9634aebcc2f6b","636b6fc5eec83d6069b2e572","238.79999999981374","","","","37","","","","key","16.658824324324677","683","308.5","true","-1","150","30","0","-1","-1","","","","","","","","","","","","",""
"psychophysics","133","536514","0.0-12.0-0.4","614eb0a92921d8c1e64f4873","6368f2eea3e9634aebcc2f6b","636b6fc5eec83d6069b2e572","361.79999999981374","","","","39","","","","key","16.658641975308356","683","308.5","true","-1","129","24","1","1","-1","","","","","","","","","","","","",""
"psychophysics","134","537898","0.0-12.0-0.5","614eb0a92921d8c1e64f4873","6368f2eea3e9634aebcc2f6b","636b6fc5eec83d6069b2e572","380.10000000009313","","","","37","","","","key","16.658817073169857","683","308.5","true","-1","153","24","1","-1","1","","","","","","","","","","","","",""
"psychophysics","135","539159","0.0-12.0-0.6","614eb0a92921d8c1e64f4873","6368f2eea3e9634aebcc2f6b","636b6fc5eec83d6069b2e572","257.40000000037253","","","","37","","","","key","16.658866666667162","683","308.5","true","-1","153","19.2","2","-1","-1","","","","","","","","","","","","",""
"psychophysics","136","540607","0.0-12.0-0.7","614eb0a92921d8c1e64f4873","6368f2eea3e9634aebcc2f6b","636b6fc5eec83d6069b2e572","444.90000000037253","","","","37","","","","key","16.658674418604065","683","308.5","true","-1","133.8","19.2","2","-1","-1","","","","","","","","","","","","",""
"psychophysics","137","542326","0.0-12.0-0.8","614eb0a92921d8c1e64f4873","6368f2eea3e9634aebcc2f6b","636b6fc5eec83d6069b2e572","715.7000000001863","","","","39","","","","key","16.65879411764749","683","308.5","true","-1","133.8","15.36","3","1","-1","","","","","","","","","","","","",""
"psychophysics","138","543618","0.0-12.0-0.9","614eb0a92921d8c1e64f4873","6368f2eea3e9634aebcc2f6b","636b6fc5eec83d6069b2e572","289.29999999981374","","","","37","","","","key","16.658723684211605","683","308.5","true","-1","149.16000000000003","15.36","3","-1","1","","","","","","","","","","","","",""
"psychophysics","139","545008","0.0-12.0-0.10","614eb0a92921d8c1e64f4873","6368f2eea3e9634aebcc2f6b","636b6fc5eec83d6069b2e572","381.79999999981374","","","","39","","","","key","16.658674698795686","683","308.5","true","1","149.16000000000003","12.287999999999998","4","-1","-1","","","","","","","","","","","","",""
"psychophysics","140","546376","0.0-12.0-0.11","614eb0a92921d8c1e64f4873","6368f2eea3e9634aebcc2f6b","636b6fc5eec83d6069b2e572","365.3000000002794","","","","39","","","","key","16.658530864197715","683","308.5","true","1","136.872","12.287999999999998","4","-1","-1","","","","","","","","","","","","",""
"psychophysics","141","547857","0.0-12.0-0.12","614eb0a92921d8c1e64f4873","6368f2eea3e9634aebcc2f6b","636b6fc5eec83d6069b2e572","477.10000000009313","","","","39","","","","key","16.65868181818223","683","308.5","true","1","136.872","12.287999999999998","4","-1","-1","","","","","","","","","","","","",""
"psychophysics","142","549234","0.0-12.0-0.13","614eb0a92921d8c1e64f4873","6368f2eea3e9634aebcc2f6b","636b6fc5eec83d6069b2e572","372.5","","","","37","","","","key","16.658617283950594","683","308.5","true","1","129","9.8304","5","1","-1","","","","","","","","","","","","",""
"psychophysics","143","550727","0.0-12.0-0.14","614eb0a92921d8c1e64f4873","6368f2eea3e9634aebcc2f6b","636b6fc5eec83d6069b2e572","489.5","","","","39","","","","key","16.658764044943872","683","308.5","true","1","138.8304","9.8304","5","-1","1","","","","","","","","","","","","",""
"psychophysics","144","551868","0.0-12.0-0.15","614eb0a92921d8c1e64f4873","6368f2eea3e9634aebcc2f6b","636b6fc5eec83d6069b2e572","138","","","","37","","","","key","16.658705882353175","683","308.5","true","-1","138.8304","7.864319999999999","6","-1","-1","","","","","","","","","","","","",""
"psychophysics","145","553674","0.0-12.0-0.16","614eb0a92921d8c1e64f4873","6368f2eea3e9634aebcc2f6b","636b6fc5eec83d6069b2e572","803.8000000002794","","","","39","","","","key","16.658682242990036","683","308.5","true","-1","130.96608","6.291456","7","1","-1","","","","","","","","","","","","",""
"psychophysics","146","555091","0.0-12.0-0.17","614eb0a92921d8c1e64f4873","6368f2eea3e9634aebcc2f6b","636b6fc5eec83d6069b2e572","413.79999999981374","","","","39","","","","key","16.658619047619315","683","308.5","true","1","137.25753600000002","6.291456","7","-1","1","","","","","","","","","","","","",""
"psychophysics","147","557071","0.0-12.0-0.18","614eb0a92921d8c1e64f4873","6368f2eea3e9634aebcc2f6b","636b6fc5eec83d6069b2e572","976.5","","","","37","","","","key","16.65872881356015","683","308.5","true","-1","137.25753600000002","5.033164800000001","8","-1","-1","","","","","","","","","","","","",""
"psychophysics","148","558789","0.0-12.0-0.19","614eb0a92921d8c1e64f4873","6368f2eea3e9634aebcc2f6b","636b6fc5eec83d6069b2e572","714.8999999999069","","","","39","","","","key","16.658607843136824","683","308.5","true","1","132.2243712","5.033164800000001","8","-1","-1","","","","","","","","","","","","",""
"psychophysics","149","560307","0.0-12.0-0.20","614eb0a92921d8c1e64f4873","6368f2eea3e9634aebcc2f6b","636b6fc5eec83d6069b2e572","514","","","","37","","","","key","16.65877777777819","683","308.5","true","-1","132.2243712","5.033164800000001","8","-1","-1","","","","","","","","","","","","",""
"psychophysics","150","561868","0.0-12.0-0.21","614eb0a92921d8c1e64f4873","6368f2eea3e9634aebcc2f6b","636b6fc5eec83d6069b2e572","555.2999999998137","","","","39","","","","key","16.658494623655812","683","308.5","true","-1","129","4.0265318400000005","9","1","-1","","","","","","","","","","","","",""
"psychophysics","151","563219","0.0-12.0-0.22","614eb0a92921d8c1e64f4873","6368f2eea3e9634aebcc2f6b","636b6fc5eec83d6069b2e572","346.70000000018626","","","","39","","","","key","16.658699999999953","683","308.5","true","1","133.02653184","4.0265318400000005","9","-1","1","","","","","","","","","","","","",""
"psychophysics","152","564547","0.0-12.0-0.23","614eb0a92921d8c1e64f4873","6368f2eea3e9634aebcc2f6b","636b6fc5eec83d6069b2e572","324.39999999990687","","","","39","","","","key","16.65891139240511","683","308.5","true","1","133.02653184","3.2212254720000004","10","-1","-1","","","","","","","","","","","","",""
"psychophysics","153","566141","0.0-12.0-0.24","614eb0a92921d8c1e64f4873","6368f2eea3e9634aebcc2f6b","636b6fc5eec83d6069b2e572","589.8999999999069","","","","37","","","","key","16.658776595745177","683","308.5","true","1","129.805306368","2.5769803776000004","11","1","-1","","","","","","","","","","","","",""
"psychophysics","154","567343","0.0-12.0-0.25","614eb0a92921d8c1e64f4873","6368f2eea3e9634aebcc2f6b","636b6fc5eec83d6069b2e572","198","","","","37","","","","key","16.658833333333153","683","308.5","true","-1","132.3822867456","2.5769803776000004","11","-1","1","","","","","","","","","","","","",""
"psychophysics","155","568864","0.0-12.0-0.26","614eb0a92921d8c1e64f4873","6368f2eea3e9634aebcc2f6b","636b6fc5eec83d6069b2e572","518","","","","39","","","","key","16.65882222222216","683","308.5","true","1","132.3822867456","2.0615843020800004","12","-1","-1","","","","","","","","","","","","",""
"psychophysics","156","570973","0.0-12.0-0.27","614eb0a92921d8c1e64f4873","6368f2eea3e9634aebcc2f6b","636b6fc5eec83d6069b2e572","1105.2000000001863","","","","39","","","","key","16.658776000000536","683","308.5","true","-1","130.32070244352","1.6492674416640005","13","1","-1","","","","","","","","","","","","",""
"psychophysics","157","572683","0.0-12.0-0.28","614eb0a92921d8c1e64f4873","6368f2eea3e9634aebcc2f6b","636b6fc5eec83d6069b2e572","704.8999999999069","","","","37","","","","key","16.658705882352603","683","308.5","true","1","131.96996988518399","1.6492674416640005","13","1","1","","","","","","","","","","","","",""
"psychophysics","158","574343","0.0-12.0-0.29","614eb0a92921d8c1e64f4873","6368f2eea3e9634aebcc2f6b","636b6fc5eec83d6069b2e572","656","","","","37","","","","key","16.658737373737043","683","308.5","true","-1","133.61923732684798","1.6492674416640005","13","-1","1","","","","","","","","","","","","",""
"psychophysics","159","575758","0.0-12.0-0.30","614eb0a92921d8c1e64f4873","6368f2eea3e9634aebcc2f6b","636b6fc5eec83d6069b2e572","409.8000000002794","","","","37","","","","key","16.658678571428894","683","308.5","true","-1","133.61923732684798","1.3194139533312006","14","-1","-1","","","","","","","","","","","","",""
"psychophysics","160","577346","0.0-12.0-0.31","614eb0a92921d8c1e64f4873","6368f2eea3e9634aebcc2f6b","636b6fc5eec83d6069b2e572","584.6000000000931","","","","39","","","","key","16.65875531914966","683","308.5","true","1","132.29982337351677","1.3194139533312006","14","-1","-1","","","","","","","","","","","","",""
"psychophysics","161","578706","0.0-12.0-0.32","614eb0a92921d8c1e64f4873","6368f2eea3e9634aebcc2f6b","636b6fc5eec83d6069b2e572","356","","","","39","","","","key","16.658641975308356","683","308.5","true","1","132.29982337351677","1.3194139533312006","14","-1","-1","","","","","","","","","","","","",""
"psychophysics","162","580292","0.0-12.0-0.33","614eb0a92921d8c1e64f4873","6368f2eea3e9634aebcc2f6b","636b6fc5eec83d6069b2e572","583.1000000000931","","","","37","","","","key","16.658595744681424","683","308.5","true","1","130.98040942018557","1.0555311626649604","15","1","-1","","","","","","","","","","","","",""
"psychophysics","163","581799","0.0-12.0-0.34","614eb0a92921d8c1e64f4873","6368f2eea3e9634aebcc2f6b","636b6fc5eec83d6069b2e572","504.20000000018626","","","","37","","","","key","16.658943820224152","683","308.5","true","-1","132.03594058285051","1.0555311626649604","15","-1","1","","","","","","","","","","","","",""
"psychophysics","164","583144","0.0-12.0-0.35","614eb0a92921d8c1e64f4873","6368f2eea3e9634aebcc2f6b","636b6fc5eec83d6069b2e572","339.5","","","","39","","","","key","16.658487500000046","683","308.5","true","1","132.03594058285051","1","16","-1","-1","","","","","","","","","","","","",""
"psychophysics","165","584547","0.0-12.0-0.36","614eb0a92921d8c1e64f4873","6368f2eea3e9634aebcc2f6b","636b6fc5eec83d6069b2e572","399.70000000018626","","","","37","","","","key","16.658951807229958","683","308.5","true","-1","131.03594058285051","1","16","-1","-1","","","","","","","","","","","","",""
"psychophysics","166","585923","0.0-12.0-0.37","614eb0a92921d8c1e64f4873","6368f2eea3e9634aebcc2f6b","636b6fc5eec83d6069b2e572","372.29999999981374","","","","37","","","","key","16.658524390244743","683","308.5","true","1","131.03594058285051","1","17","1","-1","","","","","","","","","","","","",""
"psychophysics","167","586943","0.0-12.0-0.38","614eb0a92921d8c1e64f4873","6368f2eea3e9634aebcc2f6b","636b6fc5eec83d6069b2e572","14.599999999627471","","","","39","","","","key","16.658683333334434","683","308.5","true","1","132.03594058285051","1","17","-1","1","","","","","","","","","","","","",""
"psychophysics","168","588577","0.0-12.0-0.39","614eb0a92921d8c1e64f4873","6368f2eea3e9634aebcc2f6b","636b6fc5eec83d6069b2e572","626.3999999999069","","","","39","","","","key","16.65890721649474","683","308.5","true","-1","132.03594058285051","1","18","1","-1","","","","","","","","","","","","",""
"html-keyboard-response","169","599873","0.0-13.0","614eb0a92921d8c1e64f4873","6368f2eea3e9634aebcc2f6b","636b6fc5eec83d6069b2e572","11289.299999999814","<p>Well Done !</p><p>Prepare for a new block.</p><p>DON'T EXIT THE FULL SCREEN MODE</p><p>Press the Spacebar to start.</p>","","","32","","","","","","","","","","","","","","","true","132.00596134252817","","","","","","","","","","",""
"html-keyboard-response","170","599981","0.0-14.0","614eb0a92921d8c1e64f4873","6368f2eea3e9634aebcc2f6b","636b6fc5eec83d6069b2e572","null","","","","null","","","","","","","","","","","","","","","","","131.6818960981333","true","135.36379219626662","","","","","","","",""
"instructions","171","658791","0.0-15.0","614eb0a92921d8c1e64f4873","6368f2eea3e9634aebcc2f6b","636b6fc5eec83d6069b2e572","58805.80000000028","","","","","","","[{""page_index"":0,""viewing_time"":37808},{""page_index"":1,""viewing_time"":12120.5},{""page_index"":2,""viewing_time"":8872.80000000028}]","","","","","","","","","","","","","","","","","","","","","","","",""
"psychophysics","172","661802","0.0-16.0-0.0","614eb0a92921d8c1e64f4873","6368f2eea3e9634aebcc2f6b","636b6fc5eec83d6069b2e572","null","","","","null","","","","key","16.675766666666217","683","308.5","","","","","","","","","","","","","","","","","","","",""
"psychophysics","173","662308","0.0-16.0-1.0","614eb0a92921d8c1e64f4873","6368f2eea3e9634aebcc2f6b","636b6fc5eec83d6069b2e572","null","","","","null","","","","key","16.658551724137865","683","308.5","","","","","","","","","","","","","135","-1","2","false","","","",""
"psychophysics","174","664239","0.0-16.0-2.0","614eb0a92921d8c1e64f4873","6368f2eea3e9634aebcc2f6b","636b6fc5eec83d6069b2e572","1923.2999999998137","","","","90","","","","key","16.65879130434832","683","308.5","","","","","","","","","","","","","","","","","","","",""
"psychophysics","175","665243","0.0-16.0-0.1","614eb0a92921d8c1e64f4873","6368f2eea3e9634aebcc2f6b","636b6fc5eec83d6069b2e572","null","","","","null","","","","key","16.658796610168608","683","308.5","","","","","","","","","","","","","","","","","","","",""
"psychophysics","176","665749","0.0-16.0-1.1","614eb0a92921d8c1e64f4873","6368f2eea3e9634aebcc2f6b","636b6fc5eec83d6069b2e572","null","","","","null","","","","key","16.658066666665643","683","308.5","","","","","","","","","","","","","135","-1","4","false","","","",""
"psychophysics","177","668781","0.0-16.0-2.1","614eb0a92921d8c1e64f4873","6368f2eea3e9634aebcc2f6b","636b6fc5eec83d6069b2e572","3028.0999999996275","","","","77","","","","key","16.658613259668684","683","308.5","","","","","","","","","","","","","","","","","","","",""
"psychophysics","178","669785","0.0-16.0-0.2","614eb0a92921d8c1e64f4873","6368f2eea3e9634aebcc2f6b","636b6fc5eec83d6069b2e572","null","","","","null","","","","key","16.658627118643025","683","308.5","","","","","","","","","","","","","","","","","","","",""
"psychophysics","179","670297","0.0-16.0-1.2","614eb0a92921d8c1e64f4873","6368f2eea3e9634aebcc2f6b","636b6fc5eec83d6069b2e572","null","","","","null","","","","key","16.65893333333467","683","308.5","","","","","","","","","","","","","135","1","3","false","","","",""
"psychophysics","180","671299","0.0-16.0-2.2","614eb0a92921d8c1e64f4873","6368f2eea3e9634aebcc2f6b","636b6fc5eec83d6069b2e572","998.1000000000931","","","","77","","","","key","16.658779661017235","683","308.5","","","","","","","","","","","","","","","","","","","",""
"psychophysics","181","672301","0.0-16.0-0.3","614eb0a92921d8c1e64f4873","6368f2eea3e9634aebcc2f6b","636b6fc5eec83d6069b2e572","null","","","","null","","","","key","16.65852542372886","683","308.5","","","","","","","","","","","","","","","","","","","",""
"psychophysics","182","672804","0.0-16.0-1.3","614eb0a92921d8c1e64f4873","6368f2eea3e9634aebcc2f6b","636b6fc5eec83d6069b2e572","null","","","","null","","","","key","16.65862068965437","683","308.5","","","","","","","","","","","","","135","-1","3","false","","","",""
"psychophysics","183","673847","0.0-16.0-2.3","614eb0a92921d8c1e64f4873","6368f2eea3e9634aebcc2f6b","636b6fc5eec83d6069b2e572","1037.2000000001863","","","","90","","","","key","16.658822580644365","683","308.5","","","","","","","","","","","","","","","","","","","",""
"psychophysics","184","674851","0.0-16.0-0.4","614eb0a92921d8c1e64f4873","6368f2eea3e9634aebcc2f6b","636b6fc5eec83d6069b2e572","null","","","","null","","","","key","16.658338983049934","683","308.5","","","","","","","","","","","","","","","","","","","",""
"psychophysics","185","675357","0.0-16.0-1.4","614eb0a92921d8c1e64f4873","6368f2eea3e9634aebcc2f6b","636b6fc5eec83d6069b2e572","null","","","","null","","","","key","16.658933333330786","683","308.5","","","","","","","","","","","","","135","-1","6","false","","","",""
"psychophysics","186","676284","0.0-16.0-2.4","614eb0a92921d8c1e64f4873","6368f2eea3e9634aebcc2f6b","636b6fc5eec83d6069b2e572","920.1999999997206","","","","90","","","","key","16.658759259258794","683","308.5","","","","","","","","","","","","","","","","","","","",""
"psychophysics","187","677286","0.0-16.0-0.5","614eb0a92921d8c1e64f4873","6368f2eea3e9634aebcc2f6b","636b6fc5eec83d6069b2e572","null","","","","null","","","","key","16.658813559321956","683","308.5","","","","","","","","","","","","","","","","","","","",""
"psychophysics","188","677789","0.0-16.0-1.5","614eb0a92921d8c1e64f4873","6368f2eea3e9634aebcc2f6b","636b6fc5eec83d6069b2e572","null","","","","null","","","","key","16.658766666667848","683","308.5","","","","","","","","","","","","","135","1","5","false","","","",""
"psychophysics","189","678906","0.0-16.0-2.5","614eb0a92921d8c1e64f4873","6368f2eea3e9634aebcc2f6b","636b6fc5eec83d6069b2e572","1113","","","","90","","","","key","16.65850769230702","683","308.5","","","","","","","","","","","","","","","","","","","",""
"psychophysics","190","679909","0.0-16.0-0.6","614eb0a92921d8c1e64f4873","6368f2eea3e9634aebcc2f6b","636b6fc5eec83d6069b2e572","null","","","","null","","","","key","16.658683333332494","683","308.5","","","","","","","","","","","","","","","","","","","",""
"psychophysics","191","680413","0.0-16.0-1.6","614eb0a92921d8c1e64f4873","6368f2eea3e9634aebcc2f6b","636b6fc5eec83d6069b2e572","null","","","","null","","","","key","16.659103448277918","683","308.5","","","","","","","","","","","","","135","1","0","false","","","",""
"psychophysics","192","680946","0.0-16.0-2.6","614eb0a92921d8c1e64f4873","6368f2eea3e9634aebcc2f6b","636b6fc5eec83d6069b2e572","520.8000000002794","","","","90","","","","key","16.65916129032285","683","308.5","","","","","","","","","","","","","","","","","","","",""
"psychophysics","193","681949","0.0-16.0-0.7","614eb0a92921d8c1e64f4873","6368f2eea3e9634aebcc2f6b","636b6fc5eec83d6069b2e572","null","","","","null","","","","key","16.658288135593835","683","308.5","","","","","","","","","","","","","","","","","","","",""
"psychophysics","194","682453","0.0-16.0-1.7","614eb0a92921d8c1e64f4873","6368f2eea3e9634aebcc2f6b","636b6fc5eec83d6069b2e572","null","","","","null","","","","key","16.659266666668312","683","308.5","","","","","","","","","","","","","135","1","4","false","","","",""
"psychophysics","195","683123","0.0-16.0-2.7","614eb0a92921d8c1e64f4873","6368f2eea3e9634aebcc2f6b","636b6fc5eec83d6069b2e572","666.6000000000931","","","","77","","","","key","16.658666666665784","683","308.5","","","","","","","","","","","","","","","","","","","",""
"psychophysics","196","684127","0.0-16.0-0.8","614eb0a92921d8c1e64f4873","6368f2eea3e9634aebcc2f6b","636b6fc5eec83d6069b2e572","null","","","","null","","","","key","16.658779661017235","683","308.5","","","","","","","","","","","","","","","","","","","",""
"psychophysics","197","684631","0.0-16.0-1.8","614eb0a92921d8c1e64f4873","6368f2eea3e9634aebcc2f6b","636b6fc5eec83d6069b2e572","null","","","","null","","","","key","16.659241379310924","683","308.5","","","","","","","","","","","","","135","1","6","false","","","",""
"psychophysics","198","685091","0.0-16.0-2.8","614eb0a92921d8c1e64f4873","6368f2eea3e9634aebcc2f6b","636b6fc5eec83d6069b2e572","448.89999999990687","","","","77","","","","key","16.658666666670428","683","308.5","","","","","","","","","","","","","","","","","","","",""
"psychophysics","199","686095","0.0-16.0-0.9","614eb0a92921d8c1e64f4873","6368f2eea3e9634aebcc2f6b","636b6fc5eec83d6069b2e572","null","","","","null","","","","key","16.658762711865858","683","308.5","","","","","","","","","","","","","","","","","","","",""
"psychophysics","200","686599","0.0-16.0-1.9","614eb0a92921d8c1e64f4873","6368f2eea3e9634aebcc2f6b","636b6fc5eec83d6069b2e572","null","","","","null","","","","key","16.658379310344603","683","308.5","","","","","","","","","","","","","135","1","2","false","","","",""
"psychophysics","201","687118","0.0-16.0-2.9","614eb0a92921d8c1e64f4873","6368f2eea3e9634aebcc2f6b","636b6fc5eec83d6069b2e572","512.5","","","","90","","","","key","16.6584333333342","683","308.5","","","","","","","","","","","","","","","","","","","",""
"psychophysics","202","688121","0.0-16.0-0.10","614eb0a92921d8c1e64f4873","6368f2eea3e9634aebcc2f6b","636b6fc5eec83d6069b2e572","null","","","","null","","","","key","16.658783333333364","683","308.5","","","","","","","","","","","","","","","","","","","",""
"psychophysics","203","688625","0.0-16.0-1.10","614eb0a92921d8c1e64f4873","6368f2eea3e9634aebcc2f6b","636b6fc5eec83d6069b2e572","null","","","","null","","","","key","16.65786206896481","683","308.5","","","","","","","","","","","","","135","-1","5","false","","","",""
"psychophysics","204","689492","0.0-16.0-2.10","614eb0a92921d8c1e64f4873","6368f2eea3e9634aebcc2f6b","636b6fc5eec83d6069b2e572","863.6000000000931","","","","90","","","","key","16.658705882353743","683","308.5","","","","","","","","","","","","","","","","","","","",""
"psychophysics","205","690495","0.0-16.0-0.11","614eb0a92921d8c1e64f4873","6368f2eea3e9634aebcc2f6b","636b6fc5eec83d6069b2e572","null","","","","null","","","","key","16.658864406780022","683","308.5","","","","","","","","","","","","","","","","","","","",""
"psychophysics","206","691001","0.0-16.0-1.11","614eb0a92921d8c1e64f4873","6368f2eea3e9634aebcc2f6b","636b6fc5eec83d6069b2e572","null","","","","null","","","","key","16.65910000000149","683","308.5","","","","","","","","","","","","","135","-1","0","false","","","",""
"psychophysics","207","691423","0.0-16.0-2.11","614eb0a92921d8c1e64f4873","6368f2eea3e9634aebcc2f6b","636b6fc5eec83d6069b2e572","418.10000000009313","","","","90","","","","key","16.657833333335777","683","308.5","","","","","","","","","","","","","","","","","","","",""
"psychophysics","208","692426","0.0-16.0-0.12","614eb0a92921d8c1e64f4873","6368f2eea3e9634aebcc2f6b","636b6fc5eec83d6069b2e572","null","","","","null","","","","key","16.65905084745698","683","308.5","","","","","","","","","","","","","","","","","","","",""
"psychophysics","209","692930","0.0-16.0-1.12","614eb0a92921d8c1e64f4873","6368f2eea3e9634aebcc2f6b","636b6fc5eec83d6069b2e572","null","","","","null","","","","key","16.658931034484652","683","308.5","","","","","","","","","","","","","135","1","4","false","","","",""
"psychophysics","210","693475","0.0-16.0-2.12","614eb0a92921d8c1e64f4873","6368f2eea3e9634aebcc2f6b","636b6fc5eec83d6069b2e572","535.3999999999069","","","","77","","","","key","16.65874999999869","683","308.5","","","","","","","","","","","","","","","","","","","",""
"psychophysics","211","694477","0.0-16.0-0.13","614eb0a92921d8c1e64f4873","6368f2eea3e9634aebcc2f6b","636b6fc5eec83d6069b2e572","null","","","","null","","","","key","16.65849152542414","683","308.5","","","","","","","","","","","","","","","","","","","",""
"psychophysics","212","694982","0.0-16.0-1.13","614eb0a92921d8c1e64f4873","6368f2eea3e9634aebcc2f6b","636b6fc5eec83d6069b2e572","null","","","","null","","","","key","16.65873333333293","683","308.5","","","","","","","","","","","","","135","-1","6","false","","","",""
"psychophysics","213","695763","0.0-16.0-2.13","614eb0a92921d8c1e64f4873","6368f2eea3e9634aebcc2f6b","636b6fc5eec83d6069b2e572","768.5","","","","90","","","","key","16.658466666667827","683","308.5","","","","","","","","","","","","","","","","","","","",""
"psychophysics","214","696768","0.0-16.0-0.14","614eb0a92921d8c1e64f4873","6368f2eea3e9634aebcc2f6b","636b6fc5eec83d6069b2e572","null","","","","null","","","","key","16.658616666666543","683","308.5","","","","","","","","","","","","","","","","","","","",""
"psychophysics","215","697272","0.0-16.0-1.14","614eb0a92921d8c1e64f4873","6368f2eea3e9634aebcc2f6b","636b6fc5eec83d6069b2e572","null","","","","null","","","","key","16.658620689658385","683","308.5","","","","","","","","","","","","","135","1","5","false","","","",""
"psychophysics","216","698209","0.0-16.0-2.14","614eb0a92921d8c1e64f4873","6368f2eea3e9634aebcc2f6b","636b6fc5eec83d6069b2e572","934.1000000000931","","","","77","","","","key","16.658963636363943","683","308.5","","","","","","","","","","","","","","","","","","","",""
"psychophysics","217","699212","0.0-16.0-0.15","614eb0a92921d8c1e64f4873","6368f2eea3e9634aebcc2f6b","636b6fc5eec83d6069b2e572","null","","","","null","","","","key","16.658650000001458","683","308.5","","","","","","","","","","","","","","","","","","","",""
"psychophysics","218","699717","0.0-16.0-1.15","614eb0a92921d8c1e64f4873","6368f2eea3e9634aebcc2f6b","636b6fc5eec83d6069b2e572","null","","","","null","","","","key","16.658517241381624","683","308.5","","","","","","","","","","","","","135","1","3","false","","","",""
"psychophysics","219","700542","0.0-16.0-2.15","614eb0a92921d8c1e64f4873","6368f2eea3e9634aebcc2f6b","636b6fc5eec83d6069b2e572","820.6000000000931","","","","90","","","","key","16.65864583333314","683","308.5","","","","","","","","","","","","","","","","","","","",""
"psychophysics","220","701545","0.0-16.0-0.16","614eb0a92921d8c1e64f4873","6368f2eea3e9634aebcc2f6b","636b6fc5eec83d6069b2e572","null","","","","null","","","","key","16.65901666666808","683","308.5","","","","","","","","","","","","","","","","","","","",""
"psychophysics","221","702048","0.0-16.0-1.16","614eb0a92921d8c1e64f4873","6368f2eea3e9634aebcc2f6b","636b6fc5eec83d6069b2e572","null","","","","null","","","","key","16.658896551724396","683","308.5","","","","","","","","","","","","","135","-1","0","false","","","",""
"psychophysics","222","703472","0.0-16.0-2.16","614eb0a92921d8c1e64f4873","6368f2eea3e9634aebcc2f6b","636b6fc5eec83d6069b2e572","1420.5","","","","90","","","","key","16.65872619047739","683","308.5","","","","","","","","","","","","","","","","","","","",""
"psychophysics","223","704478","0.0-16.0-0.17","614eb0a92921d8c1e64f4873","6368f2eea3e9634aebcc2f6b","636b6fc5eec83d6069b2e572","null","","","","null","","","","key","16.65873333333293","683","308.5","","","","","","","","","","","","","","","","","","","",""
"psychophysics","224","704981","0.0-16.0-1.17","614eb0a92921d8c1e64f4873","6368f2eea3e9634aebcc2f6b","636b6fc5eec83d6069b2e572","null","","","","null","","","","key","16.659310344827425","683","308.5","","","","","","","","","","","","","135","1","0","false","","","",""
"psychophysics","225","705599","0.0-16.0-2.17","614eb0a92921d8c1e64f4873","6368f2eea3e9634aebcc2f6b","636b6fc5eec83d6069b2e572","615.5","","","","90","","","","key","16.659055555552996","683","308.5","","","","","","","","","","","","","","","","","","","",""
"psychophysics","226","706603","0.0-16.0-0.18","614eb0a92921d8c1e64f4873","6368f2eea3e9634aebcc2f6b","636b6fc5eec83d6069b2e572","null","","","","null","","","","key","16.658610169491652","683","308.5","","","","","","","","","","","","","","","","","","","",""
"psychophysics","227","707110","0.0-16.0-1.18","614eb0a92921d8c1e64f4873","6368f2eea3e9634aebcc2f6b","636b6fc5eec83d6069b2e572","null","","","","null","","","","key","16.65846666666912","683","308.5","","","","","","","","","","","","","135","-1","5","false","","","",""
"psychophysics","228","707569","0.0-16.0-2.18","614eb0a92921d8c1e64f4873","6368f2eea3e9634aebcc2f6b","636b6fc5eec83d6069b2e572","452.70000000018626","","","","90","","","","key","16.658153846152484","683","308.5","","","","","","","","","","","","","","","","","","","",""
"psychophysics","229","708572","0.0-16.0-0.19","614eb0a92921d8c1e64f4873","6368f2eea3e9634aebcc2f6b","636b6fc5eec83d6069b2e572","null","","","","null","","","","key","16.658610169491652","683","308.5","","","","","","","","","","","","","","","","","","","",""
"psychophysics","230","709076","0.0-16.0-1.19","614eb0a92921d8c1e64f4873","6368f2eea3e9634aebcc2f6b","636b6fc5eec83d6069b2e572","null","","","","null","","","","key","16.658566666666108","683","308.5","","","","","","","","","","","","","135","1","2","false","","","",""
"psychophysics","231","709967","0.0-16.0-2.19","614eb0a92921d8c1e64f4873","6368f2eea3e9634aebcc2f6b","636b6fc5eec83d6069b2e572","887.8000000002794","","","","77","","","","key","16.65849999999941","683","308.5","","","","","","","","","","","","","","","","","","","",""
"psychophysics","232","710970","0.0-16.0-0.20","614eb0a92921d8c1e64f4873","6368f2eea3e9634aebcc2f6b","636b6fc5eec83d6069b2e572","null","","","","null","","","","key","16.658711864405817","683","308.5","","","","","","","","","","","","","","","","","","","",""
"psychophysics","233","711479","0.0-16.0-1.20","614eb0a92921d8c1e64f4873","6368f2eea3e9634aebcc2f6b","636b6fc5eec83d6069b2e572","null","","","","null","","","","key","16.658500000000156","683","308.5","","","","","","","","","","","","","135","-1","4","false","","","",""
"psychophysics","234","713101","0.0-16.0-2.20","614eb0a92921d8c1e64f4873","6368f2eea3e9634aebcc2f6b","636b6fc5eec83d6069b2e572","1617.6000000000931","","","","90","","","","key","16.658749999999902","683","308.5","","","","","","","","","","","","","","","","","","","",""
"psychophysics","235","714107","0.0-16.0-0.21","614eb0a92921d8c1e64f4873","6368f2eea3e9634aebcc2f6b","636b6fc5eec83d6069b2e572","null","","","","null","","","","key","16.658699999999953","683","308.5","","","","","","","","","","","","","","","","","","","",""
"psychophysics","236","714611","0.0-16.0-1.21","614eb0a92921d8c1e64f4873","6368f2eea3e9634aebcc2f6b","636b6fc5eec83d6069b2e572","null","","","","null","","","","key","16.658517241381624","683","308.5","","","","","","","","","","","","","135","1","6","false","","","",""
"psychophysics","237","715289","0.0-16.0-2.21","614eb0a92921d8c1e64f4873","6368f2eea3e9634aebcc2f6b","636b6fc5eec83d6069b2e572","675.2999999998137","","","","90","","","","key","16.65872500000114","683","308.5","","","","","","","","","","","","","","","","","","","",""
"psychophysics","238","716293","0.0-16.0-0.22","614eb0a92921d8c1e64f4873","6368f2eea3e9634aebcc2f6b","636b6fc5eec83d6069b2e572","null","","","","null","","","","key","16.658728813559165","683","308.5","","","","","","","","","","","","","","","","","","","",""
"psychophysics","239","716797","0.0-16.0-1.22","614eb0a92921d8c1e64f4873","6368f2eea3e9634aebcc2f6b","636b6fc5eec83d6069b2e572","null","","","","null","","","","key","16.65851724137761","683","308.5","","","","","","","","","","","","","135","-1","2","false","","","",""
"psychophysics","240","717543","0.0-16.0-2.22","614eb0a92921d8c1e64f4873","6368f2eea3e9634aebcc2f6b","636b6fc5eec83d6069b2e572","742.3000000002794","","","","90","","","","key","16.658886363637233","683","308.5","","","","","","","","","","","","","","","","","","","",""
"psychophysics","241","718546","0.0-16.0-0.23","614eb0a92921d8c1e64f4873","6368f2eea3e9634aebcc2f6b","636b6fc5eec83d6069b2e572","null","","","","null","","","","key","16.658762711863886","683","308.5","","","","","","","","","","","","","","","","","","","",""
"psychophysics","242","719054","0.0-16.0-1.23","614eb0a92921d8c1e64f4873","6368f2eea3e9634aebcc2f6b","636b6fc5eec83d6069b2e572","null","","","","null","","","","key","16.65889999999975","683","308.5","","","","","","","","","","","","","135","-1","3","false","","","",""
"psychophysics","243","719751","0.0-16.0-2.23","614eb0a92921d8c1e64f4873","6368f2eea3e9634aebcc2f6b","636b6fc5eec83d6069b2e572","693","","","","90","","","","key","16.65890000000072","683","308.5","","","","","","","","","","","","","","","","","","","",""
"html-keyboard-response","244","723550","0.0-17.0","614eb0a92921d8c1e64f4873","6368f2eea3e9634aebcc2f6b","636b6fc5eec83d6069b2e572","3794.8000000002794","<p>Well Done !</p><p>Training Complete. Press the spacebar to start.</p><p>DON'T EXIT THE FULL SCREEN MODE</p>","","","32","","","","","","","","","","","","","","","","","","","","","","","","","","",""
"psychophysics","245","726554","0.0-18.0-0.0","614eb0a92921d8c1e64f4873","6368f2eea3e9634aebcc2f6b","636b6fc5eec83d6069b2e572","null","","","","null","","","","key","16.675933333333038","683","308.5","","","","","","","","","","","","","","","","","","","",""
"psychophysics","246","727060","0.0-18.0-1.0","614eb0a92921d8c1e64f4873","6368f2eea3e9634aebcc2f6b","636b6fc5eec83d6069b2e572","null","","","","null","","","","key","16.658758620687376","683","308.5","","","","","","","","","","","","","135","1","0","true","","","",""
"psychophysics","247","727671","0.0-18.0-2.0","614eb0a92921d8c1e64f4873","6368f2eea3e9634aebcc2f6b","636b6fc5eec83d6069b2e572","600.2999999998137","","","","90","","","","key","16.65859999999936","683","308.5","","","","","","","","","","","","","","","","","","","",""
"psychophysics","248","728676","0.0-18.0-0.1","614eb0a92921d8c1e64f4873","6368f2eea3e9634aebcc2f6b","636b6fc5eec83d6069b2e572","null","","","","null","","","","key","16.658699999999953","683","308.5","","","","","","","","","","","","","","","","","","","",""
"psychophysics","249","729182","0.0-18.0-1.1","614eb0a92921d8c1e64f4873","6368f2eea3e9634aebcc2f6b","636b6fc5eec83d6069b2e572","null","","","","null","","","","key","16.659133333332527","683","308.5","","","","","","","","","","","","","135","-1","6","true","","","",""
"psychophysics","250","730413","0.0-18.0-2.1","614eb0a92921d8c1e64f4873","6368f2eea3e9634aebcc2f6b","636b6fc5eec83d6069b2e572","1228.0999999996275","","","","90","","","","key","16.658638888889172","683","308.5","","","","","","","","","","","","","","","","","","","",""
"psychophysics","251","731416","0.0-18.0-0.2","614eb0a92921d8c1e64f4873","6368f2eea3e9634aebcc2f6b","636b6fc5eec83d6069b2e572","null","","","","null","","","","key","16.658949999998246","683","308.5","","","","","","","","","","","","","","","","","","","",""
"psychophysics","252","731920","0.0-18.0-1.2","614eb0a92921d8c1e64f4873","6368f2eea3e9634aebcc2f6b","636b6fc5eec83d6069b2e572","null","","","","null","","","","key","16.6583103448281","683","308.5","","","","","","","","","","","","","135","-1","5","true","","","",""
"psychophysics","253","732856","0.0-18.0-2.2","614eb0a92921d8c1e64f4873","6368f2eea3e9634aebcc2f6b","636b6fc5eec83d6069b2e572","932.1999999997206","","","","90","","","","key","16.65876363636291","683","308.5","","","","","","","","","","","","","","","","","","","",""
"psychophysics","254","733861","0.0-18.0-0.3","614eb0a92921d8c1e64f4873","6368f2eea3e9634aebcc2f6b","636b6fc5eec83d6069b2e572","null","","","","null","","","","key","16.658779661017235","683","308.5","","","","","","","","","","","","","","","","","","","",""
"psychophysics","255","734367","0.0-18.0-1.3","614eb0a92921d8c1e64f4873","6368f2eea3e9634aebcc2f6b","636b6fc5eec83d6069b2e572","null","","","","null","","","","key","16.658600000001023","683","308.5","","","","","","","","","","","","","135","-1","4","true","","","",""
"psychophysics","256","734848","0.0-18.0-2.3","614eb0a92921d8c1e64f4873","6368f2eea3e9634aebcc2f6b","636b6fc5eec83d6069b2e572","477.39999999990687","","","","77","","","","key","16.658821428572992","683","308.5","","","","","","","","","","","","","","","","","","","",""
"psychophysics","257","735851","0.0-18.0-0.4","614eb0a92921d8c1e64f4873","6368f2eea3e9634aebcc2f6b","636b6fc5eec83d6069b2e572","null","","","","null","","","","key","16.658694915254443","683","308.5","","","","","","","","","","","","","","","","","","","",""
"psychophysics","258","736355","0.0-18.0-1.4","614eb0a92921d8c1e64f4873","6368f2eea3e9634aebcc2f6b","636b6fc5eec83d6069b2e572","null","","","","null","","","","key","16.659000000001157","683","308.5","","","","","","","","","","","","","135","1","5","true","","","",""
"psychophysics","259","737463","0.0-18.0-2.4","614eb0a92921d8c1e64f4873","6368f2eea3e9634aebcc2f6b","636b6fc5eec83d6069b2e572","1105.1000000000931","","","","90","","","","key","16.658636363637704","683","308.5","","","","","","","","","","","","","","","","","","","",""
"psychophysics","260","738466","0.0-18.0-0.5","614eb0a92921d8c1e64f4873","6368f2eea3e9634aebcc2f6b","636b6fc5eec83d6069b2e572","null","","","","null","","","","key","16.659101694917023","683","308.5","","","","","","","","","","","","","","","","","","","",""
"psychophysics","261","738969","0.0-18.0-1.5","614eb0a92921d8c1e64f4873","6368f2eea3e9634aebcc2f6b","636b6fc5eec83d6069b2e572","null","","","","null","","","","key","16.658689655174886","683","308.5","","","","","","","","","","","","","135","-1","3","true","","","",""
"psychophysics","262","739329","0.0-18.0-2.5","614eb0a92921d8c1e64f4873","6368f2eea3e9634aebcc2f6b","636b6fc5eec83d6069b2e572","355.5","","","","77","","","","key","16.659285714284383","683","308.5","","","","","","","","","","","","","","","","","","","",""
"psychophysics","263","740332","0.0-18.0-0.6","614eb0a92921d8c1e64f4873","6368f2eea3e9634aebcc2f6b","636b6fc5eec83d6069b2e572","null","","","","null","","","","key","16.658711864405817","683","308.5","","","","","","","","","","","","","","","","","","","",""
"psychophysics","264","740836","0.0-18.0-1.6","614eb0a92921d8c1e64f4873","6368f2eea3e9634aebcc2f6b","636b6fc5eec83d6069b2e572","null","","","","null","","","","key","16.658413793104863","683","308.5","","","","","","","","","","","","","135","1","4","true","","","",""
"psychophysics","265","741221","0.0-18.0-2.6","614eb0a92921d8c1e64f4873","6368f2eea3e9634aebcc2f6b","636b6fc5eec83d6069b2e572","380.60000000009313","","","","77","","","","key","16.658363636360843","683","308.5","","","","","","","","","","","","","","","","","","","",""
"psychophysics","266","742226","0.0-18.0-0.7","614eb0a92921d8c1e64f4873","6368f2eea3e9634aebcc2f6b","636b6fc5eec83d6069b2e572","null","","","","null","","","","key","16.658699999999953","683","308.5","","","","","","","","","","","","","","","","","","","",""
"psychophysics","267","742733","0.0-18.0-1.7","614eb0a92921d8c1e64f4873","6368f2eea3e9634aebcc2f6b","636b6fc5eec83d6069b2e572","null","","","","null","","","","key","16.658827586203877","683","308.5","","","","","","","","","","","","","135","1","2","true","","","",""
"psychophysics","268","743157","0.0-18.0-2.7","614eb0a92921d8c1e64f4873","6368f2eea3e9634aebcc2f6b","636b6fc5eec83d6069b2e572","418.60000000009313","","","","90","","","","key","16.658416666667716","683","308.5","","","","","","","","","","","","","","","","","","","",""
"psychophysics","269","744161","0.0-18.0-0.8","614eb0a92921d8c1e64f4873","6368f2eea3e9634aebcc2f6b","636b6fc5eec83d6069b2e572","null","","","","null","","","","key","16.658583333333567","683","308.5","","","","","","","","","","","","","","","","","","","",""
"psychophysics","270","744664","0.0-18.0-1.8","614eb0a92921d8c1e64f4873","6368f2eea3e9634aebcc2f6b","636b6fc5eec83d6069b2e572","null","","","","null","","","","key","16.658517241381624","683","308.5","","","","","","","","","","","","","135","1","6","true","","","",""
"psychophysics","271","745115","0.0-18.0-2.8","614eb0a92921d8c1e64f4873","6368f2eea3e9634aebcc2f6b","636b6fc5eec83d6069b2e572","447","","","","77","","","","key","16.65907692307911","683","308.5","","","","","","","","","","","","","","","","","","","",""
"psychophysics","272","746119","0.0-18.0-0.9","614eb0a92921d8c1e64f4873","6368f2eea3e9634aebcc2f6b","636b6fc5eec83d6069b2e572","null","","","","null","","","","key","16.658983050847535","683","308.5","","","","","","","","","","","","","","","","","","","",""
"psychophysics","273","746625","0.0-18.0-1.9","614eb0a92921d8c1e64f4873","6368f2eea3e9634aebcc2f6b","636b6fc5eec83d6069b2e572","null","","","","null","","","","key","16.6584333333342","683","308.5","","","","","","","","","","","","","135","-1","2","true","","","",""
"psychophysics","274","746992","0.0-18.0-2.9","614eb0a92921d8c1e64f4873","6368f2eea3e9634aebcc2f6b","636b6fc5eec83d6069b2e572","363.40000000037253","","","","90","","","","key","16.658238095236896","683","308.5","","","","","","","","","","","","","","","","","","","",""
"psychophysics","275","747996","0.0-18.0-0.10","614eb0a92921d8c1e64f4873","6368f2eea3e9634aebcc2f6b","636b6fc5eec83d6069b2e572","null","","","","null","","","","key","16.658813559321956","683","308.5","","","","","","","","","","","","","","","","","","","",""
"psychophysics","276","748500","0.0-18.0-1.10","614eb0a92921d8c1e64f4873","6368f2eea3e9634aebcc2f6b","636b6fc5eec83d6069b2e572","null","","","","null","","","","key","16.658379310344603","683","308.5","","","","","","","","","","","","","135","-1","0","true","","","",""
"psychophysics","277","749021","0.0-18.0-2.10","614eb0a92921d8c1e64f4873","6368f2eea3e9634aebcc2f6b","636b6fc5eec83d6069b2e572","518.2000000001863","","","","90","","","","key","16.65910000000149","683","308.5","","","","","","","","","","","","","","","","","","","",""
"psychophysics","278","750024","0.0-18.0-0.11","614eb0a92921d8c1e64f4873","6368f2eea3e9634aebcc2f6b","636b6fc5eec83d6069b2e572","null","","","","null","","","","key","16.65881666666634","683","308.5","","","","","","","","","","","","","","","","","","","",""
"psychophysics","279","750530","0.0-18.0-1.11","614eb0a92921d8c1e64f4873","6368f2eea3e9634aebcc2f6b","636b6fc5eec83d6069b2e572","null","","","","null","","","","key","16.659103448273903","683","308.5","","","","","","","","","","","","","135","1","3","true","","","",""
"psychophysics","280","750944","0.0-18.0-2.11","614eb0a92921d8c1e64f4873","6368f2eea3e9634aebcc2f6b","636b6fc5eec83d6069b2e572","411","","","","90","","","","key","16.658291666666628","683","308.5","","","","","","","","","","","","","","","","","","","",""
"psychophysics","281","751947","0.0-18.0-0.12","614eb0a92921d8c1e64f4873","6368f2eea3e9634aebcc2f6b","636b6fc5eec83d6069b2e572","null","","","","null","","","","key","16.65879661017058","683","308.5","","","","","","","","","","","","","","","","","","","",""
"psychophysics","282","752450","0.0-18.0-1.12","614eb0a92921d8c1e64f4873","6368f2eea3e9634aebcc2f6b","636b6fc5eec83d6069b2e572","null","","","","null","","","","key","16.657862068968825","683","308.5","","","","","","","","","","","","","135","-1","0","true","","","",""
"psychophysics","283","753217","0.0-18.0-2.12","614eb0a92921d8c1e64f4873","6368f2eea3e9634aebcc2f6b","636b6fc5eec83d6069b2e572","760.7999999998137","","","","90","","","","key","16.658488888888517","683","308.5","","","","","","","","","","","","","","","","","","","",""
"psychophysics","284","754221","0.0-18.0-0.13","614eb0a92921d8c1e64f4873","6368f2eea3e9634aebcc2f6b","636b6fc5eec83d6069b2e572","null","","","","null","","","","key","16.65890000000169","683","308.5","","","","","","","","","","","","","","","","","","","",""
"psychophysics","285","754725","0.0-18.0-1.13","614eb0a92921d8c1e64f4873","6368f2eea3e9634aebcc2f6b","636b6fc5eec83d6069b2e572","null","","","","null","","","","key","16.65872413793113","683","308.5","","","","","","","","","","","","","135","-1","5","true","","","",""
"psychophysics","286","755119","0.0-18.0-2.13","614eb0a92921d8c1e64f4873","6368f2eea3e9634aebcc2f6b","636b6fc5eec83d6069b2e572","389.6999999997206","","","","77","","","","key","16.658045454548713","683","308.5","","","","","","","","","","","","","","","","","","","",""
"psychophysics","287","756122","0.0-18.0-0.14","614eb0a92921d8c1e64f4873","6368f2eea3e9634aebcc2f6b","636b6fc5eec83d6069b2e572","null","","","","null","","","","key","16.65881666666634","683","308.5","","","","","","","","","","","","","","","","","","","",""
"psychophysics","288","756628","0.0-18.0-1.14","614eb0a92921d8c1e64f4873","6368f2eea3e9634aebcc2f6b","636b6fc5eec83d6069b2e572","null","","","","null","","","","key","16.65841379310085","683","308.5","","","","","","","","","","","","","135","1","0","true","","","",""
"psychophysics","289","757098","0.0-18.0-2.14","614eb0a92921d8c1e64f4873","6368f2eea3e9634aebcc2f6b","636b6fc5eec83d6069b2e572","465.79999999981374","","","","90","","","","key","16.65877777777819","683","308.5","","","","","","","","","","","","","","","","","","","",""
"psychophysics","290","758104","0.0-18.0-0.15","614eb0a92921d8c1e64f4873","6368f2eea3e9634aebcc2f6b","636b6fc5eec83d6069b2e572","null","","","","null","","","","key","16.65893333333273","683","308.5","","","","","","","","","","","","","","","","","","","",""
"psychophysics","291","758606","0.0-18.0-1.15","614eb0a92921d8c1e64f4873","6368f2eea3e9634aebcc2f6b","636b6fc5eec83d6069b2e572","null","","","","null","","","","key","16.65865517241463","683","308.5","","","","","","","","","","","","","135","1","4","true","","","",""
"psychophysics","292","758991","0.0-18.0-2.15","614eb0a92921d8c1e64f4873","6368f2eea3e9634aebcc2f6b","636b6fc5eec83d6069b2e572","382","","","","77","","","","key","16.658863636363424","683","308.5","","","","","","","","","","","","","","","","","","","",""
"psychophysics","293","759994","0.0-18.0-0.16","614eb0a92921d8c1e64f4873","6368f2eea3e9634aebcc2f6b","636b6fc5eec83d6069b2e572","null","","","","null","","","","key","16.658999999998912","683","308.5","","","","","","","","","","","","","","","","","","","",""
"psychophysics","294","760498","0.0-18.0-1.16","614eb0a92921d8c1e64f4873","6368f2eea3e9634aebcc2f6b","636b6fc5eec83d6069b2e572","null","","","","null","","","","key","16.658586206898125","683","308.5","","","","","","","","","","","","","135","1","3","true","","","",""
"psychophysics","295","760782","0.0-18.0-2.16","614eb0a92921d8c1e64f4873","6368f2eea3e9634aebcc2f6b","636b6fc5eec83d6069b2e572","278.5","","","","90","","","","key","16.659562499997264","683","308.5","","","","","","","","","","","","","","","","","","","",""
"psychophysics","296","761786","0.0-18.0-0.17","614eb0a92921d8c1e64f4873","6368f2eea3e9634aebcc2f6b","636b6fc5eec83d6069b2e572","null","","","","null","","","","key","16.658716666665473","683","308.5","","","","","","","","","","","","","","","","","","","",""
"psychophysics","297","762289","0.0-18.0-1.17","614eb0a92921d8c1e64f4873","6368f2eea3e9634aebcc2f6b","636b6fc5eec83d6069b2e572","null","","","","null","","","","key","16.65865517241463","683","308.5","","","","","","","","","","","","","135","-1","3","true","","","",""
"psychophysics","298","762829","0.0-18.0-2.17","614eb0a92921d8c1e64f4873","6368f2eea3e9634aebcc2f6b","636b6fc5eec83d6069b2e572","535","","","","77","","","","key","16.658451612903587","683","308.5","","","","","","","","","","","","","","","","","","","",""
"psychophysics","299","763831","0.0-18.0-0.18","614eb0a92921d8c1e64f4873","6368f2eea3e9634aebcc2f6b","636b6fc5eec83d6069b2e572","null","","","","null","","","","key","16.65881666666634","683","308.5","","","","","","","","","","","","","","","","","","","",""
"psychophysics","300","764338","0.0-18.0-1.18","614eb0a92921d8c1e64f4873","6368f2eea3e9634aebcc2f6b","636b6fc5eec83d6069b2e572","null","","","","null","","","","key","16.6590344827574","683","308.5","","","","","","","","","","","","","135","-1","4","true","","","",""
"psychophysics","301","764744","0.0-18.0-2.18","614eb0a92921d8c1e64f4873","6368f2eea3e9634aebcc2f6b","636b6fc5eec83d6069b2e572","402.6999999997206","","","","77","","","","key","16.65852173913331","683","308.5","","","","","","","","","","","","","","","","","","","",""
"psychophysics","302","765749","0.0-18.0-0.19","614eb0a92921d8c1e64f4873","6368f2eea3e9634aebcc2f6b","636b6fc5eec83d6069b2e572","null","","","","null","","","","key","16.658666666666978","683","308.5","","","","","","","","","","","","","","","","","","","",""
"psychophysics","303","766252","0.0-18.0-1.19","614eb0a92921d8c1e64f4873","6368f2eea3e9634aebcc2f6b","636b6fc5eec83d6069b2e572","null","","","","null","","","","key","16.658448275861105","683","308.5","","","","","","","","","","","","","135","-1","2","true","","","",""
"psychophysics","304","766638","0.0-18.0-2.19","614eb0a92921d8c1e64f4873","6368f2eea3e9634aebcc2f6b","636b6fc5eec83d6069b2e572","383.5","","","","90","","","","key","16.658363636360843","683","308.5","","","","","","","","","","","","","","","","","","","",""
"psychophysics","305","767641","0.0-18.0-0.20","614eb0a92921d8c1e64f4873","6368f2eea3e9634aebcc2f6b","636b6fc5eec83d6069b2e572","null","","","","null","","","","key","16.658694915252468","683","308.5","","","","","","","","","","","","","","","","","","","",""
"psychophysics","306","768145","0.0-18.0-1.20","614eb0a92921d8c1e64f4873","6368f2eea3e9634aebcc2f6b","636b6fc5eec83d6069b2e572","null","","","","null","","","","key","16.659233333333397","683","308.5","","","","","","","","","","","","","135","-1","6","true","","","",""
"psychophysics","307","768415","0.0-18.0-2.20","614eb0a92921d8c1e64f4873","6368f2eea3e9634aebcc2f6b","636b6fc5eec83d6069b2e572","267","","","","77","","","","key","16.65826666667126","683","308.5","","","","","","","","","","","","","","","","","","","",""
"psychophysics","308","769419","0.0-18.0-0.21","614eb0a92921d8c1e64f4873","6368f2eea3e9634aebcc2f6b","636b6fc5eec83d6069b2e572","null","","","","null","","","","key","16.65879661017058","683","308.5","","","","","","","","","","","","","","","","","","","",""
"psychophysics","309","769924","0.0-18.0-1.21","614eb0a92921d8c1e64f4873","6368f2eea3e9634aebcc2f6b","636b6fc5eec83d6069b2e572","null","","","","null","","","","key","16.658758620687376","683","308.5","","","","","","","","","","","","","135","1","5","true","","","",""
"psychophysics","310","770855","0.0-18.0-2.21","614eb0a92921d8c1e64f4873","6368f2eea3e9634aebcc2f6b","636b6fc5eec83d6069b2e572","922","","","","77","","","","key","16.65869090909096","683","308.5","","","","","","","","","","","","","","","","","","","",""
"psychophysics","311","771859","0.0-18.0-0.22","614eb0a92921d8c1e64f4873","6368f2eea3e9634aebcc2f6b","636b6fc5eec83d6069b2e572","null","","","","null","","","","key","16.658457627119418","683","308.5","","","","","","","","","","","","","","","","","","","",""
"psychophysics","312","772364","0.0-18.0-1.22","614eb0a92921d8c1e64f4873","6368f2eea3e9634aebcc2f6b","636b6fc5eec83d6069b2e572","null","","","","null","","","","key","16.65900000000062","683","308.5","","","","","","","","","","","","","135","1","6","true","","","",""
"psychophysics","313","772784","0.0-18.0-2.22","614eb0a92921d8c1e64f4873","6368f2eea3e9634aebcc2f6b","636b6fc5eec83d6069b2e572","416.89999999990687","","","","77","","","","key","16.65862500000124","683","308.5","","","","","","","","","","","","","","","","","","","",""
"psychophysics","314","773787","0.0-18.0-0.23","614eb0a92921d8c1e64f4873","6368f2eea3e9634aebcc2f6b","636b6fc5eec83d6069b2e572","null","","","","null","","","","key","16.658644067796374","683","308.5","","","","","","","","","","","","","","","","","","","",""
"psychophysics","315","774294","0.0-18.0-1.23","614eb0a92921d8c1e64f4873","6368f2eea3e9634aebcc2f6b","636b6fc5eec83d6069b2e572","null","","","","null","","","","key","16.658699999998014","683","308.5","","","","","","","","","","","","","135","1","2","true","","","",""
"psychophysics","316","774625","0.0-18.0-2.23","614eb0a92921d8c1e64f4873","6368f2eea3e9634aebcc2f6b","636b6fc5eec83d6069b2e572","326.79999999981374","","","","90","","","","key","16.659555555554107","683","308.5","","","","","","","","","","","","","","","","","","","",""
"psychophysics","317","775628","0.0-18.0-0.24","614eb0a92921d8c1e64f4873","6368f2eea3e9634aebcc2f6b","636b6fc5eec83d6069b2e572","null","","","","null","","","","key","16.658716666667413","683","308.5","","","","","","","","","","","","","","","","","","","",""
"psychophysics","318","776131","0.0-18.0-1.24","614eb0a92921d8c1e64f4873","6368f2eea3e9634aebcc2f6b","636b6fc5eec83d6069b2e572","null","","","","null","","","","key","16.658172413795093","683","308.5","","","","","","","","","","","","","135","1","6","true","","","",""
"psychophysics","319","776508","0.0-18.0-2.24","614eb0a92921d8c1e64f4873","6368f2eea3e9634aebcc2f6b","636b6fc5eec83d6069b2e572","373.20000000018626","","","","77","","","","key","16.65895238095739","683","308.5","","","","","","","","","","","","","","","","","","","",""
"psychophysics","320","777511","0.0-18.0-0.25","614eb0a92921d8c1e64f4873","6368f2eea3e9634aebcc2f6b","636b6fc5eec83d6069b2e572","null","","","","null","","","","key","16.658800000000824","683","308.5","","","","","","","","","","","","","","","","","","","",""
"psychophysics","321","778016","0.0-18.0-1.25","614eb0a92921d8c1e64f4873","6368f2eea3e9634aebcc2f6b","636b6fc5eec83d6069b2e572","null","","","","null","","","","key","16.65844827586512","683","308.5","","","","","","","","","","","","","135","-1","5","true","","","",""
"psychophysics","322","778522","0.0-18.0-2.25","614eb0a92921d8c1e64f4873","6368f2eea3e9634aebcc2f6b","636b6fc5eec83d6069b2e572","501.5","","","","90","","","","key","16.658206896551338","683","308.5","","","","","","","","","","","","","","","","","","","",""
"psychophysics","323","779526","0.0-18.0-0.26","614eb0a92921d8c1e64f4873","6368f2eea3e9634aebcc2f6b","636b6fc5eec83d6069b2e572","null","","","","null","","","","key","16.65889999999975","683","308.5","","","","","","","","","","","","","","","","","","","",""
"psychophysics","324","780030","0.0-18.0-1.26","614eb0a92921d8c1e64f4873","6368f2eea3e9634aebcc2f6b","636b6fc5eec83d6069b2e572","null","","","","null","","","","key","16.658413793104863","683","308.5","","","","","","","","","","","","","135","-1","4","true","","","",""
"psychophysics","325","780422","0.0-18.0-2.26","614eb0a92921d8c1e64f4873","6368f2eea3e9634aebcc2f6b","636b6fc5eec83d6069b2e572","388.20000000018626","","","","90","","","","key","16.658863636363424","683","308.5","","","","","","","","","","","","","","","","","","","",""
"psychophysics","326","781425","0.0-18.0-0.27","614eb0a92921d8c1e64f4873","6368f2eea3e9634aebcc2f6b","636b6fc5eec83d6069b2e572","null","","","","null","","","","key","16.658616666666543","683","308.5","","","","","","","","","","","","","","","","","","","",""
"psychophysics","327","781928","0.0-18.0-1.27","614eb0a92921d8c1e64f4873","6368f2eea3e9634aebcc2f6b","636b6fc5eec83d6069b2e572","null","","","","null","","","","key","16.658172413795093","683","308.5","","","","","","","","","","","","","135","-1","6","true","","","",""
"psychophysics","328","782309","0.0-18.0-2.27","614eb0a92921d8c1e64f4873","6368f2eea3e9634aebcc2f6b","636b6fc5eec83d6069b2e572","377","","","","77","","","","key","16.658761904763413","683","308.5","","","","","","","","","","","","","","","","","","","",""
"psychophysics","329","783314","0.0-18.0-0.28","614eb0a92921d8c1e64f4873","6368f2eea3e9634aebcc2f6b","636b6fc5eec83d6069b2e572","null","","","","null","","","","key","16.658950000000186","683","308.5","","","","","","","","","","","","","","","","","","","",""
"psychophysics","330","783817","0.0-18.0-1.28","614eb0a92921d8c1e64f4873","6368f2eea3e9634aebcc2f6b","636b6fc5eec83d6069b2e572","null","","","","null","","","","key","16.65937931034393","683","308.5","","","","","","","","","","","","","135","-1","2","true","","","",""
