"trial_type","trial_index","time_elapsed","internal_node_id","PROLIFIC_PID","STUDY_ID","SESSION_ID","rt","stimulus","button_pressed","success","key_press","responses","isData","view_history","response_type","avg_frame_time","center_x","center_y","isSC","stim_side","trial_luminance","step_size","nReversal","correct","prev_ans","isThreshold","SC_threshold","final_threshold","isLuminance","FF_luminance","luminance","stimSide","ISInt","isFF","question_order","isSPQ","isCAPS","isAQ"
"pavlovia","0","4","0.0-0.0","60f6f802c0ede08f7cf69720","6368f2eea3e9634aebcc2f6b","636b4684d2164af28067094c","","","","","","","","","","","","","","","","","","","","","","","","","","","","","","","",""
"html-button-response","1","7569","0.0-1.0","60f6f802c0ede08f7cf69720","6368f2eea3e9634aebcc2f6b","636b4684d2164af28067094c","7563","<div style='background-color: white; width:60%; margin: auto; padding: 50px; text-align: justify; text-justify: inter-word; margin-bottom: 20px;'><h1 style='text-align: center;'>Consent Form</h1><p>Please read this consent form carefully before deciding whether you would like to participate in this study. You have to be 18 years old or older to participate to this study.</p><p style='text-decoration: underline;'>Participation is voluntary:</p><p>It is your choice whether or not to participate in this research. If you choose to participate, you may change your mind and leave the study at any time. Refusal to participate or stopping your participation will involve no penalty or loss of benefits to which you are otherwise entitled.</p><p style='text-decoration: underline;'>Purpose of the Study:</p><p>To understand the mechanisms underlying human perception.</p><p style='text-decoration: underline;'>What you will do in this study:</p><p>You will be presented with a series of visual images and then you will press buttons on the keyboard of your computer to respond to simple questions about the images (e.g. Were one or two images presented?). In addition, you will be asked to complete a questionnaire concerning your beliefs and everyday mental and perceptual experiences.'</p><p style='text-decoration: underline;'> Time Required:</p><p>The study will take 40 minutes to complete. </p><p style='text-decoration: underline;'>Risks:</p><p>There are no anticipated risks associated with participating in this study that are beyond those experienced in everyday life. </p><p style='text-decoration: underline;'>Benefits:</p><p>There are no benefits to you in participating in the study. However, this study may lead to a better understanding of how different kinds of visual information are used.</p><p style='text-decoration: underline;'>Compensation:</p><p>You will be paid US$6.6/hour. </p><p style='text-decoration: underline;'>Privacy and Confidentiality:</p><p>Your participation in this study will be anonymous. No personal information about your name or identity will be asked or recorded. This anonymous data will be stored for several years and may be used for a variety of research purposes. The overall results of the study may be published, or the data files may be shared with other researchers, but your identity will not be revealed in any way. The online services we are using for this study may temporarily store your data, but this data will be downloaded and then promptly deleted from those services.Your data will not be permanently associated with your name, IP address, or any other identifiable information (e.g., your information will only be connected to your payment, not to any of your responses), though they may be temporarily stored together before we download and separate them. Even so, no guarantee of internet survey security can be given because, although unlikely, transmissions can be intercepted and IP addresses can be identified. The anonymous data may be shared publicly (for example, in conjunction with a resulting academic publication).</p><p style='text-decoration: underline;'>Participation and Withdrawal:</p><p>Your participation in this study is completely voluntary. You may stop responding to the stimuli or stop answering questions if you so choose and without penalty by exiting the full screen mode, closing this tab of your browser or redirecting it to a different website.</p><p style='text-decoration: underline;'>Contact Info of the Researcher: </p><p>If you have questions about this study, or if you would like to talk to the research team, please contact David Melcher (david.melcher@nyu.edu, md5050@nyu.edu) at the Perception and Active Cognition Laboratory, New York University Abu Dhabi, Computational Research Building, Saadiyat Island, Abu Dhabi, UAE.This research has been reviewed by the New York University Abu Dhabi Institutional Review Board (NYUAD IRB). To contact about your rights in this research, for questions, suggestions, or complaints that are not addressed by the researchers, please email IRBnyuad@nyu.edu, or call the NYUAD IRB at +971 2 628 4313. </p></div>","0","","","","","","","","","","","","","","","","","","","","","","","","","","","","",""
"fullscreen","2","9282","0.0-2.0","60f6f802c0ede08f7cf69720","6368f2eea3e9634aebcc2f6b","636b4684d2164af28067094c","","","","true","","","","","","","","","","","","","","","","","","","","","","","","","","","",""
"html-keyboard-response","3","32153","0.0-3.0","60f6f802c0ede08f7cf69720","6368f2eea3e9634aebcc2f6b","636b4684d2164af28067094c","22870.200000047684","<p>Welcome !</p><p>READ CAREFULLY THE FOLLOWING INDICATIONS:</p><p>From this moment you have ~40 minutes to complete the experiment.</p><p>During the experiment you will be prompted to take several breaks. Each break should not last longer than 2-3 minutes.</p><p>Make sure that your computer is plugged in and it's not running on battery power, even if the battery is already fully charged.</p><p>Turn off your phone and music, make sure that you are in a quiet room and that you will not be distracted for the next hour.</p><p>Failure to comply with the instructions and indications provided during the experiment will most likely result in the rejection of your data.<p>Press the spacebar to start.</p>","","","32","","","","","","","","","","","","","","","","","","","","","","","","","","",""
"survey-html-form","4","40200","0.0-4.0","60f6f802c0ede08f7cf69720","6368f2eea3e9634aebcc2f6b","636b4684d2164af28067094c","8046.100000023842","","","","","{""age"":""59"",""sex"":""F""}","true","","","","","","","","","","","","","","","","","","","","","","","","",""
"instructions","5","96249","0.0-5.0","60f6f802c0ede08f7cf69720","6368f2eea3e9634aebcc2f6b","636b4684d2164af28067094c","56047","","","","","","","[{""page_index"":0,""viewing_time"":40199.09999990463},{""page_index"":1,""viewing_time"":10727.900000095367},{""page_index"":2,""viewing_time"":5119.599999904633}]","","","","","","","","","","","","","","","","","","","","","","","",""
"psychophysics","6","98924","0.0-6.0-0.0","60f6f802c0ede08f7cf69720","6368f2eea3e9634aebcc2f6b","636b4684d2164af28067094c","1672.7999999523163","","","","37","","","","key","16.66608695652168","768","361","true","1","180","30","0","1","","","","","","","","","","","","","",""
"psychophysics","7","100412","0.0-6.0-0.1","60f6f802c0ede08f7cf69720","6368f2eea3e9634aebcc2f6b","636b4684d2164af28067094c","485","","","","39","","","","key","16.667306818181796","768","361","true","1","210","30","0","-1","1","","","","","","","","","","","","",""
"psychophysics","8","105606","0.0-6.0-0.2","60f6f802c0ede08f7cf69720","6368f2eea3e9634aebcc2f6b","636b4684d2164af28067094c","4191.599999904633","","","","39","","","","key","16.66602250803859","768","361","true","1","210","24","1","-1","-1","","","","","","","","","","","","",""
"psychophysics","9","107292","0.0-6.0-0.3","60f6f802c0ede08f7cf69720","6368f2eea3e9634aebcc2f6b","636b4684d2164af28067094c","683.5","","","","37","","","","key","16.664419999999954","768","361","true","-1","186","24","1","-1","-1","","","","","","","","","","","","",""
"psychophysics","10","108880","0.0-6.0-0.4","60f6f802c0ede08f7cf69720","6368f2eea3e9634aebcc2f6b","636b4684d2164af28067094c","586.7000000476837","","","","37","","","","key","16.66685106382972","768","361","true","-1","186","24","1","-1","-1","","","","","","","","","","","","",""
"psychophysics","11","109974","0.0-6.0-0.5","60f6f802c0ede08f7cf69720","6368f2eea3e9634aebcc2f6b","636b4684d2164af28067094c","90.90000009536743","","","","39","","","","key","16.671415384615493","768","361","true","1","162","24","1","-1","-1","","","","","","","","","","","","",""
"psychophysics","12","111301","0.0-6.0-0.6","60f6f802c0ede08f7cf69720","6368f2eea3e9634aebcc2f6b","636b4684d2164af28067094c","326.10000002384186","","","","39","","","","key","16.666615384615373","768","361","true","1","162","24","1","-1","-1","","","","","","","","","","","","",""
"psychophysics","13","112724","0.0-6.0-0.7","60f6f802c0ede08f7cf69720","6368f2eea3e9634aebcc2f6b","636b4684d2164af28067094c","421.60000002384186","","","","39","","","","key","16.668258823529364","768","361","true","1","138","24","1","-1","-1","","","","","","","","","","","","",""
"psychophysics","14","113791","0.0-6.0-0.8","60f6f802c0ede08f7cf69720","6368f2eea3e9634aebcc2f6b","636b4684d2164af28067094c","64.5","","","","37","","","","key","16.66485714285712","768","361","true","-1","138","24","1","-1","-1","","","","","","","","","","","","",""
"psychophysics","15","116342","0.0-6.0-0.9","60f6f802c0ede08f7cf69720","6368f2eea3e9634aebcc2f6b","636b4684d2164af28067094c","1548.2000000476837","","","","37","","","","key","16.66774999999995","768","361","true","-1","129","24","1","-1","-1","","","","","","","","","","","","",""
"psychophysics","16","119861","0.0-6.0-0.10","60f6f802c0ede08f7cf69720","6368f2eea3e9634aebcc2f6b","636b4684d2164af28067094c","2515.899999976158","","","","39","","","","key","16.66745714285713","768","361","true","1","129","24","1","-1","-1","","","","","","","","","","","","",""
"psychophysics","17","123549","0.0-6.0-0.11","60f6f802c0ede08f7cf69720","6368f2eea3e9634aebcc2f6b","636b4684d2164af28067094c","2686.899999976158","","","","39","","","","key","16.666054545454575","768","361","true","-1","129","19.2","2","1","-1","","","","","","","","","","","","",""
"psychophysics","18","125135","0.0-6.0-0.12","60f6f802c0ede08f7cf69720","6368f2eea3e9634aebcc2f6b","636b4684d2164af28067094c","583.4000000953674","","","","39","","","","key","16.665978723404244","768","361","true","1","148.2","19.2","2","-1","1","","","","","","","","","","","","",""
"psychophysics","19","126712","0.0-6.0-0.13","60f6f802c0ede08f7cf69720","6368f2eea3e9634aebcc2f6b","636b4684d2164af28067094c","575.1999999284744","","","","37","","","","key","16.666957446808546","768","361","true","-1","148.2","15.36","3","-1","-1","","","","","","","","","","","","",""
"psychophysics","20","128274","0.0-6.0-0.14","60f6f802c0ede08f7cf69720","6368f2eea3e9634aebcc2f6b","636b4684d2164af28067094c","560.2999999523163","","","","39","","","","key","16.666602150537543","768","361","true","1","132.83999999999997","15.36","3","-1","-1","","","","","","","","","","","","",""
"psychophysics","21","129747","0.0-6.0-0.15","60f6f802c0ede08f7cf69720","6368f2eea3e9634aebcc2f6b","636b4684d2164af28067094c","471.5","","","","37","","","","key","16.668459770114975","768","361","true","-1","132.83999999999997","15.36","3","-1","-1","","","","","","","","","","","","",""
"psychophysics","22","132163","0.0-6.0-0.16","60f6f802c0ede08f7cf69720","6368f2eea3e9634aebcc2f6b","636b4684d2164af28067094c","1413.1000000238419","","","","39","","","","key","16.666138888888984","768","361","true","-1","129","12.287999999999998","4","1","-1","","","","","","","","","","","","",""
"psychophysics","23","133721","0.0-6.0-0.17","60f6f802c0ede08f7cf69720","6368f2eea3e9634aebcc2f6b","636b4684d2164af28067094c","555.8999999761581","","","","39","","","","key","16.665217391304157","768","361","true","1","141.288","12.287999999999998","4","-1","1","","","","","","","","","","","","",""
"psychophysics","24","135167","0.0-6.0-0.18","60f6f802c0ede08f7cf69720","6368f2eea3e9634aebcc2f6b","636b4684d2164af28067094c","444.39999997615814","","","","39","","","","key","16.667499999999986","768","361","true","1","141.288","9.8304","5","-1","-1","","","","","","","","","","","","",""
"psychophysics","25","137932","0.0-6.0-0.19","60f6f802c0ede08f7cf69720","6368f2eea3e9634aebcc2f6b","636b4684d2164af28067094c","1763.5","","","","37","","","","key","16.66854545454544","768","361","true","1","131.4576","7.864319999999999","6","1","-1","","","","","","","","","","","","",""
"psychophysics","26","139385","0.0-6.0-0.20","60f6f802c0ede08f7cf69720","6368f2eea3e9634aebcc2f6b","636b4684d2164af28067094c","450.39999997615814","","","","39","","","","key","16.667511627907178","768","361","true","1","139.32192","7.864319999999999","6","-1","1","","","","","","","","","","","","",""
"psychophysics","27","140812","0.0-6.0-0.21","60f6f802c0ede08f7cf69720","6368f2eea3e9634aebcc2f6b","636b4684d2164af28067094c","426.10000002384186","","","","37","","","","key","16.668011764705742","768","361","true","-1","139.32192","6.291456","7","-1","-1","","","","","","","","","","","","",""
"psychophysics","28","142239","0.0-6.0-0.22","60f6f802c0ede08f7cf69720","6368f2eea3e9634aebcc2f6b","636b4684d2164af28067094c","425.3000000715256","","","","37","","","","key","16.667835294117687","768","361","true","-1","133.030464","6.291456","7","-1","-1","","","","","","","","","","","","",""
"psychophysics","29","143773","0.0-6.0-0.23","60f6f802c0ede08f7cf69720","6368f2eea3e9634aebcc2f6b","636b4684d2164af28067094c","532.2000000476837","","","","37","","","","key","16.662912087912215","768","361","true","1","133.030464","5.033164800000001","8","1","-1","","","","","","","","","","","","",""
"psychophysics","30","145264","0.0-6.0-0.24","60f6f802c0ede08f7cf69720","6368f2eea3e9634aebcc2f6b","636b4684d2164af28067094c","485.8000000715256","","","","39","","","","key","16.668011363636072","768","361","true","1","138.0636288","5.033164800000001","8","-1","1","","","","","","","","","","","","",""
"psychophysics","31","146626","0.0-6.0-0.25","60f6f802c0ede08f7cf69720","6368f2eea3e9634aebcc2f6b","636b4684d2164af28067094c","359.7999999523163","","","","37","","","","key","16.667333333333378","768","361","true","-1","138.0636288","4.0265318400000005","9","-1","-1","","","","","","","","","","","","",""
"psychophysics","32","147964","0.0-6.0-0.26","60f6f802c0ede08f7cf69720","6368f2eea3e9634aebcc2f6b","636b4684d2164af28067094c","335.6999999284744","","","","39","","","","key","16.66659493670877","768","361","true","1","134.03709696","4.0265318400000005","9","-1","-1","","","","","","","","","","","","",""
"psychophysics","33","149362","0.0-6.0-0.27","60f6f802c0ede08f7cf69720","6368f2eea3e9634aebcc2f6b","636b4684d2164af28067094c","396.8000000715256","","","","37","","","","key","16.665999999999894","768","361","true","-1","134.03709696","4.0265318400000005","9","-1","-1","","","","","","","","","","","","",""
"psychophysics","34","150924","0.0-6.0-0.28","60f6f802c0ede08f7cf69720","6368f2eea3e9634aebcc2f6b","636b4684d2164af28067094c","559.6999999284744","","","","37","","","","key","16.668580645161132","768","361","true","1","130.01056512000002","3.2212254720000004","10","1","-1","","","","","","","","","","","","",""
"psychophysics","35","152725","0.0-6.0-0.29","60f6f802c0ede08f7cf69720","6368f2eea3e9634aebcc2f6b","636b4684d2164af28067094c","799.2999999523163","","","","39","","","","key","16.668327102803726","768","361","true","-1","133.23179059200004","3.2212254720000004","10","1","1","","","","","","","","","","","","",""
"psychophysics","36","154159","0.0-6.0-0.30","60f6f802c0ede08f7cf69720","6368f2eea3e9634aebcc2f6b","636b4684d2164af28067094c","431","","","","37","","","","key","16.66714117647087","768","361","true","-1","136.45301606400005","3.2212254720000004","10","-1","1","","","","","","","","","","","","",""
"psychophysics","37","155565","0.0-6.0-0.31","60f6f802c0ede08f7cf69720","6368f2eea3e9634aebcc2f6b","636b4684d2164af28067094c","403.8000000715256","","","","37","","","","key","16.66734939759053","768","361","true","-1","136.45301606400005","2.5769803776000004","11","-1","-1","","","","","","","","","","","","",""
"psychophysics","38","156967","0.0-6.0-0.32","60f6f802c0ede08f7cf69720","6368f2eea3e9634aebcc2f6b","636b4684d2164af28067094c","400.7000000476837","","","","37","","","","key","16.667963855421938","768","361","true","-1","133.87603568640006","2.5769803776000004","11","-1","-1","","","","","","","","","","","","",""
"psychophysics","39","158575","0.0-6.0-0.33","60f6f802c0ede08f7cf69720","6368f2eea3e9634aebcc2f6b","636b4684d2164af28067094c","605.8999999761581","","","","37","","","","key","16.663927083333267","768","361","true","-1","133.87603568640006","2.5769803776000004","11","-1","-1","","","","","","","","","","","","",""
"psychophysics","40","160157","0.0-6.0-0.34","60f6f802c0ede08f7cf69720","6368f2eea3e9634aebcc2f6b","636b4684d2164af28067094c","580.5","","","","39","","","","key","16.66739361702144","768","361","true","1","131.29905530880006","2.5769803776000004","11","-1","-1","","","","","","","","","","","","",""
"psychophysics","41","162079","0.0-6.0-0.35","60f6f802c0ede08f7cf69720","6368f2eea3e9634aebcc2f6b","636b4684d2164af28067094c","921.0999999046326","","","","39","","","","key","16.66468421052636","768","361","true","1","131.29905530880006","2.5769803776000004","11","-1","-1","","","","","","","","","","","","",""
"psychophysics","42","163925","0.0-6.0-0.36","60f6f802c0ede08f7cf69720","6368f2eea3e9634aebcc2f6b","636b4684d2164af28067094c","844","","","","39","","","","key","16.667218181818185","768","361","true","1","129","2.5769803776000004","11","-1","-1","","","","","","","","","","","","",""
"psychophysics","43","165623","0.0-6.0-0.37","60f6f802c0ede08f7cf69720","6368f2eea3e9634aebcc2f6b","636b4684d2164af28067094c","696.6000000238419","","","","39","","","","key","16.667455445544558","768","361","true","-1","129","2.0615843020800004","12","1","-1","","","","","","","","","","","","",""
"psychophysics","44","167653","0.0-6.0-0.38","60f6f802c0ede08f7cf69720","6368f2eea3e9634aebcc2f6b","636b4684d2164af28067094c","1028.7999999523163","","","","39","","","","key","16.666016666666597","768","361","true","-1","131.06158430208","2.0615843020800004","12","1","1","","","","","","","","","","","","",""
"psychophysics","45","170219","0.0-6.0-0.39","60f6f802c0ede08f7cf69720","6368f2eea3e9634aebcc2f6b","636b4684d2164af28067094c","1564","","","","37","","","","key","16.667346405228706","768","361","true","-1","133.12316860416","2.0615843020800004","12","-1","1","","","","","","","","","","","","",""
"html-keyboard-response","46","176479","0.0-7.0","60f6f802c0ede08f7cf69720","6368f2eea3e9634aebcc2f6b","636b4684d2164af28067094c","6258.699999928474","<p>Well Done !</p><p>Prepare for a new block.</p><p>DON'T EXIT THE FULL SCREEN MODE</p><p>Press the Spacebar to start.</p>","","","32","","","","","","","","","","","","","","","true","132.98807636377603","","","","","","","","","","",""
"psychophysics","47","177536","0.0-8.0-0.0","60f6f802c0ede08f7cf69720","6368f2eea3e9634aebcc2f6b","636b4684d2164af28067094c","54.10000002384186","","","","37","","","","key","16.670904761904644","768","361","true","-1","180","30","0","-1","","","","","","","","","","","","","",""
"psychophysics","48","178943","0.0-8.0-0.1","60f6f802c0ede08f7cf69720","6368f2eea3e9634aebcc2f6b","636b4684d2164af28067094c","405.39999997615814","","","","39","","","","key","16.667321428571345","768","361","true","1","180","30","0","-1","-1","","","","","","","","","","","","",""
"psychophysics","49","180381","0.0-8.0-0.2","60f6f802c0ede08f7cf69720","6368f2eea3e9634aebcc2f6b","636b4684d2164af28067094c","435.7999999523163","","","","37","","","","key","16.667070588235305","768","361","true","-1","150","30","0","-1","-1","","","","","","","","","","","","",""
"psychophysics","50","181779","0.0-8.0-0.3","60f6f802c0ede08f7cf69720","6368f2eea3e9634aebcc2f6b","636b4684d2164af28067094c","395.39999997615814","","","","37","","","","key","16.662987951807473","768","361","true","-1","150","30","0","-1","-1","","","","","","","","","","","","",""
"psychophysics","51","183690","0.0-8.0-0.4","60f6f802c0ede08f7cf69720","6368f2eea3e9634aebcc2f6b","636b4684d2164af28067094c","908.7999999523163","","","","37","","","","key","16.667789473684184","768","361","true","-1","129","30","0","-1","-1","","","","","","","","","","","","",""
"psychophysics","52","185887","0.0-8.0-0.5","60f6f802c0ede08f7cf69720","6368f2eea3e9634aebcc2f6b","636b4684d2164af28067094c","1194.6000000238419","","","","37","","","","key","16.66576923076914","768","361","true","-1","129","30","0","-1","-1","","","","","","","","","","","","",""
"psychophysics","53","187394","0.0-8.0-0.6","60f6f802c0ede08f7cf69720","6368f2eea3e9634aebcc2f6b","636b4684d2164af28067094c","506.59999990463257","","","","37","","","","key","16.670566666666936","768","361","true","-1","129","30","0","-1","-1","","","","","","","","","","","","",""
"psychophysics","54","189191","0.0-8.0-0.7","60f6f802c0ede08f7cf69720","6368f2eea3e9634aebcc2f6b","636b4684d2164af28067094c","794.5","","","","37","","","","key","16.666186915887913","768","361","true","-1","129","30","0","-1","-1","","","","","","","","","","","","",""
"psychophysics","55","191112","0.0-8.0-0.8","60f6f802c0ede08f7cf69720","6368f2eea3e9634aebcc2f6b","636b4684d2164af28067094c","919.5999999046326","","","","37","","","","key","16.667561403508635","768","361","true","-1","129","30","0","-1","-1","","","","","","","","","","","","",""
"psychophysics","56","193453","0.0-8.0-0.9","60f6f802c0ede08f7cf69720","6368f2eea3e9634aebcc2f6b","636b4684d2164af28067094c","1339.5","","","","39","","","","key","16.665798561151096","768","361","true","-1","129","24","1","1","-1","","","","","","","","","","","","",""
"psychophysics","57","194971","0.0-8.0-0.10","60f6f802c0ede08f7cf69720","6368f2eea3e9634aebcc2f6b","636b4684d2164af28067094c","515.1000000238419","","","","39","","","","key","16.672022222222424","768","361","true","1","153","24","1","-1","1","","","","","","","","","","","","",""
"psychophysics","58","196319","0.0-8.0-0.11","60f6f802c0ede08f7cf69720","6368f2eea3e9634aebcc2f6b","636b4684d2164af28067094c","346.5","","","","39","","","","key","16.670175000000018","768","361","true","1","153","19.2","2","-1","-1","","","","","","","","","","","","",""
"psychophysics","59","197837","0.0-8.0-0.12","60f6f802c0ede08f7cf69720","6368f2eea3e9634aebcc2f6b","636b4684d2164af28067094c","515.8999999761581","","","","39","","","","key","16.66751111111112","768","361","true","1","133.8","19.2","2","-1","-1","","","","","","","","","","","","",""
"psychophysics","60","199513","0.0-8.0-0.13","60f6f802c0ede08f7cf69720","6368f2eea3e9634aebcc2f6b","636b4684d2164af28067094c","674.5","","","","39","","","","key","16.668489999999874","768","361","true","1","133.8","19.2","2","-1","-1","","","","","","","","","","","","",""
"psychophysics","61","201221","0.0-8.0-0.14","60f6f802c0ede08f7cf69720","6368f2eea3e9634aebcc2f6b","636b4684d2164af28067094c","706.1999999284744","","","","39","","","","key","16.666415841584346","768","361","true","1","129","19.2","2","-1","-1","","","","","","","","","","","","",""
"psychophysics","62","202967","0.0-8.0-0.15","60f6f802c0ede08f7cf69720","6368f2eea3e9634aebcc2f6b","636b4684d2164af28067094c","744.8999999761581","","","","39","","","","key","16.66650961538471","768","361","true","-1","129","15.36","3","1","-1","","","","","","","","","","","","",""
"psychophysics","63","203985","0.0-8.0-0.16","60f6f802c0ede08f7cf69720","6368f2eea3e9634aebcc2f6b","636b4684d2164af28067094c","16.5","","","","39","","","","key","16.667516666666295","768","361","true","1","144.36","15.36","3","-1","1","","","","","","","","","","","","",""
"psychophysics","64","205553","0.0-8.0-0.17","60f6f802c0ede08f7cf69720","6368f2eea3e9634aebcc2f6b","636b4684d2164af28067094c","565.6999999284744","","","","39","","","","key","16.66866666666684","768","361","true","1","144.36","12.287999999999998","4","-1","-1","","","","","","","","","","","","",""
"psychophysics","65","207075","0.0-8.0-0.18","60f6f802c0ede08f7cf69720","6368f2eea3e9634aebcc2f6b","636b4684d2164af28067094c","520.5","","","","39","","","","key","16.665999999999997","768","361","true","1","132.072","12.287999999999998","4","-1","-1","","","","","","","","","","","","",""
"psychophysics","66","208693","0.0-8.0-0.19","60f6f802c0ede08f7cf69720","6368f2eea3e9634aebcc2f6b","636b4684d2164af28067094c","615.4000000953674","","","","39","","","","key","16.666093750000073","768","361","true","1","132.072","12.287999999999998","4","-1","-1","","","","","","","","","","","","",""
"psychophysics","67","210494","0.0-8.0-0.20","60f6f802c0ede08f7cf69720","6368f2eea3e9634aebcc2f6b","636b4684d2164af28067094c","798.7999999523163","","","","39","","","","key","16.667551401869023","768","361","true","1","129","12.287999999999998","4","-1","-1","","","","","","","","","","","","",""
"psychophysics","68","212466","0.0-8.0-0.21","60f6f802c0ede08f7cf69720","6368f2eea3e9634aebcc2f6b","636b4684d2164af28067094c","969.8999999761581","","","","39","","","","key","16.668623931623863","768","361","true","1","129","12.287999999999998","4","-1","-1","","","","","","","","","","","","",""
"psychophysics","69","214219","0.0-8.0-0.22","60f6f802c0ede08f7cf69720","6368f2eea3e9634aebcc2f6b","636b4684d2164af28067094c","751.6999999284744","","","","39","","","","key","16.667134615384732","768","361","true","-1","129","9.8304","5","1","-1","","","","","","","","","","","","",""
"psychophysics","70","215975","0.0-8.0-0.23","60f6f802c0ede08f7cf69720","6368f2eea3e9634aebcc2f6b","636b4684d2164af28067094c","754.3999999761581","","","","39","","","","key","16.669133333333523","768","361","true","1","138.8304","9.8304","5","-1","1","","","","","","","","","","","","",""
"psychophysics","71","217502","0.0-8.0-0.24","60f6f802c0ede08f7cf69720","6368f2eea3e9634aebcc2f6b","636b4684d2164af28067094c","526.2999999523163","","","","37","","","","key","16.66655555555545","768","361","true","-1","138.8304","7.864319999999999","6","-1","-1","","","","","","","","","","","","",""
"psychophysics","72","219241","0.0-8.0-0.25","60f6f802c0ede08f7cf69720","6368f2eea3e9634aebcc2f6b","636b4684d2164af28067094c","737","","","","37","","","","key","16.668038461538416","768","361","true","-1","130.96608","7.864319999999999","6","-1","-1","","","","","","","","","","","","",""
"psychophysics","73","221150","0.0-8.0-0.26","60f6f802c0ede08f7cf69720","6368f2eea3e9634aebcc2f6b","636b4684d2164af28067094c","907.2000000476837","","","","37","","","","key","16.66632743362843","768","361","true","-1","130.96608","7.864319999999999","6","-1","-1","","","","","","","","","","","","",""
"psychophysics","74","222978","0.0-8.0-0.27","60f6f802c0ede08f7cf69720","6368f2eea3e9634aebcc2f6b","636b4684d2164af28067094c","824.8999999761581","","","","37","","","","key","16.670091743119073","768","361","true","1","129","6.291456","7","1","-1","","","","","","","","","","","","",""
"psychophysics","75","224495","0.0-8.0-0.28","60f6f802c0ede08f7cf69720","6368f2eea3e9634aebcc2f6b","636b4684d2164af28067094c","515.6000000238419","","","","39","","","","key","16.66453333333322","768","361","true","1","135.291456","6.291456","7","-1","1","","","","","","","","","","","","",""
"psychophysics","76","225942","0.0-8.0-0.29","60f6f802c0ede08f7cf69720","6368f2eea3e9634aebcc2f6b","636b4684d2164af28067094c","445.2999999523163","","","","37","","","","key","16.666767441860515","768","361","true","-1","135.291456","5.033164800000001","8","-1","-1","","","","","","","","","","","","",""
"psychophysics","77","227251","0.0-8.0-0.30","60f6f802c0ede08f7cf69720","6368f2eea3e9634aebcc2f6b","636b4684d2164af28067094c","306.5","","","","39","","","","key","16.671155844155894","768","361","true","1","130.2582912","5.033164800000001","8","-1","-1","","","","","","","","","","","","",""
"psychophysics","78","228997","0.0-8.0-0.31","60f6f802c0ede08f7cf69720","6368f2eea3e9634aebcc2f6b","636b4684d2164af28067094c","743.5","","","","39","","","","key","16.66556730769242","768","361","true","-1","130.2582912","4.0265318400000005","9","1","-1","","","","","","","","","","","","",""
"psychophysics","79","230625","0.0-8.0-0.32","60f6f802c0ede08f7cf69720","6368f2eea3e9634aebcc2f6b","636b4684d2164af28067094c","626.8999999761581","","","","37","","","","key","16.66599999999984","768","361","true","-1","134.28482304","4.0265318400000005","9","-1","1","","","","","","","","","","","","",""
"psychophysics","80","232137","0.0-8.0-0.33","60f6f802c0ede08f7cf69720","6368f2eea3e9634aebcc2f6b","636b4684d2164af28067094c","510","","","","37","","","","key","16.66746067415741","768","361","true","-1","134.28482304","3.2212254720000004","10","-1","-1","","","","","","","","","","","","",""
"psychophysics","81","233808","0.0-8.0-0.34","60f6f802c0ede08f7cf69720","6368f2eea3e9634aebcc2f6b","636b4684d2164af28067094c","670.3999999761581","","","","37","","","","key","16.666659999999975","768","361","true","1","131.06359756799998","2.5769803776000004","11","1","-1","","","","","","","","","","","","",""
"psychophysics","82","235506","0.0-8.0-0.35","60f6f802c0ede08f7cf69720","6368f2eea3e9634aebcc2f6b","636b4684d2164af28067094c","694.6999999284744","","","","37","","","","key","16.664712871287115","768","361","true","-1","133.64057794559997","2.5769803776000004","11","-1","1","","","","","","","","","","","","",""
"psychophysics","83","236979","0.0-8.0-0.36","60f6f802c0ede08f7cf69720","6368f2eea3e9634aebcc2f6b","636b4684d2164af28067094c","469.89999997615814","","","","39","","","","key","16.666862068965766","768","361","true","1","133.64057794559997","2.0615843020800004","12","-1","-1","","","","","","","","","","","","",""
"psychophysics","84","239114","0.0-8.0-0.37","60f6f802c0ede08f7cf69720","6368f2eea3e9634aebcc2f6b","636b4684d2164af28067094c","1134.3999999761581","","","","39","","","","key","16.6657480314962","768","361","true","1","131.57899364351996","2.0615843020800004","12","-1","-1","","","","","","","","","","","","",""
"psychophysics","85","240539","0.0-8.0-0.38","60f6f802c0ede08f7cf69720","6368f2eea3e9634aebcc2f6b","636b4684d2164af28067094c","422.40000009536743","","","","39","","","","key","16.667000000000083","768","361","true","1","131.57899364351996","2.0615843020800004","12","-1","-1","","","","","","","","","","","","",""
"psychophysics","86","242126","0.0-8.0-0.39","60f6f802c0ede08f7cf69720","6368f2eea3e9634aebcc2f6b","636b4684d2164af28067094c","585.2000000476837","","","","39","","","","key","16.668021276595685","768","361","true","-1","129.51740934143996","1.6492674416640005","13","1","-1","","","","","","","","","","","","",""
"html-keyboard-response","87","262228","0.0-9.0","60f6f802c0ede08f7cf69720","6368f2eea3e9634aebcc2f6b","636b4684d2164af28067094c","20100.600000023842","<p>Well Done !</p><p>Prepare for a new block.</p><p>DON'T EXIT THE FULL SCREEN MODE</p><p>Press the Spacebar to start.</p>","","","32","","","","","","","","","","","","","","","true","132.10809670451198","","","","","","","","","","",""
"psychophysics","88","263259","0.0-10.0-0.0","60f6f802c0ede08f7cf69720","6368f2eea3e9634aebcc2f6b","636b4684d2164af28067094c","28.600000023841858","","","","39","","","","key","16.66639344262333","768","361","true","1","180","30","0","-1","","","","","","","","","","","","","",""
"psychophysics","89","264647","0.0-10.0-0.1","60f6f802c0ede08f7cf69720","6368f2eea3e9634aebcc2f6b","636b4684d2164af28067094c","385.8000000715256","","","","39","","","","key","16.663914634146238","768","361","true","1","180","30","0","-1","-1","","","","","","","","","","","","",""
"psychophysics","90","265950","0.0-10.0-0.2","60f6f802c0ede08f7cf69720","6368f2eea3e9634aebcc2f6b","636b4684d2164af28067094c","301.89999997615814","","","","37","","","","key","16.66566233766226","768","361","true","-1","150","30","0","-1","-1","","","","","","","","","","","","",""
"psychophysics","91","267257","0.0-10.0-0.3","60f6f802c0ede08f7cf69720","6368f2eea3e9634aebcc2f6b","636b4684d2164af28067094c","306.2000000476837","","","","37","","","","key","16.66560256410202","768","361","true","-1","150","30","0","-1","-1","","","","","","","","","","","","",""
"psychophysics","92","269065","0.0-10.0-0.4","60f6f802c0ede08f7cf69720","6368f2eea3e9634aebcc2f6b","636b4684d2164af28067094c","806.2999999523163","","","","37","","","","key","16.668392523364318","768","361","true","1","129","24","1","1","-1","","","","","","","","","","","","",""
"psychophysics","93","270389","0.0-10.0-0.5","60f6f802c0ede08f7cf69720","6368f2eea3e9634aebcc2f6b","636b4684d2164af28067094c","322.39999997615814","","","","37","","","","key","16.66705063291121","768","361","true","-1","153","24","1","-1","1","","","","","","","","","","","","",""
"psychophysics","94","271701","0.0-10.0-0.6","60f6f802c0ede08f7cf69720","6368f2eea3e9634aebcc2f6b","636b4684d2164af28067094c","311.1999999284744","","","","39","","","","key","16.666948051948566","768","361","true","1","153","19.2","2","-1","-1","","","","","","","","","","","","",""
"psychophysics","95","273024","0.0-10.0-0.7","60f6f802c0ede08f7cf69720","6368f2eea3e9634aebcc2f6b","636b4684d2164af28067094c","321.8000000715256","","","","37","","","","key","16.663822784810623","768","361","true","-1","133.8","19.2","2","-1","-1","","","","","","","","","","","","",""
"psychophysics","96","274211","0.0-10.0-0.8","60f6f802c0ede08f7cf69720","6368f2eea3e9634aebcc2f6b","636b4684d2164af28067094c","185.5","","","","37","","","","key","16.66318571428502","768","361","true","-1","133.8","19.2","2","-1","-1","","","","","","","","","","","","",""
"psychophysics","97","275843","0.0-10.0-0.9","60f6f802c0ede08f7cf69720","6368f2eea3e9634aebcc2f6b","636b4684d2164af28067094c","629.2000000476837","","","","37","","","","key","16.66778350515488","768","361","true","-1","129","19.2","2","-1","-1","","","","","","","","","","","","",""
"psychophysics","98","277540","0.0-10.0-0.10","60f6f802c0ede08f7cf69720","6368f2eea3e9634aebcc2f6b","636b4684d2164af28067094c","694.2999999523163","","","","39","","","","key","16.667821782177757","768","361","true","1","129","19.2","2","-1","-1","","","","","","","","","","","","",""
"psychophysics","99","279577","0.0-10.0-0.11","60f6f802c0ede08f7cf69720","6368f2eea3e9634aebcc2f6b","636b4684d2164af28067094c","1034.3999999761581","","","","39","","","","key","16.66613223140507","768","361","true","1","129","19.2","2","-1","-1","","","","","","","","","","","","",""
"psychophysics","100","281173","0.0-10.0-0.12","60f6f802c0ede08f7cf69720","6368f2eea3e9634aebcc2f6b","636b4684d2164af28067094c","594.3999999761581","","","","39","","","","key","16.665505263157876","768","361","true","1","129","19.2","2","-1","-1","","","","","","","","","","","","",""
"psychophysics","101","282956","0.0-10.0-0.13","60f6f802c0ede08f7cf69720","6368f2eea3e9634aebcc2f6b","636b4684d2164af28067094c","781","","","","39","","","","key","16.667254716981606","768","361","true","1","129","19.2","2","-1","-1","","","","","","","","","","","","",""
"psychophysics","102","284825","0.0-10.0-0.14","60f6f802c0ede08f7cf69720","6368f2eea3e9634aebcc2f6b","636b4684d2164af28067094c","866.1000000238419","","","","39","","","","key","16.670009009008872","768","361","true","-1","129","15.36","3","1","-1","","","","","","","","","","","","",""
"psychophysics","103","286351","0.0-10.0-0.15","60f6f802c0ede08f7cf69720","6368f2eea3e9634aebcc2f6b","636b4684d2164af28067094c","524.8000000715256","","","","37","","","","key","16.668366666666568","768","361","true","-1","144.36","15.36","3","-1","1","","","","","","","","","","","","",""
"psychophysics","104","287699","0.0-10.0-0.16","60f6f802c0ede08f7cf69720","6368f2eea3e9634aebcc2f6b","636b4684d2164af28067094c","345.89999997615814","","","","37","","","","key","16.667174999999407","768","361","true","-1","144.36","12.287999999999998","4","-1","-1","","","","","","","","","","","","",""
"psychophysics","105","290594","0.0-10.0-0.17","60f6f802c0ede08f7cf69720","6368f2eea3e9634aebcc2f6b","636b4684d2164af28067094c","1891.8999999761581","","","","39","","","","key","16.665491329479796","768","361","true","1","132.072","12.287999999999998","4","-1","-1","","","","","","","","","","","","",""
"psychophysics","106","292372","0.0-10.0-0.18","60f6f802c0ede08f7cf69720","6368f2eea3e9634aebcc2f6b","636b4684d2164af28067094c","775.5","","","","39","","","","key","16.665990566038023","768","361","true","-1","132.072","9.8304","5","1","-1","","","","","","","","","","","","",""
"psychophysics","107","293764","0.0-10.0-0.19","60f6f802c0ede08f7cf69720","6368f2eea3e9634aebcc2f6b","636b4684d2164af28067094c","389.7000000476837","","","","37","","","","key","16.66396341463352","768","361","true","-1","141.9024","9.8304","5","-1","1","","","","","","","","","","","","",""
"psychophysics","108","295129","0.0-10.0-0.20","60f6f802c0ede08f7cf69720","6368f2eea3e9634aebcc2f6b","636b4684d2164af28067094c","363.7000000476837","","","","37","","","","key","16.665061728395724","768","361","true","-1","141.9024","7.864319999999999","6","-1","-1","","","","","","","","","","","","",""
"psychophysics","109","296420","0.0-10.0-0.21","60f6f802c0ede08f7cf69720","6368f2eea3e9634aebcc2f6b","636b4684d2164af28067094c","289.8000000715256","","","","37","","","","key","16.666736842105532","768","361","true","-1","134.03808","7.864319999999999","6","-1","-1","","","","","","","","","","","","",""
"psychophysics","110","298706","0.0-10.0-0.22","60f6f802c0ede08f7cf69720","6368f2eea3e9634aebcc2f6b","636b4684d2164af28067094c","1284","","","","39","","","","key","16.666664233576526","768","361","true","1","134.03808","7.864319999999999","6","-1","-1","","","","","","","","","","","","",""
"psychophysics","111","300568","0.0-10.0-0.23","60f6f802c0ede08f7cf69720","6368f2eea3e9634aebcc2f6b","636b4684d2164af28067094c","860.5","","","","39","","","","key","16.66531818181816","768","361","true","-1","129","6.291456","7","1","-1","","","","","","","","","","","","",""
"psychophysics","112","302122","0.0-10.0-0.24","60f6f802c0ede08f7cf69720","6368f2eea3e9634aebcc2f6b","636b4684d2164af28067094c","552","","","","39","","","","key","16.663376344086213","768","361","true","1","135.291456","6.291456","7","-1","1","","","","","","","","","","","","",""
"psychophysics","113","303533","0.0-10.0-0.25","60f6f802c0ede08f7cf69720","6368f2eea3e9634aebcc2f6b","636b4684d2164af28067094c","409.7000000476837","","","","39","","","","key","16.66440963855431","768","361","true","1","135.291456","5.033164800000001","8","-1","-1","","","","","","","","","","","","",""
"psychophysics","114","305456","0.0-10.0-0.26","60f6f802c0ede08f7cf69720","6368f2eea3e9634aebcc2f6b","636b4684d2164af28067094c","921.5","","","","39","","","","key","16.66417391304352","768","361","true","1","130.2582912","5.033164800000001","8","-1","-1","","","","","","","","","","","","",""
"psychophysics","115","307103","0.0-10.0-0.27","60f6f802c0ede08f7cf69720","6368f2eea3e9634aebcc2f6b","636b4684d2164af28067094c","643.3000000715256","","","","39","","","","key","16.667556701031195","768","361","true","1","130.2582912","5.033164800000001","8","-1","-1","","","","","","","","","","","","",""
"psychophysics","116","308730","0.0-10.0-0.28","60f6f802c0ede08f7cf69720","6368f2eea3e9634aebcc2f6b","636b4684d2164af28067094c","626.1000000238419","","","","39","","","","key","16.66592783505126","768","361","true","1","129","5.033164800000001","8","-1","-1","","","","","","","","","","","","",""
"psychophysics","117","310426","0.0-10.0-0.29","60f6f802c0ede08f7cf69720","6368f2eea3e9634aebcc2f6b","636b4684d2164af28067094c","695.1999999284744","","","","39","","","","key","16.666000000000032","768","361","true","-1","129","4.0265318400000005","9","1","-1","","","","","","","","","","","","",""
"psychophysics","118","312115","0.0-10.0-0.30","60f6f802c0ede08f7cf69720","6368f2eea3e9634aebcc2f6b","636b4684d2164af28067094c","687.7000000476837","","","","39","","","","key","16.66639999999956","768","361","true","-1","133.02653184","4.0265318400000005","9","1","1","","","","","","","","","","","","",""
"psychophysics","119","313557","0.0-10.0-0.31","60f6f802c0ede08f7cf69720","6368f2eea3e9634aebcc2f6b","636b4684d2164af28067094c","440.2999999523163","","","","39","","","","key","16.666558139534466","768","361","true","1","137.05306367999998","4.0265318400000005","9","-1","1","","","","","","","","","","","","",""
"psychophysics","120","314909","0.0-10.0-0.32","60f6f802c0ede08f7cf69720","6368f2eea3e9634aebcc2f6b","636b4684d2164af28067094c","349.3000000715256","","","","37","","","","key","16.665712499999792","768","361","true","-1","137.05306367999998","3.2212254720000004","10","-1","-1","","","","","","","","","","","","",""
"psychophysics","121","317015","0.0-10.0-0.33","60f6f802c0ede08f7cf69720","6368f2eea3e9634aebcc2f6b","636b4684d2164af28067094c","1104.2000000476837","","","","39","","","","key","16.667487999999896","768","361","true","1","133.83183820799997","3.2212254720000004","10","-1","-1","","","","","","","","","","","","",""
"psychophysics","122","318843","0.0-10.0-0.34","60f6f802c0ede08f7cf69720","6368f2eea3e9634aebcc2f6b","636b4684d2164af28067094c","826.3999999761581","","","","39","","","","key","16.66793577981645","768","361","true","-1","133.83183820799997","2.5769803776000004","11","1","-1","","","","","","","","","","","","",""
"psychophysics","123","320430","0.0-10.0-0.35","60f6f802c0ede08f7cf69720","6368f2eea3e9634aebcc2f6b","636b4684d2164af28067094c","585.7999999523163","","","","37","","","","key","16.666382978722933","768","361","true","-1","136.40881858559996","2.5769803776000004","11","-1","1","","","","","","","","","","","","",""
"psychophysics","124","321783","0.0-10.0-0.36","60f6f802c0ede08f7cf69720","6368f2eea3e9634aebcc2f6b","636b4684d2164af28067094c","350.3000000715256","","","","37","","","","key","16.666487500000223","768","361","true","-1","136.40881858559996","2.0615843020800004","12","-1","-1","","","","","","","","","","","","",""
"psychophysics","125","322847","0.0-10.0-0.37","60f6f802c0ede08f7cf69720","6368f2eea3e9634aebcc2f6b","636b4684d2164af28067094c","62.700000047683716","","","","39","","","","key","16.67063492063492","768","361","true","1","134.34723428351995","2.0615843020800004","12","-1","-1","","","","","","","","","","","","",""
"psychophysics","126","324429","0.0-10.0-0.38","60f6f802c0ede08f7cf69720","6368f2eea3e9634aebcc2f6b","636b4684d2164af28067094c","580.1999999284744","","","","39","","","","key","16.67005319148983","768","361","true","1","134.34723428351995","2.0615843020800004","12","-1","-1","","","","","","","","","","","","",""
"psychophysics","127","326141","0.0-10.0-0.39","60f6f802c0ede08f7cf69720","6368f2eea3e9634aebcc2f6b","636b4684d2164af28067094c","710.8000000715256","","","","39","","","","key","16.66631372548998","768","361","true","1","132.28564998143995","2.0615843020800004","12","-1","-1","","","","","","","","","","","","",""
"html-keyboard-response","128","328359","0.0-11.0","60f6f802c0ede08f7cf69720","6368f2eea3e9634aebcc2f6b","636b4684d2164af28067094c","2216.600000023842","<p>Well Done !</p><p>Prepare for a new block.</p><p>DON'T EXIT THE FULL SCREEN MODE</p><p>Press the Spacebar to start.</p>","","","32","","","","","","","","","","","","","","","true","133.49347531571195","","","","","","","","","","",""
"psychophysics","129","329371","0.0-12.0-0.0","60f6f802c0ede08f7cf69720","6368f2eea3e9634aebcc2f6b","636b4684d2164af28067094c","8.100000023841858","","","","39","","","","key","16.66600000000035","768","361","true","1","180","30","0","-1","","","","","","","","","","","","","",""
"psychophysics","130","330803","0.0-12.0-0.1","60f6f802c0ede08f7cf69720","6368f2eea3e9634aebcc2f6b","636b4684d2164af28067094c","431","","","","37","","","","key","16.66581176470568","768","361","true","-1","180","30","0","-1","-1","","","","","","","","","","","","",""
"psychophysics","131","332091","0.0-12.0-0.2","60f6f802c0ede08f7cf69720","6368f2eea3e9634aebcc2f6b","636b4684d2164af28067094c","285.60000002384186","","","","37","","","","key","16.67209090909077","768","361","true","-1","150","30","0","-1","-1","","","","","","","","","","","","",""
"psychophysics","132","333599","0.0-12.0-0.3","60f6f802c0ede08f7cf69720","6368f2eea3e9634aebcc2f6b","636b4684d2164af28067094c","506.39999997615814","","","","39","","","","key","16.66524719101118","768","361","true","1","150","30","0","-1","-1","","","","","","","","","","","","",""
"psychophysics","133","335466","0.0-12.0-0.4","60f6f802c0ede08f7cf69720","6368f2eea3e9634aebcc2f6b","636b4684d2164af28067094c","865","","","","39","","","","key","16.667855855856228","768","361","true","1","129","30","0","-1","-1","","","","","","","","","","","","",""
"psychophysics","134","337123","0.0-12.0-0.5","60f6f802c0ede08f7cf69720","6368f2eea3e9634aebcc2f6b","636b4684d2164af28067094c","655","","","","39","","","","key","16.66688888888886","768","361","true","1","129","30","0","-1","-1","","","","","","","","","","","","",""
"psychophysics","135","339101","0.0-12.0-0.6","60f6f802c0ede08f7cf69720","6368f2eea3e9634aebcc2f6b","636b4684d2164af28067094c","974.7999999523163","","","","39","","","","key","16.664042735042976","768","361","true","-1","129","24","1","1","-1","","","","","","","","","","","","",""
"psychophysics","136","340598","0.0-12.0-0.7","60f6f802c0ede08f7cf69720","6368f2eea3e9634aebcc2f6b","636b4684d2164af28067094c","495.2000000476837","","","","37","","","","key","16.666539325842535","768","361","true","-1","153","24","1","-1","1","","","","","","","","","","","","",""
"psychophysics","137","341955","0.0-12.0-0.8","60f6f802c0ede08f7cf69720","6368f2eea3e9634aebcc2f6b","636b4684d2164af28067094c","355.8000000715256","","","","39","","","","key","16.66355555555582","768","361","true","1","153","19.2","2","-1","-1","","","","","","","","","","","","",""
"psychophysics","138","343313","0.0-12.0-0.9","60f6f802c0ede08f7cf69720","6368f2eea3e9634aebcc2f6b","636b4684d2164af28067094c","357.09999990463257","","","","39","","","","key","16.667262499999925","768","361","true","1","133.8","19.2","2","-1","-1","","","","","","","","","","","","",""
"psychophysics","139","344461","0.0-12.0-0.10","60f6f802c0ede08f7cf69720","6368f2eea3e9634aebcc2f6b","636b4684d2164af28067094c","145.89999997615814","","","","39","","","","key","16.666705882353092","768","361","true","1","133.8","19.2","2","-1","-1","","","","","","","","","","","","",""
"psychophysics","140","346114","0.0-12.0-0.11","60f6f802c0ede08f7cf69720","6368f2eea3e9634aebcc2f6b","636b4684d2164af28067094c","650.3999999761581","","","","39","","","","key","16.668051020407987","768","361","true","-1","129","15.36","3","1","-1","","","","","","","","","","","","",""
"psychophysics","141","347492","0.0-12.0-0.12","60f6f802c0ede08f7cf69720","6368f2eea3e9634aebcc2f6b","636b4684d2164af28067094c","377","","","","37","","","","key","16.665731707316677","768","361","true","-1","144.36","15.36","3","-1","1","","","","","","","","","","","","",""
"psychophysics","142","348854","0.0-12.0-0.13","60f6f802c0ede08f7cf69720","6368f2eea3e9634aebcc2f6b","636b4684d2164af28067094c","361.2000000476837","","","","37","","","","key","16.665237499999783","768","361","true","-1","144.36","12.287999999999998","4","-1","-1","","","","","","","","","","","","",""
"psychophysics","143","350937","0.0-12.0-0.14","60f6f802c0ede08f7cf69720","6368f2eea3e9634aebcc2f6b","636b4684d2164af28067094c","1081","","","","37","","","","key","16.667298387096736","768","361","true","1","132.072","9.8304","5","1","-1","","","","","","","","","","","","",""
"psychophysics","144","352294","0.0-12.0-0.15","60f6f802c0ede08f7cf69720","6368f2eea3e9634aebcc2f6b","636b4684d2164af28067094c","355.7000000476837","","","","39","","","","key","16.666901234568265","768","361","true","1","141.9024","9.8304","5","-1","1","","","","","","","","","","","","",""
"psychophysics","145","353631","0.0-12.0-0.16","60f6f802c0ede08f7cf69720","6368f2eea3e9634aebcc2f6b","636b4684d2164af28067094c","335.39999997615814","","","","39","","","","key","16.666632911392277","768","361","true","1","141.9024","7.864319999999999","6","-1","-1","","","","","","","","","","","","",""
"psychophysics","146","354910","0.0-12.0-0.17","60f6f802c0ede08f7cf69720","6368f2eea3e9634aebcc2f6b","636b4684d2164af28067094c","277","","","","39","","","","key","16.664618421052612","768","361","true","1","134.03808","7.864319999999999","6","-1","-1","","","","","","","","","","","","",""
"psychophysics","147","356252","0.0-12.0-0.18","60f6f802c0ede08f7cf69720","6368f2eea3e9634aebcc2f6b","636b4684d2164af28067094c","341.2999999523163","","","","37","","","","key","16.665569620253372","768","361","true","-1","134.03808","7.864319999999999","6","-1","-1","","","","","","","","","","","","",""
"psychophysics","148","357800","0.0-12.0-0.19","60f6f802c0ede08f7cf69720","6368f2eea3e9634aebcc2f6b","636b4684d2164af28067094c","546.1000000238419","","","","37","","","","key","16.668032608695363","768","361","true","-1","129","7.864319999999999","6","-1","-1","","","","","","","","","","","","",""
"psychophysics","149","359527","0.0-12.0-0.20","60f6f802c0ede08f7cf69720","6368f2eea3e9634aebcc2f6b","636b4684d2164af28067094c","725.2999999523163","","","","37","","","","key","16.665330097087754","768","361","true","1","129","6.291456","7","1","-1","","","","","","","","","","","","",""
"psychophysics","150","361060","0.0-12.0-0.21","60f6f802c0ede08f7cf69720","6368f2eea3e9634aebcc2f6b","636b4684d2164af28067094c","531.2000000476837","","","","39","","","","key","16.664868131867777","768","361","true","1","135.291456","6.291456","7","-1","1","","","","","","","","","","","","",""
"psychophysics","151","362462","0.0-12.0-0.22","60f6f802c0ede08f7cf69720","6368f2eea3e9634aebcc2f6b","636b4684d2164af28067094c","400.5","","","","37","","","","key","16.667807228915837","768","361","true","-1","135.291456","5.033164800000001","8","-1","-1","","","","","","","","","","","","",""
"psychophysics","152","364629","0.0-12.0-0.23","60f6f802c0ede08f7cf69720","6368f2eea3e9634aebcc2f6b","636b4684d2164af28067094c","1164.7999999523163","","","","37","","","","key","16.668209302325753","768","361","true","1","130.2582912","4.0265318400000005","9","1","-1","","","","","","","","","","","","",""
"psychophysics","153","366061","0.0-12.0-0.24","60f6f802c0ede08f7cf69720","6368f2eea3e9634aebcc2f6b","636b4684d2164af28067094c","430.89999997615814","","","","37","","","","key","16.665129411764962","768","361","true","-1","134.28482304","4.0265318400000005","9","-1","1","","","","","","","","","","","","",""
"psychophysics","154","367524","0.0-12.0-0.25","60f6f802c0ede08f7cf69720","6368f2eea3e9634aebcc2f6b","636b4684d2164af28067094c","460.39999997615814","","","","37","","","","key","16.66597701149428","768","361","true","-1","134.28482304","3.2212254720000004","10","-1","-1","","","","","","","","","","","","",""
"psychophysics","155","369106","0.0-12.0-0.26","60f6f802c0ede08f7cf69720","6368f2eea3e9634aebcc2f6b","636b4684d2164af28067094c","580.7000000476837","","","","37","","","","key","16.663904255319217","768","361","true","-1","131.06359756799998","3.2212254720000004","10","-1","-1","","","","","","","","","","","","",""
"psychophysics","156","370694","0.0-12.0-0.27","60f6f802c0ede08f7cf69720","6368f2eea3e9634aebcc2f6b","636b4684d2164af28067094c","585.3999999761581","","","","37","","","","key","16.66578723404227","768","361","true","-1","131.06359756799998","3.2212254720000004","10","-1","-1","","","","","","","","","","","","",""
"psychophysics","157","372527","0.0-12.0-0.28","60f6f802c0ede08f7cf69720","6368f2eea3e9634aebcc2f6b","636b4684d2164af28067094c","831.5","","","","37","","","","key","16.66642201834875","768","361","true","1","129","2.5769803776000004","11","1","-1","","","","","","","","","","","","",""
"psychophysics","158","373955","0.0-12.0-0.29","60f6f802c0ede08f7cf69720","6368f2eea3e9634aebcc2f6b","636b4684d2164af28067094c","426.2000000476837","","","","37","","","","key","16.665517647059033","768","361","true","1","131.5769803776","2.5769803776000004","11","1","1","","","","","","","","","","","","",""
"psychophysics","159","375411","0.0-12.0-0.30","60f6f802c0ede08f7cf69720","6368f2eea3e9634aebcc2f6b","636b4684d2164af28067094c","454.59999990463257","","","","37","","","","key","16.666279069767306","768","361","true","-1","134.1539607552","2.5769803776000004","11","-1","1","","","","","","","","","","","","",""
"psychophysics","160","376970","0.0-12.0-0.31","60f6f802c0ede08f7cf69720","6368f2eea3e9634aebcc2f6b","636b4684d2164af28067094c","557.2000000476837","","","","37","","","","key","16.667380434782345","768","361","true","1","134.1539607552","2.0615843020800004","12","1","-1","","","","","","","","","","","","",""
"psychophysics","161","378366","0.0-12.0-0.32","60f6f802c0ede08f7cf69720","6368f2eea3e9634aebcc2f6b","636b4684d2164af28067094c","395.40000009536743","","","","37","","","","key","16.66646987951784","768","361","true","-1","136.21554505728","2.0615843020800004","12","-1","1","","","","","","","","","","","","",""
"psychophysics","162","379774","0.0-12.0-0.33","60f6f802c0ede08f7cf69720","6368f2eea3e9634aebcc2f6b","636b4684d2164af28067094c","405.89999997615814","","","","37","","","","key","16.667869047618645","768","361","true","-1","136.21554505728","1.6492674416640005","13","-1","-1","","","","","","","","","","","","",""
"psychophysics","163","381177","0.0-12.0-0.34","60f6f802c0ede08f7cf69720","6368f2eea3e9634aebcc2f6b","636b4684d2164af28067094c","400.2999999523163","","","","37","","","","key","16.668277108433784","768","361","true","-1","134.566277615616","1.6492674416640005","13","-1","-1","","","","","","","","","","","","",""
"psychophysics","164","382271","0.0-12.0-0.35","60f6f802c0ede08f7cf69720","6368f2eea3e9634aebcc2f6b","636b4684d2164af28067094c","92.39999997615814","","","","39","","","","key","16.667984374999833","768","361","true","1","134.566277615616","1.6492674416640005","13","-1","-1","","","","","","","","","","","","",""
"psychophysics","165","384053","0.0-12.0-0.36","60f6f802c0ede08f7cf69720","6368f2eea3e9634aebcc2f6b","636b4684d2164af28067094c","781.7999999523163","","","","39","","","","key","16.667754716981193","768","361","true","-1","132.917010173952","1.3194139533312006","14","1","-1","","","","","","","","","","","","",""
"psychophysics","166","385525","0.0-12.0-0.37","60f6f802c0ede08f7cf69720","6368f2eea3e9634aebcc2f6b","636b4684d2164af28067094c","470.10000002384186","","","","39","","","","key","16.666874999999973","768","361","true","1","134.23642412728321","1.3194139533312006","14","-1","1","","","","","","","","","","","","",""
"psychophysics","167","387068","0.0-12.0-0.38","60f6f802c0ede08f7cf69720","6368f2eea3e9634aebcc2f6b","636b4684d2164af28067094c","541.1000000238419","","","","37","","","","key","16.665681318681212","768","361","true","-1","134.23642412728321","1.0555311626649604","15","-1","-1","","","","","","","","","","","","",""
"psychophysics","168","389199","0.0-12.0-0.39","60f6f802c0ede08f7cf69720","6368f2eea3e9634aebcc2f6b","636b4684d2164af28067094c","1129.6000000238419","","","","39","","","","key","16.664393700787148","768","361","true","1","133.18089296461827","1.0555311626649604","15","-1","-1","","","","","","","","","","","","",""
"html-keyboard-response","169","390953","0.0-13.0","60f6f802c0ede08f7cf69720","6368f2eea3e9634aebcc2f6b","636b4684d2164af28067094c","1752.6000000238419","<p>Well Done !</p><p>Prepare for a new block.</p><p>DON'T EXIT THE FULL SCREEN MODE</p><p>Press the Spacebar to start.</p>","","","32","","","","","","","","","","","","","","","true","133.42875445352857","","","","","","","","","","",""
"html-keyboard-response","170","391068","0.0-14.0","60f6f802c0ede08f7cf69720","6368f2eea3e9634aebcc2f6b","636b4684d2164af28067094c","null","","","","null","","","","","","","","","","","","","","","","","133.00460070938212","true","138.00920141876423","","","","","","","",""
"instructions","171","424697","0.0-15.0","60f6f802c0ede08f7cf69720","6368f2eea3e9634aebcc2f6b","636b4684d2164af28067094c","33626.89999997616","","","","","","","[{""page_index"":0,""viewing_time"":25858.799999952316},{""page_index"":1,""viewing_time"":2935.5},{""page_index"":2,""viewing_time"":4832.299999952316}]","","","","","","","","","","","","","","","","","","","","","","","",""
"psychophysics","172","427713","0.0-16.0-0.0","60f6f802c0ede08f7cf69720","6368f2eea3e9634aebcc2f6b","636b4684d2164af28067094c","null","","","","null","","","","key","16.668683333333078","768","361","","","","","","","","","","","","","","","","","","","",""
"psychophysics","173","428216","0.0-16.0-1.0","60f6f802c0ede08f7cf69720","6368f2eea3e9634aebcc2f6b","636b4684d2164af28067094c","null","","","","null","","","","key","16.666827586206512","768","361","","","","","","","","","","","","","138","-1","5","false","","","",""
"psychophysics","174","430346","0.0-16.0-2.0","60f6f802c0ede08f7cf69720","6368f2eea3e9634aebcc2f6b","636b4684d2164af28067094c","2129","","","","77","","","","key","16.664992125984007","768","361","","","","","","","","","","","","","","","","","","","",""
"psychophysics","175","431348","0.0-16.0-0.1","60f6f802c0ede08f7cf69720","6368f2eea3e9634aebcc2f6b","636b4684d2164af28067094c","null","","","","null","","","","key","16.665169491525344","768","361","","","","","","","","","","","","","","","","","","","",""
"psychophysics","176","431850","0.0-16.0-1.1","60f6f802c0ede08f7cf69720","6368f2eea3e9634aebcc2f6b","636b4684d2164af28067094c","null","","","","null","","","","key","16.667413793102806","768","361","","","","","","","","","","","","","138","1","3","false","","","",""
"psychophysics","177","432823","0.0-16.0-2.1","60f6f802c0ede08f7cf69720","6368f2eea3e9634aebcc2f6b","636b4684d2164af28067094c","971.8999999761581","","","","90","","","","key","16.666396551724354","768","361","","","","","","","","","","","","","","","","","","","",""
"psychophysics","178","433825","0.0-16.0-0.2","60f6f802c0ede08f7cf69720","6368f2eea3e9634aebcc2f6b","636b4684d2164af28067094c","null","","","","null","","","","key","16.662271186441057","768","361","","","","","","","","","","","","","","","","","","","",""
"psychophysics","179","434326","0.0-16.0-1.2","60f6f802c0ede08f7cf69720","6368f2eea3e9634aebcc2f6b","636b4684d2164af28067094c","null","","","","null","","","","key","16.66265517241394","768","361","","","","","","","","","","","","","138","1","0","false","","","",""
"psychophysics","180","435895","0.0-16.0-2.2","60f6f802c0ede08f7cf69720","6368f2eea3e9634aebcc2f6b","636b4684d2164af28067094c","1567.6999999284744","","","","90","","","","key","16.66562365591451","768","361","","","","","","","","","","","","","","","","","","","",""
"psychophysics","181","436896","0.0-16.0-0.3","60f6f802c0ede08f7cf69720","6368f2eea3e9634aebcc2f6b","636b4684d2164af28067094c","null","","","","null","","","","key","16.66622033898257","768","361","","","","","","","","","","","","","","","","","","","",""
"psychophysics","182","437398","0.0-16.0-1.3","60f6f802c0ede08f7cf69720","6368f2eea3e9634aebcc2f6b","636b4684d2164af28067094c","null","","","","null","","","","key","16.67127586206911","768","361","","","","","","","","","","","","","138","1","4","false","","","",""
"psychophysics","183","438890","0.0-16.0-2.3","60f6f802c0ede08f7cf69720","6368f2eea3e9634aebcc2f6b","636b4684d2164af28067094c","1490.7999999523163","","","","90","","","","key","16.665382022471718","768","361","","","","","","","","","","","","","","","","","","","",""
"psychophysics","184","439893","0.0-16.0-0.4","60f6f802c0ede08f7cf69720","6368f2eea3e9634aebcc2f6b","636b4684d2164af28067094c","null","","","","null","","","","key","16.66708474576284","768","361","","","","","","","","","","","","","","","","","","","",""
"psychophysics","185","440394","0.0-16.0-1.4","60f6f802c0ede08f7cf69720","6368f2eea3e9634aebcc2f6b","636b4684d2164af28067094c","null","","","","null","","","","key","16.67241379310345","768","361","","","","","","","","","","","","","138","-1","3","false","","","",""
"psychophysics","186","441141","0.0-16.0-2.4","60f6f802c0ede08f7cf69720","6368f2eea3e9634aebcc2f6b","636b4684d2164af28067094c","745.8000000715256","","","","90","","","","key","16.668159090909864","768","361","","","","","","","","","","","","","","","","","","","",""
"psychophysics","187","442143","0.0-16.0-0.5","60f6f802c0ede08f7cf69720","6368f2eea3e9634aebcc2f6b","636b4684d2164af28067094c","null","","","","null","","","","key","16.66981355932253","768","361","","","","","","","","","","","","","","","","","","","",""
"psychophysics","188","442644","0.0-16.0-1.5","60f6f802c0ede08f7cf69720","6368f2eea3e9634aebcc2f6b","636b4684d2164af28067094c","null","","","","null","","","","key","16.67010344827652","768","361","","","","","","","","","","","","","138","1","6","false","","","",""
"psychophysics","189","443258","0.0-16.0-2.5","60f6f802c0ede08f7cf69720","6368f2eea3e9634aebcc2f6b","636b4684d2164af28067094c","612.6999999284744","","","","77","","","","key","16.666694444444147","768","361","","","","","","","","","","","","","","","","","","","",""
"psychophysics","190","444259","0.0-16.0-0.6","60f6f802c0ede08f7cf69720","6368f2eea3e9634aebcc2f6b","636b4684d2164af28067094c","null","","","","null","","","","key","16.666135593220766","768","361","","","","","","","","","","","","","","","","","","","",""
"psychophysics","191","444760","0.0-16.0-1.6","60f6f802c0ede08f7cf69720","6368f2eea3e9634aebcc2f6b","636b4684d2164af28067094c","null","","","","null","","","","key","16.66186206896412","768","361","","","","","","","","","","","","","138","1","2","false","","","",""
"psychophysics","192","445480","0.0-16.0-2.6","60f6f802c0ede08f7cf69720","6368f2eea3e9634aebcc2f6b","636b4684d2164af28067094c","718.3000000715256","","","","90","","","","key","16.661404761905683","768","361","","","","","","","","","","","","","","","","","","","",""
"psychophysics","193","446481","0.0-16.0-0.7","60f6f802c0ede08f7cf69720","6368f2eea3e9634aebcc2f6b","636b4684d2164af28067094c","null","","","","null","","","","key","16.665932203389474","768","361","","","","","","","","","","","","","","","","","","","",""
"psychophysics","194","446983","0.0-16.0-1.7","60f6f802c0ede08f7cf69720","6368f2eea3e9634aebcc2f6b","636b4684d2164af28067094c","null","","","","null","","","","key","16.65793103448332","768","361","","","","","","","","","","","","","138","-1","6","false","","","",""
"psychophysics","195","448266","0.0-16.0-2.7","60f6f802c0ede08f7cf69720","6368f2eea3e9634aebcc2f6b","636b4684d2164af28067094c","1281.7000000476837","","","","77","","","","key","16.664881578947597","768","361","","","","","","","","","","","","","","","","","","","",""
"psychophysics","196","449267","0.0-16.0-0.8","60f6f802c0ede08f7cf69720","6368f2eea3e9634aebcc2f6b","636b4684d2164af28067094c","null","","","","null","","","","key","16.666779661016395","768","361","","","","","","","","","","","","","","","","","","","",""
"psychophysics","197","449769","0.0-16.0-1.8","60f6f802c0ede08f7cf69720","6368f2eea3e9634aebcc2f6b","636b4684d2164af28067094c","null","","","","null","","","","key","16.661344827586337","768","361","","","","","","","","","","","","","138","-1","0","false","","","",""
"psychophysics","198","450412","0.0-16.0-2.8","60f6f802c0ede08f7cf69720","6368f2eea3e9634aebcc2f6b","636b4684d2164af28067094c","641.8999999761581","","","","90","","","","key","16.66621052631557","768","361","","","","","","","","","","","","","","","","","","","",""
"psychophysics","199","451414","0.0-16.0-0.9","60f6f802c0ede08f7cf69720","6368f2eea3e9634aebcc2f6b","636b4684d2164af28067094c","null","","","","null","","","","key","16.66588135593239","768","361","","","","","","","","","","","","","","","","","","","",""
"psychophysics","200","451916","0.0-16.0-1.9","60f6f802c0ede08f7cf69720","6368f2eea3e9634aebcc2f6b","636b4684d2164af28067094c","null","","","","null","","","","key","16.66510344827588","768","361","","","","","","","","","","","","","138","-1","4","false","","","",""
"psychophysics","201","452314","0.0-16.0-2.9","60f6f802c0ede08f7cf69720","6368f2eea3e9634aebcc2f6b","636b4684d2164af28067094c","396.89999997615814","","","","90","","","","key","16.665782608696684","768","361","","","","","","","","","","","","","","","","","","","",""
"psychophysics","202","453316","0.0-16.0-0.10","60f6f802c0ede08f7cf69720","6368f2eea3e9634aebcc2f6b","636b4684d2164af28067094c","null","","","","null","","","","key","16.66633898305107","768","361","","","","","","","","","","","","","","","","","","","",""
"psychophysics","203","453817","0.0-16.0-1.10","60f6f802c0ede08f7cf69720","6368f2eea3e9634aebcc2f6b","636b4684d2164af28067094c","null","","","","null","","","","key","16.670758620691323","768","361","","","","","","","","","","","","","138","1","5","false","","","",""
"psychophysics","204","454222","0.0-16.0-2.10","60f6f802c0ede08f7cf69720","6368f2eea3e9634aebcc2f6b","636b4684d2164af28067094c","403.5","","","","77","","","","key","16.657708333332266","768","361","","","","","","","","","","","","","","","","","","","",""
"psychophysics","205","455223","0.0-16.0-0.11","60f6f802c0ede08f7cf69720","6368f2eea3e9634aebcc2f6b","636b4684d2164af28067094c","null","","","","null","","","","key","16.6686101694911","768","361","","","","","","","","","","","","","","","","","","","",""
"psychophysics","206","455725","0.0-16.0-1.11","60f6f802c0ede08f7cf69720","6368f2eea3e9634aebcc2f6b","636b4684d2164af28067094c","null","","","","null","","","","key","16.670551724137802","768","361","","","","","","","","","","","","","138","-1","2","false","","","",""
"psychophysics","207","456173","0.0-16.0-2.11","60f6f802c0ede08f7cf69720","6368f2eea3e9634aebcc2f6b","636b4684d2164af28067094c","446.5","","","","90","","","","key","16.67926923077007","768","361","","","","","","","","","","","","","","","","","","","",""
"psychophysics","208","457176","0.0-16.0-0.12","60f6f802c0ede08f7cf69720","6368f2eea3e9634aebcc2f6b","636b4684d2164af28067094c","null","","","","null","","","","key","16.666796610169744","768","361","","","","","","","","","","","","","","","","","","","",""
"psychophysics","209","457678","0.0-16.0-1.12","60f6f802c0ede08f7cf69720","6368f2eea3e9634aebcc2f6b","636b4684d2164af28067094c","null","","","","null","","","","key","16.663344827586993","768","361","","","","","","","","","","","","","138","1","6","false","","","",""
"psychophysics","210","457967","0.0-16.0-2.12","60f6f802c0ede08f7cf69720","6368f2eea3e9634aebcc2f6b","636b4684d2164af28067094c","287.7000000476837","","","","77","","","","key","16.661187500001688","768","361","","","","","","","","","","","","","","","","","","","",""
"psychophysics","211","458968","0.0-16.0-0.13","60f6f802c0ede08f7cf69720","6368f2eea3e9634aebcc2f6b","636b4684d2164af28067094c","null","","","","null","","","","key","16.667237288136057","768","361","","","","","","","","","","","","","","","","","","","",""
"psychophysics","212","459469","0.0-16.0-1.13","60f6f802c0ede08f7cf69720","6368f2eea3e9634aebcc2f6b","636b4684d2164af28067094c","null","","","","null","","","","key","16.669827586206495","768","361","","","","","","","","","","","","","138","1","0","false","","","",""
"psychophysics","213","460064","0.0-16.0-2.13","60f6f802c0ede08f7cf69720","6368f2eea3e9634aebcc2f6b","636b4684d2164af28067094c","593.3999999761581","","","","90","","","","key","16.66702857142913","768","361","","","","","","","","","","","","","","","","","","","",""
"psychophysics","214","461066","0.0-16.0-0.14","60f6f802c0ede08f7cf69720","6368f2eea3e9634aebcc2f6b","636b4684d2164af28067094c","null","","","","null","","","","key","16.66786440677933","768","361","","","","","","","","","","","","","","","","","","","",""
"psychophysics","215","461568","0.0-16.0-1.14","60f6f802c0ede08f7cf69720","6368f2eea3e9634aebcc2f6b","636b4684d2164af28067094c","null","","","","null","","","","key","16.6704827586213","768","361","","","","","","","","","","","","","138","1","5","false","","","",""
"psychophysics","216","461926","0.0-16.0-2.14","60f6f802c0ede08f7cf69720","6368f2eea3e9634aebcc2f6b","636b4684d2164af28067094c","356.60000002384186","","","","77","","","","key","16.66633333333413","768","361","","","","","","","","","","","","","","","","","","","",""
"psychophysics","217","462927","0.0-16.0-0.15","60f6f802c0ede08f7cf69720","6368f2eea3e9634aebcc2f6b","636b4684d2164af28067094c","null","","","","null","","","","key","16.664084745762413","768","361","","","","","","","","","","","","","","","","","","","",""
"psychophysics","218","463429","0.0-16.0-1.15","60f6f802c0ede08f7cf69720","6368f2eea3e9634aebcc2f6b","636b4684d2164af28067094c","null","","","","null","","","","key","16.662896551723705","768","361","","","","","","","","","","","","","138","1","3","false","","","",""
"psychophysics","219","463868","0.0-16.0-2.15","60f6f802c0ede08f7cf69720","6368f2eea3e9634aebcc2f6b","636b4684d2164af28067094c","434.2999999523163","","","","90","","","","key","16.660840000000317","768","361","","","","","","","","","","","","","","","","","","","",""
"psychophysics","220","464870","0.0-16.0-0.16","60f6f802c0ede08f7cf69720","6368f2eea3e9634aebcc2f6b","636b4684d2164af28067094c","null","","","","null","","","","key","16.671406779661222","768","361","","","","","","","","","","","","","","","","","","","",""
"psychophysics","221","465371","0.0-16.0-1.16","60f6f802c0ede08f7cf69720","6368f2eea3e9634aebcc2f6b","636b4684d2164af28067094c","null","","","","null","","","","key","16.667862068966095","768","361","","","","","","","","","","","","","138","-1","6","false","","","",""
"psychophysics","222","465705","0.0-16.0-2.16","60f6f802c0ede08f7cf69720","6368f2eea3e9634aebcc2f6b","636b4684d2164af28067094c","331.09999990463257","","","","77","","","","key","16.6733684210554","768","361","","","","","","","","","","","","","","","","","","","",""
"psychophysics","223","466705","0.0-16.0-0.17","60f6f802c0ede08f7cf69720","6368f2eea3e9634aebcc2f6b","636b4684d2164af28067094c","null","","","","null","","","","key","16.667533333333754","768","361","","","","","","","","","","","","","","","","","","","",""
"psychophysics","224","467207","0.0-16.0-1.17","60f6f802c0ede08f7cf69720","6368f2eea3e9634aebcc2f6b","636b4684d2164af28067094c","null","","","","null","","","","key","16.66455172413984","768","361","","","","","","","","","","","","","138","-1","3","false","","","",""
"psychophysics","225","467642","0.0-16.0-2.17","60f6f802c0ede08f7cf69720","6368f2eea3e9634aebcc2f6b","636b4684d2164af28067094c","433.5","","","","90","","","","key","16.664480000000914","768","361","","","","","","","","","","","","","","","","","","","",""
"psychophysics","226","468644","0.0-16.0-0.18","60f6f802c0ede08f7cf69720","6368f2eea3e9634aebcc2f6b","636b4684d2164af28067094c","null","","","","null","","","","key","16.668118644068688","768","361","","","","","","","","","","","","","","","","","","","",""
"psychophysics","227","469146","0.0-16.0-1.18","60f6f802c0ede08f7cf69720","6368f2eea3e9634aebcc2f6b","636b4684d2164af28067094c","null","","","","null","","","","key","16.663068965516967","768","361","","","","","","","","","","","","","138","1","4","false","","","",""
"psychophysics","228","469580","0.0-16.0-2.18","60f6f802c0ede08f7cf69720","6368f2eea3e9634aebcc2f6b","636b4684d2164af28067094c","432.7000000476837","","","","90","","","","key","16.66492000000086","768","361","","","","","","","","","","","","","","","","","","","",""
"psychophysics","229","470581","0.0-16.0-0.19","60f6f802c0ede08f7cf69720","6368f2eea3e9634aebcc2f6b","636b4684d2164af28067094c","null","","","","null","","","","key","16.67045762711915","768","361","","","","","","","","","","","","","","","","","","","",""
"psychophysics","230","471083","0.0-16.0-1.19","60f6f802c0ede08f7cf69720","6368f2eea3e9634aebcc2f6b","636b4684d2164af28067094c","null","","","","null","","","","key","16.664517241379585","768","361","","","","","","","","","","","","","138","-1","5","false","","","",""
"psychophysics","231","471488","0.0-16.0-2.19","60f6f802c0ede08f7cf69720","6368f2eea3e9634aebcc2f6b","636b4684d2164af28067094c","403.2999999523163","","","","77","","","","key","16.66860869565078","768","361","","","","","","","","","","","","","","","","","","","",""
"psychophysics","232","472489","0.0-16.0-0.20","60f6f802c0ede08f7cf69720","6368f2eea3e9634aebcc2f6b","636b4684d2164af28067094c","null","","","","null","","","","key","16.671816666666807","768","361","","","","","","","","","","","","","","","","","","","",""
"psychophysics","233","472991","0.0-16.0-1.20","60f6f802c0ede08f7cf69720","6368f2eea3e9634aebcc2f6b","636b4684d2164af28067094c","null","","","","null","","","","key","16.67275862068797","768","361","","","","","","","","","","","","","138","1","2","false","","","",""
"psychophysics","234","473303","0.0-16.0-2.20","60f6f802c0ede08f7cf69720","6368f2eea3e9634aebcc2f6b","636b4684d2164af28067094c","310.60000002384186","","","","90","","","","key","16.666647058822598","768","361","","","","","","","","","","","","","","","","","","","",""
"psychophysics","235","474304","0.0-16.0-0.21","60f6f802c0ede08f7cf69720","6368f2eea3e9634aebcc2f6b","636b4684d2164af28067094c","null","","","","null","","","","key","16.66652542372901","768","361","","","","","","","","","","","","","","","","","","","",""
"psychophysics","236","474806","0.0-16.0-1.21","60f6f802c0ede08f7cf69720","6368f2eea3e9634aebcc2f6b","636b4684d2164af28067094c","null","","","","null","","","","key","16.669200000000032","768","361","","","","","","","","","","","","","138","-1","2","false","","","",""
"psychophysics","237","475231","0.0-16.0-2.21","60f6f802c0ede08f7cf69720","6368f2eea3e9634aebcc2f6b","636b4684d2164af28067094c","423.6999999284744","","","","90","","","","key","16.670166666665562","768","361","","","","","","","","","","","","","","","","","","","",""
"psychophysics","238","476233","0.0-16.0-0.22","60f6f802c0ede08f7cf69720","6368f2eea3e9634aebcc2f6b","636b4684d2164af28067094c","null","","","","null","","","","key","16.671389830507874","768","361","","","","","","","","","","","","","","","","","","","",""
"psychophysics","239","476734","0.0-16.0-1.22","60f6f802c0ede08f7cf69720","6368f2eea3e9634aebcc2f6b","636b4684d2164af28067094c","null","","","","null","","","","key","16.663931034483287","768","361","","","","","","","","","","","","","138","-1","4","false","","","",""
"psychophysics","240","476983","0.0-16.0-2.22","60f6f802c0ede08f7cf69720","6368f2eea3e9634aebcc2f6b","636b4684d2164af28067094c","247.89999997615814","","","","77","","","","key","16.672642857143988","768","361","","","","","","","","","","","","","","","","","","","",""
"psychophysics","241","477989","0.0-16.0-0.23","60f6f802c0ede08f7cf69720","6368f2eea3e9634aebcc2f6b","636b4684d2164af28067094c","null","","","","null","","","","key","16.66811666666666","768","361","","","","","","","","","","","","","","","","","","","",""
"psychophysics","242","478490","0.0-16.0-1.23","60f6f802c0ede08f7cf69720","6368f2eea3e9634aebcc2f6b","636b4684d2164af28067094c","null","","","","null","","","","key","16.666172413793714","768","361","","","","","","","","","","","","","138","-1","0","false","","","",""
"psychophysics","243","478772","0.0-16.0-2.23","60f6f802c0ede08f7cf69720","6368f2eea3e9634aebcc2f6b","636b4684d2164af28067094c","279.7000000476837","","","","90","","","","key","16.650000000001455","768","361","","","","","","","","","","","","","","","","","","","",""
"html-keyboard-response","244","481612","0.0-17.0","60f6f802c0ede08f7cf69720","6368f2eea3e9634aebcc2f6b","636b4684d2164af28067094c","2839.399999976158","<p>Well Done !</p><p>Training Complete. Press the spacebar to start.</p><p>DON'T EXIT THE FULL SCREEN MODE</p>","","","32","","","","","","","","","","","","","","","","","","","","","","","","","","",""
"psychophysics","245","484618","0.0-18.0-0.0","60f6f802c0ede08f7cf69720","6368f2eea3e9634aebcc2f6b","636b4684d2164af28067094c","null","","","","null","","","","key","16.67011666666658","768","361","","","","","","","","","","","","","","","","","","","",""
"psychophysics","246","485120","0.0-18.0-1.0","60f6f802c0ede08f7cf69720","6368f2eea3e9634aebcc2f6b","636b4684d2164af28067094c","null","","","","null","","","","key","16.677137931034064","768","361","","","","","","","","","","","","","138","-1","5","true","","","",""
"psychophysics","247","489124","0.0-18.0-2.0","60f6f802c0ede08f7cf69720","6368f2eea3e9634aebcc2f6b","636b4684d2164af28067094c","4002.600000023842","","","","90","","","","key","16.6672583333333","768","361","","","","","","","","","","","","","","","","","","","",""
"psychophysics","248","490126","0.0-18.0-0.1","60f6f802c0ede08f7cf69720","6368f2eea3e9634aebcc2f6b","636b4684d2164af28067094c","null","","","","null","","","","key","16.66659322033944","768","361","","","","","","","","","","","","","","","","","","","",""
"psychophysics","249","490628","0.0-18.0-1.1","60f6f802c0ede08f7cf69720","6368f2eea3e9634aebcc2f6b","636b4684d2164af28067094c","null","","","","null","","","","key","16.666586206896746","768","361","","","","","","","","","","","","","138","1","3","true","","","",""
"psychophysics","250","491107","0.0-18.0-2.1","60f6f802c0ede08f7cf69720","6368f2eea3e9634aebcc2f6b","636b4684d2164af28067094c","476.89999997615814","","","","90","","","","key","16.65535714285839","768","361","","","","","","","","","","","","","","","","","","","",""
"psychophysics","251","492109","0.0-18.0-0.2","60f6f802c0ede08f7cf69720","6368f2eea3e9634aebcc2f6b","636b4684d2164af28067094c","null","","","","null","","","","key","16.667813559322248","768","361","","","","","","","","","","","","","","","","","","","",""
"psychophysics","252","492611","0.0-18.0-1.2","60f6f802c0ede08f7cf69720","6368f2eea3e9634aebcc2f6b","636b4684d2164af28067094c","null","","","","null","","","","key","16.670586206896054","768","361","","","","","","","","","","","","","138","1","5","true","","","",""
"psychophysics","253","493045","0.0-18.0-2.2","60f6f802c0ede08f7cf69720","6368f2eea3e9634aebcc2f6b","636b4684d2164af28067094c","431.90000009536743","","","","77","","","","key","16.664760000000243","768","361","","","","","","","","","","","","","","","","","","","",""
"psychophysics","254","494046","0.0-18.0-0.3","60f6f802c0ede08f7cf69720","6368f2eea3e9634aebcc2f6b","636b4684d2164af28067094c","null","","","","null","","","","key","16.669966101694765","768","361","","","","","","","","","","","","","","","","","","","",""
"psychophysics","255","494548","0.0-18.0-1.3","60f6f802c0ede08f7cf69720","6368f2eea3e9634aebcc2f6b","636b4684d2164af28067094c","null","","","","null","","","","key","16.664931034482613","768","361","","","","","","","","","","","","","138","1","4","true","","","",""
"psychophysics","256","494986","0.0-18.0-2.3","60f6f802c0ede08f7cf69720","6368f2eea3e9634aebcc2f6b","636b4684d2164af28067094c","437.2000000476837","","","","90","","","","key","16.655399999998043","768","361","","","","","","","","","","","","","","","","","","","",""
"psychophysics","257","495988","0.0-18.0-0.4","60f6f802c0ede08f7cf69720","6368f2eea3e9634aebcc2f6b","636b4684d2164af28067094c","null","","","","null","","","","key","16.672677966101112","768","361","","","","","","","","","","","","","","","","","","","",""
"psychophysics","258","496490","0.0-18.0-1.4","60f6f802c0ede08f7cf69720","6368f2eea3e9634aebcc2f6b","636b4684d2164af28067094c","null","","","","null","","","","key","16.6670666666682","768","361","","","","","","","","","","","","","138","1","2","true","","","",""
"psychophysics","259","496749","0.0-18.0-2.4","60f6f802c0ede08f7cf69720","6368f2eea3e9634aebcc2f6b","636b4684d2164af28067094c","258.2000000476837","","","","90","","","","key","16.676857142854715","768","361","","","","","","","","","","","","","","","","","","","",""
"psychophysics","260","497751","0.0-18.0-0.5","60f6f802c0ede08f7cf69720","6368f2eea3e9634aebcc2f6b","636b4684d2164af28067094c","null","","","","null","","","","key","16.666915254237257","768","361","","","","","","","","","","","","","","","","","","","",""
"psychophysics","261","498253","0.0-18.0-1.5","60f6f802c0ede08f7cf69720","6368f2eea3e9634aebcc2f6b","636b4684d2164af28067094c","null","","","","null","","","","key","16.67448275862061","768","361","","","","","","","","","","","","","138","-1","2","true","","","",""
"psychophysics","262","498686","0.0-18.0-2.5","60f6f802c0ede08f7cf69720","6368f2eea3e9634aebcc2f6b","636b4684d2164af28067094c","431.60000002384186","","","","90","","","","key","16.67559999999823","768","361","","","","","","","","","","","","","","","","","","","",""
"psychophysics","263","499688","0.0-18.0-0.6","60f6f802c0ede08f7cf69720","6368f2eea3e9634aebcc2f6b","636b4684d2164af28067094c","null","","","","null","","","","key","16.67296610169519","768","361","","","","","","","","","","","","","","","","","","","",""
"psychophysics","264","500189","0.0-18.0-1.6","60f6f802c0ede08f7cf69720","6368f2eea3e9634aebcc2f6b","636b4684d2164af28067094c","null","","","","null","","","","key","16.665200000000187","768","361","","","","","","","","","","","","","138","-1","0","true","","","",""
"psychophysics","265","500349","0.0-18.0-2.6","60f6f802c0ede08f7cf69720","6368f2eea3e9634aebcc2f6b","636b4684d2164af28067094c","158","","","","90","","","","key","16.66700000000128","768","361","","","","","","","","","","","","","","","","","","","",""
"psychophysics","266","501350","0.0-18.0-0.7","60f6f802c0ede08f7cf69720","6368f2eea3e9634aebcc2f6b","636b4684d2164af28067094c","null","","","","null","","","","key","16.6686101694911","768","361","","","","","","","","","","","","","","","","","","","",""
"psychophysics","267","501851","0.0-18.0-1.7","60f6f802c0ede08f7cf69720","6368f2eea3e9634aebcc2f6b","636b4684d2164af28067094c","null","","","","null","","","","key","16.677241379310825","768","361","","","","","","","","","","","","","138","1","6","true","","","",""
"psychophysics","268","502061","0.0-18.0-2.7","60f6f802c0ede08f7cf69720","6368f2eea3e9634aebcc2f6b","636b4684d2164af28067094c","208.5","","","","77","","","","key","16.66975000000093","768","361","","","","","","","","","","","","","","","","","","","",""
"psychophysics","269","503062","0.0-18.0-0.8","60f6f802c0ede08f7cf69720","6368f2eea3e9634aebcc2f6b","636b4684d2164af28067094c","null","","","","null","","","","key","16.668491525423587","768","361","","","","","","","","","","","","","","","","","","","",""
"psychophysics","270","503565","0.0-18.0-1.8","60f6f802c0ede08f7cf69720","6368f2eea3e9634aebcc2f6b","636b4684d2164af28067094c","null","","","","null","","","","key","16.666172413791706","768","361","","","","","","","","","","","","","138","-1","3","true","","","",""
"psychophysics","271","503775","0.0-18.0-2.8","60f6f802c0ede08f7cf69720","6368f2eea3e9634aebcc2f6b","636b4684d2164af28067094c","208.29999995231628","","","","90","","","","key","16.66875000000194","768","361","","","","","","","","","","","","","","","","","","","",""
"psychophysics","272","504776","0.0-18.0-0.9","60f6f802c0ede08f7cf69720","6368f2eea3e9634aebcc2f6b","636b4684d2164af28067094c","null","","","","null","","","","key","16.66398305084726","768","361","","","","","","","","","","","","","","","","","","","",""
"psychophysics","273","505278","0.0-18.0-1.9","60f6f802c0ede08f7cf69720","6368f2eea3e9634aebcc2f6b","636b4684d2164af28067094c","null","","","","null","","","","key","16.670137931034773","768","361","","","","","","","","","","","","","138","1","0","true","","","",""
"psychophysics","274","505656","0.0-18.0-2.9","60f6f802c0ede08f7cf69720","6368f2eea3e9634aebcc2f6b","636b4684d2164af28067094c","376.39999997615814","","","","90","","","","key","16.672999999999195","768","361","","","","","","","","","","","","","","","","","","","",""
"psychophysics","275","506657","0.0-18.0-0.10","60f6f802c0ede08f7cf69720","6368f2eea3e9634aebcc2f6b","636b4684d2164af28067094c","null","","","","null","","","","key","16.666457627119566","768","361","","","","","","","","","","","","","","","","","","","",""
"psychophysics","276","507158","0.0-18.0-1.10","60f6f802c0ede08f7cf69720","6368f2eea3e9634aebcc2f6b","636b4684d2164af28067094c","null","","","","null","","","","key","16.665793103446926","768","361","","","","","","","","","","","","","138","-1","6","true","","","",""
"psychophysics","277","507433","0.0-18.0-2.10","60f6f802c0ede08f7cf69720","6368f2eea3e9634aebcc2f6b","636b4684d2164af28067094c","273.3000000715256","","","","77","","","","key","16.65746666666819","768","361","","","","","","","","","","","","","","","","","","","",""
"psychophysics","278","508434","0.0-18.0-0.11","60f6f802c0ede08f7cf69720","6368f2eea3e9634aebcc2f6b","636b4684d2164af28067094c","null","","","","null","","","","key","16.666661016948883","768","361","","","","","","","","","","","","","","","","","","","",""
"psychophysics","279","508936","0.0-18.0-1.11","60f6f802c0ede08f7cf69720","6368f2eea3e9634aebcc2f6b","636b4684d2164af28067094c","null","","","","null","","","","key","16.658551724137865","768","361","","","","","","","","","","","","","138","-1","4","true","","","",""
"psychophysics","280","509370","0.0-18.0-2.11","60f6f802c0ede08f7cf69720","6368f2eea3e9634aebcc2f6b","636b4684d2164af28067094c","432.2999999523163","","","","90","","","","key","16.6750400000019","768","361","","","","","","","","","","","","","","","","","","","",""
"psychophysics","281","510373","0.0-18.0-0.12","60f6f802c0ede08f7cf69720","6368f2eea3e9634aebcc2f6b","636b4684d2164af28067094c","null","","","","null","","","","key","16.671849999999782","768","361","","","","","","","","","","","","","","","","","","","",""
"psychophysics","282","510876","0.0-18.0-1.12","60f6f802c0ede08f7cf69720","6368f2eea3e9634aebcc2f6b","636b4684d2164af28067094c","null","","","","null","","","","key","16.663000000000466","768","361","","","","","","","","","","","","","138","1","4","true","","","",""
"psychophysics","283","511502","0.0-18.0-2.12","60f6f802c0ede08f7cf69720","6368f2eea3e9634aebcc2f6b","636b4684d2164af28067094c","624.2000000476837","","","","90","","","","key","16.6616111111119","768","361","","","","","","","","","","","","","","","","","","","",""
"psychophysics","284","512503","0.0-18.0-0.13","60f6f802c0ede08f7cf69720","6368f2eea3e9634aebcc2f6b","636b4684d2164af28067094c","null","","","","null","","","","key","16.669288135593426","768","361","","","","","","","","","","","","","","","","","","","",""
"psychophysics","285","513005","0.0-18.0-1.13","60f6f802c0ede08f7cf69720","6368f2eea3e9634aebcc2f6b","636b4684d2164af28067094c","null","","","","null","","","","key","16.6748000000002","768","361","","","","","","","","","","","","","138","1","5","true","","","",""
"psychophysics","286","513230","0.0-18.0-2.13","60f6f802c0ede08f7cf69720","6368f2eea3e9634aebcc2f6b","636b4684d2164af28067094c","223.40000009536743","","","","77","","","","key","16.665333333337912","768","361","","","","","","","","","","","","","","","","","","","",""
"psychophysics","287","514232","0.0-18.0-0.14","60f6f802c0ede08f7cf69720","6368f2eea3e9634aebcc2f6b","636b4684d2164af28067094c","null","","","","null","","","","key","16.668999999999343","768","361","","","","","","","","","","","","","","","","","","","",""
"psychophysics","288","514734","0.0-18.0-1.14","60f6f802c0ede08f7cf69720","6368f2eea3e9634aebcc2f6b","636b4684d2164af28067094c","null","","","","null","","","","key","16.665379310343898","768","361","","","","","","","","","","","","","138","-1","5","true","","","",""
"psychophysics","289","515003","0.0-18.0-2.14","60f6f802c0ede08f7cf69720","6368f2eea3e9634aebcc2f6b","636b4684d2164af28067094c","268","","","","77","","","","key","16.66753333333181","768","361","","","","","","","","","","","","","","","","","","","",""
"psychophysics","290","516005","0.0-18.0-0.15","60f6f802c0ede08f7cf69720","6368f2eea3e9634aebcc2f6b","636b4684d2164af28067094c","null","","","","null","","","","key","16.67249152542317","768","361","","","","","","","","","","","","","","","","","","","",""
"psychophysics","291","516506","0.0-18.0-1.15","60f6f802c0ede08f7cf69720","6368f2eea3e9634aebcc2f6b","636b4684d2164af28067094c","null","","","","null","","","","key","16.659866666665767","768","361","","","","","","","","","","","","","138","-1","6","true","","","",""
"psychophysics","292","516707","0.0-18.0-2.15","60f6f802c0ede08f7cf69720","6368f2eea3e9634aebcc2f6b","636b4684d2164af28067094c","198.80000007152557","","","","77","","","","key","16.661909090910658","768","361","","","","","","","","","","","","","","","","","","","",""
"psychophysics","293","517708","0.0-18.0-0.16","60f6f802c0ede08f7cf69720","6368f2eea3e9634aebcc2f6b","636b4684d2164af28067094c","null","","","","null","","","","key","16.66701694915241","768","361","","","","","","","","","","","","","","","","","","","",""
"psychophysics","294","518211","0.0-18.0-1.16","60f6f802c0ede08f7cf69720","6368f2eea3e9634aebcc2f6b","636b4684d2164af28067094c","null","","","","null","","","","key","16.666931034483273","768","361","","","","","","","","","","","","","138","-1","0","true","","","",""
"psychophysics","295","518487","0.0-18.0-2.16","60f6f802c0ede08f7cf69720","6368f2eea3e9634aebcc2f6b","636b4684d2164af28067094c","275","","","","90","","","","key","16.667133333332217","768","361","","","","","","","","","","","","","","","","","","","",""
"psychophysics","296","519489","0.0-18.0-0.17","60f6f802c0ede08f7cf69720","6368f2eea3e9634aebcc2f6b","636b4684d2164af28067094c","null","","","","null","","","","key","16.673583333333955","768","361","","","","","","","","","","","","","","","","","","","",""
"psychophysics","297","519994","0.0-18.0-1.17","60f6f802c0ede08f7cf69720","6368f2eea3e9634aebcc2f6b","636b4684d2164af28067094c","null","","","","null","","","","key","16.658517241379617","768","361","","","","","","","","","","","","","138","1","6","true","","","",""
"psychophysics","298","520305","0.0-18.0-2.17","60f6f802c0ede08f7cf69720","6368f2eea3e9634aebcc2f6b","636b4684d2164af28067094c","309.60000002384186","","","","77","","","","key","16.657555555556126","768","361","","","","","","","","","","","","","","","","","","","",""
"psychophysics","299","521307","0.0-18.0-0.18","60f6f802c0ede08f7cf69720","6368f2eea3e9634aebcc2f6b","636b4684d2164af28067094c","null","","","","null","","","","key","16.667796610169887","768","361","","","","","","","","","","","","","","","","","","","",""
"psychophysics","300","521808","0.0-18.0-1.18","60f6f802c0ede08f7cf69720","6368f2eea3e9634aebcc2f6b","636b4684d2164af28067094c","null","","","","null","","","","key","16.660000000000483","768","361","","","","","","","","","","","","","138","1","3","true","","","",""
"psychophysics","301","522052","0.0-18.0-2.18","60f6f802c0ede08f7cf69720","6368f2eea3e9634aebcc2f6b","636b4684d2164af28067094c","243","","","","90","","","","key","16.66646153846075","768","361","","","","","","","","","","","","","","","","","","","",""
"psychophysics","302","523053","0.0-18.0-0.19","60f6f802c0ede08f7cf69720","6368f2eea3e9634aebcc2f6b","636b4684d2164af28067094c","null","","","","null","","","","key","16.672525423728878","768","361","","","","","","","","","","","","","","","","","","","",""
"psychophysics","303","523555","0.0-18.0-1.19","60f6f802c0ede08f7cf69720","6368f2eea3e9634aebcc2f6b","636b4684d2164af28067094c","null","","","","null","","","","key","16.674466666666557","768","361","","","","","","","","","","","","","138","1","0","true","","","",""
"psychophysics","304","523751","0.0-18.0-2.19","60f6f802c0ede08f7cf69720","6368f2eea3e9634aebcc2f6b","636b4684d2164af28067094c","193.80000007152557","","","","90","","","","key","16.666599999996834","768","361","","","","","","","","","","","","","","","","","","","",""
"psychophysics","305","524753","0.0-18.0-0.20","60f6f802c0ede08f7cf69720","6368f2eea3e9634aebcc2f6b","636b4684d2164af28067094c","null","","","","null","","","","key","16.66581355932295","768","361","","","","","","","","","","","","","","","","","","","",""
"psychophysics","306","525255","0.0-18.0-1.20","60f6f802c0ede08f7cf69720","6368f2eea3e9634aebcc2f6b","636b4684d2164af28067094c","null","","","","null","","","","key","16.665299999997174","768","361","","","","","","","","","","","","","138","1","2","true","","","",""
"psychophysics","307","525553","0.0-18.0-2.20","60f6f802c0ede08f7cf69720","6368f2eea3e9634aebcc2f6b","636b4684d2164af28067094c","296.3000000715256","","","","90","","","","key","16.66687500000262","768","361","","","","","","","","","","","","","","","","","","","",""
"psychophysics","308","526554","0.0-18.0-0.21","60f6f802c0ede08f7cf69720","6368f2eea3e9634aebcc2f6b","636b4684d2164af28067094c","null","","","","null","","","","key","16.671864406779896","768","361","","","","","","","","","","","","","","","","","","","",""
"psychophysics","309","527060","0.0-18.0-1.21","60f6f802c0ede08f7cf69720","6368f2eea3e9634aebcc2f6b","636b4684d2164af28067094c","null","","","","null","","","","key","16.67426666666676","768","361","","","","","","","","","","","","","138","-1","4","true","","","",""
"psychophysics","310","527270","0.0-18.0-2.21","60f6f802c0ede08f7cf69720","6368f2eea3e9634aebcc2f6b","636b4684d2164af28067094c","208.10000002384186","","","","77","","","","key","16.667727272724733","768","361","","","","","","","","","","","","","","","","","","","",""
"psychophysics","311","528271","0.0-18.0-0.22","60f6f802c0ede08f7cf69720","6368f2eea3e9634aebcc2f6b","636b4684d2164af28067094c","null","","","","null","","","","key","16.66794915254212","768","361","","","","","","","","","","","","","","","","","","","",""
"psychophysics","312","528772","0.0-18.0-1.22","60f6f802c0ede08f7cf69720","6368f2eea3e9634aebcc2f6b","636b4684d2164af28067094c","null","","","","null","","","","key","16.671833333330383","768","361","","","","","","","","","","","","","138","-1","2","true","","","",""
"psychophysics","313","528863","0.0-18.0-2.22","60f6f802c0ede08f7cf69720","6368f2eea3e9634aebcc2f6b","636b4684d2164af28067094c","88.30000007152557","","","","90","","","","key","16.732500000012806","768","361","","","","","","","","","","","","","","","","","","","",""
"psychophysics","314","529864","0.0-18.0-0.23","60f6f802c0ede08f7cf69720","6368f2eea3e9634aebcc2f6b","636b4684d2164af28067094c","null","","","","null","","","","key","16.666305084746348","768","361","","","","","","","","","","","","","","","","","","","",""
"psychophysics","315","530366","0.0-18.0-1.23","60f6f802c0ede08f7cf69720","6368f2eea3e9634aebcc2f6b","636b4684d2164af28067094c","null","","","","null","","","","key","16.666689655173506","768","361","","","","","","","","","","","","","138","-1","3","true","","","",""
"psychophysics","316","530524","0.0-18.0-2.23","60f6f802c0ede08f7cf69720","6368f2eea3e9634aebcc2f6b","636b4684d2164af28067094c","157.39999997615814","","","","90","","","","key","16.66655555555028","768","361","","","","","","","","","","","","","","","","","","","",""
"psychophysics","317","531527","0.0-18.0-0.24","60f6f802c0ede08f7cf69720","6368f2eea3e9634aebcc2f6b","636b4684d2164af28067094c","null","","","","null","","","","key","16.665440677967066","768","361","","","","","","","","","","","","","","","","","","","",""
"psychophysics","318","532028","0.0-18.0-1.24","60f6f802c0ede08f7cf69720","6368f2eea3e9634aebcc2f6b","636b4684d2164af28067094c","null","","","","null","","","","key","16.666758620690008","768","361","","","","","","","","","","","","","138","-1","5","true","","","",""
"psychophysics","319","532248","0.0-18.0-2.24","60f6f802c0ede08f7cf69720","6368f2eea3e9634aebcc2f6b","636b4684d2164af28067094c","218.40000009536743","","","","77","","","","key","16.666500000001786","768","361","","","","","","","","","","","","","","","","","","","",""
"psychophysics","320","533249","0.0-18.0-0.25","60f6f802c0ede08f7cf69720","6368f2eea3e9634aebcc2f6b","636b4684d2164af28067094c","null","","","","null","","","","key","16.666694915253604","768","361","","","","","","","","","","","","","","","","","","","",""
"psychophysics","321","533751","0.0-18.0-1.25","60f6f802c0ede08f7cf69720","6368f2eea3e9634aebcc2f6b","636b4684d2164af28067094c","null","","","","null","","","","key","16.671620689657644","768","361","","","","","","","","","","","","","138","1","2","true","","","",""
"psychophysics","322","533990","0.0-18.0-2.25","60f6f802c0ede08f7cf69720","6368f2eea3e9634aebcc2f6b","636b4684d2164af28067094c","237.69999992847443","","","","90","","","","key","16.66678571429137","768","361","","","","","","","","","","","","","","","","","","","",""
"psychophysics","323","534991","0.0-18.0-0.26","60f6f802c0ede08f7cf69720","6368f2eea3e9634aebcc2f6b","636b4684d2164af28067094c","null","","","","null","","","","key","16.665949152541835","768","361","","","","","","","","","","","","","","","","","","","",""
"psychophysics","324","535492","0.0-18.0-1.26","60f6f802c0ede08f7cf69720","6368f2eea3e9634aebcc2f6b","636b4684d2164af28067094c","null","","","","null","","","","key","16.665999999996437","768","361","","","","","","","","","","","","","138","1","3","true","","","",""
"psychophysics","325","535704","0.0-18.0-2.26","60f6f802c0ede08f7cf69720","6368f2eea3e9634aebcc2f6b","636b4684d2164af28067094c","206","","","","90","","","","key","16.659818181820977","768","361","","","","","","","","","","","","","","","","","","","",""
"psychophysics","326","536705","0.0-18.0-0.27","60f6f802c0ede08f7cf69720","6368f2eea3e9634aebcc2f6b","636b4684d2164af28067094c","null","","","","null","","","","key","16.66846666666679","768","361","","","","","","","","","","","","","","","","","","","",""
"psychophysics","327","537208","0.0-18.0-1.27","60f6f802c0ede08f7cf69720","6368f2eea3e9634aebcc2f6b","636b4684d2164af28067094c","null","","","","null","","","","key","16.666448275859725","768","361","","","","","","","","","","","","","138","-1","4","true","","","",""
"psychophysics","328","537778","0.0-18.0-2.27","60f6f802c0ede08f7cf69720","6368f2eea3e9634aebcc2f6b","636b4684d2164af28067094c","567.7999999523163","","","","77","","","","key","16.66039393939586","768","361","","","","","","","","","","","","","","","","","","","",""
"psychophysics","329","538779","0.0-18.0-0.28","60f6f802c0ede08f7cf69720","6368f2eea3e9634aebcc2f6b","636b4684d2164af28067094c","null","","","","null","","","","key","16.66820338983049","768","361","","","","","","","","","","","","","","","","","","","",""
"psychophysics","330","539282","0.0-18.0-1.28","60f6f802c0ede08f7cf69720","6368f2eea3e9634aebcc2f6b","636b4684d2164af28067094c","null","","","","null","","","","key","16.66248275862268","768","361","","","","","","","","","","","","","138","-1","2","true","","","",""
"psychophysics","331","539372","0.0-18.0-2.28","60f6f802c0ede08f7cf69720","6368f2eea3e9634aebcc2f6b","636b4684d2164af28067094c","89","","","","90","","","","key","16.626600000006146","768","361","","","","","","","","","","","","","","","","","","","",""
"psychophysics","332","540374","0.0-18.0-0.29","60f6f802c0ede08f7cf69720","6368f2eea3e9634aebcc2f6b","636b4684d2164af28067094c","null","","","","null","","","","key","16.670169491526057","768","361","","","","","","","","","","","","","","","","","","","",""
"psychophysics","333","540877","0.0-18.0-1.29","60f6f802c0ede08f7cf69720","6368f2eea3e9634aebcc2f6b","636b4684d2164af28067094c","null","","","","null","","","","key","16.676000000001736","768","361","","","","","","","","","","","","","138","1","5","true","","","",""
"psychophysics","334","541310","0.0-18.0-2.29","60f6f802c0ede08f7cf69720","6368f2eea3e9634aebcc2f6b","636b4684d2164af28067094c","431.10000002384186","","","","77","","","","key","16.66628000000026","768","361","","","","","","","","","","","","","","","","","","","",""
