"trial_type","trial_index","time_elapsed","internal_node_id","PROLIFIC_PID","STUDY_ID","SESSION_ID","rt","stimulus","button_pressed","success","key_press","responses","isData","view_history","response_type","avg_frame_time","center_x","center_y","isSC","stim_side","trial_luminance","step_size","nReversal","correct","prev_ans","isThreshold","SC_threshold","final_threshold","isLuminance","FF_luminance","luminance","stimSide","ISInt","isFF","question_order","isSPQ","isCAPS","isAQ"
"pavlovia","0","9","0.0-0.0","62b2d869074bd11bce35650e","6368f2eea3e9634aebcc2f6b","636b48e2aeab7020c46d71f2","","","","","","","","","","","","","","","","","","","","","","","","","","","","","","","",""
"html-button-response","1","52238","0.0-1.0","62b2d869074bd11bce35650e","6368f2eea3e9634aebcc2f6b","636b48e2aeab7020c46d71f2","52226.700000047684","<div style='background-color: white; width:60%; margin: auto; padding: 50px; text-align: justify; text-justify: inter-word; margin-bottom: 20px;'><h1 style='text-align: center;'>Consent Form</h1><p>Please read this consent form carefully before deciding whether you would like to participate in this study. You have to be 18 years old or older to participate to this study.</p><p style='text-decoration: underline;'>Participation is voluntary:</p><p>It is your choice whether or not to participate in this research. If you choose to participate, you may change your mind and leave the study at any time. Refusal to participate or stopping your participation will involve no penalty or loss of benefits to which you are otherwise entitled.</p><p style='text-decoration: underline;'>Purpose of the Study:</p><p>To understand the mechanisms underlying human perception.</p><p style='text-decoration: underline;'>What you will do in this study:</p><p>You will be presented with a series of visual images and then you will press buttons on the keyboard of your computer to respond to simple questions about the images (e.g. Were one or two images presented?). In addition, you will be asked to complete a questionnaire concerning your beliefs and everyday mental and perceptual experiences.'</p><p style='text-decoration: underline;'> Time Required:</p><p>The study will take 40 minutes to complete. </p><p style='text-decoration: underline;'>Risks:</p><p>There are no anticipated risks associated with participating in this study that are beyond those experienced in everyday life. </p><p style='text-decoration: underline;'>Benefits:</p><p>There are no benefits to you in participating in the study. However, this study may lead to a better understanding of how different kinds of visual information are used.</p><p style='text-decoration: underline;'>Compensation:</p><p>You will be paid US$6.6/hour. </p><p style='text-decoration: underline;'>Privacy and Confidentiality:</p><p>Your participation in this study will be anonymous. No personal information about your name or identity will be asked or recorded. This anonymous data will be stored for several years and may be used for a variety of research purposes. The overall results of the study may be published, or the data files may be shared with other researchers, but your identity will not be revealed in any way. The online services we are using for this study may temporarily store your data, but this data will be downloaded and then promptly deleted from those services.Your data will not be permanently associated with your name, IP address, or any other identifiable information (e.g., your information will only be connected to your payment, not to any of your responses), though they may be temporarily stored together before we download and separate them. Even so, no guarantee of internet survey security can be given because, although unlikely, transmissions can be intercepted and IP addresses can be identified. The anonymous data may be shared publicly (for example, in conjunction with a resulting academic publication).</p><p style='text-decoration: underline;'>Participation and Withdrawal:</p><p>Your participation in this study is completely voluntary. You may stop responding to the stimuli or stop answering questions if you so choose and without penalty by exiting the full screen mode, closing this tab of your browser or redirecting it to a different website.</p><p style='text-decoration: underline;'>Contact Info of the Researcher: </p><p>If you have questions about this study, or if you would like to talk to the research team, please contact David Melcher (david.melcher@nyu.edu, md5050@nyu.edu) at the Perception and Active Cognition Laboratory, New York University Abu Dhabi, Computational Research Building, Saadiyat Island, Abu Dhabi, UAE.This research has been reviewed by the New York University Abu Dhabi Institutional Review Board (NYUAD IRB). To contact about your rights in this research, for questions, suggestions, or complaints that are not addressed by the researchers, please email IRBnyuad@nyu.edu, or call the NYUAD IRB at +971 2 628 4313. </p></div>","0","","","","","","","","","","","","","","","","","","","","","","","","","","","","",""
"fullscreen","2","54479","0.0-2.0","62b2d869074bd11bce35650e","6368f2eea3e9634aebcc2f6b","636b48e2aeab7020c46d71f2","","","","true","","","","","","","","","","","","","","","","","","","","","","","","","","","",""
"html-keyboard-response","3","62968","0.0-3.0","62b2d869074bd11bce35650e","6368f2eea3e9634aebcc2f6b","636b48e2aeab7020c46d71f2","8488.5","<p>Welcome !</p><p>READ CAREFULLY THE FOLLOWING INDICATIONS:</p><p>From this moment you have ~40 minutes to complete the experiment.</p><p>During the experiment you will be prompted to take several breaks. Each break should not last longer than 2-3 minutes.</p><p>Make sure that your computer is plugged in and it's not running on battery power, even if the battery is already fully charged.</p><p>Turn off your phone and music, make sure that you are in a quiet room and that you will not be distracted for the next hour.</p><p>Failure to comply with the instructions and indications provided during the experiment will most likely result in the rejection of your data.<p>Press the spacebar to start.</p>","","","32","","","","","","","","","","","","","","","","","","","","","","","","","","",""
"survey-html-form","4","72686","0.0-4.0","62b2d869074bd11bce35650e","6368f2eea3e9634aebcc2f6b","636b48e2aeab7020c46d71f2","9715.5","","","","","{""age"":""53"",""sex"":""F""}","true","","","","","","","","","","","","","","","","","","","","","","","","",""
"instructions","5","101476","0.0-5.0","62b2d869074bd11bce35650e","6368f2eea3e9634aebcc2f6b","636b48e2aeab7020c46d71f2","28788.100000023842","","","","","","","[{""page_index"":0,""viewing_time"":21540.400000095367},{""page_index"":1,""viewing_time"":3999.2999999523163},{""page_index"":2,""viewing_time"":3248.100000023842}]","","","","","","","","","","","","","","","","","","","","","","","",""
"psychophysics","6","112631","0.0-6.0-0.0","62b2d869074bd11bce35650e","6368f2eea3e9634aebcc2f6b","636b48e2aeab7020c46d71f2","10147.799999952316","","","","37","","","","key","16.7185892053973","683","328.5","true","-1","180","30","0","-1","","","","","","","","","","","","","",""
"psychophysics","7","114046","0.0-6.0-0.1","62b2d869074bd11bce35650e","6368f2eea3e9634aebcc2f6b","636b48e2aeab7020c46d71f2","407.7999999523163","","","","37","","","","key","16.714357142857246","683","328.5","true","-1","180","30","0","-1","-1","","","","","","","","","","","","",""
"psychophysics","8","115114","0.0-6.0-0.2","62b2d869074bd11bce35650e","6368f2eea3e9634aebcc2f6b","636b48e2aeab7020c46d71f2","55.89999997615814","","","","37","","","","key","16.713984126984123","683","328.5","true","-1","150","30","0","-1","-1","","","","","","","","","","","","",""
"psychophysics","9","116147","0.0-6.0-0.3","62b2d869074bd11bce35650e","6368f2eea3e9634aebcc2f6b","636b48e2aeab7020c46d71f2","21.399999976158142","","","","39","","","","key","16.714868852459077","683","328.5","true","1","150","30","0","-1","-1","","","","","","","","","","","","",""
"psychophysics","10","119176","0.0-6.0-0.4","62b2d869074bd11bce35650e","6368f2eea3e9634aebcc2f6b","636b48e2aeab7020c46d71f2","2027.1999999284744","","","","37","","","","key","16.71405555555555","683","328.5","true","1","129","24","1","1","-1","","","","","","","","","","","","",""
"psychophysics","11","120398","0.0-6.0-0.5","62b2d869074bd11bce35650e","6368f2eea3e9634aebcc2f6b","636b48e2aeab7020c46d71f2","207.80000007152557","","","","37","","","","key","16.71308333333339","683","328.5","true","-1","153","24","1","-1","1","","","","","","","","","","","","",""
"psychophysics","12","121408","0.0-6.0-0.6","62b2d869074bd11bce35650e","6368f2eea3e9634aebcc2f6b","636b48e2aeab7020c46d71f2","3.5","","","","37","","","","key","16.712728813559437","683","328.5","true","-1","153","19.2","2","-1","-1","","","","","","","","","","","","",""
"psychophysics","13","126428","0.0-6.0-0.7","62b2d869074bd11bce35650e","6368f2eea3e9634aebcc2f6b","636b48e2aeab7020c46d71f2","4014.899999976158","","","","37","","","","key","16.714180000000002","683","328.5","true","1","133.8","15.36","3","1","-1","","","","","","","","","","","","",""
"psychophysics","14","127703","0.0-6.0-0.8","62b2d869074bd11bce35650e","6368f2eea3e9634aebcc2f6b","636b48e2aeab7020c46d71f2","258.59999990463257","","","","39","","","","key","16.71427999999995","683","328.5","true","1","149.16000000000003","15.36","3","-1","1","","","","","","","","","","","","",""
"psychophysics","15","136331","0.0-6.0-0.9","62b2d869074bd11bce35650e","6368f2eea3e9634aebcc2f6b","636b48e2aeab7020c46d71f2","7622.5","","","","37","","","","key","16.714141747572835","683","328.5","true","-1","149.16000000000003","12.287999999999998","4","-1","-1","","","","","","","","","","","","",""
"psychophysics","16","140908","0.0-6.0-0.10","62b2d869074bd11bce35650e","6368f2eea3e9634aebcc2f6b","636b48e2aeab7020c46d71f2","3569.4000000953674","","","","37","","","","key","16.714227106227096","683","328.5","true","1","136.872","9.8304","5","1","-1","","","","","","","","","","","","",""
"psychophysics","17","142213","0.0-6.0-0.11","62b2d869074bd11bce35650e","6368f2eea3e9634aebcc2f6b","636b48e2aeab7020c46d71f2","294","","","","39","","","","key","16.714064935065032","683","328.5","true","1","146.7024","9.8304","5","-1","1","","","","","","","","","","","","",""
"psychophysics","18","143262","0.0-6.0-0.12","62b2d869074bd11bce35650e","6368f2eea3e9634aebcc2f6b","636b48e2aeab7020c46d71f2","40.300000071525574","","","","39","","","","key","16.714209677419163","683","328.5","true","1","146.7024","7.864319999999999","6","-1","-1","","","","","","","","","","","","",""
"psychophysics","19","149131","0.0-6.0-0.13","62b2d869074bd11bce35650e","6368f2eea3e9634aebcc2f6b","636b48e2aeab7020c46d71f2","4860.700000047684","","","","37","","","","key","16.714337142857175","683","328.5","true","-1","138.83808000000002","7.864319999999999","6","-1","-1","","","","","","","","","","","","",""
"psychophysics","20","153582","0.0-6.0-0.14","62b2d869074bd11bce35650e","6368f2eea3e9634aebcc2f6b","636b48e2aeab7020c46d71f2","3440.5","","","","37","","","","key","16.714316981132164","683","328.5","true","1","138.83808000000002","6.291456","7","1","-1","","","","","","","","","","","","",""
"psychophysics","21","154730","0.0-6.0-0.15","62b2d869074bd11bce35650e","6368f2eea3e9634aebcc2f6b","636b48e2aeab7020c46d71f2","141.60000002384186","","","","39","","","","key","16.71314705882362","683","328.5","true","1","145.12953600000003","6.291456","7","-1","1","","","","","","","","","","","","",""
"psychophysics","22","159543","0.0-6.0-0.16","62b2d869074bd11bce35650e","6368f2eea3e9634aebcc2f6b","636b48e2aeab7020c46d71f2","3801.899999976158","","","","37","","","","key","16.71441463414638","683","328.5","true","-1","145.12953600000003","5.033164800000001","8","-1","-1","","","","","","","","","","","","",""
"psychophysics","23","163121","0.0-6.0-0.17","62b2d869074bd11bce35650e","6368f2eea3e9634aebcc2f6b","636b48e2aeab7020c46d71f2","2566.2999999523163","","","","39","","","","key","16.714131455399134","683","328.5","true","-1","140.09637120000002","4.0265318400000005","9","1","-1","","","","","","","","","","","","",""
"psychophysics","24","164218","0.0-6.0-0.18","62b2d869074bd11bce35650e","6368f2eea3e9634aebcc2f6b","636b48e2aeab7020c46d71f2","85.20000004768372","","","","37","","","","key","16.714476923076795","683","328.5","true","-1","144.12290304","4.0265318400000005","9","-1","1","","","","","","","","","","","","",""
"psychophysics","25","165228","0.0-6.0-0.19","62b2d869074bd11bce35650e","6368f2eea3e9634aebcc2f6b","636b48e2aeab7020c46d71f2","8.800000071525574","","","","37","","","","key","16.71291525423738","683","328.5","true","-1","144.12290304","3.2212254720000004","10","-1","-1","","","","","","","","","","","","",""
"psychophysics","26","166255","0.0-6.0-0.20","62b2d869074bd11bce35650e","6368f2eea3e9634aebcc2f6b","636b48e2aeab7020c46d71f2","16.399999976158142","","","","37","","","","key","16.714400000000023","683","328.5","true","-1","140.90167756800003","3.2212254720000004","10","-1","-1","","","","","","","","","","","","",""
"psychophysics","27","167300","0.0-6.0-0.21","62b2d869074bd11bce35650e","6368f2eea3e9634aebcc2f6b","636b48e2aeab7020c46d71f2","42.5","","","","39","","","","key","16.713677419354713","683","328.5","true","1","140.90167756800003","3.2212254720000004","10","-1","-1","","","","","","","","","","","","",""
"psychophysics","28","171346","0.0-6.0-0.22","62b2d869074bd11bce35650e","6368f2eea3e9634aebcc2f6b","636b48e2aeab7020c46d71f2","3035.7999999523163","","","","37","","","","key","16.71395435684645","683","328.5","true","-1","137.680452096","3.2212254720000004","10","-1","-1","","","","","","","","","","","","",""
"psychophysics","29","176135","0.0-6.0-0.23","62b2d869074bd11bce35650e","6368f2eea3e9634aebcc2f6b","636b48e2aeab7020c46d71f2","3779.100000023842","","","","37","","","","key","16.71423076923073","683","328.5","true","1","137.680452096","2.5769803776000004","11","1","-1","","","","","","","","","","","","",""
"psychophysics","30","177188","0.0-6.0-0.24","62b2d869074bd11bce35650e","6368f2eea3e9634aebcc2f6b","636b48e2aeab7020c46d71f2","50.300000071525574","","","","39","","","","key","16.713548387097095","683","328.5","true","1","140.2574324736","2.5769803776000004","11","-1","1","","","","","","","","","","","","",""
"psychophysics","31","178232","0.0-6.0-0.25","62b2d869074bd11bce35650e","6368f2eea3e9634aebcc2f6b","636b48e2aeab7020c46d71f2","42","","","","37","","","","key","16.714065573770803","683","328.5","true","-1","140.2574324736","2.0615843020800004","12","-1","-1","","","","","","","","","","","","",""
"psychophysics","32","181635","0.0-6.0-0.26","62b2d869074bd11bce35650e","6368f2eea3e9634aebcc2f6b","636b48e2aeab7020c46d71f2","2393.5","","","","39","","","","key","16.714270935960606","683","328.5","true","1","138.19584817152","2.0615843020800004","12","-1","-1","","","","","","","","","","","","",""
"psychophysics","33","188238","0.0-6.0-0.27","62b2d869074bd11bce35650e","6368f2eea3e9634aebcc2f6b","636b48e2aeab7020c46d71f2","5589.900000095367","","","","37","","","","key","16.714213197969602","683","328.5","true","1","138.19584817152","1.6492674416640005","13","1","-1","","","","","","","","","","","","",""
"psychophysics","34","189586","0.0-6.0-0.28","62b2d869074bd11bce35650e","6368f2eea3e9634aebcc2f6b","636b48e2aeab7020c46d71f2","334.2999999523163","","","","39","","","","key","16.713962025316345","683","328.5","true","1","139.845115613184","1.6492674416640005","13","-1","1","","","","","","","","","","","","",""
"psychophysics","35","197954","0.0-6.0-0.29","62b2d869074bd11bce35650e","6368f2eea3e9634aebcc2f6b","636b48e2aeab7020c46d71f2","7364.900000095367","","","","37","","","","key","16.714219999999973","683","328.5","true","-1","139.845115613184","1.3194139533312006","14","-1","-1","","","","","","","","","","","","",""
"psychophysics","36","207140","0.0-6.0-0.30","62b2d869074bd11bce35650e","6368f2eea3e9634aebcc2f6b","636b48e2aeab7020c46d71f2","8176.899999976158","","","","37","","","","key","16.714165755919836","683","328.5","true","1","138.52570165985279","1.0555311626649604","15","1","-1","","","","","","","","","","","","",""
"psychophysics","37","211925","0.0-6.0-0.31","62b2d869074bd11bce35650e","6368f2eea3e9634aebcc2f6b","636b48e2aeab7020c46d71f2","3769.1999999284744","","","","37","","","","key","16.71417543859652","683","328.5","true","-1","139.58123282251773","1.0555311626649604","15","-1","1","","","","","","","","","","","","",""
"psychophysics","38","218878","0.0-6.0-0.32","62b2d869074bd11bce35650e","6368f2eea3e9634aebcc2f6b","636b48e2aeab7020c46d71f2","5946.299999952316","","","","37","","","","key","16.714248192771084","683","328.5","true","1","139.58123282251773","1","16","1","-1","","","","","","","","","","","","",""
"psychophysics","39","224184","0.0-6.0-0.33","62b2d869074bd11bce35650e","6368f2eea3e9634aebcc2f6b","636b48e2aeab7020c46d71f2","4293.100000023842","","","","37","","","","key","16.714287974683625","683","328.5","true","-1","140.58123282251773","1","16","-1","1","","","","","","","","","","","","",""
"psychophysics","40","231092","0.0-6.0-0.34","62b2d869074bd11bce35650e","6368f2eea3e9634aebcc2f6b","636b48e2aeab7020c46d71f2","5904.399999976158","","","","37","","","","key","16.71424939467309","683","328.5","true","-1","140.58123282251773","1","17","-1","-1","","","","","","","","","","","","",""
"psychophysics","41","233196","0.0-6.0-0.35","62b2d869074bd11bce35650e","6368f2eea3e9634aebcc2f6b","636b48e2aeab7020c46d71f2","1096.7000000476837","","","","39","","","","key","16.71471200000006","683","328.5","true","1","139.58123282251773","1","17","-1","-1","","","","","","","","","","","","",""
"psychophysics","42","234629","0.0-6.0-0.36","62b2d869074bd11bce35650e","6368f2eea3e9634aebcc2f6b","636b48e2aeab7020c46d71f2","431","","","","37","","","","key","16.7134761904762","683","328.5","true","-1","139.58123282251773","1","17","-1","-1","","","","","","","","","","","","",""
"psychophysics","43","238239","0.0-6.0-0.37","62b2d869074bd11bce35650e","6368f2eea3e9634aebcc2f6b","636b48e2aeab7020c46d71f2","2605.100000023842","","","","39","","","","key","16.7142558139535","683","328.5","true","1","138.58123282251773","1","17","-1","-1","","","","","","","","","","","","",""
"psychophysics","44","246912","0.0-6.0-0.38","62b2d869074bd11bce35650e","6368f2eea3e9634aebcc2f6b","636b48e2aeab7020c46d71f2","7666.699999928474","","","","37","","","","key","16.714185328185337","683","328.5","true","1","138.58123282251773","1","18","1","-1","","","","","","","","","","","","",""
"psychophysics","45","248230","0.0-6.0-0.39","62b2d869074bd11bce35650e","6368f2eea3e9634aebcc2f6b","636b48e2aeab7020c46d71f2","310.2999999523163","","","","37","","","","key","16.71347435897452","683","328.5","true","-1","139.58123282251773","1","18","-1","1","","","","","","","","","","","","",""
"html-keyboard-response","46","252109","0.0-7.0","62b2d869074bd11bce35650e","6368f2eea3e9634aebcc2f6b","636b48e2aeab7020c46d71f2","3877.600000023842","<p>Well Done !</p><p>Prepare for a new block.</p><p>DON'T EXIT THE FULL SCREEN MODE</p><p>Press the Spacebar to start.</p>","","","32","","","","","","","","","","","","","","","true","139.40641047370133","","","","","","","","","","",""
"psychophysics","47","256252","0.0-8.0-0.0","62b2d869074bd11bce35650e","6368f2eea3e9634aebcc2f6b","636b48e2aeab7020c46d71f2","3139.100000023842","","","","39","","","","key","16.710209677419286","683","328.5","true","-1","180","30","0","1","","","","","","","","","","","","","",""
"psychophysics","48","257511","0.0-8.0-0.1","62b2d869074bd11bce35650e","6368f2eea3e9634aebcc2f6b","636b48e2aeab7020c46d71f2","254.29999995231628","","","","39","","","","key","16.714540540540394","683","328.5","true","1","210","30","0","-1","1","","","","","","","","","","","","",""
"psychophysics","49","258552","0.0-8.0-0.2","62b2d869074bd11bce35650e","6368f2eea3e9634aebcc2f6b","636b48e2aeab7020c46d71f2","38.89999997615814","","","","37","","","","key","16.714435483871174","683","328.5","true","-1","210","24","1","-1","-1","","","","","","","","","","","","",""
"psychophysics","50","267708","0.0-8.0-0.3","62b2d869074bd11bce35650e","6368f2eea3e9634aebcc2f6b","636b48e2aeab7020c46d71f2","8154.299999952316","","","","37","","","","key","16.714113553113478","683","328.5","true","1","186","19.2","2","1","-1","","","","","","","","","","","","",""
"psychophysics","51","268768","0.0-8.0-0.4","62b2d869074bd11bce35650e","6368f2eea3e9634aebcc2f6b","636b48e2aeab7020c46d71f2","55.89999997615814","","","","37","","","","key","16.71541269841264","683","328.5","true","-1","205.2","19.2","2","-1","1","","","","","","","","","","","","",""
"psychophysics","52","276957","0.0-8.0-0.5","62b2d869074bd11bce35650e","6368f2eea3e9634aebcc2f6b","636b48e2aeab7020c46d71f2","7180.299999952316","","","","37","","","","key","16.714171779141065","683","328.5","true","1","205.2","15.36","3","1","-1","","","","","","","","","","","","",""
"psychophysics","53","278014","0.0-8.0-0.6","62b2d869074bd11bce35650e","6368f2eea3e9634aebcc2f6b","636b48e2aeab7020c46d71f2","53.39999997615814","","","","37","","","","key","16.71441935483862","683","328.5","true","-1","220.56","15.36","3","-1","1","","","","","","","","","","","","",""
"psychophysics","54","284527","0.0-8.0-0.7","62b2d869074bd11bce35650e","6368f2eea3e9634aebcc2f6b","636b48e2aeab7020c46d71f2","5510.400000095367","","","","39","","","","key","16.713946015424106","683","328.5","true","-1","220.56","12.287999999999998","4","1","-1","","","","","","","","","","","","",""
"psychophysics","55","291628","0.0-8.0-0.8","62b2d869074bd11bce35650e","6368f2eea3e9634aebcc2f6b","636b48e2aeab7020c46d71f2","6090.799999952316","","","","37","","","","key","16.71415602836877","683","328.5","true","-1","232.848","12.287999999999998","4","-1","1","","","","","","","","","","","","",""
"psychophysics","56","299797","0.0-8.0-0.9","62b2d869074bd11bce35650e","6368f2eea3e9634aebcc2f6b","636b48e2aeab7020c46d71f2","7165.899999976158","","","","37","","","","key","16.714270491803305","683","328.5","true","-1","232.848","9.8304","5","-1","-1","","","","","","","","","","","","",""
"psychophysics","57","313817","0.0-8.0-0.10","62b2d869074bd11bce35650e","6368f2eea3e9634aebcc2f6b","636b48e2aeab7020c46d71f2","13016","","","","37","","","","key","16.714184964200435","683","328.5","true","-1","223.01760000000002","9.8304","5","-1","-1","","","","","","","","","","","","",""
"psychophysics","58","319189","0.0-8.0-0.11","62b2d869074bd11bce35650e","6368f2eea3e9634aebcc2f6b","636b48e2aeab7020c46d71f2","4367.399999976158","","","","39","","","","key","16.7141718750001","683","328.5","true","-1","223.01760000000002","7.864319999999999","6","1","-1","","","","","","","","","","","","",""
"psychophysics","59","324643","0.0-8.0-0.12","62b2d869074bd11bce35650e","6368f2eea3e9634aebcc2f6b","636b48e2aeab7020c46d71f2","4450.5","","","","37","","","","key","16.714088957055232","683","328.5","true","-1","230.88192","7.864319999999999","6","-1","1","","","","","","","","","","","","",""
"psychophysics","60","327687","0.0-8.0-0.13","62b2d869074bd11bce35650e","6368f2eea3e9634aebcc2f6b","636b48e2aeab7020c46d71f2","2041.1999999284744","","","","39","","","","key","16.714574585635297","683","328.5","true","1","230.88192","6.291456","7","-1","-1","","","","","","","","","","","","",""
"psychophysics","61","333602","0.0-8.0-0.14","62b2d869074bd11bce35650e","6368f2eea3e9634aebcc2f6b","636b48e2aeab7020c46d71f2","4913.5","","","","39","","","","key","16.714014164306008","683","328.5","true","1","224.590464","6.291456","7","-1","-1","","","","","","","","","","","","",""
"psychophysics","62","340087","0.0-8.0-0.15","62b2d869074bd11bce35650e","6368f2eea3e9634aebcc2f6b","636b48e2aeab7020c46d71f2","5477.600000023842","","","","39","","","","key","16.71403875969003","683","328.5","true","1","224.590464","6.291456","7","-1","-1","","","","","","","","","","","","",""
"psychophysics","63","347579","0.0-8.0-0.16","62b2d869074bd11bce35650e","6368f2eea3e9634aebcc2f6b","636b48e2aeab7020c46d71f2","6482.599999904633","","","","37","","","","key","16.71431991051462","683","328.5","true","1","218.299008","5.033164800000001","8","1","-1","","","","","","","","","","","","",""
"psychophysics","64","353246","0.0-8.0-0.17","62b2d869074bd11bce35650e","6368f2eea3e9634aebcc2f6b","636b48e2aeab7020c46d71f2","4660.5","","","","39","","","","key","16.714177514792876","683","328.5","true","-1","223.3321728","5.033164800000001","8","1","1","","","","","","","","","","","","",""
"psychophysics","65","359603","0.0-8.0-0.18","62b2d869074bd11bce35650e","6368f2eea3e9634aebcc2f6b","636b48e2aeab7020c46d71f2","5353.099999904633","","","","39","","","","key","16.714189973614815","683","328.5","true","1","228.3653376","5.033164800000001","8","-1","1","","","","","","","","","","","","",""
"psychophysics","66","369121","0.0-8.0-0.19","62b2d869074bd11bce35650e","6368f2eea3e9634aebcc2f6b","636b48e2aeab7020c46d71f2","8513.699999928474","","","","37","","","","key","16.714068541300616","683","328.5","true","-1","228.3653376","4.0265318400000005","9","-1","-1","","","","","","","","","","","","",""
"psychophysics","67","379303","0.0-8.0-0.20","62b2d869074bd11bce35650e","6368f2eea3e9634aebcc2f6b","636b48e2aeab7020c46d71f2","9174.599999904633","","","","39","","","","key","16.714210526315775","683","328.5","true","-1","224.33880576","3.2212254720000004","10","1","-1","","","","","","","","","","","","",""
"psychophysics","68","381992","0.0-8.0-0.21","62b2d869074bd11bce35650e","6368f2eea3e9634aebcc2f6b","636b48e2aeab7020c46d71f2","1687.5","","","","39","","","","key","16.714050000000135","683","328.5","true","-1","227.56003123200003","3.2212254720000004","10","1","1","","","","","","","","","","","","",""
"psychophysics","69","386063","0.0-8.0-0.22","62b2d869074bd11bce35650e","6368f2eea3e9634aebcc2f6b","636b48e2aeab7020c46d71f2","3062.1999999284744","","","","39","","","","key","16.71456198347107","683","328.5","true","-1","230.78125670400004","3.2212254720000004","10","1","1","","","","","","","","","","","","",""
"psychophysics","70","388834","0.0-8.0-0.23","62b2d869074bd11bce35650e","6368f2eea3e9634aebcc2f6b","636b48e2aeab7020c46d71f2","1768.6999999284744","","","","39","","","","key","16.7143030303033","683","328.5","true","1","234.00248217600006","3.2212254720000004","10","-1","1","","","","","","","","","","","","",""
"psychophysics","71","389842","0.0-8.0-0.24","62b2d869074bd11bce35650e","6368f2eea3e9634aebcc2f6b","636b48e2aeab7020c46d71f2","1.7000000476837158","","","","39","","","","key","16.715799999999582","683","328.5","true","1","234.00248217600006","2.5769803776000004","11","-1","-1","","","","","","","","","","","","",""
"psychophysics","72","394263","0.0-8.0-0.25","62b2d869074bd11bce35650e","6368f2eea3e9634aebcc2f6b","636b48e2aeab7020c46d71f2","3419.399999976158","","","","37","","","","key","16.71444106463873","683","328.5","true","-1","231.42550179840006","2.5769803776000004","11","-1","-1","","","","","","","","","","","","",""
"psychophysics","73","400156","0.0-8.0-0.26","62b2d869074bd11bce35650e","6368f2eea3e9634aebcc2f6b","636b48e2aeab7020c46d71f2","4883.899999976158","","","","37","","","","key","16.71420738636351","683","328.5","true","1","231.42550179840006","2.0615843020800004","12","1","-1","","","","","","","","","","","","",""
"psychophysics","74","403325","0.0-8.0-0.27","62b2d869074bd11bce35650e","6368f2eea3e9634aebcc2f6b","636b48e2aeab7020c46d71f2","2164","","","","39","","","","key","16.71410106383004","683","328.5","true","1","233.48708610048007","2.0615843020800004","12","-1","1","","","","","","","","","","","","",""
"psychophysics","75","407135","0.0-8.0-0.28","62b2d869074bd11bce35650e","6368f2eea3e9634aebcc2f6b","636b48e2aeab7020c46d71f2","2806.1999999284744","","","","39","","","","key","16.71446696035246","683","328.5","true","1","233.48708610048007","1.6492674416640005","13","-1","-1","","","","","","","","","","","","",""
"psychophysics","76","412006","0.0-8.0-0.29","62b2d869074bd11bce35650e","6368f2eea3e9634aebcc2f6b","636b48e2aeab7020c46d71f2","3863.7999999523163","","","","39","","","","key","16.714470790378083","683","328.5","true","1","231.83781865881608","1.6492674416640005","13","-1","-1","","","","","","","","","","","","",""
"psychophysics","77","413055","0.0-8.0-0.30","62b2d869074bd11bce35650e","6368f2eea3e9634aebcc2f6b","636b48e2aeab7020c46d71f2","45.700000047683716","","","","37","","","","key","16.71459016393389","683","328.5","true","-1","231.83781865881608","1.6492674416640005","13","-1","-1","","","","","","","","","","","","",""
"psychophysics","78","416409","0.0-8.0-0.31","62b2d869074bd11bce35650e","6368f2eea3e9634aebcc2f6b","636b48e2aeab7020c46d71f2","2350.2999999523163","","","","39","","","","key","16.71412500000006","683","328.5","true","1","230.18855121715208","1.6492674416640005","13","-1","-1","","","","","","","","","","","","",""
"psychophysics","79","419699","0.0-8.0-0.32","62b2d869074bd11bce35650e","6368f2eea3e9634aebcc2f6b","636b48e2aeab7020c46d71f2","2281.7999999523163","","","","39","","","","key","16.71394897959188","683","328.5","true","-1","230.18855121715208","1.3194139533312006","14","1","-1","","","","","","","","","","","","",""
"psychophysics","80","424488","0.0-8.0-0.33","62b2d869074bd11bce35650e","6368f2eea3e9634aebcc2f6b","636b48e2aeab7020c46d71f2","3783.2000000476837","","","","37","","","","key","16.714200000000073","683","328.5","true","1","231.5079651704833","1.3194139533312006","14","1","1","","","","","","","","","","","","",""
"psychophysics","81","430063","0.0-8.0-0.34","62b2d869074bd11bce35650e","6368f2eea3e9634aebcc2f6b","636b48e2aeab7020c46d71f2","4570.699999928474","","","","37","","","","key","16.71406306306305","683","328.5","true","1","232.8273791238145","1.3194139533312006","14","1","1","","","","","","","","","","","","",""
"psychophysics","82","433668","0.0-8.0-0.35","62b2d869074bd11bce35650e","6368f2eea3e9634aebcc2f6b","636b48e2aeab7020c46d71f2","2603.2000000476837","","","","39","","","","key","16.71422325581404","683","328.5","true","1","234.1467930771457","1.3194139533312006","14","-1","1","","","","","","","","","","","","",""
"psychophysics","83","440002","0.0-8.0-0.36","62b2d869074bd11bce35650e","6368f2eea3e9634aebcc2f6b","636b48e2aeab7020c46d71f2","5329.099999904633","","","","39","","","","key","16.714031746031694","683","328.5","true","1","234.1467930771457","1.0555311626649604","15","-1","-1","","","","","","","","","","","","",""
"psychophysics","84","445434","0.0-8.0-0.37","62b2d869074bd11bce35650e","6368f2eea3e9634aebcc2f6b","636b48e2aeab7020c46d71f2","4430","","","","39","","","","key","16.714339506172827","683","328.5","true","-1","233.09126191448075","1","16","1","-1","","","","","","","","","","","","",""
"psychophysics","85","446439","0.0-8.0-0.38","62b2d869074bd11bce35650e","6368f2eea3e9634aebcc2f6b","636b48e2aeab7020c46d71f2","2.3000000715255737","","","","39","","","","key","16.714728813559226","683","328.5","true","1","234.09126191448075","1","16","-1","1","","","","","","","","","","","","",""
"psychophysics","86","453313","0.0-8.0-0.39","62b2d869074bd11bce35650e","6368f2eea3e9634aebcc2f6b","636b48e2aeab7020c46d71f2","5871","","","","37","","","","key","16.714195121951235","683","328.5","true","-1","234.09126191448075","1","17","-1","-1","","","","","","","","","","","","",""
"html-keyboard-response","87","456286","0.0-9.0","62b2d869074bd11bce35650e","6368f2eea3e9634aebcc2f6b","636b48e2aeab7020c46d71f2","2971.5","<p>Well Done !</p><p>Prepare for a new block.</p><p>DON'T EXIT THE FULL SCREEN MODE</p><p>Press the Spacebar to start.</p>","","","32","","","","","","","","","","","","","","","true","232.5187087827818","","","","","","","","","","",""
"psychophysics","88","461769","0.0-10.0-0.0","62b2d869074bd11bce35650e","6368f2eea3e9634aebcc2f6b","636b48e2aeab7020c46d71f2","4471.199999928474","","","","37","","","","key","16.699689024390132","683","328.5","true","1","180","30","0","1","","","","","","","","","","","","","",""
"psychophysics","89","470841","0.0-10.0-0.1","62b2d869074bd11bce35650e","6368f2eea3e9634aebcc2f6b","636b48e2aeab7020c46d71f2","8063.799999952316","","","","37","","","","key","16.714225092251006","683","328.5","true","-1","210","30","0","-1","1","","","","","","","","","","","","",""
"psychophysics","90","475116","0.0-10.0-0.2","62b2d869074bd11bce35650e","6368f2eea3e9634aebcc2f6b","636b48e2aeab7020c46d71f2","3266.600000023842","","","","39","","","","key","16.71429527559048","683","328.5","true","1","210","24","1","-1","-1","","","","","","","","","","","","",""
"psychophysics","91","478579","0.0-10.0-0.3","62b2d869074bd11bce35650e","6368f2eea3e9634aebcc2f6b","636b48e2aeab7020c46d71f2","2460","","","","37","","","","key","16.714246376811534","683","328.5","true","1","186","19.2","2","1","-1","","","","","","","","","","","","",""
"psychophysics","92","479718","0.0-10.0-0.4","62b2d869074bd11bce35650e","6368f2eea3e9634aebcc2f6b","636b48e2aeab7020c46d71f2","136.70000004768372","","","","37","","","","key","16.71388059701517","683","328.5","true","-1","205.2","19.2","2","-1","1","","","","","","","","","","","","",""
"psychophysics","93","481950","0.0-10.0-0.5","62b2d869074bd11bce35650e","6368f2eea3e9634aebcc2f6b","636b48e2aeab7020c46d71f2","1230.2999999523163","","","","37","","","","key","16.71484848484838","683","328.5","true","1","205.2","15.36","3","1","-1","","","","","","","","","","","","",""
"psychophysics","94","482964","0.0-10.0-0.6","62b2d869074bd11bce35650e","6368f2eea3e9634aebcc2f6b","636b48e2aeab7020c46d71f2","11.699999928474426","","","","37","","","","key","16.714450000000458","683","328.5","true","-1","220.56","15.36","3","-1","1","","","","","","","","","","","","",""
"psychophysics","95","487860","0.0-10.0-0.7","62b2d869074bd11bce35650e","6368f2eea3e9634aebcc2f6b","636b48e2aeab7020c46d71f2","3892.399999976158","","","","37","","","","key","16.71423972602746","683","328.5","true","-1","220.56","12.287999999999998","4","-1","-1","","","","","","","","","","","","",""
"psychophysics","96","491430","0.0-10.0-0.8","62b2d869074bd11bce35650e","6368f2eea3e9634aebcc2f6b","636b48e2aeab7020c46d71f2","2565.399999976158","","","","37","","","","key","16.714309859154866","683","328.5","true","-1","208.272","12.287999999999998","4","-1","-1","","","","","","","","","","","","",""
"psychophysics","97","495743","0.0-10.0-0.9","62b2d869074bd11bce35650e","6368f2eea3e9634aebcc2f6b","636b48e2aeab7020c46d71f2","3310.5","","","","37","","","","key","16.714198443579765","683","328.5","true","-1","208.272","12.287999999999998","4","-1","-1","","","","","","","","","","","","",""
"psychophysics","98","498505","0.0-10.0-0.10","62b2d869074bd11bce35650e","6368f2eea3e9634aebcc2f6b","636b48e2aeab7020c46d71f2","1760.3000000715256","","","","37","","","","key","16.714567073170812","683","328.5","true","-1","195.98399999999998","12.287999999999998","4","-1","-1","","","","","","","","","","","","",""
"psychophysics","99","500466","0.0-10.0-0.11","62b2d869074bd11bce35650e","6368f2eea3e9634aebcc2f6b","636b48e2aeab7020c46d71f2","954.1000000238419","","","","37","","","","key","16.714163793103392","683","328.5","true","-1","195.98399999999998","12.287999999999998","4","-1","-1","","","","","","","","","","","","",""
"psychophysics","100","504591","0.0-10.0-0.12","62b2d869074bd11bce35650e","6368f2eea3e9634aebcc2f6b","636b48e2aeab7020c46d71f2","3119.600000023842","","","","37","","","","key","16.714235772357682","683","328.5","true","1","183.69599999999997","9.8304","5","1","-1","","","","","","","","","","","","",""
"psychophysics","101","508262","0.0-10.0-0.13","62b2d869074bd11bce35650e","6368f2eea3e9634aebcc2f6b","636b48e2aeab7020c46d71f2","2662.2000000476837","","","","37","","","","key","16.713520547945198","683","328.5","true","1","193.52639999999997","9.8304","5","1","1","","","","","","","","","","","","",""
"psychophysics","102","511208","0.0-10.0-0.14","62b2d869074bd11bce35650e","6368f2eea3e9634aebcc2f6b","636b48e2aeab7020c46d71f2","1944.2999999523163","","","","37","","","","key","16.714451428571316","683","328.5","true","1","203.35679999999996","9.8304","5","1","1","","","","","","","","","","","","",""
"psychophysics","103","514396","0.0-10.0-0.15","62b2d869074bd11bce35650e","6368f2eea3e9634aebcc2f6b","636b48e2aeab7020c46d71f2","2179.7000000476837","","","","39","","","","key","16.714215789473688","683","328.5","true","1","213.18719999999996","9.8304","5","-1","1","","","","","","","","","","","","",""
"psychophysics","104","516626","0.0-10.0-0.16","62b2d869074bd11bce35650e","6368f2eea3e9634aebcc2f6b","636b48e2aeab7020c46d71f2","1228","","","","37","","","","key","16.714477272727173","683","328.5","true","-1","213.18719999999996","7.864319999999999","6","-1","-1","","","","","","","","","","","","",""
"psychophysics","105","519923","0.0-10.0-0.17","62b2d869074bd11bce35650e","6368f2eea3e9634aebcc2f6b","636b48e2aeab7020c46d71f2","2291.100000023842","","","","37","","","","key","16.71422448979598","683","328.5","true","1","205.32287999999997","6.291456","7","1","-1","","","","","","","","","","","","",""
"psychophysics","106","523514","0.0-10.0-0.18","62b2d869074bd11bce35650e","6368f2eea3e9634aebcc2f6b","636b48e2aeab7020c46d71f2","2586.600000023842","","","","37","","","","key","16.71389252336442","683","328.5","true","-1","211.61433599999998","6.291456","7","-1","1","","","","","","","","","","","","",""
"psychophysics","107","526419","0.0-10.0-0.19","62b2d869074bd11bce35650e","6368f2eea3e9634aebcc2f6b","636b48e2aeab7020c46d71f2","1898.9000000953674","","","","37","","","","key","16.71464739884371","683","328.5","true","-1","211.61433599999998","5.033164800000001","8","-1","-1","","","","","","","","","","","","",""
"psychophysics","108","529195","0.0-10.0-0.20","62b2d869074bd11bce35650e","6368f2eea3e9634aebcc2f6b","636b48e2aeab7020c46d71f2","1770.4000000953674","","","","37","","","","key","16.714115151515315","683","328.5","true","-1","206.58117119999997","5.033164800000001","8","-1","-1","","","","","","","","","","","","",""
"psychophysics","109","531826","0.0-10.0-0.21","62b2d869074bd11bce35650e","6368f2eea3e9634aebcc2f6b","636b48e2aeab7020c46d71f2","1625.4000000953674","","","","37","","","","key","16.71431410256385","683","328.5","true","1","206.58117119999997","4.0265318400000005","9","1","-1","","","","","","","","","","","","",""
"psychophysics","110","534662","0.0-10.0-0.22","62b2d869074bd11bce35650e","6368f2eea3e9634aebcc2f6b","636b48e2aeab7020c46d71f2","1833.5","","","","37","","","","key","16.714260355029367","683","328.5","true","-1","210.60770303999996","4.0265318400000005","9","-1","1","","","","","","","","","","","","",""
"psychophysics","111","538059","0.0-10.0-0.23","62b2d869074bd11bce35650e","6368f2eea3e9634aebcc2f6b","636b48e2aeab7020c46d71f2","2394.899999976158","","","","37","","","","key","16.713910891088926","683","328.5","true","1","210.60770303999996","3.2212254720000004","10","1","-1","","","","","","","","","","","","",""
"psychophysics","112","540475","0.0-10.0-0.24","62b2d869074bd11bce35650e","6368f2eea3e9634aebcc2f6b","636b48e2aeab7020c46d71f2","1411.6000000238419","","","","37","","","","key","16.71493055555604","683","328.5","true","-1","213.82892851199995","3.2212254720000004","10","-1","1","","","","","","","","","","","","",""
"psychophysics","113","542788","0.0-10.0-0.25","62b2d869074bd11bce35650e","6368f2eea3e9634aebcc2f6b","636b48e2aeab7020c46d71f2","1307.8999999761581","","","","37","","","","key","16.71440145985332","683","328.5","true","-1","213.82892851199995","2.5769803776000004","11","-1","-1","","","","","","","","","","","","",""
"psychophysics","114","544570","0.0-10.0-0.26","62b2d869074bd11bce35650e","6368f2eea3e9634aebcc2f6b","636b48e2aeab7020c46d71f2","778.3999999761581","","","","37","","","","key","16.71375471698164","683","328.5","true","1","211.25194813439995","2.0615843020800004","12","1","-1","","","","","","","","","","","","",""
"psychophysics","115","546423","0.0-10.0-0.27","62b2d869074bd11bce35650e","6368f2eea3e9634aebcc2f6b","636b48e2aeab7020c46d71f2","846.2999999523163","","","","37","","","","key","16.714445454545785","683","328.5","true","1","213.31353243647996","2.0615843020800004","12","1","1","","","","","","","","","","","","",""
"psychophysics","116","549063","0.0-10.0-0.28","62b2d869074bd11bce35650e","6368f2eea3e9634aebcc2f6b","636b48e2aeab7020c46d71f2","1637.5999999046326","","","","37","","","","key","16.714611464968264","683","328.5","true","1","215.37511673855997","2.0615843020800004","12","1","1","","","","","","","","","","","","",""
"psychophysics","117","551372","0.0-10.0-0.29","62b2d869074bd11bce35650e","6368f2eea3e9634aebcc2f6b","636b48e2aeab7020c46d71f2","1308","","","","39","","","","key","16.71364963503663","683","328.5","true","1","217.43670104063997","2.0615843020800004","12","-1","1","","","","","","","","","","","","",""
"psychophysics","118","554649","0.0-10.0-0.30","62b2d869074bd11bce35650e","6368f2eea3e9634aebcc2f6b","636b48e2aeab7020c46d71f2","2274.600000023842","","","","37","","","","key","16.71420000000045","683","328.5","true","-1","217.43670104063997","1.6492674416640005","13","-1","-1","","","","","","","","","","","","",""
"psychophysics","119","558142","0.0-10.0-0.31","62b2d869074bd11bce35650e","6368f2eea3e9634aebcc2f6b","636b48e2aeab7020c46d71f2","2486.2999999523163","","","","37","","","","key","16.71398076923092","683","328.5","true","1","215.78743359897598","1.3194139533312006","14","1","-1","","","","","","","","","","","","",""
"psychophysics","120","560823","0.0-10.0-0.32","62b2d869074bd11bce35650e","6368f2eea3e9634aebcc2f6b","636b48e2aeab7020c46d71f2","1677.6000000238419","","","","37","","","","key","16.71416981132048","683","328.5","true","1","217.1068475523072","1.3194139533312006","14","1","1","","","","","","","","","","","","",""
"psychophysics","121","564178","0.0-10.0-0.33","62b2d869074bd11bce35650e","6368f2eea3e9634aebcc2f6b","636b48e2aeab7020c46d71f2","2352.5999999046326","","","","37","","","","key","16.713759999999894","683","328.5","true","-1","218.4262615056384","1.3194139533312006","14","-1","1","","","","","","","","","","","","",""
"psychophysics","122","568538","0.0-10.0-0.34","62b2d869074bd11bce35650e","6368f2eea3e9634aebcc2f6b","636b48e2aeab7020c46d71f2","3353.399999976158","","","","37","","","","key","16.714165384615235","683","328.5","true","1","218.4262615056384","1.0555311626649604","15","1","-1","","","","","","","","","","","","",""
"psychophysics","123","569690","0.0-10.0-0.35","62b2d869074bd11bce35650e","6368f2eea3e9634aebcc2f6b","636b48e2aeab7020c46d71f2","144.70000004768372","","","","37","","","","key","16.713985294117318","683","328.5","true","-1","219.48179266830334","1.0555311626649604","15","-1","1","","","","","","","","","","","","",""
"psychophysics","124","573254","0.0-10.0-0.36","62b2d869074bd11bce35650e","6368f2eea3e9634aebcc2f6b","636b48e2aeab7020c46d71f2","2557.399999976158","","","","37","","","","key","16.71429245283043","683","328.5","true","-1","219.48179266830334","1","16","-1","-1","","","","","","","","","","","","",""
"psychophysics","125","575993","0.0-10.0-0.37","62b2d869074bd11bce35650e","6368f2eea3e9634aebcc2f6b","636b48e2aeab7020c46d71f2","1736.1000000238419","","","","37","","","","key","16.714184049079822","683","328.5","true","1","218.48179266830334","1","17","1","-1","","","","","","","","","","","","",""
"psychophysics","126","579431","0.0-10.0-0.38","62b2d869074bd11bce35650e","6368f2eea3e9634aebcc2f6b","636b48e2aeab7020c46d71f2","2429.399999976158","","","","37","","","","key","16.7140780487802","683","328.5","true","1","219.48179266830334","1","17","1","1","","","","","","","","","","","","",""
"psychophysics","127","581570","0.0-10.0-0.39","62b2d869074bd11bce35650e","6368f2eea3e9634aebcc2f6b","636b48e2aeab7020c46d71f2","1137.1000000238419","","","","37","","","","key","16.713614173228926","683","328.5","true","-1","220.48179266830334","1","17","-1","1","","","","","","","","","","","","",""
"html-keyboard-response","128","583462","0.0-11.0","62b2d869074bd11bce35650e","6368f2eea3e9634aebcc2f6b","636b48e2aeab7020c46d71f2","1889.8000000715256","<p>Well Done !</p><p>Prepare for a new block.</p><p>DON'T EXIT THE FULL SCREEN MODE</p><p>Press the Spacebar to start.</p>","","","32","","","","","","","","","","","","","","","true","217.05324636045316","","","","","","","","","","",""
"psychophysics","129","585771","0.0-12.0-0.0","62b2d869074bd11bce35650e","6368f2eea3e9634aebcc2f6b","636b48e2aeab7020c46d71f2","1294.3000000715256","","","","37","","","","key","16.76910144927493","683","328.5","true","1","180","30","0","1","","","","","","","","","","","","","",""
"psychophysics","130","589658","0.0-12.0-0.1","62b2d869074bd11bce35650e","6368f2eea3e9634aebcc2f6b","636b48e2aeab7020c46d71f2","2874.100000023842","","","","37","","","","key","16.713870129870045","683","328.5","true","1","210","30","0","1","1","","","","","","","","","","","","",""
"psychophysics","131","592788","0.0-12.0-0.2","62b2d869074bd11bce35650e","6368f2eea3e9634aebcc2f6b","636b48e2aeab7020c46d71f2","2126.5","","","","37","","","","key","16.71370588235288","683","328.5","true","1","240","30","0","1","1","","","","","","","","","","","","",""
"psychophysics","132","596725","0.0-12.0-0.3","62b2d869074bd11bce35650e","6368f2eea3e9634aebcc2f6b","636b48e2aeab7020c46d71f2","2932.399999976158","","","","37","","","","key","16.71450427350435","683","328.5","true","-1","255","30","0","-1","1","","","","","","","","","","","","",""
"psychophysics","133","599717","0.0-12.0-0.4","62b2d869074bd11bce35650e","6368f2eea3e9634aebcc2f6b","636b48e2aeab7020c46d71f2","1988.1000000238419","","","","39","","","","key","16.714202247191157","683","328.5","true","1","255","24","1","-1","-1","","","","","","","","","","","","",""
"psychophysics","134","601384","0.0-12.0-0.5","62b2d869074bd11bce35650e","6368f2eea3e9634aebcc2f6b","636b48e2aeab7020c46d71f2","662.3000000715256","","","","37","","","","key","16.71458585858533","683","328.5","true","-1","231","24","1","-1","-1","","","","","","","","","","","","",""
"psychophysics","135","604092","0.0-12.0-0.6","62b2d869074bd11bce35650e","6368f2eea3e9634aebcc2f6b","636b48e2aeab7020c46d71f2","1696.7999999523163","","","","37","","","","key","16.713937888198867","683","328.5","true","1","231","19.2","2","1","-1","","","","","","","","","","","","",""
"psychophysics","136","607177","0.0-12.0-0.7","62b2d869074bd11bce35650e","6368f2eea3e9634aebcc2f6b","636b48e2aeab7020c46d71f2","2075.5","","","","37","","","","key","16.71397282608719","683","328.5","true","1","250.2","19.2","2","1","1","","","","","","","","","","","","",""
"psychophysics","137","611775","0.0-12.0-0.8","62b2d869074bd11bce35650e","6368f2eea3e9634aebcc2f6b","636b48e2aeab7020c46d71f2","3595.2000000476837","","","","37","","","","key","16.714489051094958","683","328.5","true","1","255","19.2","2","1","1","","","","","","","","","","","","",""
"psychophysics","138","614723","0.0-12.0-0.9","62b2d869074bd11bce35650e","6368f2eea3e9634aebcc2f6b","636b48e2aeab7020c46d71f2","1933.0999999046326","","","","39","","","","key","16.71451999999982","683","328.5","true","1","255","19.2","2","-1","1","","","","","","","","","","","","",""
"psychophysics","139","618357","0.0-12.0-0.10","62b2d869074bd11bce35650e","6368f2eea3e9634aebcc2f6b","636b48e2aeab7020c46d71f2","2626","","","","37","","","","key","16.71421296296305","683","328.5","true","-1","235.8","15.36","3","-1","-1","","","","","","","","","","","","",""
"psychophysics","140","622681","0.0-12.0-0.11","62b2d869074bd11bce35650e","6368f2eea3e9634aebcc2f6b","636b48e2aeab7020c46d71f2","3319.899999976158","","","","37","","","","key","16.71410465116257","683","328.5","true","1","235.8","12.287999999999998","4","1","-1","","","","","","","","","","","","",""
"psychophysics","141","625014","0.0-12.0-0.12","62b2d869074bd11bce35650e","6368f2eea3e9634aebcc2f6b","636b48e2aeab7020c46d71f2","1326","","","","39","","","","key","16.71459712230235","683","328.5","true","1","248.08800000000002","12.287999999999998","4","-1","1","","","","","","","","","","","","",""
"psychophysics","142","628960","0.0-12.0-0.13","62b2d869074bd11bce35650e","6368f2eea3e9634aebcc2f6b","636b48e2aeab7020c46d71f2","2931.399999976158","","","","37","","","","key","16.71397446808504","683","328.5","true","-1","248.08800000000002","9.8304","5","-1","-1","","","","","","","","","","","","",""
"psychophysics","143","632330","0.0-12.0-0.14","62b2d869074bd11bce35650e","6368f2eea3e9634aebcc2f6b","636b48e2aeab7020c46d71f2","2356.7999999523163","","","","37","","","","key","16.714029999999912","683","328.5","true","-1","238.25760000000002","9.8304","5","-1","-1","","","","","","","","","","","","",""
"psychophysics","144","633510","0.0-12.0-0.15","62b2d869074bd11bce35650e","6368f2eea3e9634aebcc2f6b","636b48e2aeab7020c46d71f2","177.10000002384186","","","","37","","","","key","16.713942857143202","683","328.5","true","-1","238.25760000000002","9.8304","5","-1","-1","","","","","","","","","","","","",""
"psychophysics","145","635265","0.0-12.0-0.16","62b2d869074bd11bce35650e","6368f2eea3e9634aebcc2f6b","636b48e2aeab7020c46d71f2","746.8999999761581","","","","37","","","","key","16.714173076922844","683","328.5","true","1","228.42720000000003","7.864319999999999","6","1","-1","","","","","","","","","","","","",""
"psychophysics","146","637522","0.0-12.0-0.17","62b2d869074bd11bce35650e","6368f2eea3e9634aebcc2f6b","636b48e2aeab7020c46d71f2","1247.2999999523163","","","","37","","","","key","16.714358208955563","683","328.5","true","1","236.29152000000002","7.864319999999999","6","1","1","","","","","","","","","","","","",""
"psychophysics","147","640507","0.0-12.0-0.18","62b2d869074bd11bce35650e","6368f2eea3e9634aebcc2f6b","636b48e2aeab7020c46d71f2","1976.8000000715256","","","","37","","","","key","16.71423033707817","683","328.5","true","-1","244.15584","7.864319999999999","6","-1","1","","","","","","","","","","","","",""
"psychophysics","148","642112","0.0-12.0-0.19","62b2d869074bd11bce35650e","6368f2eea3e9634aebcc2f6b","636b48e2aeab7020c46d71f2","589.5","","","","37","","","","key","16.714863157894854","683","328.5","true","1","244.15584","6.291456","7","1","-1","","","","","","","","","","","","",""
"psychophysics","149","644282","0.0-12.0-0.20","62b2d869074bd11bce35650e","6368f2eea3e9634aebcc2f6b","636b48e2aeab7020c46d71f2","1154.7999999523163","","","","37","","","","key","16.714310077519894","683","328.5","true","-1","250.44729600000002","6.291456","7","-1","1","","","","","","","","","","","","",""
"psychophysics","150","645993","0.0-12.0-0.21","62b2d869074bd11bce35650e","6368f2eea3e9634aebcc2f6b","636b48e2aeab7020c46d71f2","709.1000000238419","","","","37","","","","key","16.714386138613197","683","328.5","true","1","250.44729600000002","5.033164800000001","8","1","-1","","","","","","","","","","","","",""
"psychophysics","151","647667","0.0-12.0-0.22","62b2d869074bd11bce35650e","6368f2eea3e9634aebcc2f6b","636b48e2aeab7020c46d71f2","662.5999999046326","","","","37","","","","key","16.714282828283196","683","328.5","true","-1","255","5.033164800000001","8","-1","1","","","","","","","","","","","","",""
"psychophysics","152","648808","0.0-12.0-0.23","62b2d869074bd11bce35650e","6368f2eea3e9634aebcc2f6b","636b48e2aeab7020c46d71f2","131.5","","","","37","","","","key","16.714641791045555","683","328.5","true","-1","255","4.0265318400000005","9","-1","-1","","","","","","","","","","","","",""
"psychophysics","153","650517","0.0-12.0-0.24","62b2d869074bd11bce35650e","6368f2eea3e9634aebcc2f6b","636b48e2aeab7020c46d71f2","704.7999999523163","","","","37","","","","key","16.713872549020202","683","328.5","true","1","250.97346816","3.2212254720000004","10","1","-1","","","","","","","","","","","","",""
"psychophysics","154","653737","0.0-12.0-0.25","62b2d869074bd11bce35650e","6368f2eea3e9634aebcc2f6b","636b48e2aeab7020c46d71f2","2218.2000000476837","","","","37","","","","key","16.71441361256595","683","328.5","true","-1","254.194693632","3.2212254720000004","10","-1","1","","","","","","","","","","","","",""
"psychophysics","155","656281","0.0-12.0-0.26","62b2d869074bd11bce35650e","6368f2eea3e9634aebcc2f6b","636b48e2aeab7020c46d71f2","1536.8999999761581","","","","37","","","","key","16.714112582781492","683","328.5","true","1","254.194693632","2.5769803776000004","11","1","-1","","","","","","","","","","","","",""
"psychophysics","156","658226","0.0-12.0-0.27","62b2d869074bd11bce35650e","6368f2eea3e9634aebcc2f6b","636b48e2aeab7020c46d71f2","942.2999999523163","","","","37","","","","key","16.713896551724435","683","328.5","true","-1","255","2.5769803776000004","11","-1","1","","","","","","","","","","","","",""
"psychophysics","157","661959","0.0-12.0-0.28","62b2d869074bd11bce35650e","6368f2eea3e9634aebcc2f6b","636b48e2aeab7020c46d71f2","2728.6999999284744","","","","37","","","","key","16.714220720720856","683","328.5","true","-1","255","2.0615843020800004","12","-1","-1","","","","","","","","","","","","",""
"psychophysics","158","664257","0.0-12.0-0.29","62b2d869074bd11bce35650e","6368f2eea3e9634aebcc2f6b","636b48e2aeab7020c46d71f2","1289.8999999761581","","","","37","","","","key","16.714722627736492","683","328.5","true","-1","252.93841569792","2.0615843020800004","12","-1","-1","","","","","","","","","","","","",""
"psychophysics","159","667823","0.0-12.0-0.30","62b2d869074bd11bce35650e","6368f2eea3e9634aebcc2f6b","636b48e2aeab7020c46d71f2","2550.100000023842","","","","37","","","","key","16.714674528301607","683","328.5","true","-1","252.93841569792","2.0615843020800004","12","-1","-1","","","","","","","","","","","","",""
"psychophysics","160","669638","0.0-12.0-0.31","62b2d869074bd11bce35650e","6368f2eea3e9634aebcc2f6b","636b48e2aeab7020c46d71f2","804.6999999284744","","","","37","","","","key","16.714638888888725","683","328.5","true","-1","250.87683139584","2.0615843020800004","12","-1","-1","","","","","","","","","","","","",""
"psychophysics","161","671271","0.0-12.0-0.32","62b2d869074bd11bce35650e","6368f2eea3e9634aebcc2f6b","636b48e2aeab7020c46d71f2","631.1000000238419","","","","37","","","","key","16.713656250000593","683","328.5","true","1","250.87683139584","1.6492674416640005","13","1","-1","","","","","","","","","","","","",""
"psychophysics","162","673557","0.0-12.0-0.33","62b2d869074bd11bce35650e","6368f2eea3e9634aebcc2f6b","636b48e2aeab7020c46d71f2","1281","","","","37","","","","key","16.71447058823576","683","328.5","true","1","252.52609883750398","1.6492674416640005","13","1","1","","","","","","","","","","","","",""
"psychophysics","163","675421","0.0-12.0-0.34","62b2d869074bd11bce35650e","6368f2eea3e9634aebcc2f6b","636b48e2aeab7020c46d71f2","855.3000000715256","","","","37","","","","key","16.71464864864866","683","328.5","true","-1","254.17536627916797","1.6492674416640005","13","-1","1","","","","","","","","","","","","",""
"psychophysics","164","678000","0.0-12.0-0.35","62b2d869074bd11bce35650e","6368f2eea3e9634aebcc2f6b","636b48e2aeab7020c46d71f2","1577.1000000238419","","","","37","","","","key","16.71424183006523","683","328.5","true","-1","254.17536627916797","1.3194139533312006","14","-1","-1","","","","","","","","","","","","",""
"psychophysics","165","680447","0.0-12.0-0.36","62b2d869074bd11bce35650e","6368f2eea3e9634aebcc2f6b","636b48e2aeab7020c46d71f2","1436.8999999761581","","","","37","","","","key","16.714482758621333","683","328.5","true","1","252.85595232583677","1.0555311626649604","15","1","-1","","","","","","","","","","","","",""
"psychophysics","166","683757","0.0-12.0-0.37","62b2d869074bd11bce35650e","6368f2eea3e9634aebcc2f6b","636b48e2aeab7020c46d71f2","2304.7000000476837","","","","37","","","","key","16.713989847715528","683","328.5","true","-1","253.91148348850172","1.0555311626649604","15","-1","1","","","","","","","","","","","","",""
"psychophysics","167","685722","0.0-12.0-0.38","62b2d869074bd11bce35650e","6368f2eea3e9634aebcc2f6b","636b48e2aeab7020c46d71f2","960.5","","","","37","","","","key","16.71471794871872","683","328.5","true","1","253.91148348850172","1","16","1","-1","","","","","","","","","","","","",""
"psychophysics","168","688496","0.0-12.0-0.39","62b2d869074bd11bce35650e","6368f2eea3e9634aebcc2f6b","636b48e2aeab7020c46d71f2","1761.7999999523163","","","","37","","","","key","16.714399999999582","683","328.5","true","-1","254.91148348850172","1","16","-1","1","","","","","","","","","","","","",""
"html-keyboard-response","169","690215","0.0-13.0","62b2d869074bd11bce35650e","6368f2eea3e9634aebcc2f6b","636b48e2aeab7020c46d71f2","1718.1000000238419","<p>Well Done !</p><p>Prepare for a new block.</p><p>DON'T EXIT THE FULL SCREEN MODE</p><p>Press the Spacebar to start.</p>","","","32","","","","","","","","","","","","","","","true","253.4991410425801","","","","","","","","","","",""
"html-keyboard-response","170","690320","0.0-14.0","62b2d869074bd11bce35650e","6368f2eea3e9634aebcc2f6b","636b48e2aeab7020c46d71f2","null","","","","null","","","","","","","","","","","","","","","","","210.6193766648791","true","293.2387533297582","","","","","","","",""
"instructions","171","718132","0.0-15.0","62b2d869074bd11bce35650e","6368f2eea3e9634aebcc2f6b","636b48e2aeab7020c46d71f2","27810.599999904633","","","","","","","[{""page_index"":0,""viewing_time"":20946.399999976158},{""page_index"":1,""viewing_time"":1855.6999999284744},{""page_index"":2,""viewing_time"":5008}]","","","","","","","","","","","","","","","","","","","","","","","",""
"psychophysics","172","721146","0.0-16.0-0.0","62b2d869074bd11bce35650e","6368f2eea3e9634aebcc2f6b","636b48e2aeab7020c46d71f2","null","","","","null","","","","key","16.60238333333206","683","328.5","","","","","","","","","","","","","","","","","","","",""
"psychophysics","173","721649","0.0-16.0-1.0","62b2d869074bd11bce35650e","6368f2eea3e9634aebcc2f6b","636b48e2aeab7020c46d71f2","null","","","","null","","","","key","16.713586206897162","683","328.5","","","","","","","","","","","","","293","1","4","false","","","",""
"psychophysics","174","726549","0.0-16.0-2.0","62b2d869074bd11bce35650e","6368f2eea3e9634aebcc2f6b","636b48e2aeab7020c46d71f2","4897.799999952316","","","","77","","","","key","16.71433788395897","683","328.5","","","","","","","","","","","","","","","","","","","",""
"psychophysics","175","727552","0.0-16.0-0.1","62b2d869074bd11bce35650e","6368f2eea3e9634aebcc2f6b","636b48e2aeab7020c46d71f2","null","","","","null","","","","key","16.71305084745873","683","328.5","","","","","","","","","","","","","","","","","","","",""
"psychophysics","176","728057","0.0-16.0-1.1","62b2d869074bd11bce35650e","6368f2eea3e9634aebcc2f6b","636b48e2aeab7020c46d71f2","null","","","","null","","","","key","16.710965517241956","683","328.5","","","","","","","","","","","","","293","-1","2","false","","","",""
"psychophysics","177","733671","0.0-16.0-2.1","62b2d869074bd11bce35650e","6368f2eea3e9634aebcc2f6b","636b48e2aeab7020c46d71f2","5612.600000023842","","","","90","","","","key","16.714355223880624","683","328.5","","","","","","","","","","","","","","","","","","","",""
"psychophysics","178","734673","0.0-16.0-0.2","62b2d869074bd11bce35650e","6368f2eea3e9634aebcc2f6b","636b48e2aeab7020c46d71f2","null","","","","null","","","","key","16.714881355933436","683","328.5","","","","","","","","","","","","","","","","","","","",""
"psychophysics","179","735177","0.0-16.0-1.2","62b2d869074bd11bce35650e","6368f2eea3e9634aebcc2f6b","636b48e2aeab7020c46d71f2","null","","","","null","","","","key","16.715034482759776","683","328.5","","","","","","","","","","","","","293","1","6","false","","","",""
"psychophysics","180","740148","0.0-16.0-2.2","62b2d869074bd11bce35650e","6368f2eea3e9634aebcc2f6b","636b48e2aeab7020c46d71f2","4969.5","","","","90","","","","key","16.714081081081137","683","328.5","","","","","","","","","","","","","","","","","","","",""
"psychophysics","181","741153","0.0-16.0-0.3","62b2d869074bd11bce35650e","6368f2eea3e9634aebcc2f6b","636b48e2aeab7020c46d71f2","null","","","","null","","","","key","16.714000000000805","683","328.5","","","","","","","","","","","","","","","","","","","",""
"psychophysics","182","741656","0.0-16.0-1.3","62b2d869074bd11bce35650e","6368f2eea3e9634aebcc2f6b","636b48e2aeab7020c46d71f2","null","","","","null","","","","key","16.714827586206255","683","328.5","","","","","","","","","","","","","293","-1","3","false","","","",""
"psychophysics","183","741872","0.0-16.0-2.3","62b2d869074bd11bce35650e","6368f2eea3e9634aebcc2f6b","636b48e2aeab7020c46d71f2","213.29999995231628","","","","90","","","","key","16.712750000006054","683","328.5","","","","","","","","","","","","","","","","","","","",""
"psychophysics","184","742877","0.0-16.0-0.4","62b2d869074bd11bce35650e","6368f2eea3e9634aebcc2f6b","636b48e2aeab7020c46d71f2","null","","","","null","","","","key","16.715254237287347","683","328.5","","","","","","","","","","","","","","","","","","","",""
"psychophysics","185","743378","0.0-16.0-1.4","62b2d869074bd11bce35650e","6368f2eea3e9634aebcc2f6b","636b48e2aeab7020c46d71f2","null","","","","null","","","","key","16.714931034483016","683","328.5","","","","","","","","","","","","","293","1","2","false","","","",""
"psychophysics","186","743789","0.0-16.0-2.4","62b2d869074bd11bce35650e","6368f2eea3e9634aebcc2f6b","636b48e2aeab7020c46d71f2","400.2000000476837","","","","77","","","","key","16.716041666664143","683","328.5","","","","","","","","","","","","","","","","","","","",""
"psychophysics","187","744793","0.0-16.0-0.5","62b2d869074bd11bce35650e","6368f2eea3e9634aebcc2f6b","636b48e2aeab7020c46d71f2","null","","","","null","","","","key","16.713576271186852","683","328.5","","","","","","","","","","","","","","","","","","","",""
"psychophysics","188","745297","0.0-16.0-1.5","62b2d869074bd11bce35650e","6368f2eea3e9634aebcc2f6b","636b48e2aeab7020c46d71f2","null","","","","null","","","","key","16.714448275863482","683","328.5","","","","","","","","","","","","","293","-1","4","false","","","",""
"psychophysics","189","747737","0.0-16.0-2.5","62b2d869074bd11bce35650e","6368f2eea3e9634aebcc2f6b","636b48e2aeab7020c46d71f2","2438","","","","90","","","","key","16.714841379310357","683","328.5","","","","","","","","","","","","","","","","","","","",""
"psychophysics","190","748743","0.0-16.0-0.6","62b2d869074bd11bce35650e","6368f2eea3e9634aebcc2f6b","636b48e2aeab7020c46d71f2","null","","","","null","","","","key","16.714338983049995","683","328.5","","","","","","","","","","","","","","","","","","","",""
"psychophysics","191","749245","0.0-16.0-1.6","62b2d869074bd11bce35650e","6368f2eea3e9634aebcc2f6b","636b48e2aeab7020c46d71f2","null","","","","null","","","","key","16.712379310344314","683","328.5","","","","","","","","","","","","","293","-1","5","false","","","",""
"psychophysics","192","753178","0.0-16.0-2.6","62b2d869074bd11bce35650e","6368f2eea3e9634aebcc2f6b","636b48e2aeab7020c46d71f2","3929.600000023842","","","","90","","","","key","16.713765957447244","683","328.5","","","","","","","","","","","","","","","","","","","",""
"psychophysics","193","754185","0.0-16.0-0.7","62b2d869074bd11bce35650e","6368f2eea3e9634aebcc2f6b","636b48e2aeab7020c46d71f2","null","","","","null","","","","key","16.713474576270713","683","328.5","","","","","","","","","","","","","","","","","","","",""
"psychophysics","194","754689","0.0-16.0-1.7","62b2d869074bd11bce35650e","6368f2eea3e9634aebcc2f6b","636b48e2aeab7020c46d71f2","null","","","","null","","","","key","16.715310344825788","683","328.5","","","","","","","","","","","","","293","1","3","false","","","",""
"psychophysics","195","759433","0.0-16.0-2.7","62b2d869074bd11bce35650e","6368f2eea3e9634aebcc2f6b","636b48e2aeab7020c46d71f2","4742.599999904633","","","","90","","","","key","16.71407420494694","683","328.5","","","","","","","","","","","","","","","","","","","",""
"psychophysics","196","760441","0.0-16.0-0.8","62b2d869074bd11bce35650e","6368f2eea3e9634aebcc2f6b","636b48e2aeab7020c46d71f2","null","","","","null","","","","key","16.71255932203336","683","328.5","","","","","","","","","","","","","","","","","","","",""
"psychophysics","197","760944","0.0-16.0-1.8","62b2d869074bd11bce35650e","6368f2eea3e9634aebcc2f6b","636b48e2aeab7020c46d71f2","null","","","","null","","","","key","16.718241379311277","683","328.5","","","","","","","","","","","","","293","-1","0","false","","","",""
"psychophysics","198","763814","0.0-16.0-2.8","62b2d869074bd11bce35650e","6368f2eea3e9634aebcc2f6b","636b48e2aeab7020c46d71f2","2867.0999999046326","","","","90","","","","key","16.714508771929722","683","328.5","","","","","","","","","","","","","","","","","","","",""
"psychophysics","199","764817","0.0-16.0-0.9","62b2d869074bd11bce35650e","6368f2eea3e9634aebcc2f6b","636b48e2aeab7020c46d71f2","null","","","","null","","","","key","16.714813559322018","683","328.5","","","","","","","","","","","","","","","","","","","",""
"psychophysics","200","765321","0.0-16.0-1.9","62b2d869074bd11bce35650e","6368f2eea3e9634aebcc2f6b","636b48e2aeab7020c46d71f2","null","","","","null","","","","key","16.71424137930996","683","328.5","","","","","","","","","","","","","293","-1","6","false","","","",""
"psychophysics","201","774241","0.0-16.0-2.9","62b2d869074bd11bce35650e","6368f2eea3e9634aebcc2f6b","636b48e2aeab7020c46d71f2","8918.199999928474","","","","77","","","","key","16.714324577861138","683","328.5","","","","","","","","","","","","","","","","","","","",""
"psychophysics","202","775249","0.0-16.0-0.10","62b2d869074bd11bce35650e","6368f2eea3e9634aebcc2f6b","636b48e2aeab7020c46d71f2","null","","","","null","","","","key","16.714525423728926","683","328.5","","","","","","","","","","","","","","","","","","","",""
"psychophysics","203","775753","0.0-16.0-1.10","62b2d869074bd11bce35650e","6368f2eea3e9634aebcc2f6b","636b48e2aeab7020c46d71f2","null","","","","null","","","","key","16.713034482757113","683","328.5","","","","","","","","","","","","","293","1","5","false","","","",""
"psychophysics","204","778632","0.0-16.0-2.10","62b2d869074bd11bce35650e","6368f2eea3e9634aebcc2f6b","636b48e2aeab7020c46d71f2","2877","","","","77","","","","key","16.714389534883722","683","328.5","","","","","","","","","","","","","","","","","","","",""
"psychophysics","205","779634","0.0-16.0-0.11","62b2d869074bd11bce35650e","6368f2eea3e9634aebcc2f6b","636b48e2aeab7020c46d71f2","null","","","","null","","","","key","16.715694915252673","683","328.5","","","","","","","","","","","","","","","","","","","",""
"psychophysics","206","780138","0.0-16.0-1.11","62b2d869074bd11bce35650e","6368f2eea3e9634aebcc2f6b","636b48e2aeab7020c46d71f2","null","","","","null","","","","key","16.714620689656748","683","328.5","","","","","","","","","","","","","293","1","0","false","","","",""
"psychophysics","207","786829","0.0-16.0-2.11","62b2d869074bd11bce35650e","6368f2eea3e9634aebcc2f6b","636b48e2aeab7020c46d71f2","6689.899999976158","","","","90","","","","key","16.714225563909835","683","328.5","","","","","","","","","","","","","","","","","","","",""
"psychophysics","208","787832","0.0-16.0-0.12","62b2d869074bd11bce35650e","6368f2eea3e9634aebcc2f6b","636b48e2aeab7020c46d71f2","null","","","","null","","","","key","16.71479661016867","683","328.5","","","","","","","","","","","","","","","","","","","",""
"psychophysics","209","788336","0.0-16.0-1.12","62b2d869074bd11bce35650e","6368f2eea3e9634aebcc2f6b","636b48e2aeab7020c46d71f2","null","","","","null","","","","key","16.715172413792782","683","328.5","","","","","","","","","","","","","293","1","2","false","","","",""
"psychophysics","210","790302","0.0-16.0-2.12","62b2d869074bd11bce35650e","6368f2eea3e9634aebcc2f6b","636b48e2aeab7020c46d71f2","1956.1999999284744","","","","90","","","","key","16.714769230768457","683","328.5","","","","","","","","","","","","","","","","","","","",""
"psychophysics","211","791303","0.0-16.0-0.13","62b2d869074bd11bce35650e","6368f2eea3e9634aebcc2f6b","636b48e2aeab7020c46d71f2","null","","","","null","","","","key","16.71425423728918","683","328.5","","","","","","","","","","","","","","","","","","","",""
"psychophysics","212","791808","0.0-16.0-1.13","62b2d869074bd11bce35650e","6368f2eea3e9634aebcc2f6b","636b48e2aeab7020c46d71f2","null","","","","null","","","","key","16.713586206897162","683","328.5","","","","","","","","","","","","","293","-1","5","false","","","",""
"psychophysics","213","793597","0.0-16.0-2.13","62b2d869074bd11bce35650e","6368f2eea3e9634aebcc2f6b","636b48e2aeab7020c46d71f2","1787.7000000476837","","","","90","","","","key","16.713669811321626","683","328.5","","","","","","","","","","","","","","","","","","","",""
"psychophysics","214","794599","0.0-16.0-0.14","62b2d869074bd11bce35650e","6368f2eea3e9634aebcc2f6b","636b48e2aeab7020c46d71f2","null","","","","null","","","","key","16.714406779661413","683","328.5","","","","","","","","","","","","","","","","","","","",""
"psychophysics","215","795104","0.0-16.0-1.14","62b2d869074bd11bce35650e","6368f2eea3e9634aebcc2f6b","636b48e2aeab7020c46d71f2","null","","","","null","","","","key","16.71379310344667","683","328.5","","","","","","","","","","","","","293","1","6","false","","","",""
"psychophysics","216","796959","0.0-16.0-2.14","62b2d869074bd11bce35650e","6368f2eea3e9634aebcc2f6b","636b48e2aeab7020c46d71f2","1853.5","","","","90","","","","key","16.714663636362687","683","328.5","","","","","","","","","","","","","","","","","","","",""
"psychophysics","217","797960","0.0-16.0-0.15","62b2d869074bd11bce35650e","6368f2eea3e9634aebcc2f6b","636b48e2aeab7020c46d71f2","null","","","","null","","","","key","16.714796610170644","683","328.5","","","","","","","","","","","","","","","","","","","",""
"psychophysics","218","798464","0.0-16.0-1.15","62b2d869074bd11bce35650e","6368f2eea3e9634aebcc2f6b","636b48e2aeab7020c46d71f2","null","","","","null","","","","key","16.71434482758672","683","328.5","","","","","","","","","","","","","293","1","3","false","","","",""
"psychophysics","219","799836","0.0-16.0-2.15","62b2d869074bd11bce35650e","6368f2eea3e9634aebcc2f6b","636b48e2aeab7020c46d71f2","1370.8999999761581","","","","90","","","","key","16.71438271604927","683","328.5","","","","","","","","","","","","","","","","","","","",""
"psychophysics","220","800840","0.0-16.0-0.16","62b2d869074bd11bce35650e","6368f2eea3e9634aebcc2f6b","636b48e2aeab7020c46d71f2","null","","","","null","","","","key","16.712779661017013","683","328.5","","","","","","","","","","","","","","","","","","","",""
"psychophysics","221","801343","0.0-16.0-1.16","62b2d869074bd11bce35650e","6368f2eea3e9634aebcc2f6b","636b48e2aeab7020c46d71f2","null","","","","null","","","","key","16.714000000000194","683","328.5","","","","","","","","","","","","","293","-1","4","false","","","",""
"psychophysics","222","808477","0.0-16.0-2.16","62b2d869074bd11bce35650e","6368f2eea3e9634aebcc2f6b","636b48e2aeab7020c46d71f2","7131.399999976158","","","","90","","","","key","16.71432394366203","683","328.5","","","","","","","","","","","","","","","","","","","",""
"psychophysics","223","809479","0.0-16.0-0.17","62b2d869074bd11bce35650e","6368f2eea3e9634aebcc2f6b","636b48e2aeab7020c46d71f2","null","","","","null","","","","key","16.713949152542735","683","328.5","","","","","","","","","","","","","","","","","","","",""
"psychophysics","224","809983","0.0-16.0-1.17","62b2d869074bd11bce35650e","6368f2eea3e9634aebcc2f6b","636b48e2aeab7020c46d71f2","null","","","","null","","","","key","16.713448275864156","683","328.5","","","","","","","","","","","","","293","-1","0","false","","","",""
"psychophysics","225","812514","0.0-16.0-2.17","62b2d869074bd11bce35650e","6368f2eea3e9634aebcc2f6b","636b48e2aeab7020c46d71f2","2527.399999976158","","","","90","","","","key","16.714569536423994","683","328.5","","","","","","","","","","","","","","","","","","","",""
"psychophysics","226","813528","0.0-16.0-0.18","62b2d869074bd11bce35650e","6368f2eea3e9634aebcc2f6b","636b48e2aeab7020c46d71f2","null","","","","null","","","","key","16.71374576271046","683","328.5","","","","","","","","","","","","","","","","","","","",""
"psychophysics","227","814031","0.0-16.0-1.18","62b2d869074bd11bce35650e","6368f2eea3e9634aebcc2f6b","636b48e2aeab7020c46d71f2","null","","","","null","","","","key","16.717066666666263","683","328.5","","","","","","","","","","","","","293","1","4","false","","","",""
"psychophysics","228","815191","0.0-16.0-2.18","62b2d869074bd11bce35650e","6368f2eea3e9634aebcc2f6b","636b48e2aeab7020c46d71f2","1158.6000000238419","","","","90","","","","key","16.714470588234047","683","328.5","","","","","","","","","","","","","","","","","","","",""
"psychophysics","229","816200","0.0-16.0-0.19","62b2d869074bd11bce35650e","6368f2eea3e9634aebcc2f6b","636b48e2aeab7020c46d71f2","null","","","","null","","","","key","16.7149830508476","683","328.5","","","","","","","","","","","","","","","","","","","",""
"psychophysics","230","816703","0.0-16.0-1.19","62b2d869074bd11bce35650e","6368f2eea3e9634aebcc2f6b","636b48e2aeab7020c46d71f2","null","","","","null","","","","key","16.714310344826462","683","328.5","","","","","","","","","","","","","293","1","0","false","","","",""
"psychophysics","231","818010","0.0-16.0-2.19","62b2d869074bd11bce35650e","6368f2eea3e9634aebcc2f6b","636b48e2aeab7020c46d71f2","1304.2000000476837","","","","90","","","","key","16.713910256410973","683","328.5","","","","","","","","","","","","","","","","","","","",""
"psychophysics","232","819016","0.0-16.0-0.20","62b2d869074bd11bce35650e","6368f2eea3e9634aebcc2f6b","636b48e2aeab7020c46d71f2","null","","","","null","","","","key","16.715389830508204","683","328.5","","","","","","","","","","","","","","","","","","","",""
"psychophysics","233","819520","0.0-16.0-1.20","62b2d869074bd11bce35650e","6368f2eea3e9634aebcc2f6b","636b48e2aeab7020c46d71f2","null","","","","null","","","","key","16.713310344827136","683","328.5","","","","","","","","","","","","","293","-1","2","false","","","",""
"psychophysics","234","822735","0.0-16.0-2.20","62b2d869074bd11bce35650e","6368f2eea3e9634aebcc2f6b","636b48e2aeab7020c46d71f2","3212.899999976158","","","","90","","","","key","16.71455497382189","683","328.5","","","","","","","","","","","","","","","","","","","",""
"psychophysics","235","823740","0.0-16.0-0.21","62b2d869074bd11bce35650e","6368f2eea3e9634aebcc2f6b","636b48e2aeab7020c46d71f2","null","","","","null","","","","key","16.71501694915232","683","328.5","","","","","","","","","","","","","","","","","","","",""
"psychophysics","236","824243","0.0-16.0-1.21","62b2d869074bd11bce35650e","6368f2eea3e9634aebcc2f6b","636b48e2aeab7020c46d71f2","null","","","","null","","","","key","16.71473333333464","683","328.5","","","","","","","","","","","","","293","1","5","false","","","",""
"psychophysics","237","825702","0.0-16.0-2.21","62b2d869074bd11bce35650e","6368f2eea3e9634aebcc2f6b","636b48e2aeab7020c46d71f2","1457.2999999523163","","","","90","","","","key","16.7140116279073","683","328.5","","","","","","","","","","","","","","","","","","","",""
"psychophysics","238","826704","0.0-16.0-0.22","62b2d869074bd11bce35650e","6368f2eea3e9634aebcc2f6b","636b48e2aeab7020c46d71f2","null","","","","null","","","","key","16.71374576271243","683","328.5","","","","","","","","","","","","","","","","","","","",""
"psychophysics","239","827208","0.0-16.0-1.22","62b2d869074bd11bce35650e","6368f2eea3e9634aebcc2f6b","636b48e2aeab7020c46d71f2","null","","","","null","","","","key","16.715310344825788","683","328.5","","","","","","","","","","","","","293","-1","3","false","","","",""
"psychophysics","240","830301","0.0-16.0-2.22","62b2d869074bd11bce35650e","6368f2eea3e9634aebcc2f6b","636b48e2aeab7020c46d71f2","3090.899999976158","","","","90","","","","key","16.714211956521943","683","328.5","","","","","","","","","","","","","","","","","","","",""
"psychophysics","241","831304","0.0-16.0-0.23","62b2d869074bd11bce35650e","6368f2eea3e9634aebcc2f6b","636b48e2aeab7020c46d71f2","null","","","","null","","","","key","16.71415254237304","683","328.5","","","","","","","","","","","","","","","","","","","",""
"psychophysics","242","831809","0.0-16.0-1.23","62b2d869074bd11bce35650e","6368f2eea3e9634aebcc2f6b","636b48e2aeab7020c46d71f2","null","","","","null","","","","key","16.71234482758807","683","328.5","","","","","","","","","","","","","293","-1","6","false","","","",""
"psychophysics","243","833354","0.0-16.0-2.23","62b2d869074bd11bce35650e","6368f2eea3e9634aebcc2f6b","636b48e2aeab7020c46d71f2","1543.8000000715256","","","","90","","","","key","16.714195652173974","683","328.5","","","","","","","","","","","","","","","","","","","",""
"html-keyboard-response","244","834821","0.0-17.0","62b2d869074bd11bce35650e","6368f2eea3e9634aebcc2f6b","636b48e2aeab7020c46d71f2","1466.0999999046326","<p>Well Done !</p><p>Training Complete. Press the spacebar to start.</p><p>DON'T EXIT THE FULL SCREEN MODE</p>","","","32","","","","","","","","","","","","","","","","","","","","","","","","","","",""
"psychophysics","245","837840","0.0-18.0-0.0","62b2d869074bd11bce35650e","6368f2eea3e9634aebcc2f6b","636b48e2aeab7020c46d71f2","null","","","","null","","","","key","16.66748333333332","683","328.5","","","","","","","","","","","","","","","","","","","",""
"psychophysics","246","838344","0.0-18.0-1.0","62b2d869074bd11bce35650e","6368f2eea3e9634aebcc2f6b","636b48e2aeab7020c46d71f2","null","","","","null","","","","key","16.714206896553716","683","328.5","","","","","","","","","","","","","293","1","0","true","","","",""
"psychophysics","247","842958","0.0-18.0-2.0","62b2d869074bd11bce35650e","6368f2eea3e9634aebcc2f6b","636b48e2aeab7020c46d71f2","4613","","","","77","","","","key","16.714130909091114","683","328.5","","","","","","","","","","","","","","","","","","","",""
"psychophysics","248","843960","0.0-18.0-0.1","62b2d869074bd11bce35650e","6368f2eea3e9634aebcc2f6b","636b48e2aeab7020c46d71f2","null","","","","null","","","","key","16.71252542372864","683","328.5","","","","","","","","","","","","","","","","","","","",""
"psychophysics","249","844464","0.0-18.0-1.1","62b2d869074bd11bce35650e","6368f2eea3e9634aebcc2f6b","636b48e2aeab7020c46d71f2","null","","","","null","","","","key","16.71455172413623","683","328.5","","","","","","","","","","","","","293","1","5","true","","","",""
"psychophysics","250","851983","0.0-18.0-2.1","62b2d869074bd11bce35650e","6368f2eea3e9634aebcc2f6b","636b48e2aeab7020c46d71f2","7517.399999976158","","","","77","","","","key","16.714164810690495","683","328.5","","","","","","","","","","","","","","","","","","","",""
"psychophysics","251","852990","0.0-18.0-0.2","62b2d869074bd11bce35650e","6368f2eea3e9634aebcc2f6b","636b48e2aeab7020c46d71f2","null","","","","null","","","","key","16.71420338983111","683","328.5","","","","","","","","","","","","","","","","","","","",""
"psychophysics","252","853492","0.0-18.0-1.2","62b2d869074bd11bce35650e","6368f2eea3e9634aebcc2f6b","636b48e2aeab7020c46d71f2","null","","","","null","","","","key","16.713200000002203","683","328.5","","","","","","","","","","","","","293","1","6","true","","","",""
"psychophysics","253","856189","0.0-18.0-2.2","62b2d869074bd11bce35650e","6368f2eea3e9634aebcc2f6b","636b48e2aeab7020c46d71f2","2694.0999999046326","","","","77","","","","key","16.713468750000175","683","328.5","","","","","","","","","","","","","","","","","","","",""
"psychophysics","254","857192","0.0-18.0-0.3","62b2d869074bd11bce35650e","6368f2eea3e9634aebcc2f6b","636b48e2aeab7020c46d71f2","null","","","","null","","","","key","16.714016949152178","683","328.5","","","","","","","","","","","","","","","","","","","",""
"psychophysics","255","857696","0.0-18.0-1.3","62b2d869074bd11bce35650e","6368f2eea3e9634aebcc2f6b","636b48e2aeab7020c46d71f2","null","","","","null","","","","key","16.714620689652733","683","328.5","","","","","","","","","","","","","293","1","4","true","","","",""
"psychophysics","256","860107","0.0-18.0-2.3","62b2d869074bd11bce35650e","6368f2eea3e9634aebcc2f6b","636b48e2aeab7020c46d71f2","2409.6999999284744","","","","90","","","","key","16.714328671328502","683","328.5","","","","","","","","","","","","","","","","","","","",""
"psychophysics","257","861112","0.0-18.0-0.4","62b2d869074bd11bce35650e","6368f2eea3e9634aebcc2f6b","636b48e2aeab7020c46d71f2","null","","","","null","","","","key","16.715084745763736","683","328.5","","","","","","","","","","","","","","","","","","","",""
"psychophysics","258","861614","0.0-18.0-1.4","62b2d869074bd11bce35650e","6368f2eea3e9634aebcc2f6b","636b48e2aeab7020c46d71f2","null","","","","null","","","","key","16.7166896551719","683","328.5","","","","","","","","","","","","","293","1","3","true","","","",""
"psychophysics","259","862661","0.0-18.0-2.4","62b2d869074bd11bce35650e","6368f2eea3e9634aebcc2f6b","636b48e2aeab7020c46d71f2","1044.1000000238419","","","","90","","","","key","16.71379032258072","683","328.5","","","","","","","","","","","","","","","","","","","",""
"psychophysics","260","863664","0.0-18.0-0.5","62b2d869074bd11bce35650e","6368f2eea3e9634aebcc2f6b","636b48e2aeab7020c46d71f2","null","","","","null","","","","key","16.71238983050778","683","328.5","","","","","","","","","","","","","","","","","","","",""
"psychophysics","261","864168","0.0-18.0-1.5","62b2d869074bd11bce35650e","6368f2eea3e9634aebcc2f6b","636b48e2aeab7020c46d71f2","null","","","","null","","","","key","16.70986206896587","683","328.5","","","","","","","","","","","","","293","-1","5","true","","","",""
"psychophysics","262","866775","0.0-18.0-2.5","62b2d869074bd11bce35650e","6368f2eea3e9634aebcc2f6b","636b48e2aeab7020c46d71f2","2604.7999999523163","","","","90","","","","key","16.71384516129075","683","328.5","","","","","","","","","","","","","","","","","","","",""
"psychophysics","263","867782","0.0-18.0-0.6","62b2d869074bd11bce35650e","6368f2eea3e9634aebcc2f6b","636b48e2aeab7020c46d71f2","null","","","","null","","","","key","16.714457627117508","683","328.5","","","","","","","","","","","","","","","","","","","",""
"psychophysics","264","868285","0.0-18.0-1.6","62b2d869074bd11bce35650e","6368f2eea3e9634aebcc2f6b","636b48e2aeab7020c46d71f2","null","","","","null","","","","key","16.7113999999982","683","328.5","","","","","","","","","","","","","293","-1","6","true","","","",""
"psychophysics","265","870521","0.0-18.0-2.6","62b2d869074bd11bce35650e","6368f2eea3e9634aebcc2f6b","636b48e2aeab7020c46d71f2","2234.100000023842","","","","90","","","","key","16.715143939393755","683","328.5","","","","","","","","","","","","","","","","","","","",""
"psychophysics","266","871527","0.0-18.0-0.7","62b2d869074bd11bce35650e","6368f2eea3e9634aebcc2f6b","636b48e2aeab7020c46d71f2","null","","","","null","","","","key","16.714283333334606","683","328.5","","","","","","","","","","","","","","","","","","","",""
"psychophysics","267","872032","0.0-18.0-1.7","62b2d869074bd11bce35650e","6368f2eea3e9634aebcc2f6b","636b48e2aeab7020c46d71f2","null","","","","null","","","","key","16.715172413792782","683","328.5","","","","","","","","","","","","","293","-1","4","true","","","",""
"psychophysics","268","873768","0.0-18.0-2.7","62b2d869074bd11bce35650e","6368f2eea3e9634aebcc2f6b","636b48e2aeab7020c46d71f2","1734.6000000238419","","","","77","","","","key","16.713912621358617","683","328.5","","","","","","","","","","","","","","","","","","","",""
"psychophysics","269","874769","0.0-18.0-0.8","62b2d869074bd11bce35650e","6368f2eea3e9634aebcc2f6b","636b48e2aeab7020c46d71f2","null","","","","null","","","","key","16.713779661017153","683","328.5","","","","","","","","","","","","","","","","","","","",""
"psychophysics","270","875272","0.0-18.0-1.8","62b2d869074bd11bce35650e","6368f2eea3e9634aebcc2f6b","636b48e2aeab7020c46d71f2","null","","","","null","","","","key","16.713448275864156","683","328.5","","","","","","","","","","","","","293","1","2","true","","","",""
"psychophysics","271","876680","0.0-18.0-2.8","62b2d869074bd11bce35650e","6368f2eea3e9634aebcc2f6b","636b48e2aeab7020c46d71f2","1406.7000000476837","","","","90","","","","key","16.715120481927485","683","328.5","","","","","","","","","","","","","","","","","","","",""
"psychophysics","272","877688","0.0-18.0-0.9","62b2d869074bd11bce35650e","6368f2eea3e9634aebcc2f6b","636b48e2aeab7020c46d71f2","null","","","","null","","","","key","16.714016949152178","683","328.5","","","","","","","","","","","","","","","","","","","",""
"psychophysics","273","878191","0.0-18.0-1.9","62b2d869074bd11bce35650e","6368f2eea3e9634aebcc2f6b","636b48e2aeab7020c46d71f2","null","","","","null","","","","key","16.714517241379983","683","328.5","","","","","","","","","","","","","293","-1","3","true","","","",""
"psychophysics","274","879463","0.0-18.0-2.9","62b2d869074bd11bce35650e","6368f2eea3e9634aebcc2f6b","636b48e2aeab7020c46d71f2","1269.6000000238419","","","","90","","","","key","16.71430666666633","683","328.5","","","","","","","","","","","","","","","","","","","",""
"psychophysics","275","880467","0.0-18.0-0.10","62b2d869074bd11bce35650e","6368f2eea3e9634aebcc2f6b","636b48e2aeab7020c46d71f2","null","","","","null","","","","key","16.713898305084665","683","328.5","","","","","","","","","","","","","","","","","","","",""
"psychophysics","276","880969","0.0-18.0-1.10","62b2d869074bd11bce35650e","6368f2eea3e9634aebcc2f6b","636b48e2aeab7020c46d71f2","null","","","","null","","","","key","16.717655172410968","683","328.5","","","","","","","","","","","","","293","-1","0","true","","","",""
"psychophysics","277","882776","0.0-18.0-2.10","62b2d869074bd11bce35650e","6368f2eea3e9634aebcc2f6b","636b48e2aeab7020c46d71f2","1803.8999999761581","","","","77","","","","key","16.714666666666744","683","328.5","","","","","","","","","","","","","","","","","","","",""
"psychophysics","278","883778","0.0-18.0-0.11","62b2d869074bd11bce35650e","6368f2eea3e9634aebcc2f6b","636b48e2aeab7020c46d71f2","null","","","","null","","","","key","16.714576271186992","683","328.5","","","","","","","","","","","","","","","","","","","",""
"psychophysics","279","884281","0.0-18.0-1.11","62b2d869074bd11bce35650e","6368f2eea3e9634aebcc2f6b","636b48e2aeab7020c46d71f2","null","","","","null","","","","key","16.71313793103789","683","328.5","","","","","","","","","","","","","293","-1","2","true","","","",""
"psychophysics","280","885752","0.0-18.0-2.11","62b2d869074bd11bce35650e","6368f2eea3e9634aebcc2f6b","636b48e2aeab7020c46d71f2","1469.5","","","","90","","","","key","16.715149425287283","683","328.5","","","","","","","","","","","","","","","","","","","",""
"psychophysics","281","886754","0.0-18.0-0.12","62b2d869074bd11bce35650e","6368f2eea3e9634aebcc2f6b","636b48e2aeab7020c46d71f2","null","","","","null","","","","key","16.714355932203343","683","328.5","","","","","","","","","","","","","","","","","","","",""
"psychophysics","282","887256","0.0-18.0-1.12","62b2d869074bd11bce35650e","6368f2eea3e9634aebcc2f6b","636b48e2aeab7020c46d71f2","null","","","","null","","","","key","16.71472413793351","683","328.5","","","","","","","","","","","","","293","-1","0","true","","","",""
"psychophysics","283","890605","0.0-18.0-2.12","62b2d869074bd11bce35650e","6368f2eea3e9634aebcc2f6b","636b48e2aeab7020c46d71f2","3347.899999976158","","","","77","","","","key","16.71409547738684","683","328.5","","","","","","","","","","","","","","","","","","","",""
"psychophysics","284","891607","0.0-18.0-0.13","62b2d869074bd11bce35650e","6368f2eea3e9634aebcc2f6b","636b48e2aeab7020c46d71f2","null","","","","null","","","","key","16.714423728812786","683","328.5","","","","","","","","","","","","","","","","","","","",""
"psychophysics","285","892112","0.0-18.0-1.13","62b2d869074bd11bce35650e","6368f2eea3e9634aebcc2f6b","636b48e2aeab7020c46d71f2","null","","","","null","","","","key","16.71541379310255","683","328.5","","","","","","","","","","","","","293","-1","2","true","","","",""
"psychophysics","286","896810","0.0-18.0-2.13","62b2d869074bd11bce35650e","6368f2eea3e9634aebcc2f6b","636b48e2aeab7020c46d71f2","4697","","","","90","","","","key","16.714546428571754","683","328.5","","","","","","","","","","","","","","","","","","","",""
"psychophysics","287","897816","0.0-18.0-0.14","62b2d869074bd11bce35650e","6368f2eea3e9634aebcc2f6b","636b48e2aeab7020c46d71f2","null","","","","null","","","","key","16.713983050847457","683","328.5","","","","","","","","","","","","","","","","","","","",""
"psychophysics","288","898319","0.0-18.0-1.14","62b2d869074bd11bce35650e","6368f2eea3e9634aebcc2f6b","636b48e2aeab7020c46d71f2","null","","","","null","","","","key","16.715206896549027","683","328.5","","","","","","","","","","","","","293","-1","3","true","","","",""
"psychophysics","289","898359","0.0-18.0-2.14","62b2d869074bd11bce35650e","6368f2eea3e9634aebcc2f6b","636b48e2aeab7020c46d71f2","36.299999952316284","","","","90","","","","key","16.75150000001304","683","328.5","","","","","","","","","","","","","","","","","","","",""
"psychophysics","290","899367","0.0-18.0-0.15","62b2d869074bd11bce35650e","6368f2eea3e9634aebcc2f6b","636b48e2aeab7020c46d71f2","null","","","","null","","","","key","16.714423728812786","683","328.5","","","","","","","","","","","","","","","","","","","",""
"psychophysics","291","899872","0.0-18.0-1.15","62b2d869074bd11bce35650e","6368f2eea3e9634aebcc2f6b","636b48e2aeab7020c46d71f2","null","","","","null","","","","key","16.713689655169908","683","328.5","","","","","","","","","","","","","293","-1","4","true","","","",""
"psychophysics","292","903288","0.0-18.0-2.15","62b2d869074bd11bce35650e","6368f2eea3e9634aebcc2f6b","636b48e2aeab7020c46d71f2","3414.2000000476837","","","","90","","","","key","16.71412745097997","683","328.5","","","","","","","","","","","","","","","","","","","",""
"psychophysics","293","904295","0.0-18.0-0.16","62b2d869074bd11bce35650e","6368f2eea3e9634aebcc2f6b","636b48e2aeab7020c46d71f2","null","","","","null","","","","key","16.714474576270856","683","328.5","","","","","","","","","","","","","","","","","","","",""
"psychophysics","294","904800","0.0-18.0-1.16","62b2d869074bd11bce35650e","6368f2eea3e9634aebcc2f6b","636b48e2aeab7020c46d71f2","null","","","","null","","","","key","16.715689655172575","683","328.5","","","","","","","","","","","","","293","1","3","true","","","",""
"psychophysics","295","906173","0.0-18.0-2.16","62b2d869074bd11bce35650e","6368f2eea3e9634aebcc2f6b","636b48e2aeab7020c46d71f2","1371.9000000953674","","","","90","","","","key","16.713839506172793","683","328.5","","","","","","","","","","","","","","","","","","","",""
"psychophysics","296","907176","0.0-18.0-0.17","62b2d869074bd11bce35650e","6368f2eea3e9634aebcc2f6b","636b48e2aeab7020c46d71f2","null","","","","null","","","","key","16.71371186440771","683","328.5","","","","","","","","","","","","","","","","","","","",""
"psychophysics","297","907678","0.0-18.0-1.17","62b2d869074bd11bce35650e","6368f2eea3e9634aebcc2f6b","636b48e2aeab7020c46d71f2","null","","","","null","","","","key","16.714413793107237","683","328.5","","","","","","","","","","","","","293","-1","6","true","","","",""
"psychophysics","298","911191","0.0-18.0-2.17","62b2d869074bd11bce35650e","6368f2eea3e9634aebcc2f6b","636b48e2aeab7020c46d71f2","3508.7999999523163","","","","90","","","","key","16.71445714285697","683","328.5","","","","","","","","","","","","","","","","","","","",""
"psychophysics","299","912193","0.0-18.0-0.18","62b2d869074bd11bce35650e","6368f2eea3e9634aebcc2f6b","636b48e2aeab7020c46d71f2","null","","","","null","","","","key","16.714355932203343","683","328.5","","","","","","","","","","","","","","","","","","","",""
"psychophysics","300","912697","0.0-18.0-1.18","62b2d869074bd11bce35650e","6368f2eea3e9634aebcc2f6b","636b48e2aeab7020c46d71f2","null","","","","null","","","","key","16.71155172413424","683","328.5","","","","","","","","","","","","","293","1","4","true","","","",""
"psychophysics","301","913978","0.0-18.0-2.18","62b2d869074bd11bce35650e","6368f2eea3e9634aebcc2f6b","636b48e2aeab7020c46d71f2","1279.8999999761581","","","","90","","","","key","16.714053333333382","683","328.5","","","","","","","","","","","","","","","","","","","",""
"psychophysics","302","914983","0.0-18.0-0.19","62b2d869074bd11bce35650e","6368f2eea3e9634aebcc2f6b","636b48e2aeab7020c46d71f2","null","","","","null","","","","key","16.713932203389387","683","328.5","","","","","","","","","","","","","","","","","","","",""
"psychophysics","303","915485","0.0-18.0-1.19","62b2d869074bd11bce35650e","6368f2eea3e9634aebcc2f6b","636b48e2aeab7020c46d71f2","null","","","","null","","","","key","16.712366666664213","683","328.5","","","","","","","","","","","","","293","1","2","true","","","",""
"psychophysics","304","916306","0.0-18.0-2.19","62b2d869074bd11bce35650e","6368f2eea3e9634aebcc2f6b","636b48e2aeab7020c46d71f2","818.7000000476837","","","","90","","","","key","16.71566666666816","683","328.5","","","","","","","","","","","","","","","","","","","",""
"psychophysics","305","917307","0.0-18.0-0.20","62b2d869074bd11bce35650e","6368f2eea3e9634aebcc2f6b","636b48e2aeab7020c46d71f2","null","","","","null","","","","key","16.712864406779804","683","328.5","","","","","","","","","","","","","","","","","","","",""
"psychophysics","306","917816","0.0-18.0-1.20","62b2d869074bd11bce35650e","6368f2eea3e9634aebcc2f6b","636b48e2aeab7020c46d71f2","null","","","","null","","","","key","16.716206896552368","683","328.5","","","","","","","","","","","","","293","1","5","true","","","",""
"psychophysics","307","918485","0.0-18.0-2.20","62b2d869074bd11bce35650e","6368f2eea3e9634aebcc2f6b","636b48e2aeab7020c46d71f2","668","","","","77","","","","key","16.712153846153225","683","328.5","","","","","","","","","","","","","","","","","","","",""
"psychophysics","308","919488","0.0-18.0-0.21","62b2d869074bd11bce35650e","6368f2eea3e9634aebcc2f6b","636b48e2aeab7020c46d71f2","null","","","","null","","","","key","16.714525423728926","683","328.5","","","","","","","","","","","","","","","","","","","",""
"psychophysics","309","919992","0.0-18.0-1.21","62b2d869074bd11bce35650e","6368f2eea3e9634aebcc2f6b","636b48e2aeab7020c46d71f2","null","","","","null","","","","key","16.709379310346336","683","328.5","","","","","","","","","","","","","293","1","0","true","","","",""
"psychophysics","310","921481","0.0-18.0-2.21","62b2d869074bd11bce35650e","6368f2eea3e9634aebcc2f6b","636b48e2aeab7020c46d71f2","1487.3000000715256","","","","77","","","","key","16.714204545455605","683","328.5","","","","","","","","","","","","","","","","","","","",""
"psychophysics","311","922487","0.0-18.0-0.22","62b2d869074bd11bce35650e","6368f2eea3e9634aebcc2f6b","636b48e2aeab7020c46d71f2","null","","","","null","","","","key","16.71564406779658","683","328.5","","","","","","","","","","","","","","","","","","","",""
"psychophysics","312","922989","0.0-18.0-1.22","62b2d869074bd11bce35650e","6368f2eea3e9634aebcc2f6b","636b48e2aeab7020c46d71f2","null","","","","null","","","","key","16.71220000000127","683","328.5","","","","","","","","","","","","","293","-1","5","true","","","",""
"psychophysics","313","923704","0.0-18.0-2.22","62b2d869074bd11bce35650e","6368f2eea3e9634aebcc2f6b","636b48e2aeab7020c46d71f2","705","","","","77","","","","key","16.71248780487946","683","328.5","","","","","","","","","","","","","","","","","","","",""
"psychophysics","314","924710","0.0-18.0-0.23","62b2d869074bd11bce35650e","6368f2eea3e9634aebcc2f6b","636b48e2aeab7020c46d71f2","null","","","","null","","","","key","16.713915254238014","683","328.5","","","","","","","","","","","","","","","","","","","",""
"psychophysics","315","925212","0.0-18.0-1.23","62b2d869074bd11bce35650e","6368f2eea3e9634aebcc2f6b","636b48e2aeab7020c46d71f2","null","","","","null","","","","key","16.71269999999786","683","328.5","","","","","","","","","","","","","293","1","6","true","","","",""
"psychophysics","316","925880","0.0-18.0-2.23","62b2d869074bd11bce35650e","6368f2eea3e9634aebcc2f6b","636b48e2aeab7020c46d71f2","665.6000000238419","","","","90","","","","key","16.714815789475228","683","328.5","","","","","","","","","","","","","","","","","","","",""
"psychophysics","317","926883","0.0-18.0-0.24","62b2d869074bd11bce35650e","6368f2eea3e9634aebcc2f6b","636b48e2aeab7020c46d71f2","null","","","","null","","","","key","16.714779661017296","683","328.5","","","","","","","","","","","","","","","","","","","",""
"psychophysics","318","927385","0.0-18.0-1.24","62b2d869074bd11bce35650e","6368f2eea3e9634aebcc2f6b","636b48e2aeab7020c46d71f2","null","","","","null","","","","key","16.715133333330353","683","328.5","","","","","","","","","","","","","293","-1","4","true","","","",""
"psychophysics","319","927418","0.0-18.0-2.24","62b2d869074bd11bce35650e","6368f2eea3e9634aebcc2f6b","636b48e2aeab7020c46d71f2","31.100000023841858","","","","90","","","","key","NaN","683","328.5","","","","","","","","","","","","","","","","","","","",""
"psychophysics","320","928421","0.0-18.0-0.25","62b2d869074bd11bce35650e","6368f2eea3e9634aebcc2f6b","636b48e2aeab7020c46d71f2","null","","","","null","","","","key","16.715474576270996","683","328.5","","","","","","","","","","","","","","","","","","","",""
"psychophysics","321","928922","0.0-18.0-1.25","62b2d869074bd11bce35650e","6368f2eea3e9634aebcc2f6b","636b48e2aeab7020c46d71f2","null","","","","null","","","","key","16.714600000002733","683","328.5","","","","","","","","","","","","","293","1","2","true","","","",""
"psychophysics","322","930468","0.0-18.0-2.25","62b2d869074bd11bce35650e","6368f2eea3e9634aebcc2f6b","636b48e2aeab7020c46d71f2","1543","","","","90","","","","key","16.714769230769168","683","328.5","","","","","","","","","","","","","","","","","","","",""
"psychophysics","323","931473","0.0-18.0-0.26","62b2d869074bd11bce35650e","6368f2eea3e9634aebcc2f6b","636b48e2aeab7020c46d71f2","null","","","","null","","","","key","16.71425423728918","683","328.5","","","","","","","","","","","","","","","","","","","",""
"psychophysics","324","931976","0.0-18.0-1.26","62b2d869074bd11bce35650e","6368f2eea3e9634aebcc2f6b","636b48e2aeab7020c46d71f2","null","","","","null","","","","key","16.71455172413623","683","328.5","","","","","","","","","","","","","293","-1","3","true","","","",""
"psychophysics","325","932242","0.0-18.0-2.26","62b2d869074bd11bce35650e","6368f2eea3e9634aebcc2f6b","636b48e2aeab7020c46d71f2","264.3000000715256","","","","77","","","","key","16.71213333332756","683","328.5","","","","","","","","","","","","","","","","","","","",""
"psychophysics","326","933248","0.0-18.0-0.27","62b2d869074bd11bce35650e","6368f2eea3e9634aebcc2f6b","636b48e2aeab7020c46d71f2","null","","","","null","","","","key","16.71332203389848","683","328.5","","","","","","","","","","","","","","","","","","","",""
"psychophysics","327","933749","0.0-18.0-1.27","62b2d869074bd11bce35650e","6368f2eea3e9634aebcc2f6b","636b48e2aeab7020c46d71f2","null","","","","null","","","","key","16.712103448278302","683","328.5","","","","","","","","","","","","","293","1","0","true","","","",""
"psychophysics","328","934080","0.0-18.0-2.27","62b2d869074bd11bce35650e","6368f2eea3e9634aebcc2f6b","636b48e2aeab7020c46d71f2","329.2000000476837","","","","90","","","","key","16.71384210526747","683","328.5","","","","","","","","","","","","","","","","","","","",""
