"trial_type","trial_index","time_elapsed","internal_node_id","PROLIFIC_PID","STUDY_ID","SESSION_ID","rt","stimulus","button_pressed","success","key_press","responses","isData","view_history","response_type","avg_frame_time","center_x","center_y","isSC","stim_side","trial_luminance","step_size","nReversal","correct","prev_ans","isThreshold","SC_threshold","final_threshold","isLuminance","FF_luminance","luminance","stimSide","ISInt","isFF","question_order","isSPQ","isCAPS","isAQ"
"pavlovia","0","7","0.0-0.0","59feed1da383a100011b3eaa","6368f2eea3e9634aebcc2f6b","636b5bed590858401079ecdc","","","","","","","","","","","","","","","","","","","","","","","","","","","","","","","",""
"html-button-response","1","13114","0.0-1.0","59feed1da383a100011b3eaa","6368f2eea3e9634aebcc2f6b","636b5bed590858401079ecdc","13103.5","<div style='background-color: white; width:60%; margin: auto; padding: 50px; text-align: justify; text-justify: inter-word; margin-bottom: 20px;'><h1 style='text-align: center;'>Consent Form</h1><p>Please read this consent form carefully before deciding whether you would like to participate in this study. You have to be 18 years old or older to participate to this study.</p><p style='text-decoration: underline;'>Participation is voluntary:</p><p>It is your choice whether or not to participate in this research. If you choose to participate, you may change your mind and leave the study at any time. Refusal to participate or stopping your participation will involve no penalty or loss of benefits to which you are otherwise entitled.</p><p style='text-decoration: underline;'>Purpose of the Study:</p><p>To understand the mechanisms underlying human perception.</p><p style='text-decoration: underline;'>What you will do in this study:</p><p>You will be presented with a series of visual images and then you will press buttons on the keyboard of your computer to respond to simple questions about the images (e.g. Were one or two images presented?). In addition, you will be asked to complete a questionnaire concerning your beliefs and everyday mental and perceptual experiences.'</p><p style='text-decoration: underline;'> Time Required:</p><p>The study will take 40 minutes to complete. </p><p style='text-decoration: underline;'>Risks:</p><p>There are no anticipated risks associated with participating in this study that are beyond those experienced in everyday life. </p><p style='text-decoration: underline;'>Benefits:</p><p>There are no benefits to you in participating in the study. However, this study may lead to a better understanding of how different kinds of visual information are used.</p><p style='text-decoration: underline;'>Compensation:</p><p>You will be paid US$6.6/hour. </p><p style='text-decoration: underline;'>Privacy and Confidentiality:</p><p>Your participation in this study will be anonymous. No personal information about your name or identity will be asked or recorded. This anonymous data will be stored for several years and may be used for a variety of research purposes. The overall results of the study may be published, or the data files may be shared with other researchers, but your identity will not be revealed in any way. The online services we are using for this study may temporarily store your data, but this data will be downloaded and then promptly deleted from those services.Your data will not be permanently associated with your name, IP address, or any other identifiable information (e.g., your information will only be connected to your payment, not to any of your responses), though they may be temporarily stored together before we download and separate them. Even so, no guarantee of internet survey security can be given because, although unlikely, transmissions can be intercepted and IP addresses can be identified. The anonymous data may be shared publicly (for example, in conjunction with a resulting academic publication).</p><p style='text-decoration: underline;'>Participation and Withdrawal:</p><p>Your participation in this study is completely voluntary. You may stop responding to the stimuli or stop answering questions if you so choose and without penalty by exiting the full screen mode, closing this tab of your browser or redirecting it to a different website.</p><p style='text-decoration: underline;'>Contact Info of the Researcher: </p><p>If you have questions about this study, or if you would like to talk to the research team, please contact David Melcher (david.melcher@nyu.edu, md5050@nyu.edu) at the Perception and Active Cognition Laboratory, New York University Abu Dhabi, Computational Research Building, Saadiyat Island, Abu Dhabi, UAE.This research has been reviewed by the New York University Abu Dhabi Institutional Review Board (NYUAD IRB). To contact about your rights in this research, for questions, suggestions, or complaints that are not addressed by the researchers, please email IRBnyuad@nyu.edu, or call the NYUAD IRB at +971 2 628 4313. </p></div>","0","","","","","","","","","","","","","","","","","","","","","","","","","","","","",""
"fullscreen","2","15177","0.0-2.0","59feed1da383a100011b3eaa","6368f2eea3e9634aebcc2f6b","636b5bed590858401079ecdc","","","","true","","","","","","","","","","","","","","","","","","","","","","","","","","","",""
"html-keyboard-response","3","31123","0.0-3.0","59feed1da383a100011b3eaa","6368f2eea3e9634aebcc2f6b","636b5bed590858401079ecdc","15945.300000190735","<p>Welcome !</p><p>READ CAREFULLY THE FOLLOWING INDICATIONS:</p><p>From this moment you have ~40 minutes to complete the experiment.</p><p>During the experiment you will be prompted to take several breaks. Each break should not last longer than 2-3 minutes.</p><p>Make sure that your computer is plugged in and it's not running on battery power, even if the battery is already fully charged.</p><p>Turn off your phone and music, make sure that you are in a quiet room and that you will not be distracted for the next hour.</p><p>Failure to comply with the instructions and indications provided during the experiment will most likely result in the rejection of your data.<p>Press the spacebar to start.</p>","","","32","","","","","","","","","","","","","","","","","","","","","","","","","","",""
"survey-html-form","4","39557","0.0-4.0","59feed1da383a100011b3eaa","6368f2eea3e9634aebcc2f6b","636b5bed590858401079ecdc","8433.400000095367","","","","","{""age"":""47"",""sex"":""M""}","true","","","","","","","","","","","","","","","","","","","","","","","","",""
"instructions","5","80761","0.0-5.0","59feed1da383a100011b3eaa","6368f2eea3e9634aebcc2f6b","636b5bed590858401079ecdc","41203","","","","","","","[{""page_index"":0,""viewing_time"":20132.700000286102},{""page_index"":1,""viewing_time"":16367.099999904633},{""page_index"":2,""viewing_time"":4703}]","","","","","","","","","","","","","","","","","","","","","","","",""
"psychophysics","6","83444","0.0-6.0-0.0","59feed1da383a100011b3eaa","6368f2eea3e9634aebcc2f6b","636b5bed590858401079ecdc","1679.1999998092651","","","","39","","","","key","17.886926666666696","768","361","true","1","180","30","0","-1","","","","","","","","","","","","","",""
"psychophysics","7","84704","0.0-6.0-0.1","59feed1da383a100011b3eaa","6368f2eea3e9634aebcc2f6b","636b5bed590858401079ecdc","253.90000009536743","","","","39","","","","key","16.662702702702617","768","361","true","1","180","30","0","-1","-1","","","","","","","","","","","","",""
"psychophysics","8","85932","0.0-6.0-0.2","59feed1da383a100011b3eaa","6368f2eea3e9634aebcc2f6b","636b5bed590858401079ecdc","226.69999980926514","","","","39","","","","key","16.670616438356188","768","361","true","1","150","30","0","-1","-1","","","","","","","","","","","","",""
"psychophysics","9","87096","0.0-6.0-0.3","59feed1da383a100011b3eaa","6368f2eea3e9634aebcc2f6b","636b5bed590858401079ecdc","158","","","","39","","","","key","16.66705797101452","768","361","true","1","150","30","0","-1","-1","","","","","","","","","","","","",""
"psychophysics","10","89455","0.0-6.0-0.4","59feed1da383a100011b3eaa","6368f2eea3e9634aebcc2f6b","636b5bed590858401079ecdc","1356.5999999046326","","","","37","","","","key","16.66849285714291","768","361","true","-1","129","30","0","-1","-1","","","","","","","","","","","","",""
"psychophysics","11","92879","0.0-6.0-0.5","59feed1da383a100011b3eaa","6368f2eea3e9634aebcc2f6b","636b5bed590858401079ecdc","2420","","","","39","","","","key","16.666517073170724","768","361","true","1","129","30","0","-1","-1","","","","","","","","","","","","",""
"psychophysics","12","94904","0.0-6.0-0.6","59feed1da383a100011b3eaa","6368f2eea3e9634aebcc2f6b","636b5bed590858401079ecdc","1020.6999998092651","","","","37","","","","key","16.664666666666744","768","361","true","-1","129","30","0","-1","-1","","","","","","","","","","","","",""
"psychophysics","13","96919","0.0-6.0-0.7","59feed1da383a100011b3eaa","6368f2eea3e9634aebcc2f6b","636b5bed590858401079ecdc","1013.5999999046326","","","","37","","","","key","16.667099999999966","768","361","true","1","129","24","1","1","-1","","","","","","","","","","","","",""
"psychophysics","14","98224","0.0-6.0-0.8","59feed1da383a100011b3eaa","6368f2eea3e9634aebcc2f6b","636b5bed590858401079ecdc","301.40000009536743","","","","37","","","","key","16.666448717948814","768","361","true","-1","153","24","1","-1","1","","","","","","","","","","","","",""
"psychophysics","15","99460","0.0-6.0-0.9","59feed1da383a100011b3eaa","6368f2eea3e9634aebcc2f6b","636b5bed590858401079ecdc","233.90000009536743","","","","39","","","","key","16.668753424657577","768","361","true","1","153","19.2","2","-1","-1","","","","","","","","","","","","",""
"psychophysics","16","101821","0.0-6.0-0.10","59feed1da383a100011b3eaa","6368f2eea3e9634aebcc2f6b","636b5bed590858401079ecdc","1353.7000002861023","","","","37","","","","key","16.66806428571425","768","361","true","-1","133.8","19.2","2","-1","-1","","","","","","","","","","","","",""
"psychophysics","17","103846","0.0-6.0-0.11","59feed1da383a100011b3eaa","6368f2eea3e9634aebcc2f6b","636b5bed590858401079ecdc","1023.4000000953674","","","","37","","","","key","16.666884297520777","768","361","true","1","133.8","15.36","3","1","-1","","","","","","","","","","","","",""
"psychophysics","18","105038","0.0-6.0-0.12","59feed1da383a100011b3eaa","6368f2eea3e9634aebcc2f6b","636b5bed590858401079ecdc","187.40000009536743","","","","37","","","","key","16.670299999999823","768","361","true","-1","149.16000000000003","15.36","3","-1","1","","","","","","","","","","","","",""
"psychophysics","19","106143","0.0-6.0-0.13","59feed1da383a100011b3eaa","6368f2eea3e9634aebcc2f6b","636b5bed590858401079ecdc","103.89999961853027","","","","37","","","","key","16.667121212121195","768","361","true","-1","149.16000000000003","12.287999999999998","4","-1","-1","","","","","","","","","","","","",""
"psychophysics","20","107437","0.0-6.0-0.14","59feed1da383a100011b3eaa","6368f2eea3e9634aebcc2f6b","636b5bed590858401079ecdc","290.19999980926514","","","","37","","","","key","16.666723684210552","768","361","true","-1","136.872","12.287999999999998","4","-1","-1","","","","","","","","","","","","",""
"psychophysics","21","108609","0.0-6.0-0.15","59feed1da383a100011b3eaa","6368f2eea3e9634aebcc2f6b","636b5bed590858401079ecdc","170","","","","39","","","","key","16.666200000000078","768","361","true","1","136.872","12.287999999999998","4","-1","-1","","","","","","","","","","","","",""
"psychophysics","22","111733","0.0-6.0-0.16","59feed1da383a100011b3eaa","6368f2eea3e9634aebcc2f6b","636b5bed590858401079ecdc","2121.7999997138977","","","","37","","","","key","16.667693548387053","768","361","true","-1","129","12.287999999999998","4","-1","-1","","","","","","","","","","","","",""
"psychophysics","23","113701","0.0-6.0-0.17","59feed1da383a100011b3eaa","6368f2eea3e9634aebcc2f6b","636b5bed590858401079ecdc","961.5999999046326","","","","37","","","","key","16.668794871794837","768","361","true","1","129","9.8304","5","1","-1","","","","","","","","","","","","",""
"psychophysics","24","114923","0.0-6.0-0.18","59feed1da383a100011b3eaa","6368f2eea3e9634aebcc2f6b","636b5bed590858401079ecdc","216.2000002861023","","","","37","","","","key","16.666333333333267","768","361","true","-1","138.8304","9.8304","5","-1","1","","","","","","","","","","","","",""
"psychophysics","25","116035","0.0-6.0-0.19","59feed1da383a100011b3eaa","6368f2eea3e9634aebcc2f6b","636b5bed590858401079ecdc","104.80000019073486","","","","39","","","","key","16.666409090909205","768","361","true","1","138.8304","7.864319999999999","6","-1","-1","","","","","","","","","","","","",""
"psychophysics","26","117951","0.0-6.0-0.20","59feed1da383a100011b3eaa","6368f2eea3e9634aebcc2f6b","636b5bed590858401079ecdc","912.0999999046326","","","","37","","","","key","16.668157894736826","768","361","true","1","130.96608","6.291456","7","1","-1","","","","","","","","","","","","",""
"psychophysics","27","120197","0.0-6.0-0.21","59feed1da383a100011b3eaa","6368f2eea3e9634aebcc2f6b","636b5bed590858401079ecdc","1241.9000000953674","","","","37","","","","key","16.665126865671592","768","361","true","-1","137.25753600000002","6.291456","7","-1","1","","","","","","","","","","","","",""
"psychophysics","28","121954","0.0-6.0-0.22","59feed1da383a100011b3eaa","6368f2eea3e9634aebcc2f6b","636b5bed590858401079ecdc","751.2999997138977","","","","37","","","","key","16.667028846153837","768","361","true","-1","137.25753600000002","5.033164800000001","8","-1","-1","","","","","","","","","","","","",""
"psychophysics","29","123985","0.0-6.0-0.23","59feed1da383a100011b3eaa","6368f2eea3e9634aebcc2f6b","636b5bed590858401079ecdc","1028.8000001907349","","","","37","","","","key","16.66727272727277","768","361","true","1","132.2243712","4.0265318400000005","9","1","-1","","","","","","","","","","","","",""
"psychophysics","30","126407","0.0-6.0-0.24","59feed1da383a100011b3eaa","6368f2eea3e9634aebcc2f6b","636b5bed590858401079ecdc","1419.2999997138977","","","","37","","","","key","16.666558620689642","768","361","true","1","136.25090304","4.0265318400000005","9","1","1","","","","","","","","","","","","",""
"psychophysics","31","127657","0.0-6.0-0.25","59feed1da383a100011b3eaa","6368f2eea3e9634aebcc2f6b","636b5bed590858401079ecdc","246.80000019073486","","","","37","","","","key","16.663216216216334","768","361","true","-1","140.27743488","4.0265318400000005","9","-1","1","","","","","","","","","","","","",""
"psychophysics","32","128809","0.0-6.0-0.26","59feed1da383a100011b3eaa","6368f2eea3e9634aebcc2f6b","636b5bed590858401079ecdc","142.39999961853027","","","","39","","","","key","16.666426470588167","768","361","true","1","140.27743488","3.2212254720000004","10","-1","-1","","","","","","","","","","","","",""
"psychophysics","33","130077","0.0-6.0-0.27","59feed1da383a100011b3eaa","6368f2eea3e9634aebcc2f6b","636b5bed590858401079ecdc","266.09999990463257","","","","37","","","","key","16.66573333333324","768","361","true","-1","137.05620940799997","3.2212254720000004","10","-1","-1","","","","","","","","","","","","",""
"psychophysics","34","131291","0.0-6.0-0.28","59feed1da383a100011b3eaa","6368f2eea3e9634aebcc2f6b","636b5bed590858401079ecdc","207.59999990463257","","","","39","","","","key","16.666749999999915","768","361","true","1","137.05620940799997","3.2212254720000004","10","-1","-1","","","","","","","","","","","","",""
"psychophysics","35","132412","0.0-6.0-0.29","59feed1da383a100011b3eaa","6368f2eea3e9634aebcc2f6b","636b5bed590858401079ecdc","113.60000038146973","","","","39","","","","key","16.66990909090876","768","361","true","1","133.83498393599996","3.2212254720000004","10","-1","-1","","","","","","","","","","","","",""
"psychophysics","36","135010","0.0-6.0-0.30","59feed1da383a100011b3eaa","6368f2eea3e9634aebcc2f6b","636b5bed590858401079ecdc","1591.3999996185303","","","","37","","","","key","16.66638064516141","768","361","true","-1","133.83498393599996","3.2212254720000004","10","-1","-1","","","","","","","","","","","","",""
"psychophysics","37","136591","0.0-6.0-0.31","59feed1da383a100011b3eaa","6368f2eea3e9634aebcc2f6b","636b5bed590858401079ecdc","572.1000003814697","","","","37","","","","key","16.667712765957287","768","361","true","1","130.61375846399994","2.5769803776000004","11","1","-1","","","","","","","","","","","","",""
"psychophysics","38","138433","0.0-6.0-0.32","59feed1da383a100011b3eaa","6368f2eea3e9634aebcc2f6b","636b5bed590858401079ecdc","838.7000002861023","","","","37","","","","key","16.66679816513772","768","361","true","-1","133.19073884159994","2.5769803776000004","11","-1","1","","","","","","","","","","","","",""
"psychophysics","39","140295","0.0-6.0-0.33","59feed1da383a100011b3eaa","6368f2eea3e9634aebcc2f6b","636b5bed590858401079ecdc","860.6999998092651","","","","37","","","","key","16.66677477477493","768","361","true","1","133.19073884159994","2.0615843020800004","12","1","-1","","","","","","","","","","","","",""
"psychophysics","40","141977","0.0-6.0-0.34","59feed1da383a100011b3eaa","6368f2eea3e9634aebcc2f6b","636b5bed590858401079ecdc","679","","","","37","","","","key","16.666360000000278","768","361","true","-1","135.25232314367994","2.0615843020800004","12","-1","1","","","","","","","","","","","","",""
"psychophysics","41","143154","0.0-6.0-0.35","59feed1da383a100011b3eaa","6368f2eea3e9634aebcc2f6b","636b5bed590858401079ecdc","175.5","","","","39","","","","key","16.66304347826087","768","361","true","1","135.25232314367994","1.6492674416640005","13","-1","-1","","","","","","","","","","","","",""
"psychophysics","42","144846","0.0-6.0-0.36","59feed1da383a100011b3eaa","6368f2eea3e9634aebcc2f6b","636b5bed590858401079ecdc","690.2999997138977","","","","37","","","","key","16.667524752475373","768","361","true","-1","133.60305570201595","1.6492674416640005","13","-1","-1","","","","","","","","","","","","",""
"psychophysics","43","146607","0.0-6.0-0.37","59feed1da383a100011b3eaa","6368f2eea3e9634aebcc2f6b","636b5bed590858401079ecdc","756","","","","37","","","","key","16.66631428571418","768","361","true","-1","133.60305570201595","1.6492674416640005","13","-1","-1","","","","","","","","","","","","",""
"psychophysics","44","148336","0.0-6.0-0.38","59feed1da383a100011b3eaa","6368f2eea3e9634aebcc2f6b","636b5bed590858401079ecdc","725","","","","37","","","","key","16.66661764705878","768","361","true","-1","131.95378826035196","1.6492674416640005","13","-1","-1","","","","","","","","","","","","",""
"psychophysics","45","150411","0.0-6.0-0.39","59feed1da383a100011b3eaa","6368f2eea3e9634aebcc2f6b","636b5bed590858401079ecdc","1072.9000000953674","","","","37","","","","key","16.664508064515935","768","361","true","-1","131.95378826035196","1.6492674416640005","13","-1","-1","","","","","","","","","","","","",""
"html-keyboard-response","46","158894","0.0-7.0","59feed1da383a100011b3eaa","6368f2eea3e9634aebcc2f6b","636b5bed590858401079ecdc","8481.5","<p>Well Done !</p><p>Prepare for a new block.</p><p>DON'T EXIT THE FULL SCREEN MODE</p><p>Press the Spacebar to start.</p>","","","32","","","","","","","","","","","","","","","true","134.73005512048636","","","","","","","","","","",""
"psychophysics","47","159911","0.0-8.0-0.0","59feed1da383a100011b3eaa","6368f2eea3e9634aebcc2f6b","636b5bed590858401079ecdc","11.400000095367432","","","","39","","","","key","16.67206557377024","768","361","true","1","180","30","0","-1","","","","","","","","","","","","","",""
"psychophysics","48","163063","0.0-8.0-0.1","59feed1da383a100011b3eaa","6368f2eea3e9634aebcc2f6b","636b5bed590858401079ecdc","2148.300000190735","","","","37","","","","key","16.668292553191467","768","361","true","-1","180","30","0","-1","-1","","","","","","","","","","","","",""
"psychophysics","49","164277","0.0-8.0-0.2","59feed1da383a100011b3eaa","6368f2eea3e9634aebcc2f6b","636b5bed590858401079ecdc","209.09999990463257","","","","37","","","","key","16.664277777777897","768","361","true","-1","150","30","0","-1","-1","","","","","","","","","","","","",""
"psychophysics","50","165375","0.0-8.0-0.3","59feed1da383a100011b3eaa","6368f2eea3e9634aebcc2f6b","636b5bed590858401079ecdc","92","","","","37","","","","key","16.670692307692324","768","361","true","-1","150","30","0","-1","-1","","","","","","","","","","","","",""
"psychophysics","51","167954","0.0-8.0-0.4","59feed1da383a100011b3eaa","6368f2eea3e9634aebcc2f6b","636b5bed590858401079ecdc","1574.7000002861023","","","","39","","","","key","16.664620915032714","768","361","true","-1","129","24","1","1","-1","","","","","","","","","","","","",""
"psychophysics","52","169161","0.0-8.0-0.5","59feed1da383a100011b3eaa","6368f2eea3e9634aebcc2f6b","636b5bed590858401079ecdc","204.60000038146973","","","","39","","","","key","16.666680555555406","768","361","true","1","153","24","1","-1","1","","","","","","","","","","","","",""
"psychophysics","53","170394","0.0-8.0-0.6","59feed1da383a100011b3eaa","6368f2eea3e9634aebcc2f6b","636b5bed590858401079ecdc","231.09999990463257","","","","39","","","","key","16.66267123287671","768","361","true","1","153","19.2","2","-1","-1","","","","","","","","","","","","",""
"psychophysics","54","172253","0.0-8.0-0.7","59feed1da383a100011b3eaa","6368f2eea3e9634aebcc2f6b","636b5bed590858401079ecdc","850.6999998092651","","","","37","","","","key","16.66672727272724","768","361","true","1","133.8","15.36","3","1","-1","","","","","","","","","","","","",""
"psychophysics","55","173320","0.0-8.0-0.8","59feed1da383a100011b3eaa","6368f2eea3e9634aebcc2f6b","636b5bed590858401079ecdc","64.59999990463257","","","","39","","","","key","16.6670634920634","768","361","true","1","149.16000000000003","15.36","3","-1","1","","","","","","","","","","","","",""
"psychophysics","56","174337","0.0-8.0-0.9","59feed1da383a100011b3eaa","6368f2eea3e9634aebcc2f6b","636b5bed590858401079ecdc","15","","","","37","","","","key","16.6615333333335","768","361","true","-1","149.16000000000003","12.287999999999998","4","-1","-1","","","","","","","","","","","","",""
"psychophysics","57","175529","0.0-8.0-0.10","59feed1da383a100011b3eaa","6368f2eea3e9634aebcc2f6b","636b5bed590858401079ecdc","189.90000009536743","","","","37","","","","key","16.670577464788796","768","361","true","1","136.872","9.8304","5","1","-1","","","","","","","","","","","","",""
"psychophysics","58","176977","0.0-8.0-0.11","59feed1da383a100011b3eaa","6368f2eea3e9634aebcc2f6b","636b5bed590858401079ecdc","439.09999990463257","","","","39","","","","key","16.66724418604653","768","361","true","1","146.7024","9.8304","5","-1","1","","","","","","","","","","","","",""
"psychophysics","59","178135","0.0-8.0-0.12","59feed1da383a100011b3eaa","6368f2eea3e9634aebcc2f6b","636b5bed590858401079ecdc","148.59999990463257","","","","39","","","","key","16.668499999999767","768","361","true","1","146.7024","7.864319999999999","6","-1","-1","","","","","","","","","","","","",""
"psychophysics","60","179354","0.0-8.0-0.13","59feed1da383a100011b3eaa","6368f2eea3e9634aebcc2f6b","636b5bed590858401079ecdc","215.09999990463257","","","","37","","","","key","16.6715416666666","768","361","true","-1","138.83808000000002","7.864319999999999","6","-1","-1","","","","","","","","","","","","",""
"psychophysics","61","180633","0.0-8.0-0.14","59feed1da383a100011b3eaa","6368f2eea3e9634aebcc2f6b","636b5bed590858401079ecdc","278.19999980926514","","","","39","","","","key","16.66673684210515","768","361","true","1","138.83808000000002","7.864319999999999","6","-1","-1","","","","","","","","","","","","",""
"psychophysics","62","182461","0.0-8.0-0.15","59feed1da383a100011b3eaa","6368f2eea3e9634aebcc2f6b","636b5bed590858401079ecdc","825.2000002861023","","","","39","","","","key","16.66346788990825","768","361","true","-1","130.97376000000003","6.291456","7","1","-1","","","","","","","","","","","","",""
"psychophysics","63","183942","0.0-8.0-0.16","59feed1da383a100011b3eaa","6368f2eea3e9634aebcc2f6b","636b5bed590858401079ecdc","475.2000002861023","","","","37","","","","key","16.667159090909","768","361","true","-1","137.26521600000004","6.291456","7","-1","1","","","","","","","","","","","","",""
"psychophysics","64","185448","0.0-8.0-0.17","59feed1da383a100011b3eaa","6368f2eea3e9634aebcc2f6b","636b5bed590858401079ecdc","500.59999990463257","","","","39","","","","key","16.66828089887623","768","361","true","1","137.26521600000004","5.033164800000001","8","-1","-1","","","","","","","","","","","","",""
"psychophysics","65","188035","0.0-8.0-0.18","59feed1da383a100011b3eaa","6368f2eea3e9634aebcc2f6b","636b5bed590858401079ecdc","1585.2000002861023","","","","39","","","","key","16.6684155844155","768","361","true","-1","132.23205120000003","4.0265318400000005","9","1","-1","","","","","","","","","","","","",""
"psychophysics","66","189606","0.0-8.0-0.19","59feed1da383a100011b3eaa","6368f2eea3e9634aebcc2f6b","636b5bed590858401079ecdc","566.7000002861023","","","","39","","","","key","16.665212765957435","768","361","true","1","136.25858304000002","4.0265318400000005","9","-1","1","","","","","","","","","","","","",""
"psychophysics","67","192022","0.0-8.0-0.20","59feed1da383a100011b3eaa","6368f2eea3e9634aebcc2f6b","636b5bed590858401079ecdc","1411.7000002861023","","","","39","","","","key","16.66643055555566","768","361","true","1","136.25858304000002","3.2212254720000004","10","-1","-1","","","","","","","","","","","","",""
"psychophysics","68","193695","0.0-8.0-0.21","59feed1da383a100011b3eaa","6368f2eea3e9634aebcc2f6b","636b5bed590858401079ecdc","668.3000001907349","","","","39","","","","key","16.663484848484824","768","361","true","-1","133.037357568","2.5769803776000004","11","1","-1","","","","","","","","","","","","",""
"psychophysics","69","195743","0.0-8.0-0.22","59feed1da383a100011b3eaa","6368f2eea3e9634aebcc2f6b","636b5bed590858401079ecdc","1044.1000003814697","","","","39","","","","key","16.666311475409902","768","361","true","-1","135.6143379456","2.5769803776000004","11","1","1","","","","","","","","","","","","",""
"psychophysics","70","198092","0.0-8.0-0.23","59feed1da383a100011b3eaa","6368f2eea3e9634aebcc2f6b","636b5bed590858401079ecdc","1345.5999999046326","","","","39","","","","key","16.668771428571407","768","361","true","1","138.1913183232","2.5769803776000004","11","-1","1","","","","","","","","","","","","",""
"psychophysics","71","199573","0.0-8.0-0.24","59feed1da383a100011b3eaa","6368f2eea3e9634aebcc2f6b","636b5bed590858401079ecdc","473.40000009536743","","","","37","","","","key","16.669965909090852","768","361","true","-1","138.1913183232","2.0615843020800004","12","-1","-1","","","","","","","","","","","","",""
"psychophysics","72","200997","0.0-8.0-0.25","59feed1da383a100011b3eaa","6368f2eea3e9634aebcc2f6b","636b5bed590858401079ecdc","417.80000019073486","","","","39","","","","key","16.666726190476247","768","361","true","1","136.12973402112","2.0615843020800004","12","-1","-1","","","","","","","","","","","","",""
"psychophysics","73","202301","0.0-8.0-0.26","59feed1da383a100011b3eaa","6368f2eea3e9634aebcc2f6b","636b5bed590858401079ecdc","299.2000002861023","","","","37","","","","key","16.671077922078048","768","361","true","-1","136.12973402112","2.0615843020800004","12","-1","-1","","","","","","","","","","","","",""
"psychophysics","74","204018","0.0-8.0-0.27","59feed1da383a100011b3eaa","6368f2eea3e9634aebcc2f6b","636b5bed590858401079ecdc","713.6999998092651","","","","37","","","","key","16.666500000000074","768","361","true","-1","134.06814971903998","2.0615843020800004","12","-1","-1","","","","","","","","","","","","",""
"psychophysics","75","206891","0.0-8.0-0.28","59feed1da383a100011b3eaa","6368f2eea3e9634aebcc2f6b","636b5bed590858401079ecdc","1869.7999997138977","","","","39","","","","key","16.66824418604648","768","361","true","-1","134.06814971903998","1.6492674416640005","13","1","-1","","","","","","","","","","","","",""
"psychophysics","76","208858","0.0-8.0-0.29","59feed1da383a100011b3eaa","6368f2eea3e9634aebcc2f6b","636b5bed590858401079ecdc","959.5","","","","37","","","","key","16.666880341880294","768","361","true","-1","135.71741716070397","1.6492674416640005","13","-1","1","","","","","","","","","","","","",""
"psychophysics","77","210548","0.0-8.0-0.30","59feed1da383a100011b3eaa","6368f2eea3e9634aebcc2f6b","636b5bed590858401079ecdc","681.7000002861023","","","","37","","","","key","16.66594999999972","768","361","true","-1","135.71741716070397","1.3194139533312006","14","-1","-1","","","","","","","","","","","","",""
"psychophysics","78","213667","0.0-8.0-0.31","59feed1da383a100011b3eaa","6368f2eea3e9634aebcc2f6b","636b5bed590858401079ecdc","2112.4000000953674","","","","37","","","","key","16.666607526881727","768","361","true","-1","134.39800320737277","1.3194139533312006","14","-1","-1","","","","","","","","","","","","",""
"psychophysics","79","215423","0.0-8.0-0.32","59feed1da383a100011b3eaa","6368f2eea3e9634aebcc2f6b","636b5bed590858401079ecdc","751.2000002861023","","","","37","","","","key","16.667390476190484","768","361","true","1","134.39800320737277","1.0555311626649604","15","1","-1","","","","","","","","","","","","",""
"psychophysics","80","218213","0.0-8.0-0.33","59feed1da383a100011b3eaa","6368f2eea3e9634aebcc2f6b","636b5bed590858401079ecdc","1786.8000001907349","","","","37","","","","key","16.666042168674668","768","361","true","1","135.45353437003772","1.0555311626649604","15","1","1","","","","","","","","","","","","",""
"psychophysics","81","219672","0.0-8.0-0.34","59feed1da383a100011b3eaa","6368f2eea3e9634aebcc2f6b","636b5bed590858401079ecdc","453.40000009536743","","","","39","","","","key","16.664172413793054","768","361","true","1","136.50906553270266","1.0555311626649604","15","-1","1","","","","","","","","","","","","",""
"psychophysics","82","221145","0.0-8.0-0.35","59feed1da383a100011b3eaa","6368f2eea3e9634aebcc2f6b","636b5bed590858401079ecdc","469.59999990463257","","","","37","","","","key","16.663712643678355","768","361","true","-1","136.50906553270266","1","16","-1","-1","","","","","","","","","","","","",""
"psychophysics","83","224240","0.0-8.0-0.36","59feed1da383a100011b3eaa","6368f2eea3e9634aebcc2f6b","636b5bed590858401079ecdc","2093.5999999046326","","","","37","","","","key","16.66641081081077","768","361","true","1","135.50906553270266","1","17","1","-1","","","","","","","","","","","","",""
"psychophysics","84","225957","0.0-8.0-0.37","59feed1da383a100011b3eaa","6368f2eea3e9634aebcc2f6b","636b5bed590858401079ecdc","714","","","","37","","","","key","16.666401960784295","768","361","true","-1","136.50906553270266","1","17","-1","1","","","","","","","","","","","","",""
"psychophysics","85","227495","0.0-8.0-0.38","59feed1da383a100011b3eaa","6368f2eea3e9634aebcc2f6b","636b5bed590858401079ecdc","532.4000000953674","","","","39","","","","key","16.668263736263796","768","361","true","1","136.50906553270266","1","18","-1","-1","","","","","","","","","","","","",""
"psychophysics","86","229758","0.0-8.0-0.39","59feed1da383a100011b3eaa","6368f2eea3e9634aebcc2f6b","636b5bed590858401079ecdc","1259.6999998092651","","","","37","","","","key","16.667318518518435","768","361","true","1","135.50906553270266","1","19","1","-1","","","","","","","","","","","","",""
"html-keyboard-response","87","240073","0.0-9.0","59feed1da383a100011b3eaa","6368f2eea3e9634aebcc2f6b","636b5bed590858401079ecdc","10313.900000095367","<p>Well Done !</p><p>Prepare for a new block.</p><p>DON'T EXIT THE FULL SCREEN MODE</p><p>Press the Spacebar to start.</p>","","","32","","","","","","","","","","","","","","","true","135.54230238551511","","","","","","","","","","",""
"psychophysics","88","241139","0.0-10.0-0.0","59feed1da383a100011b3eaa","6368f2eea3e9634aebcc2f6b","636b5bed590858401079ecdc","56.30000019073486","","","","37","","","","key","16.672609374999865","768","361","true","-1","180","30","0","-1","","","","","","","","","","","","","",""
"psychophysics","89","242312","0.0-10.0-0.1","59feed1da383a100011b3eaa","6368f2eea3e9634aebcc2f6b","636b5bed590858401079ecdc","164.90000009536743","","","","39","","","","key","16.666985507246338","768","361","true","1","180","30","0","-1","-1","","","","","","","","","","","","",""
"psychophysics","90","243600","0.0-10.0-0.2","59feed1da383a100011b3eaa","6368f2eea3e9634aebcc2f6b","636b5bed590858401079ecdc","286.5","","","","37","","","","key","16.661355263157976","768","361","true","-1","150","30","0","-1","-1","","","","","","","","","","","","",""
"psychophysics","91","244805","0.0-10.0-0.3","59feed1da383a100011b3eaa","6368f2eea3e9634aebcc2f6b","636b5bed590858401079ecdc","202.40000009536743","","","","39","","","","key","16.664374999999886","768","361","true","1","150","30","0","-1","-1","","","","","","","","","","","","",""
"psychophysics","92","246854","0.0-10.0-0.4","59feed1da383a100011b3eaa","6368f2eea3e9634aebcc2f6b","636b5bed590858401079ecdc","1044","","","","39","","","","key","16.663975206611692","768","361","true","1","129","30","0","-1","-1","","","","","","","","","","","","",""
"psychophysics","93","248669","0.0-10.0-0.5","59feed1da383a100011b3eaa","6368f2eea3e9634aebcc2f6b","636b5bed590858401079ecdc","809.5999999046326","","","","39","","","","key","16.667444444444467","768","361","true","1","129","30","0","-1","-1","","","","","","","","","","","","",""
"psychophysics","94","250472","0.0-10.0-0.6","59feed1da383a100011b3eaa","6368f2eea3e9634aebcc2f6b","636b5bed590858401079ecdc","801.4000000953674","","","","39","","","","key","16.666648148148077","768","361","true","1","129","30","0","-1","-1","","","","","","","","","","","","",""
"psychophysics","95","251990","0.0-10.0-0.7","59feed1da383a100011b3eaa","6368f2eea3e9634aebcc2f6b","636b5bed590858401079ecdc","515.8000001907349","","","","39","","","","key","16.66769999999993","768","361","true","-1","129","24","1","1","-1","","","","","","","","","","","","",""
"psychophysics","96","253933","0.0-10.0-0.8","59feed1da383a100011b3eaa","6368f2eea3e9634aebcc2f6b","636b5bed590858401079ecdc","937.5","","","","39","","","","key","16.666617391304538","768","361","true","-1","153","24","1","1","1","","","","","","","","","","","","",""
"psychophysics","97","255399","0.0-10.0-0.9","59feed1da383a100011b3eaa","6368f2eea3e9634aebcc2f6b","636b5bed590858401079ecdc","460.7999997138977","","","","39","","","","key","16.670126436781686","768","361","true","1","177","24","1","-1","1","","","","","","","","","","","","",""
"psychophysics","98","256734","0.0-10.0-0.10","59feed1da383a100011b3eaa","6368f2eea3e9634aebcc2f6b","636b5bed590858401079ecdc","332.5","","","","37","","","","key","16.670936708860587","768","361","true","-1","177","19.2","2","-1","-1","","","","","","","","","","","","",""
"psychophysics","99","258162","0.0-10.0-0.11","59feed1da383a100011b3eaa","6368f2eea3e9634aebcc2f6b","636b5bed590858401079ecdc","423.90000009536743","","","","39","","","","key","16.666270588235314","768","361","true","1","157.8","19.2","2","-1","-1","","","","","","","","","","","","",""
"psychophysics","100","259613","0.0-10.0-0.12","59feed1da383a100011b3eaa","6368f2eea3e9634aebcc2f6b","636b5bed590858401079ecdc","442.40000009536743","","","","39","","","","key","16.66444186046503","768","361","true","1","157.8","19.2","2","-1","-1","","","","","","","","","","","","",""
"psychophysics","101","261089","0.0-10.0-0.13","59feed1da383a100011b3eaa","6368f2eea3e9634aebcc2f6b","636b5bed590858401079ecdc","470.90000009536743","","","","39","","","","key","16.66526136363642","768","361","true","1","138.60000000000002","19.2","2","-1","-1","","","","","","","","","","","","",""
"psychophysics","102","262899","0.0-10.0-0.14","59feed1da383a100011b3eaa","6368f2eea3e9634aebcc2f6b","636b5bed590858401079ecdc","800.2000002861023","","","","39","","","","key","16.666495327102826","768","361","true","-1","138.60000000000002","15.36","3","1","-1","","","","","","","","","","","","",""
"psychophysics","103","264470","0.0-10.0-0.15","59feed1da383a100011b3eaa","6368f2eea3e9634aebcc2f6b","636b5bed590858401079ecdc","564.7000002861023","","","","39","","","","key","16.66504301075255","768","361","true","1","153.96000000000004","15.36","3","-1","1","","","","","","","","","","","","",""
"psychophysics","104","265957","0.0-10.0-0.16","59feed1da383a100011b3eaa","6368f2eea3e9634aebcc2f6b","636b5bed590858401079ecdc","485.2999997138977","","","","39","","","","key","16.668910112359505","768","361","true","1","153.96000000000004","12.287999999999998","4","-1","-1","","","","","","","","","","","","",""
"psychophysics","105","267395","0.0-10.0-0.17","59feed1da383a100011b3eaa","6368f2eea3e9634aebcc2f6b","636b5bed590858401079ecdc","432.90000009536743","","","","37","","","","key","16.661129411764662","768","361","true","-1","141.67200000000003","12.287999999999998","4","-1","-1","","","","","","","","","","","","",""
"psychophysics","106","268873","0.0-10.0-0.18","59feed1da383a100011b3eaa","6368f2eea3e9634aebcc2f6b","636b5bed590858401079ecdc","470.19999980926514","","","","37","","","","key","16.668340909091057","768","361","true","-1","141.67200000000003","12.287999999999998","4","-1","-1","","","","","","","","","","","","",""
"psychophysics","107","271692","0.0-10.0-0.19","59feed1da383a100011b3eaa","6368f2eea3e9634aebcc2f6b","636b5bed590858401079ecdc","1809.4000000953674","","","","39","","","","key","16.667827380952424","768","361","true","-1","129.38400000000001","9.8304","5","1","-1","","","","","","","","","","","","",""
"psychophysics","108","273118","0.0-10.0-0.20","59feed1da383a100011b3eaa","6368f2eea3e9634aebcc2f6b","636b5bed590858401079ecdc","419.5","","","","39","","","","key","16.668619047619618","768","361","true","1","139.2144","9.8304","5","-1","1","","","","","","","","","","","","",""
"psychophysics","109","275205","0.0-10.0-0.21","59feed1da383a100011b3eaa","6368f2eea3e9634aebcc2f6b","636b5bed590858401079ecdc","1084","","","","39","","","","key","16.666575999999885","768","361","true","-1","139.2144","7.864319999999999","6","1","-1","","","","","","","","","","","","",""
"psychophysics","110","276636","0.0-10.0-0.22","59feed1da383a100011b3eaa","6368f2eea3e9634aebcc2f6b","636b5bed590858401079ecdc","425.69999980926514","","","","37","","","","key","16.665583333333156","768","361","true","-1","147.07872","7.864319999999999","6","-1","1","","","","","","","","","","","","",""
"psychophysics","111","278061","0.0-10.0-0.23","59feed1da383a100011b3eaa","6368f2eea3e9634aebcc2f6b","636b5bed590858401079ecdc","423.40000009536743","","","","37","","","","key","16.665847058823633","768","361","true","-1","147.07872","6.291456","7","-1","-1","","","","","","","","","","","","",""
"psychophysics","112","279529","0.0-10.0-0.24","59feed1da383a100011b3eaa","6368f2eea3e9634aebcc2f6b","636b5bed590858401079ecdc","461.30000019073486","","","","37","","","","key","16.671436781608953","768","361","true","-1","140.787264","6.291456","7","-1","-1","","","","","","","","","","","","",""
"psychophysics","113","280923","0.0-10.0-0.25","59feed1da383a100011b3eaa","6368f2eea3e9634aebcc2f6b","636b5bed590858401079ecdc","392.09999990463257","","","","39","","","","key","16.665807228915515","768","361","true","1","140.787264","6.291456","7","-1","-1","","","","","","","","","","","","",""
"psychophysics","114","282494","0.0-10.0-0.26","59feed1da383a100011b3eaa","6368f2eea3e9634aebcc2f6b","636b5bed590858401079ecdc","563.8999996185303","","","","39","","","","key","16.665473118279834","768","361","true","1","134.49580799999998","6.291456","7","-1","-1","","","","","","","","","","","","",""
"psychophysics","115","284136","0.0-10.0-0.27","59feed1da383a100011b3eaa","6368f2eea3e9634aebcc2f6b","636b5bed590858401079ecdc","635.7999997138977","","","","39","","","","key","16.66425773195896","768","361","true","1","134.49580799999998","6.291456","7","-1","-1","","","","","","","","","","","","",""
"psychophysics","116","287028","0.0-10.0-0.28","59feed1da383a100011b3eaa","6368f2eea3e9634aebcc2f6b","636b5bed590858401079ecdc","1889.3000001907349","","","","39","","","","key","16.668196531791896","768","361","true","1","129","6.291456","7","-1","-1","","","","","","","","","","","","",""
"psychophysics","117","288664","0.0-10.0-0.29","59feed1da383a100011b3eaa","6368f2eea3e9634aebcc2f6b","636b5bed590858401079ecdc","630","","","","39","","","","key","16.669329896907097","768","361","true","1","129","6.291456","7","-1","-1","","","","","","","","","","","","",""
"psychophysics","118","290517","0.0-10.0-0.30","59feed1da383a100011b3eaa","6368f2eea3e9634aebcc2f6b","636b5bed590858401079ecdc","849.8000001907349","","","","39","","","","key","16.66835454545481","768","361","true","-1","129","5.033164800000001","8","1","-1","","","","","","","","","","","","",""
"psychophysics","119","292216","0.0-10.0-0.31","59feed1da383a100011b3eaa","6368f2eea3e9634aebcc2f6b","636b5bed590858401079ecdc","695","","","","39","","","","key","16.669594059405515","768","361","true","-1","134.0331648","5.033164800000001","8","1","1","","","","","","","","","","","","",""
"psychophysics","120","294009","0.0-10.0-0.32","59feed1da383a100011b3eaa","6368f2eea3e9634aebcc2f6b","636b5bed590858401079ecdc","790.3000001907349","","","","37","","","","key","16.666130841121614","768","361","true","-1","139.06632960000002","5.033164800000001","8","-1","1","","","","","","","","","","","","",""
"psychophysics","121","295572","0.0-10.0-0.33","59feed1da383a100011b3eaa","6368f2eea3e9634aebcc2f6b","636b5bed590858401079ecdc","561.3000001907349","","","","37","","","","key","16.666698924731463","768","361","true","-1","139.06632960000002","4.0265318400000005","9","-1","-1","","","","","","","","","","","","",""
"psychophysics","122","297268","0.0-10.0-0.34","59feed1da383a100011b3eaa","6368f2eea3e9634aebcc2f6b","636b5bed590858401079ecdc","689.5999999046326","","","","39","","","","key","16.666570000000064","768","361","true","-1","135.03979776000003","3.2212254720000004","10","1","-1","","","","","","","","","","","","",""
"psychophysics","123","299362","0.0-10.0-0.35","59feed1da383a100011b3eaa","6368f2eea3e9634aebcc2f6b","636b5bed590858401079ecdc","1090.4000000953674","","","","39","","","","key","16.668952000000047","768","361","true","1","138.261023232","3.2212254720000004","10","-1","1","","","","","","","","","","","","",""
"psychophysics","124","301158","0.0-10.0-0.36","59feed1da383a100011b3eaa","6368f2eea3e9634aebcc2f6b","636b5bed590858401079ecdc","786.9000000953674","","","","39","","","","key","16.66516822429916","768","361","true","-1","138.261023232","2.5769803776000004","11","1","-1","","","","","","","","","","","","",""
"psychophysics","125","303135","0.0-10.0-0.37","59feed1da383a100011b3eaa","6368f2eea3e9634aebcc2f6b","636b5bed590858401079ecdc","972","","","","39","","","","key","16.669940170939935","768","361","true","-1","140.8380036096","2.5769803776000004","11","1","1","","","","","","","","","","","","",""
"psychophysics","126","304565","0.0-10.0-0.38","59feed1da383a100011b3eaa","6368f2eea3e9634aebcc2f6b","636b5bed590858401079ecdc","427.5","","","","39","","","","key","16.66491764705861","768","361","true","1","143.4149839872","2.5769803776000004","11","-1","1","","","","","","","","","","","","",""
"psychophysics","127","306200","0.0-10.0-0.39","59feed1da383a100011b3eaa","6368f2eea3e9634aebcc2f6b","636b5bed590858401079ecdc","628.8999996185303","","","","39","","","","key","16.66451546391736","768","361","true","1","143.4149839872","2.0615843020800004","12","-1","-1","","","","","","","","","","","","",""
"html-keyboard-response","128","317139","0.0-11.0","59feed1da383a100011b3eaa","6368f2eea3e9634aebcc2f6b","636b5bed590858401079ecdc","10938.299999713898","<p>Well Done !</p><p>Prepare for a new block.</p><p>DON'T EXIT THE FULL SCREEN MODE</p><p>Press the Spacebar to start.</p>","","","32","","","","","","","","","","","","","","","true","136.5449679872","","","","","","","","","","",""
"psychophysics","129","318169","0.0-12.0-0.0","59feed1da383a100011b3eaa","6368f2eea3e9634aebcc2f6b","636b5bed590858401079ecdc","21.90000009536743","","","","39","","","","key","16.667016393442058","768","361","true","1","180","30","0","-1","","","","","","","","","","","","","",""
"psychophysics","130","319362","0.0-12.0-0.1","59feed1da383a100011b3eaa","6368f2eea3e9634aebcc2f6b","636b5bed590858401079ecdc","191","","","","39","","","","key","16.66621126760532","768","361","true","1","180","30","0","-1","-1","","","","","","","","","","","","",""
"psychophysics","131","320827","0.0-12.0-0.2","59feed1da383a100011b3eaa","6368f2eea3e9634aebcc2f6b","636b5bed590858401079ecdc","456.5","","","","37","","","","key","16.665747126436596","768","361","true","-1","150","30","0","-1","-1","","","","","","","","","","","","",""
"psychophysics","132","322355","0.0-12.0-0.3","59feed1da383a100011b3eaa","6368f2eea3e9634aebcc2f6b","636b5bed590858401079ecdc","519.0999999046326","","","","37","","","","key","16.667131868131577","768","361","true","-1","150","30","0","-1","-1","","","","","","","","","","","","",""
"psychophysics","133","324745","0.0-12.0-0.4","59feed1da383a100011b3eaa","6368f2eea3e9634aebcc2f6b","636b5bed590858401079ecdc","1382.0999999046326","","","","39","","","","key","16.66535915492937","768","361","true","-1","129","24","1","1","-1","","","","","","","","","","","","",""
"psychophysics","134","326268","0.0-12.0-0.5","59feed1da383a100011b3eaa","6368f2eea3e9634aebcc2f6b","636b5bed590858401079ecdc","521.4000000953674","","","","39","","","","key","16.663911111110874","768","361","true","1","153","24","1","-1","1","","","","","","","","","","","","",""
"psychophysics","135","327945","0.0-12.0-0.6","59feed1da383a100011b3eaa","6368f2eea3e9634aebcc2f6b","636b5bed590858401079ecdc","674","","","","39","","","","key","16.666119999999648","768","361","true","1","153","19.2","2","-1","-1","","","","","","","","","","","","",""
"psychophysics","136","329967","0.0-12.0-0.7","59feed1da383a100011b3eaa","6368f2eea3e9634aebcc2f6b","636b5bed590858401079ecdc","1020.3000001907349","","","","37","","","","key","16.666866666666465","768","361","true","-1","133.8","19.2","2","-1","-1","","","","","","","","","","","","",""
"psychophysics","137","331686","0.0-12.0-0.8","59feed1da383a100011b3eaa","6368f2eea3e9634aebcc2f6b","636b5bed590858401079ecdc","715.2000002861023","","","","37","","","","key","16.669519607842826","768","361","true","1","133.8","15.36","3","1","-1","","","","","","","","","","","","",""
"psychophysics","138","333376","0.0-12.0-0.9","59feed1da383a100011b3eaa","6368f2eea3e9634aebcc2f6b","636b5bed590858401079ecdc","688.1999998092651","","","","37","","","","key","16.666970297029717","768","361","true","-1","149.16000000000003","15.36","3","-1","1","","","","","","","","","","","","",""
"psychophysics","139","334852","0.0-12.0-0.10","59feed1da383a100011b3eaa","6368f2eea3e9634aebcc2f6b","636b5bed590858401079ecdc","473.2000002861023","","","","39","","","","key","16.666229885057465","768","361","true","1","149.16000000000003","12.287999999999998","4","-1","-1","","","","","","","","","","","","",""
"psychophysics","140","336679","0.0-12.0-0.11","59feed1da383a100011b3eaa","6368f2eea3e9634aebcc2f6b","636b5bed590858401079ecdc","824.6999998092651","","","","39","","","","key","16.663954128440228","768","361","true","-1","136.872","9.8304","5","1","-1","","","","","","","","","","","","",""
"psychophysics","141","338198","0.0-12.0-0.12","59feed1da383a100011b3eaa","6368f2eea3e9634aebcc2f6b","636b5bed590858401079ecdc","514.7999997138977","","","","39","","","","key","16.666877777777458","768","361","true","1","146.7024","9.8304","5","-1","1","","","","","","","","","","","","",""
"psychophysics","142","339833","0.0-12.0-0.13","59feed1da383a100011b3eaa","6368f2eea3e9634aebcc2f6b","636b5bed590858401079ecdc","630.2000002861023","","","","39","","","","key","16.66857731958777","768","361","true","1","146.7024","7.864319999999999","6","-1","-1","","","","","","","","","","","","",""
"psychophysics","143","341724","0.0-12.0-0.14","59feed1da383a100011b3eaa","6368f2eea3e9634aebcc2f6b","636b5bed590858401079ecdc","889.3000001907349","","","","37","","","","key","16.66401769911491","768","361","true","-1","138.83808000000002","7.864319999999999","6","-1","-1","","","","","","","","","","","","",""
"psychophysics","144","343180","0.0-12.0-0.15","59feed1da383a100011b3eaa","6368f2eea3e9634aebcc2f6b","636b5bed590858401079ecdc","450.09999990463257","","","","37","","","","key","16.667732558140077","768","361","true","-1","138.83808000000002","7.864319999999999","6","-1","-1","","","","","","","","","","","","",""
"psychophysics","145","345890","0.0-12.0-0.16","59feed1da383a100011b3eaa","6368f2eea3e9634aebcc2f6b","636b5bed590858401079ecdc","1704.0999999046326","","","","37","","","","key","16.667481481481378","768","361","true","-1","130.97376000000003","7.864319999999999","6","-1","-1","","","","","","","","","","","","",""
"psychophysics","146","348246","0.0-12.0-0.17","59feed1da383a100011b3eaa","6368f2eea3e9634aebcc2f6b","636b5bed590858401079ecdc","1346.5999999046326","","","","39","","","","key","16.66487142857139","768","361","true","-1","130.97376000000003","6.291456","7","1","-1","","","","","","","","","","","","",""
"psychophysics","147","350679","0.0-12.0-0.18","59feed1da383a100011b3eaa","6368f2eea3e9634aebcc2f6b","636b5bed590858401079ecdc","1428","","","","39","","","","key","16.668889655172425","768","361","true","1","137.26521600000004","6.291456","7","-1","1","","","","","","","","","","","","",""
"psychophysics","148","352648","0.0-12.0-0.19","59feed1da383a100011b3eaa","6368f2eea3e9634aebcc2f6b","636b5bed590858401079ecdc","965.5","","","","39","","","","key","16.663589743589863","768","361","true","1","137.26521600000004","5.033164800000001","8","-1","-1","","","","","","","","","","","","",""
"psychophysics","149","355433","0.0-12.0-0.20","59feed1da383a100011b3eaa","6368f2eea3e9634aebcc2f6b","636b5bed590858401079ecdc","1782.5","","","","39","","","","key","16.666132530120358","768","361","true","1","132.23205120000003","5.033164800000001","8","-1","-1","","","","","","","","","","","","",""
"psychophysics","150","357670","0.0-12.0-0.21","59feed1da383a100011b3eaa","6368f2eea3e9634aebcc2f6b","636b5bed590858401079ecdc","1235.8000001907349","","","","37","","","","key","16.668804511278204","768","361","true","-1","132.23205120000003","5.033164800000001","8","-1","-1","","","","","","","","","","","","",""
"psychophysics","151","359404","0.0-12.0-0.22","59feed1da383a100011b3eaa","6368f2eea3e9634aebcc2f6b","636b5bed590858401079ecdc","733.6000003814697","","","","37","","","","key","16.66711538461543","768","361","true","1","129","4.0265318400000005","9","1","-1","","","","","","","","","","","","",""
"psychophysics","152","361236","0.0-12.0-0.23","59feed1da383a100011b3eaa","6368f2eea3e9634aebcc2f6b","636b5bed590858401079ecdc","825","","","","37","","","","key","16.66444444444399","768","361","true","1","133.02653184","4.0265318400000005","9","1","1","","","","","","","","","","","","",""
"psychophysics","153","362754","0.0-12.0-0.24","59feed1da383a100011b3eaa","6368f2eea3e9634aebcc2f6b","636b5bed590858401079ecdc","516.5","","","","39","","","","key","16.665633333333407","768","361","true","-1","137.05306367999998","4.0265318400000005","9","1","1","","","","","","","","","","","","",""
"psychophysics","154","364671","0.0-12.0-0.25","59feed1da383a100011b3eaa","6368f2eea3e9634aebcc2f6b","636b5bed590858401079ecdc","908.5999999046326","","","","39","","","","key","16.661513043478454","768","361","true","1","141.07959551999997","4.0265318400000005","9","-1","1","","","","","","","","","","","","",""
"psychophysics","155","366192","0.0-12.0-0.26","59feed1da383a100011b3eaa","6368f2eea3e9634aebcc2f6b","636b5bed590858401079ecdc","518.5999999046326","","","","39","","","","key","16.665277777777778","768","361","true","1","141.07959551999997","3.2212254720000004","10","-1","-1","","","","","","","","","","","","",""
"psychophysics","156","368273","0.0-12.0-0.27","59feed1da383a100011b3eaa","6368f2eea3e9634aebcc2f6b","636b5bed590858401079ecdc","1079.1999998092651","","","","37","","","","key","16.66693548387106","768","361","true","-1","137.85837004799998","3.2212254720000004","10","-1","-1","","","","","","","","","","","","",""
"psychophysics","157","369908","0.0-12.0-0.28","59feed1da383a100011b3eaa","6368f2eea3e9634aebcc2f6b","636b5bed590858401079ecdc","625.6999998092651","","","","37","","","","key","16.665865979381216","768","361","true","-1","137.85837004799998","3.2212254720000004","10","-1","-1","","","","","","","","","","","","",""
"psychophysics","158","372187","0.0-12.0-0.29","59feed1da383a100011b3eaa","6368f2eea3e9634aebcc2f6b","636b5bed590858401079ecdc","1272.7000002861023","","","","37","","","","key","16.66652205882351","768","361","true","-1","134.63714457599997","3.2212254720000004","10","-1","-1","","","","","","","","","","","","",""
"psychophysics","159","373728","0.0-12.0-0.30","59feed1da383a100011b3eaa","6368f2eea3e9634aebcc2f6b","636b5bed590858401079ecdc","532.7999997138977","","","","39","","","","key","16.66443956043932","768","361","true","1","134.63714457599997","3.2212254720000004","10","-1","-1","","","","","","","","","","","","",""
"psychophysics","160","376393","0.0-12.0-0.31","59feed1da383a100011b3eaa","6368f2eea3e9634aebcc2f6b","636b5bed590858401079ecdc","1662.0999999046326","","","","37","","","","key","16.6687547169811","768","361","true","1","131.41591910399995","2.5769803776000004","11","1","-1","","","","","","","","","","","","",""
"psychophysics","161","378146","0.0-12.0-0.32","59feed1da383a100011b3eaa","6368f2eea3e9634aebcc2f6b","636b5bed590858401079ecdc","751.5999999046326","","","","37","","","","key","16.666086538461407","768","361","true","-1","133.99289948159995","2.5769803776000004","11","-1","1","","","","","","","","","","","","",""
"psychophysics","162","380217","0.0-12.0-0.33","59feed1da383a100011b3eaa","6368f2eea3e9634aebcc2f6b","636b5bed590858401079ecdc","1066","","","","37","","","","key","16.667211382113667","768","361","true","-1","133.99289948159995","2.0615843020800004","12","-1","-1","","","","","","","","","","","","",""
"psychophysics","163","382040","0.0-12.0-0.34","59feed1da383a100011b3eaa","6368f2eea3e9634aebcc2f6b","636b5bed590858401079ecdc","821","","","","39","","","","key","16.664266055046127","768","361","true","-1","131.93131517951994","1.6492674416640005","13","1","-1","","","","","","","","","","","","",""
"psychophysics","164","383799","0.0-12.0-0.35","59feed1da383a100011b3eaa","6368f2eea3e9634aebcc2f6b","636b5bed590858401079ecdc","755.6999998092651","","","","39","","","","key","16.666394230769164","768","361","true","-1","133.58058262118394","1.6492674416640005","13","1","1","","","","","","","","","","","","",""
"psychophysics","165","385567","0.0-12.0-0.36","59feed1da383a100011b3eaa","6368f2eea3e9634aebcc2f6b","636b5bed590858401079ecdc","764.1999998092651","","","","39","","","","key","16.666580952381317","768","361","true","-1","135.22985006284793","1.6492674416640005","13","1","1","","","","","","","","","","","","",""
"psychophysics","166","388139","0.0-12.0-0.37","59feed1da383a100011b3eaa","6368f2eea3e9634aebcc2f6b","636b5bed590858401079ecdc","1568.4000000953674","","","","39","","","","key","16.666350649350758","768","361","true","1","136.87911750451192","1.6492674416640005","13","-1","1","","","","","","","","","","","","",""
"psychophysics","167","390264","0.0-12.0-0.38","59feed1da383a100011b3eaa","6368f2eea3e9634aebcc2f6b","636b5bed590858401079ecdc","1117.1000003814697","","","","39","","","","key","16.666753968253957","768","361","true","1","136.87911750451192","1.3194139533312006","14","-1","-1","","","","","","","","","","","","",""
"psychophysics","168","392914","0.0-12.0-0.39","59feed1da383a100011b3eaa","6368f2eea3e9634aebcc2f6b","636b5bed590858401079ecdc","1647.2999997138977","","","","39","","","","key","16.667132911392446","768","361","true","1","135.55970355118072","1.3194139533312006","14","-1","-1","","","","","","","","","","","","",""
"html-keyboard-response","169","407475","0.0-13.0","59feed1da383a100011b3eaa","6368f2eea3e9634aebcc2f6b","636b5bed590858401079ecdc","14560.199999809265","<p>Well Done !</p><p>Prepare for a new block.</p><p>DON'T EXIT THE FULL SCREEN MODE</p><p>Press the Spacebar to start.</p>","","","32","","","","","","","","","","","","","","","true","135.7741083185971","","","","","","","","","","",""
"html-keyboard-response","170","407581","0.0-14.0","59feed1da383a100011b3eaa","6368f2eea3e9634aebcc2f6b","636b5bed590858401079ecdc","null","","","","null","","","","","","","","","","","","","","","","","135.64785845294963","true","143.29571690589927","","","","","","","",""
"instructions","171","436650","0.0-15.0","59feed1da383a100011b3eaa","6368f2eea3e9634aebcc2f6b","636b5bed590858401079ecdc","29068.300000190735","","","","","","","[{""page_index"":0,""viewing_time"":17745.099999904633},{""page_index"":1,""viewing_time"":3863},{""page_index"":2,""viewing_time"":7459.900000095367}]","","","","","","","","","","","","","","","","","","","","","","","",""
"psychophysics","172","439667","0.0-16.0-0.0","59feed1da383a100011b3eaa","6368f2eea3e9634aebcc2f6b","636b5bed590858401079ecdc","null","","","","null","","","","key","16.668533333333713","768","361","","","","","","","","","","","","","","","","","","","",""
"psychophysics","173","440170","0.0-16.0-1.0","59feed1da383a100011b3eaa","6368f2eea3e9634aebcc2f6b","636b5bed590858401079ecdc","null","","","","null","","","","key","16.667033333333286","768","361","","","","","","","","","","","","","143","1","4","false","","","",""
"psychophysics","174","441497","0.0-16.0-2.0","59feed1da383a100011b3eaa","6368f2eea3e9634aebcc2f6b","636b5bed590858401079ecdc","1325.4000000953674","","","","77","","","","key","16.666807692307675","768","361","","","","","","","","","","","","","","","","","","","",""
"psychophysics","175","442499","0.0-16.0-0.1","59feed1da383a100011b3eaa","6368f2eea3e9634aebcc2f6b","636b5bed590858401079ecdc","null","","","","null","","","","key","16.665220338983413","768","361","","","","","","","","","","","","","","","","","","","",""
"psychophysics","176","443003","0.0-16.0-1.1","59feed1da383a100011b3eaa","6368f2eea3e9634aebcc2f6b","636b5bed590858401079ecdc","null","","","","null","","","","key","16.664586206896086","768","361","","","","","","","","","","","","","143","1","2","false","","","",""
"psychophysics","177","443596","0.0-16.0-2.1","59feed1da383a100011b3eaa","6368f2eea3e9634aebcc2f6b","636b5bed590858401079ecdc","591.6999998092651","","","","90","","","","key","16.658942857143536","768","361","","","","","","","","","","","","","","","","","","","",""
"psychophysics","178","444603","0.0-16.0-0.2","59feed1da383a100011b3eaa","6368f2eea3e9634aebcc2f6b","636b5bed590858401079ecdc","null","","","","null","","","","key","16.671610169491526","768","361","","","","","","","","","","","","","","","","","","","",""
"psychophysics","179","445104","0.0-16.0-1.2","59feed1da383a100011b3eaa","6368f2eea3e9634aebcc2f6b","636b5bed590858401079ecdc","null","","","","null","","","","key","16.678533333334297","768","361","","","","","","","","","","","","","143","1","3","false","","","",""
"psychophysics","180","445933","0.0-16.0-2.2","59feed1da383a100011b3eaa","6368f2eea3e9634aebcc2f6b","636b5bed590858401079ecdc","828.0999999046326","","","","90","","","","key","16.673124999999953","768","361","","","","","","","","","","","","","","","","","","","",""
"psychophysics","181","446936","0.0-16.0-0.3","59feed1da383a100011b3eaa","6368f2eea3e9634aebcc2f6b","636b5bed590858401079ecdc","null","","","","null","","","","key","16.670661016949452","768","361","","","","","","","","","","","","","","","","","","","",""
"psychophysics","182","447437","0.0-16.0-1.3","59feed1da383a100011b3eaa","6368f2eea3e9634aebcc2f6b","636b5bed590858401079ecdc","null","","","","null","","","","key","16.673500000000544","768","361","","","","","","","","","","","","","143","-1","4","false","","","",""
"psychophysics","183","448012","0.0-16.0-2.3","59feed1da383a100011b3eaa","6368f2eea3e9634aebcc2f6b","636b5bed590858401079ecdc","574.0999999046326","","","","90","","","","key","16.67257575757597","768","361","","","","","","","","","","","","","","","","","","","",""
"psychophysics","184","449018","0.0-16.0-0.4","59feed1da383a100011b3eaa","6368f2eea3e9634aebcc2f6b","636b5bed590858401079ecdc","null","","","","null","","","","key","16.67249152542317","768","361","","","","","","","","","","","","","","","","","","","",""
"psychophysics","185","449520","0.0-16.0-1.4","59feed1da383a100011b3eaa","6368f2eea3e9634aebcc2f6b","636b5bed590858401079ecdc","null","","","","null","","","","key","16.675900000000063","768","361","","","","","","","","","","","","","143","-1","0","false","","","",""
"psychophysics","186","450135","0.0-16.0-2.4","59feed1da383a100011b3eaa","6368f2eea3e9634aebcc2f6b","636b5bed590858401079ecdc","614.1000003814697","","","","90","","","","key","16.66717142857046","768","361","","","","","","","","","","","","","","","","","","","",""
"psychophysics","187","451137","0.0-16.0-0.5","59feed1da383a100011b3eaa","6368f2eea3e9634aebcc2f6b","636b5bed590858401079ecdc","null","","","","null","","","","key","16.67103333333313","768","361","","","","","","","","","","","","","","","","","","","",""
"psychophysics","188","451642","0.0-16.0-1.5","59feed1da383a100011b3eaa","6368f2eea3e9634aebcc2f6b","636b5bed590858401079ecdc","null","","","","null","","","","key","16.663034482758718","768","361","","","","","","","","","","","","","143","1","5","false","","","",""
"psychophysics","189","452921","0.0-16.0-2.5","59feed1da383a100011b3eaa","6368f2eea3e9634aebcc2f6b","636b5bed590858401079ecdc","1277.5999999046326","","","","77","","","","key","16.66639473684221","768","361","","","","","","","","","","","","","","","","","","","",""
"psychophysics","190","453923","0.0-16.0-0.6","59feed1da383a100011b3eaa","6368f2eea3e9634aebcc2f6b","636b5bed590858401079ecdc","null","","","","null","","","","key","16.67179661016947","768","361","","","","","","","","","","","","","","","","","","","",""
"psychophysics","191","454427","0.0-16.0-1.6","59feed1da383a100011b3eaa","6368f2eea3e9634aebcc2f6b","636b5bed590858401079ecdc","null","","","","null","","","","key","16.666551724138493","768","361","","","","","","","","","","","","","143","1","0","false","","","",""
"psychophysics","192","455690","0.0-16.0-2.6","59feed1da383a100011b3eaa","6368f2eea3e9634aebcc2f6b","636b5bed590858401079ecdc","1262","","","","90","","","","key","16.667600000000093","768","361","","","","","","","","","","","","","","","","","","","",""
"psychophysics","193","456699","0.0-16.0-0.7","59feed1da383a100011b3eaa","6368f2eea3e9634aebcc2f6b","636b5bed590858401079ecdc","null","","","","null","","","","key","16.66644067796622","768","361","","","","","","","","","","","","","","","","","","","",""
"psychophysics","194","457203","0.0-16.0-1.7","59feed1da383a100011b3eaa","6368f2eea3e9634aebcc2f6b","636b5bed590858401079ecdc","null","","","","null","","","","key","16.65793103448332","768","361","","","","","","","","","","","","","143","-1","5","false","","","",""
"psychophysics","195","457694","0.0-16.0-2.7","59feed1da383a100011b3eaa","6368f2eea3e9634aebcc2f6b","636b5bed590858401079ecdc","490.2000002861023","","","","77","","","","key","16.676310344825996","768","361","","","","","","","","","","","","","","","","","","","",""
"psychophysics","196","458698","0.0-16.0-0.8","59feed1da383a100011b3eaa","6368f2eea3e9634aebcc2f6b","636b5bed590858401079ecdc","null","","","","null","","","","key","16.6654745762708","768","361","","","","","","","","","","","","","","","","","","","",""
"psychophysics","197","459203","0.0-16.0-1.8","59feed1da383a100011b3eaa","6368f2eea3e9634aebcc2f6b","636b5bed590858401079ecdc","null","","","","null","","","","key","16.66548275862066","768","361","","","","","","","","","","","","","143","-1","3","false","","","",""
"psychophysics","198","460537","0.0-16.0-2.8","59feed1da383a100011b3eaa","6368f2eea3e9634aebcc2f6b","636b5bed590858401079ecdc","1332.9000000953674","","","","90","","","","key","16.668837500000517","768","361","","","","","","","","","","","","","","","","","","","",""
"psychophysics","199","461538","0.0-16.0-0.9","59feed1da383a100011b3eaa","6368f2eea3e9634aebcc2f6b","636b5bed590858401079ecdc","null","","","","null","","","","key","16.661813559321395","768","361","","","","","","","","","","","","","","","","","","","",""
"psychophysics","200","462043","0.0-16.0-1.9","59feed1da383a100011b3eaa","6368f2eea3e9634aebcc2f6b","636b5bed590858401079ecdc","null","","","","null","","","","key","16.66196551724088","768","361","","","","","","","","","","","","","143","1","6","false","","","",""
"psychophysics","201","462944","0.0-16.0-2.9","59feed1da383a100011b3eaa","6368f2eea3e9634aebcc2f6b","636b5bed590858401079ecdc","899.6999998092651","","","","77","","","","key","16.665264150942676","768","361","","","","","","","","","","","","","","","","","","","",""
"psychophysics","202","463947","0.0-16.0-0.10","59feed1da383a100011b3eaa","6368f2eea3e9634aebcc2f6b","636b5bed590858401079ecdc","null","","","","null","","","","key","16.664118644067134","768","361","","","","","","","","","","","","","","","","","","","",""
"psychophysics","203","464450","0.0-16.0-1.10","59feed1da383a100011b3eaa","6368f2eea3e9634aebcc2f6b","636b5bed590858401079ecdc","null","","","","null","","","","key","16.66320689655198","768","361","","","","","","","","","","","","","143","-1","6","false","","","",""
"psychophysics","204","465054","0.0-16.0-2.10","59feed1da383a100011b3eaa","6368f2eea3e9634aebcc2f6b","636b5bed590858401079ecdc","602.2000002861023","","","","77","","","","key","16.66441666666651","768","361","","","","","","","","","","","","","","","","","","","",""
"psychophysics","205","466059","0.0-16.0-0.11","59feed1da383a100011b3eaa","6368f2eea3e9634aebcc2f6b","636b5bed590858401079ecdc","null","","","","null","","","","key","16.666152542373126","768","361","","","","","","","","","","","","","","","","","","","",""
"psychophysics","206","466563","0.0-16.0-1.11","59feed1da383a100011b3eaa","6368f2eea3e9634aebcc2f6b","636b5bed590858401079ecdc","null","","","","null","","","","key","16.665241379310892","768","361","","","","","","","","","","","","","143","-1","2","false","","","",""
"psychophysics","207","466907","0.0-16.0-2.11","59feed1da383a100011b3eaa","6368f2eea3e9634aebcc2f6b","636b5bed590858401079ecdc","342.80000019073486","","","","90","","","","key","16.667200000002047","768","361","","","","","","","","","","","","","","","","","","","",""
"psychophysics","208","467915","0.0-16.0-0.12","59feed1da383a100011b3eaa","6368f2eea3e9634aebcc2f6b","636b5bed590858401079ecdc","null","","","","null","","","","key","16.667271186440782","768","361","","","","","","","","","","","","","","","","","","","",""
"psychophysics","209","468419","0.0-16.0-1.12","59feed1da383a100011b3eaa","6368f2eea3e9634aebcc2f6b","636b5bed590858401079ecdc","null","","","","null","","","","key","16.66755172413782","768","361","","","","","","","","","","","","","143","1","6","false","","","",""
"psychophysics","210","469025","0.0-16.0-2.12","59feed1da383a100011b3eaa","6368f2eea3e9634aebcc2f6b","636b5bed590858401079ecdc","604.2000002861023","","","","77","","","","key","16.667944444443695","768","361","","","","","","","","","","","","","","","","","","","",""
"psychophysics","211","470027","0.0-16.0-0.13","59feed1da383a100011b3eaa","6368f2eea3e9634aebcc2f6b","636b5bed590858401079ecdc","null","","","","null","","","","key","16.662237288135348","768","361","","","","","","","","","","","","","","","","","","","",""
"psychophysics","212","470531","0.0-16.0-1.13","59feed1da383a100011b3eaa","6368f2eea3e9634aebcc2f6b","636b5bed590858401079ecdc","null","","","","null","","","","key","16.668586206895394","768","361","","","","","","","","","","","","","143","-1","0","false","","","",""
"psychophysics","213","470857","0.0-16.0-2.13","59feed1da383a100011b3eaa","6368f2eea3e9634aebcc2f6b","636b5bed590858401079ecdc","325.80000019073486","","","","90","","","","key","16.676999999997573","768","361","","","","","","","","","","","","","","","","","","","",""
"psychophysics","214","471859","0.0-16.0-0.14","59feed1da383a100011b3eaa","6368f2eea3e9634aebcc2f6b","636b5bed590858401079ecdc","null","","","","null","","","","key","16.663000000000466","768","361","","","","","","","","","","","","","","","","","","","",""
"psychophysics","215","472362","0.0-16.0-1.14","59feed1da383a100011b3eaa","6368f2eea3e9634aebcc2f6b","636b5bed590858401079ecdc","null","","","","null","","","","key","16.671172413794356","768","361","","","","","","","","","","","","","143","1","3","false","","","",""
"psychophysics","216","473459","0.0-16.0-2.14","59feed1da383a100011b3eaa","6368f2eea3e9634aebcc2f6b","636b5bed590858401079ecdc","1095.7000002861023","","","","77","","","","key","16.660476923077546","768","361","","","","","","","","","","","","","","","","","","","",""
"psychophysics","217","474467","0.0-16.0-0.15","59feed1da383a100011b3eaa","6368f2eea3e9634aebcc2f6b","636b5bed590858401079ecdc","null","","","","null","","","","key","16.67323728813494","768","361","","","","","","","","","","","","","","","","","","","",""
"psychophysics","218","474970","0.0-16.0-1.15","59feed1da383a100011b3eaa","6368f2eea3e9634aebcc2f6b","636b5bed590858401079ecdc","null","","","","null","","","","key","16.67165517241389","768","361","","","","","","","","","","","","","143","1","2","false","","","",""
"psychophysics","219","475433","0.0-16.0-2.15","59feed1da383a100011b3eaa","6368f2eea3e9634aebcc2f6b","636b5bed590858401079ecdc","462","","","","90","","","","key","16.665999999998515","768","361","","","","","","","","","","","","","","","","","","","",""
"psychophysics","220","476435","0.0-16.0-0.16","59feed1da383a100011b3eaa","6368f2eea3e9634aebcc2f6b","636b5bed590858401079ecdc","null","","","","null","","","","key","16.66701694915241","768","361","","","","","","","","","","","","","","","","","","","",""
"psychophysics","221","476936","0.0-16.0-1.16","59feed1da383a100011b3eaa","6368f2eea3e9634aebcc2f6b","636b5bed590858401079ecdc","null","","","","null","","","","key","16.66968965517148","768","361","","","","","","","","","","","","","143","-1","6","false","","","",""
"psychophysics","222","478005","0.0-16.0-2.16","59feed1da383a100011b3eaa","6368f2eea3e9634aebcc2f6b","636b5bed590858401079ecdc","1067.5999999046326","","","","77","","","","key","16.67290624999987","768","361","","","","","","","","","","","","","","","","","","","",""
"psychophysics","223","479011","0.0-16.0-0.17","59feed1da383a100011b3eaa","6368f2eea3e9634aebcc2f6b","636b5bed590858401079ecdc","null","","","","null","","","","key","16.67262711864403","768","361","","","","","","","","","","","","","","","","","","","",""
"psychophysics","224","479514","0.0-16.0-1.17","59feed1da383a100011b3eaa","6368f2eea3e9634aebcc2f6b","636b5bed590858401079ecdc","null","","","","null","","","","key","16.663482758622006","768","361","","","","","","","","","","","","","143","-1","2","false","","","",""
"psychophysics","225","479828","0.0-16.0-2.17","59feed1da383a100011b3eaa","6368f2eea3e9634aebcc2f6b","636b5bed590858401079ecdc","312.3999996185303","","","","90","","","","key","16.68250000000181","768","361","","","","","","","","","","","","","","","","","","","",""
"psychophysics","226","480835","0.0-16.0-0.18","59feed1da383a100011b3eaa","6368f2eea3e9634aebcc2f6b","636b5bed590858401079ecdc","null","","","","null","","","","key","16.66479661016946","768","361","","","","","","","","","","","","","","","","","","","",""
"psychophysics","227","481336","0.0-16.0-1.18","59feed1da383a100011b3eaa","6368f2eea3e9634aebcc2f6b","636b5bed590858401079ecdc","null","","","","null","","","","key","16.676333333332636","768","361","","","","","","","","","","","","","143","-1","5","false","","","",""
"psychophysics","228","481761","0.0-16.0-2.18","59feed1da383a100011b3eaa","6368f2eea3e9634aebcc2f6b","636b5bed590858401079ecdc","423.59999990463257","","","","77","","","","key","16.65870833333368","768","361","","","","","","","","","","","","","","","","","","","",""
"psychophysics","229","482763","0.0-16.0-0.19","59feed1da383a100011b3eaa","6368f2eea3e9634aebcc2f6b","636b5bed590858401079ecdc","null","","","","null","","","","key","16.663000000000466","768","361","","","","","","","","","","","","","","","","","","","",""
"psychophysics","230","483267","0.0-16.0-1.19","59feed1da383a100011b3eaa","6368f2eea3e9634aebcc2f6b","636b5bed590858401079ecdc","null","","","","null","","","","key","16.66755172413782","768","361","","","","","","","","","","","","","143","1","5","false","","","",""
"psychophysics","231","485000","0.0-16.0-2.19","59feed1da383a100011b3eaa","6368f2eea3e9634aebcc2f6b","636b5bed590858401079ecdc","1732.9000000953674","","","","77","","","","key","16.663718446602058","768","361","","","","","","","","","","","","","","","","","","","",""
"psychophysics","232","486003","0.0-16.0-0.20","59feed1da383a100011b3eaa","6368f2eea3e9634aebcc2f6b","636b5bed590858401079ecdc","null","","","","null","","","","key","16.667133333334156","768","361","","","","","","","","","","","","","","","","","","","",""
"psychophysics","233","486507","0.0-16.0-1.20","59feed1da383a100011b3eaa","6368f2eea3e9634aebcc2f6b","636b5bed590858401079ecdc","null","","","","null","","","","key","16.662137931034145","768","361","","","","","","","","","","","","","143","1","4","false","","","",""
"psychophysics","234","487047","0.0-16.0-2.20","59feed1da383a100011b3eaa","6368f2eea3e9634aebcc2f6b","636b5bed590858401079ecdc","539.4000000953674","","","","77","","","","key","16.67383870967634","768","361","","","","","","","","","","","","","","","","","","","",""
"psychophysics","235","488051","0.0-16.0-0.21","59feed1da383a100011b3eaa","6368f2eea3e9634aebcc2f6b","636b5bed590858401079ecdc","null","","","","null","","","","key","16.66232203389814","768","361","","","","","","","","","","","","","","","","","","","",""
"psychophysics","236","488553","0.0-16.0-1.21","59feed1da383a100011b3eaa","6368f2eea3e9634aebcc2f6b","636b5bed590858401079ecdc","null","","","","null","","","","key","16.675399999999595","768","361","","","","","","","","","","","","","143","-1","3","false","","","",""
"psychophysics","237","489984","0.0-16.0-2.21","59feed1da383a100011b3eaa","6368f2eea3e9634aebcc2f6b","636b5bed590858401079ecdc","1429.6999998092651","","","","90","","","","key","16.66665476190489","768","361","","","","","","","","","","","","","","","","","","","",""
"psychophysics","238","490986","0.0-16.0-0.22","59feed1da383a100011b3eaa","6368f2eea3e9634aebcc2f6b","636b5bed590858401079ecdc","null","","","","null","","","","key","16.66599999999938","768","361","","","","","","","","","","","","","","","","","","","",""
"psychophysics","239","491490","0.0-16.0-1.22","59feed1da383a100011b3eaa","6368f2eea3e9634aebcc2f6b","636b5bed590858401079ecdc","null","","","","null","","","","key","16.675482758619935","768","361","","","","","","","","","","","","","143","1","0","false","","","",""
"psychophysics","240","491956","0.0-16.0-2.22","59feed1da383a100011b3eaa","6368f2eea3e9634aebcc2f6b","636b5bed590858401079ecdc","464","","","","90","","","","key","16.66655555555459","768","361","","","","","","","","","","","","","","","","","","","",""
"psychophysics","241","492963","0.0-16.0-0.23","59feed1da383a100011b3eaa","6368f2eea3e9634aebcc2f6b","636b5bed590858401079ecdc","null","","","","null","","","","key","16.66701694915241","768","361","","","","","","","","","","","","","","","","","","","",""
"psychophysics","242","493467","0.0-16.0-1.23","59feed1da383a100011b3eaa","6368f2eea3e9634aebcc2f6b","636b5bed590858401079ecdc","null","","","","null","","","","key","16.673413793102775","768","361","","","","","","","","","","","","","143","-1","4","false","","","",""
"psychophysics","243","494505","0.0-16.0-2.23","59feed1da383a100011b3eaa","6368f2eea3e9634aebcc2f6b","636b5bed590858401079ecdc","1037.3999996185303","","","","90","","","","key","16.66187096774135","768","361","","","","","","","","","","","","","","","","","","","",""
"html-keyboard-response","244","509114","0.0-17.0","59feed1da383a100011b3eaa","6368f2eea3e9634aebcc2f6b","636b5bed590858401079ecdc","14608.5","<p>Well Done !</p><p>Training Complete. Press the spacebar to start.</p><p>DON'T EXIT THE FULL SCREEN MODE</p>","","","32","","","","","","","","","","","","","","","","","","","","","","","","","","",""
"psychophysics","245","512131","0.0-18.0-0.0","59feed1da383a100011b3eaa","6368f2eea3e9634aebcc2f6b","636b5bed590858401079ecdc","null","","","","null","","","","key","16.673066666667","768","361","","","","","","","","","","","","","","","","","","","",""
"psychophysics","246","512635","0.0-18.0-1.0","59feed1da383a100011b3eaa","6368f2eea3e9634aebcc2f6b","636b5bed590858401079ecdc","null","","","","null","","","","key","16.661379310344586","768","361","","","","","","","","","","","","","143","-1","4","true","","","",""
"psychophysics","247","513843","0.0-18.0-2.0","59feed1da383a100011b3eaa","6368f2eea3e9634aebcc2f6b","636b5bed590858401079ecdc","1206.4000000953674","","","","77","","","","key","16.669736111111384","768","361","","","","","","","","","","","","","","","","","","","",""
"psychophysics","248","514851","0.0-18.0-0.1","59feed1da383a100011b3eaa","6368f2eea3e9634aebcc2f6b","636b5bed590858401079ecdc","null","","","","null","","","","key","16.665762711863895","768","361","","","","","","","","","","","","","","","","","","","",""
"psychophysics","249","515353","0.0-18.0-1.1","59feed1da383a100011b3eaa","6368f2eea3e9634aebcc2f6b","636b5bed590858401079ecdc","null","","","","null","","","","key","16.67839999999851","768","361","","","","","","","","","","","","","143","-1","6","true","","","",""
"psychophysics","250","515853","0.0-18.0-2.1","59feed1da383a100011b3eaa","6368f2eea3e9634aebcc2f6b","636b5bed590858401079ecdc","499","","","","77","","","","key","16.654068965517016","768","361","","","","","","","","","","","","","","","","","","","",""
"psychophysics","251","516859","0.0-18.0-0.2","59feed1da383a100011b3eaa","6368f2eea3e9634aebcc2f6b","636b5bed590858401079ecdc","null","","","","null","","","","key","16.665830508474325","768","361","","","","","","","","","","","","","","","","","","","",""
"psychophysics","252","517362","0.0-18.0-1.2","59feed1da383a100011b3eaa","6368f2eea3e9634aebcc2f6b","636b5bed590858401079ecdc","null","","","","null","","","","key","16.656931034483996","768","361","","","","","","","","","","","","","143","1","6","true","","","",""
"psychophysics","253","518063","0.0-18.0-2.2","59feed1da383a100011b3eaa","6368f2eea3e9634aebcc2f6b","636b5bed590858401079ecdc","699.5","","","","77","","","","key","16.666609756097696","768","361","","","","","","","","","","","","","","","","","","","",""
"psychophysics","254","519067","0.0-18.0-0.3","59feed1da383a100011b3eaa","6368f2eea3e9634aebcc2f6b","636b5bed590858401079ecdc","null","","","","null","","","","key","16.666305084746348","768","361","","","","","","","","","","","","","","","","","","","",""
"psychophysics","255","519569","0.0-18.0-1.3","59feed1da383a100011b3eaa","6368f2eea3e9634aebcc2f6b","636b5bed590858401079ecdc","null","","","","null","","","","key","16.665600000001724","768","361","","","","","","","","","","","","","143","1","3","true","","","",""
"psychophysics","256","520508","0.0-18.0-2.3","59feed1da383a100011b3eaa","6368f2eea3e9634aebcc2f6b","636b5bed590858401079ecdc","937.5","","","","77","","","","key","16.667109090908937","768","361","","","","","","","","","","","","","","","","","","","",""
"psychophysics","257","521515","0.0-18.0-0.4","59feed1da383a100011b3eaa","6368f2eea3e9634aebcc2f6b","636b5bed590858401079ecdc","null","","","","null","","","","key","16.660661016949017","768","361","","","","","","","","","","","","","","","","","","","",""
"psychophysics","258","522019","0.0-18.0-1.4","59feed1da383a100011b3eaa","6368f2eea3e9634aebcc2f6b","636b5bed590858401079ecdc","null","","","","null","","","","key","16.67058620689806","768","361","","","","","","","","","","","","","143","-1","2","true","","","",""
"psychophysics","259","522272","0.0-18.0-2.4","59feed1da383a100011b3eaa","6368f2eea3e9634aebcc2f6b","636b5bed590858401079ecdc","248.40000009536743","","","","90","","","","key","16.670799999998415","768","361","","","","","","","","","","","","","","","","","","","",""
"psychophysics","260","523275","0.0-18.0-0.5","59feed1da383a100011b3eaa","6368f2eea3e9634aebcc2f6b","636b5bed590858401079ecdc","null","","","","null","","","","key","16.665711864405825","768","361","","","","","","","","","","","","","","","","","","","",""
"psychophysics","261","523778","0.0-18.0-1.5","59feed1da383a100011b3eaa","6368f2eea3e9634aebcc2f6b","636b5bed590858401079ecdc","null","","","","null","","","","key","16.657724137931805","768","361","","","","","","","","","","","","","143","-1","3","true","","","",""
"psychophysics","262","524164","0.0-18.0-2.5","59feed1da383a100011b3eaa","6368f2eea3e9634aebcc2f6b","636b5bed590858401079ecdc","385.09999990463257","","","","77","","","","key","16.667454545454927","768","361","","","","","","","","","","","","","","","","","","","",""
"psychophysics","263","525170","0.0-18.0-0.6","59feed1da383a100011b3eaa","6368f2eea3e9634aebcc2f6b","636b5bed590858401079ecdc","null","","","","null","","","","key","16.672683333333893","768","361","","","","","","","","","","","","","","","","","","","",""
"psychophysics","264","525674","0.0-18.0-1.6","59feed1da383a100011b3eaa","6368f2eea3e9634aebcc2f6b","636b5bed590858401079ecdc","null","","","","null","","","","key","16.658793103447632","768","361","","","","","","","","","","","","","143","1","4","true","","","",""
"psychophysics","265","526047","0.0-18.0-2.6","59feed1da383a100011b3eaa","6368f2eea3e9634aebcc2f6b","636b5bed590858401079ecdc","371.40000009536743","","","","77","","","","key","16.671380952383124","768","361","","","","","","","","","","","","","","","","","","","",""
"psychophysics","266","527051","0.0-18.0-0.7","59feed1da383a100011b3eaa","6368f2eea3e9634aebcc2f6b","636b5bed590858401079ecdc","null","","","","null","","","","key","16.660711864408075","768","361","","","","","","","","","","","","","","","","","","","",""
"psychophysics","267","527552","0.0-18.0-1.7","59feed1da383a100011b3eaa","6368f2eea3e9634aebcc2f6b","636b5bed590858401079ecdc","null","","","","null","","","","key","16.664866666666544","768","361","","","","","","","","","","","","","143","1","0","true","","","",""
"psychophysics","268","528022","0.0-18.0-2.7","59feed1da383a100011b3eaa","6368f2eea3e9634aebcc2f6b","636b5bed590858401079ecdc","468.80000019073486","","","","77","","","","key","16.671296296296298","768","361","","","","","","","","","","","","","","","","","","","",""
"psychophysics","269","529027","0.0-18.0-0.8","59feed1da383a100011b3eaa","6368f2eea3e9634aebcc2f6b","636b5bed590858401079ecdc","null","","","","null","","","","key","16.662847457627244","768","361","","","","","","","","","","","","","","","","","","","",""
"psychophysics","270","529531","0.0-18.0-1.8","59feed1da383a100011b3eaa","6368f2eea3e9634aebcc2f6b","636b5bed590858401079ecdc","null","","","","null","","","","key","16.67079310344757","768","361","","","","","","","","","","","","","143","1","5","true","","","",""
"psychophysics","271","530067","0.0-18.0-2.8","59feed1da383a100011b3eaa","6368f2eea3e9634aebcc2f6b","636b5bed590858401079ecdc","535","","","","77","","","","key","16.664870967743017","768","361","","","","","","","","","","","","","","","","","","","",""
"psychophysics","272","531069","0.0-18.0-0.9","59feed1da383a100011b3eaa","6368f2eea3e9634aebcc2f6b","636b5bed590858401079ecdc","null","","","","null","","","","key","16.662559322034152","768","361","","","","","","","","","","","","","","","","","","","",""
"psychophysics","273","531570","0.0-18.0-1.9","59feed1da383a100011b3eaa","6368f2eea3e9634aebcc2f6b","636b5bed590858401079ecdc","null","","","","null","","","","key","16.66543333333296","768","361","","","","","","","","","","","","","143","-1","0","true","","","",""
"psychophysics","274","531862","0.0-18.0-2.9","59feed1da383a100011b3eaa","6368f2eea3e9634aebcc2f6b","636b5bed590858401079ecdc","291.5","","","","90","","","","key","16.663250000005064","768","361","","","","","","","","","","","","","","","","","","","",""
"psychophysics","275","532867","0.0-18.0-0.10","59feed1da383a100011b3eaa","6368f2eea3e9634aebcc2f6b","636b5bed590858401079ecdc","null","","","","null","","","","key","16.669508474575103","768","361","","","","","","","","","","","","","","","","","","","",""
"psychophysics","276","533369","0.0-18.0-1.10","59feed1da383a100011b3eaa","6368f2eea3e9634aebcc2f6b","636b5bed590858401079ecdc","null","","","","null","","","","key","16.677066666667816","768","361","","","","","","","","","","","","","143","-1","5","true","","","",""
"psychophysics","277","533828","0.0-18.0-2.10","59feed1da383a100011b3eaa","6368f2eea3e9634aebcc2f6b","636b5bed590858401079ecdc","457.2000002861023","","","","77","","","","key","16.670769230767082","768","361","","","","","","","","","","","","","","","","","","","",""
"psychophysics","278","534834","0.0-18.0-0.11","59feed1da383a100011b3eaa","6368f2eea3e9634aebcc2f6b","636b5bed590858401079ecdc","null","","","","null","","","","key","16.67216949152634","768","361","","","","","","","","","","","","","","","","","","","",""
"psychophysics","279","535336","0.0-18.0-1.11","59feed1da383a100011b3eaa","6368f2eea3e9634aebcc2f6b","636b5bed590858401079ecdc","null","","","","null","","","","key","16.666533333330882","768","361","","","","","","","","","","","","","143","1","2","true","","","",""
"psychophysics","280","535856","0.0-18.0-2.11","59feed1da383a100011b3eaa","6368f2eea3e9634aebcc2f6b","636b5bed590858401079ecdc","518.6999998092651","","","","90","","","","key","16.675299999998728","768","361","","","","","","","","","","","","","","","","","","","",""
"psychophysics","281","536859","0.0-18.0-0.12","59feed1da383a100011b3eaa","6368f2eea3e9634aebcc2f6b","636b5bed590858401079ecdc","null","","","","null","","","","key","16.660474576271074","768","361","","","","","","","","","","","","","","","","","","","",""
"psychophysics","282","537362","0.0-18.0-1.12","59feed1da383a100011b3eaa","6368f2eea3e9634aebcc2f6b","636b5bed590858401079ecdc","null","","","","null","","","","key","16.679689655172766","768","361","","","","","","","","","","","","","143","1","6","true","","","",""
"psychophysics","283","537824","0.0-18.0-2.12","59feed1da383a100011b3eaa","6368f2eea3e9634aebcc2f6b","636b5bed590858401079ecdc","460.19999980926514","","","","77","","","","key","16.6656296296278","768","361","","","","","","","","","","","","","","","","","","","",""
"psychophysics","284","538826","0.0-18.0-0.13","59feed1da383a100011b3eaa","6368f2eea3e9634aebcc2f6b","636b5bed590858401079ecdc","null","","","","null","","","","key","16.668864406779473","768","361","","","","","","","","","","","","","","","","","","","",""
"psychophysics","285","539331","0.0-18.0-1.13","59feed1da383a100011b3eaa","6368f2eea3e9634aebcc2f6b","636b5bed590858401079ecdc","null","","","","null","","","","key","16.668551724139153","768","361","","","","","","","","","","","","","143","-1","6","true","","","",""
"psychophysics","286","539831","0.0-18.0-2.13","59feed1da383a100011b3eaa","6368f2eea3e9634aebcc2f6b","636b5bed590858401079ecdc","499.5","","","","77","","","","key","16.670206896551274","768","361","","","","","","","","","","","","","","","","","","","",""
"psychophysics","287","540834","0.0-18.0-0.14","59feed1da383a100011b3eaa","6368f2eea3e9634aebcc2f6b","636b5bed590858401079ecdc","null","","","","null","","","","key","16.66177966101766","768","361","","","","","","","","","","","","","","","","","","","",""
"psychophysics","288","541335","0.0-18.0-1.14","59feed1da383a100011b3eaa","6368f2eea3e9634aebcc2f6b","636b5bed590858401079ecdc","null","","","","null","","","","key","16.67910344827647","768","361","","","","","","","","","","","","","143","1","5","true","","","",""
"psychophysics","289","542383","0.0-18.0-2.14","59feed1da383a100011b3eaa","6368f2eea3e9634aebcc2f6b","636b5bed590858401079ecdc","1046.5","","","","77","","","","key","16.664193548387924","768","361","","","","","","","","","","","","","","","","","","","",""
"psychophysics","290","543386","0.0-18.0-0.15","59feed1da383a100011b3eaa","6368f2eea3e9634aebcc2f6b","636b5bed590858401079ecdc","null","","","","null","","","","key","16.66350000000093","768","361","","","","","","","","","","","","","","","","","","","",""
"psychophysics","291","543890","0.0-18.0-1.15","59feed1da383a100011b3eaa","6368f2eea3e9634aebcc2f6b","636b5bed590858401079ecdc","null","","","","null","","","","key","16.652999999997174","768","361","","","","","","","","","","","","","143","-1","3","true","","","",""
"psychophysics","292","545795","0.0-18.0-2.15","59feed1da383a100011b3eaa","6368f2eea3e9634aebcc2f6b","636b5bed590858401079ecdc","1903.7000002861023","","","","90","","","","key","16.665212389380482","768","361","","","","","","","","","","","","","","","","","","","",""
"psychophysics","293","546802","0.0-18.0-0.16","59feed1da383a100011b3eaa","6368f2eea3e9634aebcc2f6b","636b5bed590858401079ecdc","null","","","","null","","","","key","16.664508474576365","768","361","","","","","","","","","","","","","","","","","","","",""
"psychophysics","294","547303","0.0-18.0-1.16","59feed1da383a100011b3eaa","6368f2eea3e9634aebcc2f6b","636b5bed590858401079ecdc","null","","","","null","","","","key","16.66683333333349","768","361","","","","","","","","","","","","","143","1","0","true","","","",""
"psychophysics","295","547717","0.0-18.0-2.16","59feed1da383a100011b3eaa","6368f2eea3e9634aebcc2f6b","636b5bed590858401079ecdc","413.2000002861023","","","","77","","","","key","16.66821739130208","768","361","","","","","","","","","","","","","","","","","","","",""
"psychophysics","296","548719","0.0-18.0-0.17","59feed1da383a100011b3eaa","6368f2eea3e9634aebcc2f6b","636b5bed590858401079ecdc","null","","","","null","","","","key","16.667322033897864","768","361","","","","","","","","","","","","","","","","","","","",""
"psychophysics","297","549227","0.0-18.0-1.17","59feed1da383a100011b3eaa","6368f2eea3e9634aebcc2f6b","636b5bed590858401079ecdc","null","","","","null","","","","key","16.67739999999758","768","361","","","","","","","","","","","","","143","1","4","true","","","",""
"psychophysics","298","549747","0.0-18.0-2.17","59feed1da383a100011b3eaa","6368f2eea3e9634aebcc2f6b","636b5bed590858401079ecdc","519.4000000953674","","","","90","","","","key","16.664766666665674","768","361","","","","","","","","","","","","","","","","","","","",""
"psychophysics","299","550753","0.0-18.0-0.18","59feed1da383a100011b3eaa","6368f2eea3e9634aebcc2f6b","636b5bed590858401079ecdc","null","","","","null","","","","key","16.671749999998912","768","361","","","","","","","","","","","","","","","","","","","",""
"psychophysics","300","551258","0.0-18.0-1.18","59feed1da383a100011b3eaa","6368f2eea3e9634aebcc2f6b","636b5bed590858401079ecdc","null","","","","null","","","","key","16.66086206896279","768","361","","","","","","","","","","","","","143","-1","4","true","","","",""
"psychophysics","301","551700","0.0-18.0-2.18","59feed1da383a100011b3eaa","6368f2eea3e9634aebcc2f6b","636b5bed590858401079ecdc","441.2000002861023","","","","90","","","","key","16.676159999999218","768","361","","","","","","","","","","","","","","","","","","","",""
"psychophysics","302","552702","0.0-18.0-0.19","59feed1da383a100011b3eaa","6368f2eea3e9634aebcc2f6b","636b5bed590858401079ecdc","null","","","","null","","","","key","16.667116666666697","768","361","","","","","","","","","","","","","","","","","","","",""
"psychophysics","303","553210","0.0-18.0-1.19","59feed1da383a100011b3eaa","6368f2eea3e9634aebcc2f6b","636b5bed590858401079ecdc","null","","","","null","","","","key","16.678931034479195","768","361","","","","","","","","","","","","","143","-1","0","true","","","",""
"psychophysics","304","553479","0.0-18.0-2.19","59feed1da383a100011b3eaa","6368f2eea3e9634aebcc2f6b","636b5bed590858401079ecdc","267.7999997138977","","","","90","","","","key","16.667400000003788","768","361","","","","","","","","","","","","","","","","","","","",""
"psychophysics","305","554483","0.0-18.0-0.20","59feed1da383a100011b3eaa","6368f2eea3e9634aebcc2f6b","636b5bed590858401079ecdc","null","","","","null","","","","key","16.668220338981868","768","361","","","","","","","","","","","","","","","","","","","",""
"psychophysics","306","554986","0.0-18.0-1.20","59feed1da383a100011b3eaa","6368f2eea3e9634aebcc2f6b","636b5bed590858401079ecdc","null","","","","null","","","","key","16.66553333333383","768","361","","","","","","","","","","","","","143","-1","2","true","","","",""
"psychophysics","307","555510","0.0-18.0-2.20","59feed1da383a100011b3eaa","6368f2eea3e9634aebcc2f6b","636b5bed590858401079ecdc","522.7999997138977","","","","90","","","","key","16.66469999999972","768","361","","","","","","","","","","","","","","","","","","","",""
"psychophysics","308","556515","0.0-18.0-0.21","59feed1da383a100011b3eaa","6368f2eea3e9634aebcc2f6b","636b5bed590858401079ecdc","null","","","","null","","","","key","16.666406779660512","768","361","","","","","","","","","","","","","","","","","","","",""
"psychophysics","309","557018","0.0-18.0-1.21","59feed1da383a100011b3eaa","6368f2eea3e9634aebcc2f6b","636b5bed590858401079ecdc","null","","","","null","","","","key","16.664448275861073","768","361","","","","","","","","","","","","","143","1","3","true","","","",""
"psychophysics","310","558292","0.0-18.0-2.21","59feed1da383a100011b3eaa","6368f2eea3e9634aebcc2f6b","636b5bed590858401079ecdc","1271.5999999046326","","","","77","","","","key","16.664210526317078","768","361","","","","","","","","","","","","","","","","","","","",""
"psychophysics","311","559298","0.0-18.0-0.22","59feed1da383a100011b3eaa","6368f2eea3e9634aebcc2f6b","636b5bed590858401079ecdc","null","","","","null","","","","key","16.661084745763958","768","361","","","","","","","","","","","","","","","","","","","",""
"psychophysics","312","559803","0.0-18.0-1.22","59feed1da383a100011b3eaa","6368f2eea3e9634aebcc2f6b","636b5bed590858401079ecdc","null","","","","null","","","","key","16.679266666667537","768","361","","","","","","","","","","","","","143","1","2","true","","","",""
"psychophysics","313","560177","0.0-18.0-2.22","59feed1da383a100011b3eaa","6368f2eea3e9634aebcc2f6b","636b5bed590858401079ecdc","373.59999990463257","","","","77","","","","key","16.66766666666427","768","361","","","","","","","","","","","","","","","","","","","",""
"psychophysics","314","561178","0.0-18.0-0.23","59feed1da383a100011b3eaa","6368f2eea3e9634aebcc2f6b","636b5bed590858401079ecdc","null","","","","null","","","","key","16.670813559321687","768","361","","","","","","","","","","","","","","","","","","","",""
"psychophysics","315","561682","0.0-18.0-1.23","59feed1da383a100011b3eaa","6368f2eea3e9634aebcc2f6b","636b5bed590858401079ecdc","null","","","","null","","","","key","16.668413793102133","768","361","","","","","","","","","","","","","143","-1","5","true","","","",""
"psychophysics","316","562445","0.0-18.0-2.23","59feed1da383a100011b3eaa","6368f2eea3e9634aebcc2f6b","636b5bed590858401079ecdc","762","","","","90","","","","key","16.66126666666888","768","361","","","","","","","","","","","","","","","","","","","",""
"psychophysics","317","563451","0.0-18.0-0.24","59feed1da383a100011b3eaa","6368f2eea3e9634aebcc2f6b","636b5bed590858401079ecdc","null","","","","null","","","","key","16.661813559322383","768","361","","","","","","","","","","","","","","","","","","","",""
"psychophysics","318","563952","0.0-18.0-1.24","59feed1da383a100011b3eaa","6368f2eea3e9634aebcc2f6b","636b5bed590858401079ecdc","null","","","","null","","","","key","16.670931034480574","768","361","","","","","","","","","","","","","143","-1","3","true","","","",""
"psychophysics","319","564748","0.0-18.0-2.24","59feed1da383a100011b3eaa","6368f2eea3e9634aebcc2f6b","636b5bed590858401079ecdc","794.9000000953674","","","","77","","","","key","16.66334042553245","768","361","","","","","","","","","","","","","","","","","","","",""
"psychophysics","320","565752","0.0-18.0-0.25","59feed1da383a100011b3eaa","6368f2eea3e9634aebcc2f6b","636b5bed590858401079ecdc","null","","","","null","","","","key","16.669699999998556","768","361","","","","","","","","","","","","","","","","","","","",""
"psychophysics","321","566259","0.0-18.0-1.25","59feed1da383a100011b3eaa","6368f2eea3e9634aebcc2f6b","636b5bed590858401079ecdc","null","","","","null","","","","key","16.66641379310348","768","361","","","","","","","","","","","","","143","-1","0","true","","","",""
"psychophysics","322","566516","0.0-18.0-2.25","59feed1da383a100011b3eaa","6368f2eea3e9634aebcc2f6b","636b5bed590858401079ecdc","255.90000009536743","","","","90","","","","key","16.669571428568037","768","361","","","","","","","","","","","","","","","","","","","",""
"psychophysics","323","567519","0.0-18.0-0.26","59feed1da383a100011b3eaa","6368f2eea3e9634aebcc2f6b","636b5bed590858401079ecdc","null","","","","null","","","","key","16.666800000000514","768","361","","","","","","","","","","","","","","","","","","","",""
"psychophysics","324","568026","0.0-18.0-1.26","59feed1da383a100011b3eaa","6368f2eea3e9634aebcc2f6b","636b5bed590858401079ecdc","null","","","","null","","","","key","16.677862068963364","768","361","","","","","","","","","","","","","143","-1","6","true","","","",""
"psychophysics","325","568549","0.0-18.0-2.26","59feed1da383a100011b3eaa","6368f2eea3e9634aebcc2f6b","636b5bed590858401079ecdc","522","","","","77","","","","key","16.665566666668745","768","361","","","","","","","","","","","","","","","","","","","",""
"psychophysics","326","569552","0.0-18.0-0.27","59feed1da383a100011b3eaa","6368f2eea3e9634aebcc2f6b","636b5bed590858401079ecdc","null","","","","null","","","","key","16.66506666666634","768","361","","","","","","","","","","","","","","","","","","","",""
"psychophysics","327","570059","0.0-18.0-1.27","59feed1da383a100011b3eaa","6368f2eea3e9634aebcc2f6b","636b5bed590858401079ecdc","null","","","","null","","","","key","16.665000000001125","768","361","","","","","","","","","","","","","143","1","3","true","","","",""
"psychophysics","328","571695","0.0-18.0-2.27","59feed1da383a100011b3eaa","6368f2eea3e9634aebcc2f6b","636b5bed590858401079ecdc","1635.5","","","","77","","","","key","16.665608247422814","768","361","","","","","","","","","","","","","","","","","","","",""
"psychophysics","329","572699","0.0-18.0-0.28","59feed1da383a100011b3eaa","6368f2eea3e9634aebcc2f6b","636b5bed590858401079ecdc","null","","","","null","","","","key","16.660254237287425","768","361","","","","","","","","","","","","","","","","","","","",""
"psychophysics","330","573202","0.0-18.0-1.28","59feed1da383a100011b3eaa","6368f2eea3e9634aebcc2f6b","636b5bed590858401079ecdc","null","","","","null","","","","key","16.666310344830734","768","361","","","","","","","","","","","","","143","-1","5","true","","","",""
"psychophysics","331","573559","0.0-18.0-2.28","59feed1da383a100011b3eaa","6368f2eea3e9634aebcc2f6b","636b5bed590858401079ecdc","356.2999997138977","","","","77","","","","key","16.664428571427596","768","361","","","","","","","","","","","","","","","","","","","",""
