"trial_type","trial_index","time_elapsed","internal_node_id","PROLIFIC_PID","STUDY_ID","SESSION_ID","rt","stimulus","button_pressed","success","key_press","responses","isData","view_history","response_type","avg_frame_time","center_x","center_y","isSC","stim_side","trial_luminance","step_size","nReversal","correct","prev_ans","isThreshold","SC_threshold","final_threshold","isLuminance","FF_luminance","luminance","stimSide","ISInt","isFF","question_order","isSPQ","isCAPS","isAQ"
"pavlovia","0","24","0.0-0.0","5ee3be6ff942c407cd54e6ce","6368f2eea3e9634aebcc2f6b","636b5be824d2a709103eb724","","","","","","","","","","","","","","","","","","","","","","","","","","","","","","","",""
"html-button-response","1","7399","0.0-1.0","5ee3be6ff942c407cd54e6ce","6368f2eea3e9634aebcc2f6b","636b5be824d2a709103eb724","7368.500000000007","<div style='background-color: white; width:60%; margin: auto; padding: 50px; text-align: justify; text-justify: inter-word; margin-bottom: 20px;'><h1 style='text-align: center;'>Consent Form</h1><p>Please read this consent form carefully before deciding whether you would like to participate in this study. You have to be 18 years old or older to participate to this study.</p><p style='text-decoration: underline;'>Participation is voluntary:</p><p>It is your choice whether or not to participate in this research. If you choose to participate, you may change your mind and leave the study at any time. Refusal to participate or stopping your participation will involve no penalty or loss of benefits to which you are otherwise entitled.</p><p style='text-decoration: underline;'>Purpose of the Study:</p><p>To understand the mechanisms underlying human perception.</p><p style='text-decoration: underline;'>What you will do in this study:</p><p>You will be presented with a series of visual images and then you will press buttons on the keyboard of your computer to respond to simple questions about the images (e.g. Were one or two images presented?). In addition, you will be asked to complete a questionnaire concerning your beliefs and everyday mental and perceptual experiences.'</p><p style='text-decoration: underline;'> Time Required:</p><p>The study will take 40 minutes to complete. </p><p style='text-decoration: underline;'>Risks:</p><p>There are no anticipated risks associated with participating in this study that are beyond those experienced in everyday life. </p><p style='text-decoration: underline;'>Benefits:</p><p>There are no benefits to you in participating in the study. However, this study may lead to a better understanding of how different kinds of visual information are used.</p><p style='text-decoration: underline;'>Compensation:</p><p>You will be paid US$6.6/hour. </p><p style='text-decoration: underline;'>Privacy and Confidentiality:</p><p>Your participation in this study will be anonymous. No personal information about your name or identity will be asked or recorded. This anonymous data will be stored for several years and may be used for a variety of research purposes. The overall results of the study may be published, or the data files may be shared with other researchers, but your identity will not be revealed in any way. The online services we are using for this study may temporarily store your data, but this data will be downloaded and then promptly deleted from those services.Your data will not be permanently associated with your name, IP address, or any other identifiable information (e.g., your information will only be connected to your payment, not to any of your responses), though they may be temporarily stored together before we download and separate them. Even so, no guarantee of internet survey security can be given because, although unlikely, transmissions can be intercepted and IP addresses can be identified. The anonymous data may be shared publicly (for example, in conjunction with a resulting academic publication).</p><p style='text-decoration: underline;'>Participation and Withdrawal:</p><p>Your participation in this study is completely voluntary. You may stop responding to the stimuli or stop answering questions if you so choose and without penalty by exiting the full screen mode, closing this tab of your browser or redirecting it to a different website.</p><p style='text-decoration: underline;'>Contact Info of the Researcher: </p><p>If you have questions about this study, or if you would like to talk to the research team, please contact David Melcher (david.melcher@nyu.edu, md5050@nyu.edu) at the Perception and Active Cognition Laboratory, New York University Abu Dhabi, Computational Research Building, Saadiyat Island, Abu Dhabi, UAE.This research has been reviewed by the New York University Abu Dhabi Institutional Review Board (NYUAD IRB). To contact about your rights in this research, for questions, suggestions, or complaints that are not addressed by the researchers, please email IRBnyuad@nyu.edu, or call the NYUAD IRB at +971 2 628 4313. </p></div>","0","","","","","","","","","","","","","","","","","","","","","","","","","","","","",""
"fullscreen","2","9151","0.0-2.0","5ee3be6ff942c407cd54e6ce","6368f2eea3e9634aebcc2f6b","636b5be824d2a709103eb724","","","","true","","","","","","","","","","","","","","","","","","","","","","","","","","","",""
"html-keyboard-response","3","81359","0.0-3.0","5ee3be6ff942c407cd54e6ce","6368f2eea3e9634aebcc2f6b","636b5be824d2a709103eb724","72206.29999999999","<p>Welcome !</p><p>READ CAREFULLY THE FOLLOWING INDICATIONS:</p><p>From this moment you have ~40 minutes to complete the experiment.</p><p>During the experiment you will be prompted to take several breaks. Each break should not last longer than 2-3 minutes.</p><p>Make sure that your computer is plugged in and it's not running on battery power, even if the battery is already fully charged.</p><p>Turn off your phone and music, make sure that you are in a quiet room and that you will not be distracted for the next hour.</p><p>Failure to comply with the instructions and indications provided during the experiment will most likely result in the rejection of your data.<p>Press the spacebar to start.</p>","","","32","","","","","","","","","","","","","","","","","","","","","","","","","","",""
"survey-html-form","4","91088","0.0-4.0","5ee3be6ff942c407cd54e6ce","6368f2eea3e9634aebcc2f6b","636b5be824d2a709103eb724","9726.5","","","","","{""age"":""52"",""sex"":""F""}","true","","","","","","","","","","","","","","","","","","","","","","","","",""
"instructions","5","174493","0.0-5.0","5ee3be6ff942c407cd54e6ce","6368f2eea3e9634aebcc2f6b","636b5be824d2a709103eb724","83404.40000000001","","","","","","","[{""page_index"":0,""viewing_time"":33708.70000000001},{""page_index"":1,""viewing_time"":40353.90000000001},{""page_index"":2,""viewing_time"":9340.699999999953}]","","","","","","","","","","","","","","","","","","","","","","","",""
"psychophysics","6","179145","0.0-6.0-0.0","5ee3be6ff942c407cd54e6ce","6368f2eea3e9634aebcc2f6b","636b5be824d2a709103eb724","3637.0999999999767","","","","39","","","","key","16.666659498207856","768","373","true","1","180","30","0","-1","","","","","","","","","","","","","",""
"psychophysics","7","180781","0.0-6.0-0.1","5ee3be6ff942c407cd54e6ce","6368f2eea3e9634aebcc2f6b","636b5be824d2a709103eb724","628.2999999999884","","","","37","","","","key","16.666762886598008","768","373","true","-1","180","30","0","-1","-1","","","","","","","","","","","","",""
"psychophysics","8","182144","0.0-6.0-0.2","5ee3be6ff942c407cd54e6ce","6368f2eea3e9634aebcc2f6b","636b5be824d2a709103eb724","358.4000000000233","","","","37","","","","key","16.666703703703668","768","373","true","-1","150","30","0","-1","-1","","","","","","","","","","","","",""
"psychophysics","9","183511","0.0-6.0-0.3","5ee3be6ff942c407cd54e6ce","6368f2eea3e9634aebcc2f6b","636b5be824d2a709103eb724","357.79999999998836","","","","39","","","","key","16.666629629629668","768","373","true","1","150","30","0","-1","-1","","","","","","","","","","","","",""
"psychophysics","10","185682","0.0-6.0-0.4","5ee3be6ff942c407cd54e6ce","6368f2eea3e9634aebcc2f6b","636b5be824d2a709103eb724","1168.2000000000116","","","","37","","","","key","16.796875","768","373","true","-1","129","30","0","-1","-1","","","","","","","","","","","","",""
"psychophysics","11","187775","0.0-6.0-0.5","5ee3be6ff942c407cd54e6ce","6368f2eea3e9634aebcc2f6b","636b5be824d2a709103eb724","1088.3000000000466","","","","37","","","","key","16.666591999999945","768","373","true","1","129","24","1","1","-1","","","","","","","","","","","","",""
"psychophysics","12","188863","0.0-6.0-0.6","5ee3be6ff942c407cd54e6ce","6368f2eea3e9634aebcc2f6b","636b5be824d2a709103eb724","86.20000000001164","","","","39","","","","key","16.666812500000106","768","373","true","1","153","24","1","-1","1","","","","","","","","","","","","",""
"psychophysics","13","190098","0.0-6.0-0.7","5ee3be6ff942c407cd54e6ce","6368f2eea3e9634aebcc2f6b","636b5be824d2a709103eb724","233.10000000003492","","","","39","","","","key","16.666616438356172","768","373","true","1","153","19.2","2","-1","-1","","","","","","","","","","","","",""
"psychophysics","14","192517","0.0-6.0-0.8","5ee3be6ff942c407cd54e6ce","6368f2eea3e9634aebcc2f6b","636b5be824d2a709103eb724","1413.5999999999767","","","","39","","","","key","16.666756944444487","768","373","true","-1","133.8","15.36","3","1","-1","","","","","","","","","","","","",""
"psychophysics","15","195934","0.0-6.0-0.9","5ee3be6ff942c407cd54e6ce","6368f2eea3e9634aebcc2f6b","636b5be824d2a709103eb724","2412.7999999999884","","","","37","","","","key","16.666661764705935","768","373","true","1","149.16000000000003","15.36","3","1","1","","","","","","","","","","","","",""
"psychophysics","16","196970","0.0-6.0-0.10","5ee3be6ff942c407cd54e6ce","6368f2eea3e9634aebcc2f6b","636b5be824d2a709103eb724","32.20000000001164","","","","39","","","","key","16.666606557377058","768","373","true","1","164.52000000000004","15.36","3","-1","1","","","","","","","","","","","","",""
"psychophysics","17","198007","0.0-6.0-0.11","5ee3be6ff942c407cd54e6ce","6368f2eea3e9634aebcc2f6b","636b5be824d2a709103eb724","30.400000000023283","","","","37","","","","key","16.6667741935488","768","373","true","-1","164.52000000000004","12.287999999999998","4","-1","-1","","","","","","","","","","","","",""
"psychophysics","18","199099","0.0-6.0-0.12","5ee3be6ff942c407cd54e6ce","6368f2eea3e9634aebcc2f6b","636b5be824d2a709103eb724","89.80000000004657","","","","39","","","","key","16.666671874999793","768","373","true","1","152.23200000000003","12.287999999999998","4","-1","-1","","","","","","","","","","","","",""
"psychophysics","19","200168","0.0-6.0-0.13","5ee3be6ff942c407cd54e6ce","6368f2eea3e9634aebcc2f6b","636b5be824d2a709103eb724","64.60000000003492","","","","39","","","","key","16.666587301587228","768","373","true","1","152.23200000000003","12.287999999999998","4","-1","-1","","","","","","","","","","","","",""
"psychophysics","20","201214","0.0-6.0-0.14","5ee3be6ff942c407cd54e6ce","6368f2eea3e9634aebcc2f6b","636b5be824d2a709103eb724","44.100000000034925","","","","39","","","","key","16.666725806451606","768","373","true","1","139.94400000000002","12.287999999999998","4","-1","-1","","","","","","","","","","","","",""
"psychophysics","21","207597","0.0-6.0-0.15","5ee3be6ff942c407cd54e6ce","6368f2eea3e9634aebcc2f6b","636b5be824d2a709103eb724","5380.099999999977","","","","37","","","","key","16.710435695538074","768","373","true","1","139.94400000000002","9.8304","5","1","-1","","","","","","","","","","","","",""
"psychophysics","22","208863","0.0-6.0-0.16","5ee3be6ff942c407cd54e6ce","6368f2eea3e9634aebcc2f6b","636b5be824d2a709103eb724","261.29999999998836","","","","37","","","","key","16.666720000000204","768","373","true","-1","149.7744","9.8304","5","-1","1","","","","","","","","","","","","",""
"psychophysics","23","209867","0.0-6.0-0.17","5ee3be6ff942c407cd54e6ce","6368f2eea3e9634aebcc2f6b","636b5be824d2a709103eb724","2.2999999999883585","","","","39","","","","key","16.66650847457616","768","373","true","1","149.7744","7.864319999999999","6","-1","-1","","","","","","","","","","","","",""
"psychophysics","24","210918","0.0-6.0-0.18","5ee3be6ff942c407cd54e6ce","6368f2eea3e9634aebcc2f6b","636b5be824d2a709103eb724","46.70000000001164","","","","37","","","","key","16.66658064516096","768","373","true","-1","141.91008000000002","7.864319999999999","6","-1","-1","","","","","","","","","","","","",""
"psychophysics","25","213331","0.0-6.0-0.19","5ee3be6ff942c407cd54e6ce","6368f2eea3e9634aebcc2f6b","636b5be824d2a709103eb724","1410.8000000000466","","","","37","","","","key","16.66669444444435","768","373","true","1","141.91008000000002","6.291456","7","1","-1","","","","","","","","","","","","",""
"psychophysics","26","216335","0.0-6.0-0.20","5ee3be6ff942c407cd54e6ce","6368f2eea3e9634aebcc2f6b","636b5be824d2a709103eb724","1998.899999999965","","","","39","","","","key","16.666703910614505","768","373","true","1","148.20153600000003","6.291456","7","-1","1","","","","","","","","","","","","",""
"psychophysics","27","217376","0.0-6.0-0.21","5ee3be6ff942c407cd54e6ce","6368f2eea3e9634aebcc2f6b","636b5be824d2a709103eb724","38.70000000001164","","","","37","","","","key","16.666693548386966","768","373","true","-1","148.20153600000003","5.033164800000001","8","-1","-1","","","","","","","","","","","","",""
"psychophysics","28","218535","0.0-6.0-0.22","5ee3be6ff942c407cd54e6ce","6368f2eea3e9634aebcc2f6b","636b5be824d2a709103eb724","149.39999999996508","","","","37","","","","key","16.666558823529424","768","373","true","-1","143.16837120000002","5.033164800000001","8","-1","-1","","","","","","","","","","","","",""
"psychophysics","29","220317","0.0-6.0-0.23","5ee3be6ff942c407cd54e6ce","6368f2eea3e9634aebcc2f6b","636b5be824d2a709103eb724","779.0999999999767","","","","37","","","","key","16.666641509433866","768","373","true","-1","143.16837120000002","5.033164800000001","8","-1","-1","","","","","","","","","","","","",""
"psychophysics","30","223756","0.0-6.0-0.24","5ee3be6ff942c407cd54e6ce","6368f2eea3e9634aebcc2f6b","636b5be824d2a709103eb724","2435.5","","","","37","","","","key","16.66664563106795","768","373","true","1","138.13520640000002","4.0265318400000005","9","1","-1","","","","","","","","","","","","",""
"psychophysics","31","225297","0.0-6.0-0.25","5ee3be6ff942c407cd54e6ce","6368f2eea3e9634aebcc2f6b","636b5be824d2a709103eb724","536.0999999999767","","","","39","","","","key","16.666615384615508","768","373","true","1","142.16173824","4.0265318400000005","9","-1","1","","","","","","","","","","","","",""
"psychophysics","32","227402","0.0-6.0-0.26","5ee3be6ff942c407cd54e6ce","6368f2eea3e9634aebcc2f6b","636b5be824d2a709103eb724","1097.2999999999884","","","","39","","","","key","16.666727999999885","768","373","true","1","142.16173824","3.2212254720000004","10","-1","-1","","","","","","","","","","","","",""
"psychophysics","33","228880","0.0-6.0-0.27","5ee3be6ff942c407cd54e6ce","6368f2eea3e9634aebcc2f6b","636b5be824d2a709103eb724","475.69999999995343","","","","37","","","","key","16.66664772727249","768","373","true","-1","138.94051276800002","3.2212254720000004","10","-1","-1","","","","","","","","","","","","",""
"psychophysics","34","230309","0.0-6.0-0.28","5ee3be6ff942c407cd54e6ce","6368f2eea3e9634aebcc2f6b","636b5be824d2a709103eb724","422.0999999999767","","","","39","","","","key","16.666776470588314","768","373","true","1","138.94051276800002","3.2212254720000004","10","-1","-1","","","","","","","","","","","","",""
"psychophysics","35","231797","0.0-6.0-0.29","5ee3be6ff942c407cd54e6ce","6368f2eea3e9634aebcc2f6b","636b5be824d2a709103eb724","483.20000000001164","","","","39","","","","key","16.666556818181892","768","373","true","1","135.719287296","3.2212254720000004","10","-1","-1","","","","","","","","","","","","",""
"psychophysics","36","233268","0.0-6.0-0.30","5ee3be6ff942c407cd54e6ce","6368f2eea3e9634aebcc2f6b","636b5be824d2a709103eb724","467.19999999995343","","","","39","","","","key","16.66656321839091","768","373","true","1","135.719287296","3.2212254720000004","10","-1","-1","","","","","","","","","","","","",""
"psychophysics","37","235762","0.0-6.0-0.31","5ee3be6ff942c407cd54e6ce","6368f2eea3e9634aebcc2f6b","636b5be824d2a709103eb724","1491.7999999999884","","","","37","","","","key","16.66665771812077","768","373","true","-1","132.498061824","3.2212254720000004","10","-1","-1","","","","","","","","","","","","",""
"psychophysics","38","237442","0.0-6.0-0.32","5ee3be6ff942c407cd54e6ce","6368f2eea3e9634aebcc2f6b","636b5be824d2a709103eb724","672.7999999999884","","","","37","","","","key","16.666680000000053","768","373","true","-1","132.498061824","3.2212254720000004","10","-1","-1","","","","","","","","","","","","",""
"psychophysics","39","239320","0.0-6.0-0.33","5ee3be6ff942c407cd54e6ce","6368f2eea3e9634aebcc2f6b","636b5be824d2a709103eb724","870.9000000000233","","","","37","","","","key","16.66670270270258","768","373","true","-1","129.27683635199998","3.2212254720000004","10","-1","-1","","","","","","","","","","","","",""
"psychophysics","40","242038","0.0-6.0-0.34","5ee3be6ff942c407cd54e6ce","6368f2eea3e9634aebcc2f6b","636b5be824d2a709103eb724","1707.9000000000233","","","","37","","","","key","16.666679012345725","768","373","true","-1","129.27683635199998","3.2212254720000004","10","-1","-1","","","","","","","","","","","","",""
"psychophysics","41","244594","0.0-6.0-0.35","5ee3be6ff942c407cd54e6ce","6368f2eea3e9634aebcc2f6b","636b5be824d2a709103eb724","1553.399999999965","","","","39","","","","key","16.666640522875717","768","373","true","-1","129","2.5769803776000004","11","1","-1","","","","","","","","","","","","",""
"psychophysics","42","246587","0.0-6.0-0.36","5ee3be6ff942c407cd54e6ce","6368f2eea3e9634aebcc2f6b","636b5be824d2a709103eb724","985.5","","","","39","","","","key","16.666610169491555","768","373","true","-1","131.5769803776","2.5769803776000004","11","1","1","","","","","","","","","","","","",""
"psychophysics","43","248562","0.0-6.0-0.37","5ee3be6ff942c407cd54e6ce","6368f2eea3e9634aebcc2f6b","636b5be824d2a709103eb724","972.8000000000466","","","","39","","","","key","16.666703389830527","768","373","true","-1","134.1539607552","2.5769803776000004","11","1","1","","","","","","","","","","","","",""
"psychophysics","44","249614","0.0-6.0-0.38","5ee3be6ff942c407cd54e6ce","6368f2eea3e9634aebcc2f6b","636b5be824d2a709103eb724","44.09999999997672","","","","37","","","","key","16.66667741935488","768","373","true","-1","136.73094113279998","2.5769803776000004","11","-1","1","","","","","","","","","","","","",""
"psychophysics","45","250944","0.0-6.0-0.39","5ee3be6ff942c407cd54e6ce","6368f2eea3e9634aebcc2f6b","636b5be824d2a709103eb724","327.4000000000233","","","","37","","","","key","16.666632911392277","768","373","true","-1","136.73094113279998","2.0615843020800004","12","-1","-1","","","","","","","","","","","","",""
"html-keyboard-response","46","255064","0.0-7.0","5ee3be6ff942c407cd54e6ce","6368f2eea3e9634aebcc2f6b","636b5be824d2a709103eb724","4118.200000000012","<p>Well Done !</p><p>Prepare for a new block.</p><p>DON'T EXIT THE FULL SCREEN MODE</p><p>Press the Spacebar to start.</p>","","","32","","","","","","","","","","","","","","","true","135.02571309055995","","","","","","","","","","",""
"psychophysics","47","256163","0.0-8.0-0.0","5ee3be6ff942c407cd54e6ce","6368f2eea3e9634aebcc2f6b","636b5be824d2a709103eb724","93.09999999997672","","","","37","","","","key","16.66915151515136","768","373","true","-1","180","30","0","-1","","","","","","","","","","","","","",""
"psychophysics","48","257580","0.0-8.0-0.1","5ee3be6ff942c407cd54e6ce","6368f2eea3e9634aebcc2f6b","636b5be824d2a709103eb724","410.8999999999651","","","","37","","","","key","16.666630952380988","768","373","true","-1","180","30","0","-1","-1","","","","","","","","","","","","",""
"psychophysics","49","258917","0.0-8.0-0.2","5ee3be6ff942c407cd54e6ce","6368f2eea3e9634aebcc2f6b","636b5be824d2a709103eb724","332.29999999998836","","","","39","","","","key","16.66673417721508","768","373","true","1","150","30","0","-1","-1","","","","","","","","","","","","",""
"psychophysics","50","260300","0.0-8.0-0.3","5ee3be6ff942c407cd54e6ce","6368f2eea3e9634aebcc2f6b","636b5be824d2a709103eb724","380.20000000001164","","","","37","","","","key","16.666646341463515","768","373","true","-1","150","30","0","-1","-1","","","","","","","","","","","","",""
"psychophysics","51","261974","0.0-8.0-0.4","5ee3be6ff942c407cd54e6ce","6368f2eea3e9634aebcc2f6b","636b5be824d2a709103eb724","671","","","","37","","","","key","16.66658999999985","768","373","true","1","129","24","1","1","-1","","","","","","","","","","","","",""
"psychophysics","52","263350","0.0-8.0-0.5","5ee3be6ff942c407cd54e6ce","6368f2eea3e9634aebcc2f6b","636b5be824d2a709103eb724","373.20000000001164","","","","39","","","","key","16.666604938271547","768","373","true","1","153","24","1","-1","1","","","","","","","","","","","","",""
"psychophysics","53","264733","0.0-8.0-0.6","5ee3be6ff942c407cd54e6ce","6368f2eea3e9634aebcc2f6b","636b5be824d2a709103eb724","380","","","","39","","","","key","16.66668292682862","768","373","true","1","153","19.2","2","-1","-1","","","","","","","","","","","","",""
"psychophysics","54","266005","0.0-8.0-0.7","5ee3be6ff942c407cd54e6ce","6368f2eea3e9634aebcc2f6b","636b5be824d2a709103eb724","267.8999999999651","","","","37","","","","key","16.666720000000204","768","373","true","-1","133.8","19.2","2","-1","-1","","","","","","","","","","","","",""
"psychophysics","55","267196","0.0-8.0-0.8","5ee3be6ff942c407cd54e6ce","6368f2eea3e9634aebcc2f6b","636b5be824d2a709103eb724","186.59999999997672","","","","39","","","","key","16.666676056338474","768","373","true","1","133.8","19.2","2","-1","-1","","","","","","","","","","","","",""
"psychophysics","56","269723","0.0-8.0-0.9","5ee3be6ff942c407cd54e6ce","6368f2eea3e9634aebcc2f6b","636b5be824d2a709103eb724","1521.7999999999884","","","","37","","","","key","16.66666887417229","768","373","true","-1","129","19.2","2","-1","-1","","","","","","","","","","","","",""
"psychophysics","57","272656","0.0-8.0-0.10","5ee3be6ff942c407cd54e6ce","6368f2eea3e9634aebcc2f6b","636b5be824d2a709103eb724","1926.7000000000116","","","","39","","","","key","16.666702857142912","768","373","true","1","129","19.2","2","-1","-1","","","","","","","","","","","","",""
"psychophysics","58","274570","0.0-8.0-0.11","5ee3be6ff942c407cd54e6ce","6368f2eea3e9634aebcc2f6b","636b5be824d2a709103eb724","904.5","","","","37","","","","key","16.666699115044242","768","373","true","1","129","15.36","3","1","-1","","","","","","","","","","","","",""
"psychophysics","59","275850","0.0-8.0-0.12","5ee3be6ff942c407cd54e6ce","6368f2eea3e9634aebcc2f6b","636b5be824d2a709103eb724","278.70000000001164","","","","39","","","","key","16.666605263158043","768","373","true","1","144.36","15.36","3","-1","1","","","","","","","","","","","","",""
"psychophysics","60","277253","0.0-8.0-0.13","5ee3be6ff942c407cd54e6ce","6368f2eea3e9634aebcc2f6b","636b5be824d2a709103eb724","399.5","","","","37","","","","key","16.666650602409575","768","373","true","-1","144.36","12.287999999999998","4","-1","-1","","","","","","","","","","","","",""
"psychophysics","61","279169","0.0-8.0-0.14","5ee3be6ff942c407cd54e6ce","6368f2eea3e9634aebcc2f6b","636b5be824d2a709103eb724","913.5","","","","37","","","","key","16.666710526315832","768","373","true","-1","132.072","12.287999999999998","4","-1","-1","","","","","","","","","","","","",""
"psychophysics","62","281156","0.0-8.0-0.15","5ee3be6ff942c407cd54e6ce","6368f2eea3e9634aebcc2f6b","636b5be824d2a709103eb724","984.0999999999767","","","","37","","","","key","16.666621848739325","768","373","true","1","132.072","9.8304","5","1","-1","","","","","","","","","","","","",""
"psychophysics","63","282472","0.0-8.0-0.16","5ee3be6ff942c407cd54e6ce","6368f2eea3e9634aebcc2f6b","636b5be824d2a709103eb724","311","","","","39","","","","key","16.666717948718144","768","373","true","1","141.9024","9.8304","5","-1","1","","","","","","","","","","","","",""
"psychophysics","64","283882","0.0-8.0-0.17","5ee3be6ff942c407cd54e6ce","6368f2eea3e9634aebcc2f6b","636b5be824d2a709103eb724","401.29999999998836","","","","37","","","","key","16.66667469879486","768","373","true","-1","141.9024","7.864319999999999","6","-1","-1","","","","","","","","","","","","",""
"psychophysics","65","285285","0.0-8.0-0.18","5ee3be6ff942c407cd54e6ce","6368f2eea3e9634aebcc2f6b","636b5be824d2a709103eb724","397","","","","39","","","","key","16.66662650602359","768","373","true","1","134.03808","7.864319999999999","6","-1","-1","","","","","","","","","","","","",""
"psychophysics","66","286697","0.0-8.0-0.19","5ee3be6ff942c407cd54e6ce","6368f2eea3e9634aebcc2f6b","636b5be824d2a709103eb724","409","","","","39","","","","key","16.666702380952692","768","373","true","1","134.03808","7.864319999999999","6","-1","-1","","","","","","","","","","","","",""
"psychophysics","67","289156","0.0-8.0-0.20","5ee3be6ff942c407cd54e6ce","6368f2eea3e9634aebcc2f6b","636b5be824d2a709103eb724","1452.7000000000116","","","","37","","","","key","16.6666802721087","768","373","true","1","129","6.291456","7","1","-1","","","","","","","","","","","","",""
"psychophysics","68","290513","0.0-8.0-0.21","5ee3be6ff942c407cd54e6ce","6368f2eea3e9634aebcc2f6b","636b5be824d2a709103eb724","352.1000000000349","","","","39","","","","key","16.666662499999802","768","373","true","1","135.291456","6.291456","7","-1","1","","","","","","","","","","","","",""
"psychophysics","69","291818","0.0-8.0-0.22","5ee3be6ff942c407cd54e6ce","6368f2eea3e9634aebcc2f6b","636b5be824d2a709103eb724","297.5","","","","37","","","","key","16.666701298701433","768","373","true","-1","135.291456","5.033164800000001","8","-1","-1","","","","","","","","","","","","",""
"psychophysics","70","293479","0.0-8.0-0.23","5ee3be6ff942c407cd54e6ce","6368f2eea3e9634aebcc2f6b","636b5be824d2a709103eb724","657.5999999999767","","","","37","","","","key","16.66660606060612","768","373","true","-1","130.2582912","5.033164800000001","8","-1","-1","","","","","","","","","","","","",""
"psychophysics","71","295638","0.0-8.0-0.24","5ee3be6ff942c407cd54e6ce","6368f2eea3e9634aebcc2f6b","636b5be824d2a709103eb724","1157.2000000000116","","","","39","","","","key","16.66671093749983","768","373","true","-1","130.2582912","4.0265318400000005","9","1","-1","","","","","","","","","","","","",""
"psychophysics","72","297013","0.0-8.0-0.25","5ee3be6ff942c407cd54e6ce","6368f2eea3e9634aebcc2f6b","636b5be824d2a709103eb724","372","","","","37","","","","key","16.66668292682933","768","373","true","-1","134.28482304","4.0265318400000005","9","-1","1","","","","","","","","","","","","",""
"psychophysics","73","298411","0.0-8.0-0.26","5ee3be6ff942c407cd54e6ce","6368f2eea3e9634aebcc2f6b","636b5be824d2a709103eb724","393.9000000000233","","","","39","","","","key","16.66666265060292","768","373","true","1","134.28482304","3.2212254720000004","10","-1","-1","","","","","","","","","","","","",""
"psychophysics","74","300548","0.0-8.0-0.27","5ee3be6ff942c407cd54e6ce","6368f2eea3e9634aebcc2f6b","636b5be824d2a709103eb724","1131","","","","39","","","","key","16.666598425196817","768","373","true","1","131.06359756799998","3.2212254720000004","10","-1","-1","","","","","","","","","","","","",""
"psychophysics","75","302352","0.0-8.0-0.28","5ee3be6ff942c407cd54e6ce","6368f2eea3e9634aebcc2f6b","636b5be824d2a709103eb724","798.7000000000116","","","","37","","","","key","16.666700934579435","768","373","true","-1","131.06359756799998","3.2212254720000004","10","-1","-1","","","","","","","","","","","","",""
"psychophysics","76","304447","0.0-8.0-0.29","5ee3be6ff942c407cd54e6ce","6368f2eea3e9634aebcc2f6b","636b5be824d2a709103eb724","1092.7000000000116","","","","39","","","","key","16.66666400000034","768","373","true","1","129","3.2212254720000004","10","-1","-1","","","","","","","","","","","","",""
"psychophysics","77","307294","0.0-8.0-0.30","5ee3be6ff942c407cd54e6ce","6368f2eea3e9634aebcc2f6b","636b5be824d2a709103eb724","1828.5999999999767","","","","37","","","","key","16.666652941176505","768","373","true","1","129","2.5769803776000004","11","1","-1","","","","","","","","","","","","",""
"psychophysics","78","309566","0.0-8.0-0.31","5ee3be6ff942c407cd54e6ce","6368f2eea3e9634aebcc2f6b","636b5be824d2a709103eb724","1269.2999999999884","","","","39","","","","key","16.66668888888908","768","373","true","-1","131.5769803776","2.5769803776000004","11","1","1","","","","","","","","","","","","",""
"psychophysics","79","310903","0.0-8.0-0.32","5ee3be6ff942c407cd54e6ce","6368f2eea3e9634aebcc2f6b","636b5be824d2a709103eb724","334.6000000000349","","","","39","","","","key","16.66659493670914","768","373","true","1","134.1539607552","2.5769803776000004","11","-1","1","","","","","","","","","","","","",""
"psychophysics","80","312546","0.0-8.0-0.33","5ee3be6ff942c407cd54e6ce","6368f2eea3e9634aebcc2f6b","636b5be824d2a709103eb724","640.9000000000233","","","","37","","","","key","16.666744897959337","768","373","true","-1","134.1539607552","2.0615843020800004","12","-1","-1","","","","","","","","","","","","",""
"psychophysics","81","315391","0.0-8.0-0.34","5ee3be6ff942c407cd54e6ce","6368f2eea3e9634aebcc2f6b","636b5be824d2a709103eb724","1837.4000000000233","","","","37","","","","key","16.66669999999987","768","373","true","-1","132.09237645311998","2.0615843020800004","12","-1","-1","","","","","","","","","","","","",""
"psychophysics","82","317306","0.0-8.0-0.35","5ee3be6ff942c407cd54e6ce","6368f2eea3e9634aebcc2f6b","636b5be824d2a709103eb724","913","","","","37","","","","key","16.6667017543861","768","373","true","1","132.09237645311998","1.6492674416640005","13","1","-1","","","","","","","","","","","","",""
"psychophysics","83","319621","0.0-8.0-0.36","5ee3be6ff942c407cd54e6ce","6368f2eea3e9634aebcc2f6b","636b5be824d2a709103eb724","1307.9000000000233","","","","39","","","","key","16.666642335766117","768","373","true","-1","133.74164389478398","1.6492674416640005","13","1","1","","","","","","","","","","","","",""
"psychophysics","84","321013","0.0-8.0-0.37","5ee3be6ff942c407cd54e6ce","6368f2eea3e9634aebcc2f6b","636b5be824d2a709103eb724","390.6000000000349","","","","37","","","","key","16.666650602409575","768","373","true","-1","135.39091133644797","1.6492674416640005","13","-1","1","","","","","","","","","","","","",""
"psychophysics","85","322360","0.0-8.0-0.38","5ee3be6ff942c407cd54e6ce","6368f2eea3e9634aebcc2f6b","636b5be824d2a709103eb724","342.6000000000349","","","","37","","","","key","16.66663750000007","768","373","true","-1","135.39091133644797","1.3194139533312006","14","-1","-1","","","","","","","","","","","","",""
"psychophysics","86","323894","0.0-8.0-0.39","5ee3be6ff942c407cd54e6ce","6368f2eea3e9634aebcc2f6b","636b5be824d2a709103eb724","524.7000000000116","","","","37","","","","key","16.666593406593126","768","373","true","-1","134.07149738311676","1.3194139533312006","14","-1","-1","","","","","","","","","","","","",""
"html-keyboard-response","87","328610","0.0-9.0","5ee3be6ff942c407cd54e6ce","6368f2eea3e9634aebcc2f6b","636b5be824d2a709103eb724","4714.399999999965","<p>Well Done !</p><p>Prepare for a new block.</p><p>DON'T EXIT THE FULL SCREEN MODE</p><p>Press the Spacebar to start.</p>","","","32","","","","","","","","","","","","","","","true","132.7574306640691","","","","","","","","","","",""
"psychophysics","88","329774","0.0-10.0-0.0","5ee3be6ff942c407cd54e6ce","6368f2eea3e9634aebcc2f6b","636b5be824d2a709103eb724","156.59999999997672","","","","39","","","","key","16.66932857142861","768","373","true","1","180","30","0","-1","","","","","","","","","","","","","",""
"psychophysics","89","331058","0.0-10.0-0.1","5ee3be6ff942c407cd54e6ce","6368f2eea3e9634aebcc2f6b","636b5be824d2a709103eb724","281.29999999998836","","","","37","","","","key","16.666684210526384","768","373","true","-1","180","30","0","-1","-1","","","","","","","","","","","","",""
"psychophysics","90","332355","0.0-10.0-0.2","5ee3be6ff942c407cd54e6ce","6368f2eea3e9634aebcc2f6b","636b5be824d2a709103eb724","290.5","","","","39","","","","key","16.666779220779276","768","373","true","1","150","30","0","-1","-1","","","","","","","","","","","","",""
"psychophysics","91","335302","0.0-10.0-0.3","5ee3be6ff942c407cd54e6ce","6368f2eea3e9634aebcc2f6b","636b5be824d2a709103eb724","1940.8000000000466","","","","39","","","","key","16.666657142857023","768","373","true","-1","150","24","1","1","-1","","","","","","","","","","","","",""
"psychophysics","92","336674","0.0-10.0-0.4","5ee3be6ff942c407cd54e6ce","6368f2eea3e9634aebcc2f6b","636b5be824d2a709103eb724","369","","","","39","","","","key","16.666768292682786","768","373","true","1","174","24","1","-1","1","","","","","","","","","","","","",""
"psychophysics","93","338169","0.0-10.0-0.5","5ee3be6ff942c407cd54e6ce","6368f2eea3e9634aebcc2f6b","636b5be824d2a709103eb724","487.70000000001164","","","","37","","","","key","16.666681818181875","768","373","true","-1","174","19.2","2","-1","-1","","","","","","","","","","","","",""
"psychophysics","94","339772","0.0-10.0-0.6","5ee3be6ff942c407cd54e6ce","6368f2eea3e9634aebcc2f6b","636b5be824d2a709103eb724","600.7000000000116","","","","39","","","","key","16.666656250000113","768","373","true","1","154.8","19.2","2","-1","-1","","","","","","","","","","","","",""
"psychophysics","95","341333","0.0-10.0-0.7","5ee3be6ff942c407cd54e6ce","6368f2eea3e9634aebcc2f6b","636b5be824d2a709103eb724","556.3999999999651","","","","39","","","","key","16.66668478260829","768","373","true","1","154.8","19.2","2","-1","-1","","","","","","","","","","","","",""
"psychophysics","96","343316","0.0-10.0-0.8","5ee3be6ff942c407cd54e6ce","6368f2eea3e9634aebcc2f6b","636b5be824d2a709103eb724","978.2999999999884","","","","39","","","","key","16.666652542372702","768","373","true","1","135.60000000000002","19.2","2","-1","-1","","","","","","","","","","","","",""
"psychophysics","97","344778","0.0-10.0-0.9","5ee3be6ff942c407cd54e6ce","6368f2eea3e9634aebcc2f6b","636b5be824d2a709103eb724","458.29999999998836","","","","37","","","","key","16.666678160920085","768","373","true","-1","135.60000000000002","19.2","2","-1","-1","","","","","","","","","","","","",""
"psychophysics","98","347190","0.0-10.0-0.10","5ee3be6ff942c407cd54e6ce","6368f2eea3e9634aebcc2f6b","636b5be824d2a709103eb724","1405.399999999965","","","","37","","","","key","16.66670833333329","768","373","true","-1","129","19.2","2","-1","-1","","","","","","","","","","","","",""
"psychophysics","99","349254","0.0-10.0-0.11","5ee3be6ff942c407cd54e6ce","6368f2eea3e9634aebcc2f6b","636b5be824d2a709103eb724","1060.7000000000116","","","","39","","","","key","16.666680327869024","768","373","true","-1","129","15.36","3","1","-1","","","","","","","","","","","","",""
"psychophysics","100","350672","0.0-10.0-0.12","5ee3be6ff942c407cd54e6ce","6368f2eea3e9634aebcc2f6b","636b5be824d2a709103eb724","417.29999999998836","","","","37","","","","key","16.666658823529723","768","373","true","-1","144.36","15.36","3","-1","1","","","","","","","","","","","","",""
"psychophysics","101","352111","0.0-10.0-0.13","5ee3be6ff942c407cd54e6ce","6368f2eea3e9634aebcc2f6b","636b5be824d2a709103eb724","429.20000000001164","","","","37","","","","key","16.66681176470524","768","373","true","-1","144.36","12.287999999999998","4","-1","-1","","","","","","","","","","","","",""
"psychophysics","102","354320","0.0-10.0-0.14","5ee3be6ff942c407cd54e6ce","6368f2eea3e9634aebcc2f6b","636b5be824d2a709103eb724","1206.5999999999767","","","","39","","","","key","16.666694656488545","768","373","true","-1","132.072","9.8304","5","1","-1","","","","","","","","","","","","",""
"psychophysics","103","355760","0.0-10.0-0.15","5ee3be6ff942c407cd54e6ce","6368f2eea3e9634aebcc2f6b","636b5be824d2a709103eb724","438.9000000000233","","","","39","","","","key","16.66663953488311","768","373","true","1","141.9024","9.8304","5","-1","1","","","","","","","","","","","","",""
"psychophysics","104","357154","0.0-10.0-0.16","5ee3be6ff942c407cd54e6ce","6368f2eea3e9634aebcc2f6b","636b5be824d2a709103eb724","384.70000000001164","","","","39","","","","key","16.666634146341337","768","373","true","1","141.9024","7.864319999999999","6","-1","-1","","","","","","","","","","","","",""
"psychophysics","105","358674","0.0-10.0-0.17","5ee3be6ff942c407cd54e6ce","6368f2eea3e9634aebcc2f6b","636b5be824d2a709103eb724","519","","","","39","","","","key","16.666571428571384","768","373","true","1","134.03808","7.864319999999999","6","-1","-1","","","","","","","","","","","","",""
"psychophysics","106","360968","0.0-10.0-0.18","5ee3be6ff942c407cd54e6ce","6368f2eea3e9634aebcc2f6b","636b5be824d2a709103eb724","1286.899999999965","","","","39","","","","key","16.66663235294126","768","373","true","1","134.03808","7.864319999999999","6","-1","-1","","","","","","","","","","","","",""
"psychophysics","107","363331","0.0-10.0-0.19","5ee3be6ff942c407cd54e6ce","6368f2eea3e9634aebcc2f6b","636b5be824d2a709103eb724","1361.5","","","","37","","","","key","16.66665957446816","768","373","true","-1","129","7.864319999999999","6","-1","-1","","","","","","","","","","","","",""
"psychophysics","108","365690","0.0-10.0-0.20","5ee3be6ff942c407cd54e6ce","6368f2eea3e9634aebcc2f6b","636b5be824d2a709103eb724","1353.7000000000116","","","","39","","","","key","16.666723404255123","768","373","true","1","129","7.864319999999999","6","-1","-1","","","","","","","","","","","","",""
"psychophysics","109","367860","0.0-10.0-0.21","5ee3be6ff942c407cd54e6ce","6368f2eea3e9634aebcc2f6b","636b5be824d2a709103eb724","1162.7999999999884","","","","39","","","","key","16.666627906976707","768","373","true","-1","129","6.291456","7","1","-1","","","","","","","","","","","","",""
"psychophysics","110","369800","0.0-10.0-0.22","5ee3be6ff942c407cd54e6ce","6368f2eea3e9634aebcc2f6b","636b5be824d2a709103eb724","935","","","","37","","","","key","16.66658260869571","768","373","true","-1","135.291456","6.291456","7","-1","1","","","","","","","","","","","","",""
"psychophysics","111","371237","0.0-10.0-0.23","5ee3be6ff942c407cd54e6ce","6368f2eea3e9634aebcc2f6b","636b5be824d2a709103eb724","433","","","","37","","","","key","16.666670588234794","768","373","true","-1","135.291456","5.033164800000001","8","-1","-1","","","","","","","","","","","","",""
"psychophysics","112","374546","0.0-10.0-0.24","5ee3be6ff942c407cd54e6ce","6368f2eea3e9634aebcc2f6b","636b5be824d2a709103eb724","2306.5999999999767","","","","37","","","","key","16.666702020201935","768","373","true","-1","130.2582912","5.033164800000001","8","-1","-1","","","","","","","","","","","","",""
"psychophysics","113","376622","0.0-10.0-0.25","5ee3be6ff942c407cd54e6ce","6368f2eea3e9634aebcc2f6b","636b5be824d2a709103eb724","1069","","","","39","","","","key","16.666693548386966","768","373","true","-1","130.2582912","4.0265318400000005","9","1","-1","","","","","","","","","","","","",""
"psychophysics","114","378047","0.0-10.0-0.26","5ee3be6ff942c407cd54e6ce","6368f2eea3e9634aebcc2f6b","636b5be824d2a709103eb724","421.79999999998836","","","","39","","","","key","16.66676190476227","768","373","true","1","134.28482304","4.0265318400000005","9","-1","1","","","","","","","","","","","","",""
"psychophysics","115","379490","0.0-10.0-0.27","5ee3be6ff942c407cd54e6ce","6368f2eea3e9634aebcc2f6b","636b5be824d2a709103eb724","441.19999999995343","","","","37","","","","key","16.66668604651187","768","373","true","-1","134.28482304","3.2212254720000004","10","-1","-1","","","","","","","","","","","","",""
"psychophysics","116","381094","0.0-10.0-0.28","5ee3be6ff942c407cd54e6ce","6368f2eea3e9634aebcc2f6b","636b5be824d2a709103eb724","597.1000000000349","","","","37","","","","key","16.666673684210245","768","373","true","-1","131.06359756799998","3.2212254720000004","10","-1","-1","","","","","","","","","","","","",""
"psychophysics","117","383376","0.0-10.0-0.29","5ee3be6ff942c407cd54e6ce","6368f2eea3e9634aebcc2f6b","636b5be824d2a709103eb724","1279.4000000000233","","","","37","","","","key","16.66666176470565","768","373","true","1","131.06359756799998","2.5769803776000004","11","1","-1","","","","","","","","","","","","",""
"psychophysics","118","384887","0.0-10.0-0.30","5ee3be6ff942c407cd54e6ce","6368f2eea3e9634aebcc2f6b","636b5be824d2a709103eb724","501.9000000000233","","","","39","","","","key","16.666741573033995","768","373","true","1","133.64057794559997","2.5769803776000004","11","-1","1","","","","","","","","","","","","",""
"psychophysics","119","386345","0.0-10.0-0.31","5ee3be6ff942c407cd54e6ce","6368f2eea3e9634aebcc2f6b","636b5be824d2a709103eb724","448.4000000000233","","","","37","","","","key","16.666574712643325","768","373","true","-1","133.64057794559997","2.0615843020800004","12","-1","-1","","","","","","","","","","","","",""
"psychophysics","120","388582","0.0-10.0-0.32","5ee3be6ff942c407cd54e6ce","6368f2eea3e9634aebcc2f6b","636b5be824d2a709103eb724","1228.8000000000466","","","","37","","","","key","16.666654135338188","768","373","true","-1","131.57899364351996","2.0615843020800004","12","-1","-1","","","","","","","","","","","","",""
"psychophysics","121","391335","0.0-10.0-0.33","5ee3be6ff942c407cd54e6ce","6368f2eea3e9634aebcc2f6b","636b5be824d2a709103eb724","1750.0999999999767","","","","39","","","","key","16.66669512195115","768","373","true","1","131.57899364351996","2.0615843020800004","12","-1","-1","","","","","","","","","","","","",""
"psychophysics","122","393688","0.0-10.0-0.34","5ee3be6ff942c407cd54e6ce","6368f2eea3e9634aebcc2f6b","636b5be824d2a709103eb724","1350.5","","","","37","","","","key","16.666628571428426","768","373","true","1","129.51740934143996","1.6492674416640005","13","1","-1","","","","","","","","","","","","",""
"psychophysics","123","395778","0.0-10.0-0.35","5ee3be6ff942c407cd54e6ce","6368f2eea3e9634aebcc2f6b","636b5be824d2a709103eb724","1088.899999999965","","","","37","","","","key","16.666648000000045","768","373","true","1","131.16667678310395","1.6492674416640005","13","1","1","","","","","","","","","","","","",""
"psychophysics","124","397272","0.0-10.0-0.36","5ee3be6ff942c407cd54e6ce","6368f2eea3e9634aebcc2f6b","636b5be824d2a709103eb724","486.70000000001164","","","","37","","","","key","16.666606741572803","768","373","true","1","132.81594422476795","1.6492674416640005","13","1","1","","","","","","","","","","","","",""
"psychophysics","125","400141","0.0-10.0-0.37","5ee3be6ff942c407cd54e6ce","6368f2eea3e9634aebcc2f6b","636b5be824d2a709103eb724","1859.5","","","","37","","","","key","16.66671929824573","768","373","true","-1","134.46521166643194","1.6492674416640005","13","-1","1","","","","","","","","","","","","",""
"psychophysics","126","403081","0.0-10.0-0.38","5ee3be6ff942c407cd54e6ce","6368f2eea3e9634aebcc2f6b","636b5be824d2a709103eb724","1936","","","","37","","","","key","16.666674285714315","768","373","true","1","134.46521166643194","1.3194139533312006","14","1","-1","","","","","","","","","","","","",""
"psychophysics","127","404469","0.0-10.0-0.39","5ee3be6ff942c407cd54e6ce","6368f2eea3e9634aebcc2f6b","636b5be824d2a709103eb724","382.20000000001164","","","","39","","","","key","16.666560975609706","768","373","true","1","135.78462561976315","1.3194139533312006","14","-1","1","","","","","","","","","","","","",""
"html-keyboard-response","128","445434","0.0-11.0","5ee3be6ff942c407cd54e6ce","6368f2eea3e9634aebcc2f6b","636b5be824d2a709103eb724","40963.399999999965","<p>Well Done !</p><p>Prepare for a new block.</p><p>DON'T EXIT THE FULL SCREEN MODE</p><p>Press the Spacebar to start.</p>","","","32","","","","","","","","","","","","","","","true","132.64062365974524","","","","","","","","","","",""
"psychophysics","129","446771","0.0-12.0-0.0","5ee3be6ff942c407cd54e6ce","6368f2eea3e9634aebcc2f6b","636b5be824d2a709103eb724","333.20000000001164","","","","39","","","","key","16.68738749999975","768","373","true","1","180","30","0","-1","","","","","","","","","","","","","",""
"psychophysics","130","448178","0.0-12.0-0.1","5ee3be6ff942c407cd54e6ce","6368f2eea3e9634aebcc2f6b","636b5be824d2a709103eb724","400.8999999999651","","","","37","","","","key","16.666590361445664","768","373","true","-1","180","30","0","-1","-1","","","","","","","","","","","","",""
"psychophysics","131","449518","0.0-12.0-0.2","5ee3be6ff942c407cd54e6ce","6368f2eea3e9634aebcc2f6b","636b5be824d2a709103eb724","332.79999999998836","","","","37","","","","key","16.666772151898588","768","373","true","-1","150","30","0","-1","-1","","","","","","","","","","","","",""
"psychophysics","132","450842","0.0-12.0-0.3","5ee3be6ff942c407cd54e6ce","6368f2eea3e9634aebcc2f6b","636b5be824d2a709103eb724","320.19999999995343","","","","37","","","","key","16.666721518987735","768","373","true","-1","150","30","0","-1","-1","","","","","","","","","","","","",""
"psychophysics","133","453273","0.0-12.0-0.4","5ee3be6ff942c407cd54e6ce","6368f2eea3e9634aebcc2f6b","636b5be824d2a709103eb724","1423.7000000000116","","","","37","","","","key","16.66666896551735","768","373","true","-1","129","30","0","-1","-1","","","","","","","","","","","","",""
"psychophysics","134","455089","0.0-12.0-0.5","5ee3be6ff942c407cd54e6ce","6368f2eea3e9634aebcc2f6b","636b5be824d2a709103eb724","807.6000000000349","","","","37","","","","key","16.66665740740697","768","373","true","1","129","24","1","1","-1","","","","","","","","","","","","",""
"psychophysics","135","456483","0.0-12.0-0.6","5ee3be6ff942c407cd54e6ce","6368f2eea3e9634aebcc2f6b","636b5be824d2a709103eb724","386.5999999999767","","","","39","","","","key","16.666707317073683","768","373","true","1","153","24","1","-1","1","","","","","","","","","","","","",""
"psychophysics","136","457827","0.0-12.0-0.7","5ee3be6ff942c407cd54e6ce","6368f2eea3e9634aebcc2f6b","636b5be824d2a709103eb724","338.1000000000349","","","","39","","","","key","16.666674999999668","768","373","true","1","153","19.2","2","-1","-1","","","","","","","","","","","","",""
"psychophysics","137","459167","0.0-12.0-0.8","5ee3be6ff942c407cd54e6ce","6368f2eea3e9634aebcc2f6b","636b5be824d2a709103eb724","334.0999999999767","","","","39","","","","key","16.666620253164563","768","373","true","1","133.8","19.2","2","-1","-1","","","","","","","","","","","","",""
"psychophysics","138","460501","0.0-12.0-0.9","5ee3be6ff942c407cd54e6ce","6368f2eea3e9634aebcc2f6b","636b5be824d2a709103eb724","331.70000000001164","","","","39","","","","key","16.666696202531575","768","373","true","1","133.8","19.2","2","-1","-1","","","","","","","","","","","","",""
"psychophysics","139","462191","0.0-12.0-0.10","5ee3be6ff942c407cd54e6ce","6368f2eea3e9634aebcc2f6b","636b5be824d2a709103eb724","688","","","","39","","","","key","16.666732673267582","768","373","true","1","129","19.2","2","-1","-1","","","","","","","","","","","","",""
"psychophysics","140","464037","0.0-12.0-0.11","5ee3be6ff942c407cd54e6ce","6368f2eea3e9634aebcc2f6b","636b5be824d2a709103eb724","843.7999999999884","","","","37","","","","key","16.66666055045896","768","373","true","1","129","15.36","3","1","-1","","","","","","","","","","","","",""
"psychophysics","141","465374","0.0-12.0-0.12","5ee3be6ff942c407cd54e6ce","6368f2eea3e9634aebcc2f6b","636b5be824d2a709103eb724","336.29999999998836","","","","37","","","","key","16.666674999999668","768","373","true","-1","144.36","15.36","3","-1","1","","","","","","","","","","","","",""
"psychophysics","142","466806","0.0-12.0-0.13","5ee3be6ff942c407cd54e6ce","6368f2eea3e9634aebcc2f6b","636b5be824d2a709103eb724","429.10000000009313","","","","37","","","","key","16.666682352941237","768","373","true","-1","144.36","12.287999999999998","4","-1","-1","","","","","","","","","","","","",""
"psychophysics","143","468231","0.0-12.0-0.14","5ee3be6ff942c407cd54e6ce","6368f2eea3e9634aebcc2f6b","636b5be824d2a709103eb724","422.20000000006985","","","","37","","","","key","16.66660714285709","768","373","true","-1","132.072","12.287999999999998","4","-1","-1","","","","","","","","","","","","",""
"psychophysics","144","470529","0.0-12.0-0.15","5ee3be6ff942c407cd54e6ce","6368f2eea3e9634aebcc2f6b","636b5be824d2a709103eb724","1295.7999999999302","","","","37","","","","key","16.666744525547745","768","373","true","1","132.072","9.8304","5","1","-1","","","","","","","","","","","","",""
"psychophysics","145","471922","0.0-12.0-0.16","5ee3be6ff942c407cd54e6ce","6368f2eea3e9634aebcc2f6b","636b5be824d2a709103eb724","385.5999999999767","","","","39","","","","key","16.666626506024294","768","373","true","1","141.9024","9.8304","5","-1","1","","","","","","","","","","","","",""
"psychophysics","146","473326","0.0-12.0-0.17","5ee3be6ff942c407cd54e6ce","6368f2eea3e9634aebcc2f6b","636b5be824d2a709103eb724","396.80000000004657","","","","37","","","","key","16.66660240963831","768","373","true","-1","141.9024","7.864319999999999","6","-1","-1","","","","","","","","","","","","",""
"psychophysics","147","474675","0.0-12.0-0.18","5ee3be6ff942c407cd54e6ce","6368f2eea3e9634aebcc2f6b","636b5be824d2a709103eb724","345.9000000000233","","","","39","","","","key","16.666587499999878","768","373","true","1","134.03808","7.864319999999999","6","-1","-1","","","","","","","","","","","","",""
"psychophysics","148","476022","0.0-12.0-0.19","5ee3be6ff942c407cd54e6ce","6368f2eea3e9634aebcc2f6b","636b5be824d2a709103eb724","341.19999999995343","","","","37","","","","key","16.666762500000186","768","373","true","-1","134.03808","7.864319999999999","6","-1","-1","","","","","","","","","","","","",""
"psychophysics","149","477838","0.0-12.0-0.20","5ee3be6ff942c407cd54e6ce","6368f2eea3e9634aebcc2f6b","636b5be824d2a709103eb724","813.1000000000931","","","","39","","","","key","16.66657407407453","768","373","true","-1","129","6.291456","7","1","-1","","","","","","","","","","","","",""
"psychophysics","150","479252","0.0-12.0-0.21","5ee3be6ff942c407cd54e6ce","6368f2eea3e9634aebcc2f6b","636b5be824d2a709103eb724","411.5","","","","39","","","","key","16.66665060241028","768","373","true","1","135.291456","6.291456","7","-1","1","","","","","","","","","","","","",""
"psychophysics","151","480637","0.0-12.0-0.22","5ee3be6ff942c407cd54e6ce","6368f2eea3e9634aebcc2f6b","636b5be824d2a709103eb724","382.5999999999767","","","","39","","","","key","16.66667073170751","768","373","true","1","135.291456","5.033164800000001","8","-1","-1","","","","","","","","","","","","",""
"psychophysics","152","482739","0.0-12.0-0.23","5ee3be6ff942c407cd54e6ce","6368f2eea3e9634aebcc2f6b","636b5be824d2a709103eb724","1100.4000000000233","","","","37","","","","key","16.666690476190222","768","373","true","1","130.2582912","4.0265318400000005","9","1","-1","","","","","","","","","","","","",""
"psychophysics","153","483880","0.0-12.0-0.24","5ee3be6ff942c407cd54e6ce","6368f2eea3e9634aebcc2f6b","636b5be824d2a709103eb724","135.20000000006985","","","","37","","","","key","16.66665671641744","768","373","true","-1","134.28482304","4.0265318400000005","9","-1","1","","","","","","","","","","","","",""
"psychophysics","154","485137","0.0-12.0-0.25","5ee3be6ff942c407cd54e6ce","6368f2eea3e9634aebcc2f6b","636b5be824d2a709103eb724","249.80000000004657","","","","37","","","","key","16.66666216216195","768","373","true","-1","134.28482304","3.2212254720000004","10","-1","-1","","","","","","","","","","","","",""
"psychophysics","155","486849","0.0-12.0-0.26","5ee3be6ff942c407cd54e6ce","6368f2eea3e9634aebcc2f6b","636b5be824d2a709103eb724","710","","","","39","","","","key","16.66664705882317","768","373","true","1","131.06359756799998","3.2212254720000004","10","-1","-1","","","","","","","","","","","","",""
"psychophysics","156","489041","0.0-12.0-0.27","5ee3be6ff942c407cd54e6ce","6368f2eea3e9634aebcc2f6b","636b5be824d2a709103eb724","1186.9000000000233","","","","37","","","","key","16.66667175572543","768","373","true","-1","131.06359756799998","3.2212254720000004","10","-1","-1","","","","","","","","","","","","",""
"psychophysics","157","491714","0.0-12.0-0.28","5ee3be6ff942c407cd54e6ce","6368f2eea3e9634aebcc2f6b","636b5be824d2a709103eb724","1664.7999999999302","","","","37","","","","key","16.66662264150954","768","373","true","1","129","2.5769803776000004","11","1","-1","","","","","","","","","","","","",""
"psychophysics","158","493784","0.0-12.0-0.29","5ee3be6ff942c407cd54e6ce","6368f2eea3e9634aebcc2f6b","636b5be824d2a709103eb724","1064.1999999999534","","","","37","","","","key","16.666609756097696","768","373","true","1","131.5769803776","2.5769803776000004","11","1","1","","","","","","","","","","","","",""
"psychophysics","159","495635","0.0-12.0-0.30","5ee3be6ff942c407cd54e6ce","6368f2eea3e9634aebcc2f6b","636b5be824d2a709103eb724","845.9000000000233","","","","37","","","","key","16.666727272727506","768","373","true","-1","134.1539607552","2.5769803776000004","11","-1","1","","","","","","","","","","","","",""
"psychophysics","160","497117","0.0-12.0-0.31","5ee3be6ff942c407cd54e6ce","6368f2eea3e9634aebcc2f6b","636b5be824d2a709103eb724","480.5999999999767","","","","37","","","","key","16.666636363636908","768","373","true","-1","134.1539607552","2.0615843020800004","12","-1","-1","","","","","","","","","","","","",""
"psychophysics","161","498940","0.0-12.0-0.32","5ee3be6ff942c407cd54e6ce","6368f2eea3e9634aebcc2f6b","636b5be824d2a709103eb724","818.7999999999302","","","","39","","","","key","16.66663302752294","768","373","true","-1","132.09237645311998","1.6492674416640005","13","1","-1","","","","","","","","","","","","",""
"psychophysics","162","500907","0.0-12.0-0.33","5ee3be6ff942c407cd54e6ce","6368f2eea3e9634aebcc2f6b","636b5be824d2a709103eb724","962.3999999999069","","","","39","","","","key","16.666752136751718","768","373","true","1","133.74164389478398","1.6492674416640005","13","-1","1","","","","","","","","","","","","",""
"psychophysics","163","502461","0.0-12.0-0.34","5ee3be6ff942c407cd54e6ce","6368f2eea3e9634aebcc2f6b","636b5be824d2a709103eb724","547.8999999999069","","","","39","","","","key","16.66667391304319","768","373","true","1","133.74164389478398","1.3194139533312006","14","-1","-1","","","","","","","","","","","","",""
"psychophysics","164","504605","0.0-12.0-0.35","5ee3be6ff942c407cd54e6ce","6368f2eea3e9634aebcc2f6b","636b5be824d2a709103eb724","1139.5999999999767","","","","39","","","","key","16.66665624999996","768","373","true","1","132.42222994145277","1.3194139533312006","14","-1","-1","","","","","","","","","","","","",""
"psychophysics","165","506399","0.0-12.0-0.36","5ee3be6ff942c407cd54e6ce","6368f2eea3e9634aebcc2f6b","636b5be824d2a709103eb724","790.2000000000698","","","","37","","","","key","16.66670754716956","768","373","true","-1","132.42222994145277","1.3194139533312006","14","-1","-1","","","","","","","","","","","","",""
"psychophysics","166","508235","0.0-12.0-0.37","5ee3be6ff942c407cd54e6ce","6368f2eea3e9634aebcc2f6b","636b5be824d2a709103eb724","834","","","","39","","","","key","16.666706422018102","768","373","true","-1","131.10281598812156","1.0555311626649604","15","1","-1","","","","","","","","","","","","",""
"psychophysics","167","510842","0.0-12.0-0.38","5ee3be6ff942c407cd54e6ce","6368f2eea3e9634aebcc2f6b","636b5be824d2a709103eb724","1604.1999999999534","","","","39","","","","key","16.666608974358844","768","373","true","-1","132.1583471507865","1.0555311626649604","15","1","1","","","","","","","","","","","","",""
"psychophysics","168","512466","0.0-12.0-0.39","5ee3be6ff942c407cd54e6ce","6368f2eea3e9634aebcc2f6b","636b5be824d2a709103eb724","617.3000000000466","","","","39","","","","key","16.666593749999567","768","373","true","-1","133.21387831345146","1.0555311626649604","15","1","1","","","","","","","","","","","","",""
"html-keyboard-response","169","515184","0.0-13.0","5ee3be6ff942c407cd54e6ce","6368f2eea3e9634aebcc2f6b","636b5be824d2a709103eb724","2716.5","<p>Well Done !</p><p>Prepare for a new block.</p><p>DON'T EXIT THE FULL SCREEN MODE</p><p>Press the Spacebar to start.</p>","","","32","","","","","","","","","","","","","","","true","132.41280570946353","","","","","","","","","","",""
"html-keyboard-response","170","515290","0.0-14.0","5ee3be6ff942c407cd54e6ce","6368f2eea3e9634aebcc2f6b","636b5be824d2a709103eb724","null","","","","null","","","","","","","","","","","","","","","","","133.20914328095944","true","138.41828656191888","","","","","","","",""
"instructions","171","556288","0.0-15.0","5ee3be6ff942c407cd54e6ce","6368f2eea3e9634aebcc2f6b","636b5be824d2a709103eb724","40997.90000000008","","","","","","","[{""page_index"":0,""viewing_time"":26738.90000000008},{""page_index"":1,""viewing_time"":6475.5},{""page_index"":2,""viewing_time"":7782.900000000023}]","","","","","","","","","","","","","","","","","","","","","","","",""
"psychophysics","172","559304","0.0-16.0-0.0","5ee3be6ff942c407cd54e6ce","6368f2eea3e9634aebcc2f6b","636b5be824d2a709103eb724","null","","","","null","","","","key","16.66811666666569","768","373","","","","","","","","","","","","","","","","","","","",""
"psychophysics","173","559806","0.0-16.0-1.0","5ee3be6ff942c407cd54e6ce","6368f2eea3e9634aebcc2f6b","636b5be824d2a709103eb724","null","","","","null","","","","key","16.666666666666668","768","373","","","","","","","","","","","","","138","1","5","false","","","",""
"psychophysics","174","561868","0.0-16.0-2.0","5ee3be6ff942c407cd54e6ce","6368f2eea3e9634aebcc2f6b","636b5be824d2a709103eb724","2061.5","","","","77","","","","key","16.6666639344261","768","373","","","","","","","","","","","","","","","","","","","",""
"psychophysics","175","562871","0.0-16.0-0.1","5ee3be6ff942c407cd54e6ce","6368f2eea3e9634aebcc2f6b","636b5be824d2a709103eb724","null","","","","null","","","","key","16.666783333333054","768","373","","","","","","","","","","","","","","","","","","","",""
"psychophysics","176","563377","0.0-16.0-1.1","5ee3be6ff942c407cd54e6ce","6368f2eea3e9634aebcc2f6b","636b5be824d2a709103eb724","null","","","","null","","","","key","16.666275862070474","768","373","","","","","","","","","","","","","138","1","6","false","","","",""
"psychophysics","177","564228","0.0-16.0-2.1","5ee3be6ff942c407cd54e6ce","6368f2eea3e9634aebcc2f6b","636b5be824d2a709103eb724","850.5","","","","77","","","","key","16.666659999999684","768","373","","","","","","","","","","","","","","","","","","","",""
"psychophysics","178","565233","0.0-16.0-0.2","5ee3be6ff942c407cd54e6ce","6368f2eea3e9634aebcc2f6b","636b5be824d2a709103eb724","null","","","","null","","","","key","16.666576271186095","768","373","","","","","","","","","","","","","","","","","","","",""
"psychophysics","179","565737","0.0-16.0-1.2","5ee3be6ff942c407cd54e6ce","6368f2eea3e9634aebcc2f6b","636b5be824d2a709103eb724","null","","","","null","","","","key","16.666827586206512","768","373","","","","","","","","","","","","","138","-1","0","false","","","",""
"psychophysics","180","566263","0.0-16.0-2.2","5ee3be6ff942c407cd54e6ce","6368f2eea3e9634aebcc2f6b","636b5be824d2a709103eb724","523.8000000000466","","","","90","","","","key","16.666548387094913","768","373","","","","","","","","","","","","","","","","","","","",""
"psychophysics","181","567265","0.0-16.0-0.3","5ee3be6ff942c407cd54e6ce","6368f2eea3e9634aebcc2f6b","636b5be824d2a709103eb724","null","","","","null","","","","key","16.66654237288137","768","373","","","","","","","","","","","","","","","","","","","",""
"psychophysics","182","567769","0.0-16.0-1.3","5ee3be6ff942c407cd54e6ce","6368f2eea3e9634aebcc2f6b","636b5be824d2a709103eb724","null","","","","null","","","","key","16.666620689657","768","373","","","","","","","","","","","","","138","-1","2","false","","","",""
"psychophysics","183","568263","0.0-16.0-2.3","5ee3be6ff942c407cd54e6ce","6368f2eea3e9634aebcc2f6b","636b5be824d2a709103eb724","480.79999999993015","","","","90","","","","key","16.667034482760034","768","373","","","","","","","","","","","","","","","","","","","",""
"psychophysics","184","569265","0.0-16.0-0.4","5ee3be6ff942c407cd54e6ce","6368f2eea3e9634aebcc2f6b","636b5be824d2a709103eb724","null","","","","null","","","","key","16.666762711865022","768","373","","","","","","","","","","","","","","","","","","","",""
"psychophysics","185","569769","0.0-16.0-1.4","5ee3be6ff942c407cd54e6ce","6368f2eea3e9634aebcc2f6b","636b5be824d2a709103eb724","null","","","","null","","","","key","16.66672413792975","768","373","","","","","","","","","","","","","138","-1","4","false","","","",""
"psychophysics","186","570174","0.0-16.0-2.4","5ee3be6ff942c407cd54e6ce","6368f2eea3e9634aebcc2f6b","636b5be824d2a709103eb724","401.5","","","","77","","","","key","16.666958333332634","768","373","","","","","","","","","","","","","","","","","","","",""
"psychophysics","187","571177","0.0-16.0-0.5","5ee3be6ff942c407cd54e6ce","6368f2eea3e9634aebcc2f6b","636b5be824d2a709103eb724","null","","","","null","","","","key","16.666644067795538","768","373","","","","","","","","","","","","","","","","","","","",""
"psychophysics","188","571681","0.0-16.0-1.5","5ee3be6ff942c407cd54e6ce","6368f2eea3e9634aebcc2f6b","636b5be824d2a709103eb724","null","","","","null","","","","key","16.666655172413247","768","373","","","","","","","","","","","","","138","-1","3","false","","","",""
"psychophysics","189","571916","0.0-16.0-2.5","5ee3be6ff942c407cd54e6ce","6368f2eea3e9634aebcc2f6b","636b5be824d2a709103eb724","232.5","","","","90","","","","key","16.666000000004153","768","373","","","","","","","","","","","","","","","","","","","",""
"psychophysics","190","572922","0.0-16.0-0.6","5ee3be6ff942c407cd54e6ce","6368f2eea3e9634aebcc2f6b","636b5be824d2a709103eb724","null","","","","null","","","","key","16.666666666666668","768","373","","","","","","","","","","","","","","","","","","","",""
"psychophysics","191","573425","0.0-16.0-1.6","5ee3be6ff942c407cd54e6ce","6368f2eea3e9634aebcc2f6b","636b5be824d2a709103eb724","null","","","","null","","","","key","16.66651724138024","768","373","","","","","","","","","","","","","138","-1","6","false","","","",""
"psychophysics","192","573794","0.0-16.0-2.6","5ee3be6ff942c407cd54e6ce","6368f2eea3e9634aebcc2f6b","636b5be824d2a709103eb724","367.69999999995343","","","","77","","","","key","16.666428571428348","768","373","","","","","","","","","","","","","","","","","","","",""
"psychophysics","193","574801","0.0-16.0-0.7","5ee3be6ff942c407cd54e6ce","6368f2eea3e9634aebcc2f6b","636b5be824d2a709103eb724","null","","","","null","","","","key","16.666881355930563","768","373","","","","","","","","","","","","","","","","","","","",""
"psychophysics","194","575304","0.0-16.0-1.7","5ee3be6ff942c407cd54e6ce","6368f2eea3e9634aebcc2f6b","636b5be824d2a709103eb724","null","","","","null","","","","key","16.666499999999846","768","373","","","","","","","","","","","","","138","1","2","false","","","",""
"psychophysics","195","575709","0.0-16.0-2.7","5ee3be6ff942c407cd54e6ce","6368f2eea3e9634aebcc2f6b","636b5be824d2a709103eb724","404","","","","90","","","","key","16.666652173917416","768","373","","","","","","","","","","","","","","","","","","","",""
"psychophysics","196","576713","0.0-16.0-0.8","5ee3be6ff942c407cd54e6ce","6368f2eea3e9634aebcc2f6b","636b5be824d2a709103eb724","null","","","","null","","","","key","16.666694915253604","768","373","","","","","","","","","","","","","","","","","","","",""
"psychophysics","197","577217","0.0-16.0-1.8","5ee3be6ff942c407cd54e6ce","6368f2eea3e9634aebcc2f6b","636b5be824d2a709103eb724","null","","","","null","","","","key","16.66634482758698","768","373","","","","","","","","","","","","","138","1","4","false","","","",""
"psychophysics","198","577714","0.0-16.0-2.8","5ee3be6ff942c407cd54e6ce","6368f2eea3e9634aebcc2f6b","636b5be824d2a709103eb724","496","","","","77","","","","key","16.66665517241726","768","373","","","","","","","","","","","","","","","","","","","",""
"psychophysics","199","578721","0.0-16.0-0.9","5ee3be6ff942c407cd54e6ce","6368f2eea3e9634aebcc2f6b","636b5be824d2a709103eb724","null","","","","null","","","","key","16.666666666666668","768","373","","","","","","","","","","","","","","","","","","","",""
"psychophysics","200","579225","0.0-16.0-1.9","5ee3be6ff942c407cd54e6ce","6368f2eea3e9634aebcc2f6b","636b5be824d2a709103eb724","null","","","","null","","","","key","16.66672413792975","768","373","","","","","","","","","","","","","138","1","3","false","","","",""
"psychophysics","201","579712","0.0-16.0-2.9","5ee3be6ff942c407cd54e6ce","6368f2eea3e9634aebcc2f6b","636b5be824d2a709103eb724","486.0999999999767","","","","90","","","","key","16.6667499999998","768","373","","","","","","","","","","","","","","","","","","","",""
"psychophysics","202","580720","0.0-16.0-0.10","5ee3be6ff942c407cd54e6ce","6368f2eea3e9634aebcc2f6b","636b5be824d2a709103eb724","null","","","","null","","","","key","16.66667796610026","768","373","","","","","","","","","","","","","","","","","","","",""
"psychophysics","203","581221","0.0-16.0-1.10","5ee3be6ff942c407cd54e6ce","6368f2eea3e9634aebcc2f6b","636b5be824d2a709103eb724","null","","","","null","","","","key","16.666566666665798","768","373","","","","","","","","","","","","","138","-1","5","false","","","",""
"psychophysics","204","581795","0.0-16.0-2.10","5ee3be6ff942c407cd54e6ce","6368f2eea3e9634aebcc2f6b","636b5be824d2a709103eb724","573","","","","77","","","","key","16.666939393938236","768","373","","","","","","","","","","","","","","","","","","","",""
"psychophysics","205","582801","0.0-16.0-0.11","5ee3be6ff942c407cd54e6ce","6368f2eea3e9634aebcc2f6b","636b5be824d2a709103eb724","null","","","","null","","","","key","16.666610169490816","768","373","","","","","","","","","","","","","","","","","","","",""
"psychophysics","206","583304","0.0-16.0-1.11","5ee3be6ff942c407cd54e6ce","6368f2eea3e9634aebcc2f6b","636b5be824d2a709103eb724","null","","","","null","","","","key","16.666766666667534","768","373","","","","","","","","","","","","","138","1","0","false","","","",""
"psychophysics","207","583995","0.0-16.0-2.11","5ee3be6ff942c407cd54e6ce","6368f2eea3e9634aebcc2f6b","636b5be824d2a709103eb724","688.4000000000233","","","","90","","","","key","16.66672499999986","768","373","","","","","","","","","","","","","","","","","","","",""
"psychophysics","208","585002","0.0-16.0-0.12","5ee3be6ff942c407cd54e6ce","6368f2eea3e9634aebcc2f6b","636b5be824d2a709103eb724","null","","","","null","","","","key","16.666610169492788","768","373","","","","","","","","","","","","","","","","","","","",""
"psychophysics","209","585506","0.0-16.0-1.12","5ee3be6ff942c407cd54e6ce","6368f2eea3e9634aebcc2f6b","636b5be824d2a709103eb724","null","","","","null","","","","key","16.66673333333262","768","373","","","","","","","","","","","","","138","1","5","false","","","",""
"psychophysics","210","585981","0.0-16.0-2.12","5ee3be6ff942c407cd54e6ce","6368f2eea3e9634aebcc2f6b","636b5be824d2a709103eb724","473.0999999999767","","","","77","","","","key","16.666666666666668","768","373","","","","","","","","","","","","","","","","","","","",""
"psychophysics","211","586985","0.0-16.0-0.13","5ee3be6ff942c407cd54e6ce","6368f2eea3e9634aebcc2f6b","636b5be824d2a709103eb724","null","","","","null","","","","key","16.66667796610223","768","373","","","","","","","","","","","","","","","","","","","",""
"psychophysics","212","587488","0.0-16.0-1.13","5ee3be6ff942c407cd54e6ce","6368f2eea3e9634aebcc2f6b","636b5be824d2a709103eb724","null","","","","null","","","","key","16.666566666665798","768","373","","","","","","","","","","","","","138","-1","3","false","","","",""
"psychophysics","213","587923","0.0-16.0-2.13","5ee3be6ff942c407cd54e6ce","6368f2eea3e9634aebcc2f6b","636b5be824d2a709103eb724","434.4000000000233","","","","90","","","","key","16.66660000000149","768","373","","","","","","","","","","","","","","","","","","","",""
"psychophysics","214","588929","0.0-16.0-0.14","5ee3be6ff942c407cd54e6ce","6368f2eea3e9634aebcc2f6b","636b5be824d2a709103eb724","null","","","","null","","","","key","16.666796610169744","768","373","","","","","","","","","","","","","","","","","","","",""
"psychophysics","215","589433","0.0-16.0-1.14","5ee3be6ff942c407cd54e6ce","6368f2eea3e9634aebcc2f6b","636b5be824d2a709103eb724","null","","","","null","","","","key","16.6665517241405","768","373","","","","","","","","","","","","","138","-1","5","false","","","",""
"psychophysics","216","589728","0.0-16.0-2.14","5ee3be6ff942c407cd54e6ce","6368f2eea3e9634aebcc2f6b","636b5be824d2a709103eb724","293.4000000000233","","","","77","","","","key","16.666529411765033","768","373","","","","","","","","","","","","","","","","","","","",""
"psychophysics","217","590729","0.0-16.0-0.15","5ee3be6ff942c407cd54e6ce","6368f2eea3e9634aebcc2f6b","636b5be824d2a709103eb724","null","","","","null","","","","key","16.66667796610223","768","373","","","","","","","","","","","","","","","","","","","",""
"psychophysics","218","591233","0.0-16.0-1.15","5ee3be6ff942c407cd54e6ce","6368f2eea3e9634aebcc2f6b","636b5be824d2a709103eb724","null","","","","null","","","","key","16.666655172413247","768","373","","","","","","","","","","","","","138","1","0","false","","","",""
"psychophysics","219","591659","0.0-16.0-2.15","5ee3be6ff942c407cd54e6ce","6368f2eea3e9634aebcc2f6b","636b5be824d2a709103eb724","424","","","","77","","","","key","16.667000000001863","768","373","","","","","","","","","","","","","","","","","","","",""
"psychophysics","220","592665","0.0-16.0-0.16","5ee3be6ff942c407cd54e6ce","6368f2eea3e9634aebcc2f6b","636b5be824d2a709103eb724","null","","","","null","","","","key","16.666745762711674","768","373","","","","","","","","","","","","","","","","","","","",""
"psychophysics","221","593169","0.0-16.0-1.16","5ee3be6ff942c407cd54e6ce","6368f2eea3e9634aebcc2f6b","636b5be824d2a709103eb724","null","","","","null","","","","key","16.666655172413247","768","373","","","","","","","","","","","","","138","1","4","false","","","",""
"psychophysics","222","593332","0.0-16.0-2.16","5ee3be6ff942c407cd54e6ce","6368f2eea3e9634aebcc2f6b","636b5be824d2a709103eb724","162","","","","77","","","","key","16.66744444444258","768","373","","","","","","","","","","","","","","","","","","","",""
"psychophysics","223","594338","0.0-16.0-0.17","5ee3be6ff942c407cd54e6ce","6368f2eea3e9634aebcc2f6b","636b5be824d2a709103eb724","null","","","","null","","","","key","16.666583333333257","768","373","","","","","","","","","","","","","","","","","","","",""
"psychophysics","224","594841","0.0-16.0-1.17","5ee3be6ff942c407cd54e6ce","6368f2eea3e9634aebcc2f6b","636b5be824d2a709103eb724","null","","","","null","","","","key","16.666999999999774","768","373","","","","","","","","","","","","","138","1","6","false","","","",""
"psychophysics","225","595135","0.0-16.0-2.17","5ee3be6ff942c407cd54e6ce","6368f2eea3e9634aebcc2f6b","636b5be824d2a709103eb724","293.39999999990687","","","","77","","","","key","16.666874999995343","768","373","","","","","","","","","","","","","","","","","","","",""
"psychophysics","226","596138","0.0-16.0-0.18","5ee3be6ff942c407cd54e6ce","6368f2eea3e9634aebcc2f6b","636b5be824d2a709103eb724","null","","","","null","","","","key","16.66683333333349","768","373","","","","","","","","","","","","","","","","","","","",""
"psychophysics","227","596641","0.0-16.0-1.18","5ee3be6ff942c407cd54e6ce","6368f2eea3e9634aebcc2f6b","636b5be824d2a709103eb724","null","","","","null","","","","key","16.66637931034322","768","373","","","","","","","","","","","","","138","1","2","false","","","",""
"psychophysics","228","597032","0.0-16.0-2.18","5ee3be6ff942c407cd54e6ce","6368f2eea3e9634aebcc2f6b","636b5be824d2a709103eb724","389.30000000004657","","","","90","","","","key","16.666818181814794","768","373","","","","","","","","","","","","","","","","","","","",""
"psychophysics","229","598038","0.0-16.0-0.19","5ee3be6ff942c407cd54e6ce","6368f2eea3e9634aebcc2f6b","636b5be824d2a709103eb724","null","","","","null","","","","key","16.666499999999846","768","373","","","","","","","","","","","","","","","","","","","",""
"psychophysics","230","598545","0.0-16.0-1.19","5ee3be6ff942c407cd54e6ce","6368f2eea3e9634aebcc2f6b","636b5be824d2a709103eb724","null","","","","null","","","","key","16.666689655173506","768","373","","","","","","","","","","","","","138","-1","4","false","","","",""
"psychophysics","231","599037","0.0-16.0-2.19","5ee3be6ff942c407cd54e6ce","6368f2eea3e9634aebcc2f6b","636b5be824d2a709103eb724","490.9000000000233","","","","77","","","","key","16.6667499999998","768","373","","","","","","","","","","","","","","","","","","","",""
"psychophysics","232","600038","0.0-16.0-0.20","5ee3be6ff942c407cd54e6ce","6368f2eea3e9634aebcc2f6b","636b5be824d2a709103eb724","null","","","","null","","","","key","16.66663333333175","768","373","","","","","","","","","","","","","","","","","","","",""
"psychophysics","233","600545","0.0-16.0-1.20","5ee3be6ff942c407cd54e6ce","6368f2eea3e9634aebcc2f6b","636b5be824d2a709103eb724","null","","","","null","","","","key","16.666586206896746","768","373","","","","","","","","","","","","","138","-1","2","false","","","",""
"psychophysics","234","600856","0.0-16.0-2.20","5ee3be6ff942c407cd54e6ce","6368f2eea3e9634aebcc2f6b","636b5be824d2a709103eb724","309.4000000000233","","","","90","","","","key","16.667055555554626","768","373","","","","","","","","","","","","","","","","","","","",""
"psychophysics","235","601865","0.0-16.0-0.21","5ee3be6ff942c407cd54e6ce","6368f2eea3e9634aebcc2f6b","636b5be824d2a709103eb724","null","","","","null","","","","key","16.66659322033944","768","373","","","","","","","","","","","","","","","","","","","",""
"psychophysics","236","602369","0.0-16.0-1.21","5ee3be6ff942c407cd54e6ce","6368f2eea3e9634aebcc2f6b","636b5be824d2a709103eb724","null","","","","null","","","","key","16.666793103450267","768","373","","","","","","","","","","","","","138","1","3","false","","","",""
"psychophysics","237","603007","0.0-16.0-2.21","5ee3be6ff942c407cd54e6ce","6368f2eea3e9634aebcc2f6b","636b5be824d2a709103eb724","634.8999999999069","","","","77","","","","key","16.666947368422132","768","373","","","","","","","","","","","","","","","","","","","",""
"psychophysics","238","604009","0.0-16.0-0.22","5ee3be6ff942c407cd54e6ce","6368f2eea3e9634aebcc2f6b","636b5be824d2a709103eb724","null","","","","null","","","","key","16.666644067795538","768","373","","","","","","","","","","","","","","","","","","","",""
"psychophysics","239","604513","0.0-16.0-1.22","5ee3be6ff942c407cd54e6ce","6368f2eea3e9634aebcc2f6b","636b5be824d2a709103eb724","null","","","","null","","","","key","16.666689655169492","768","373","","","","","","","","","","","","","138","-1","6","false","","","",""
"psychophysics","240","604886","0.0-16.0-2.22","5ee3be6ff942c407cd54e6ce","6368f2eea3e9634aebcc2f6b","636b5be824d2a709103eb724","371.5999999999767","","","","77","","","","key","16.666761904760886","768","373","","","","","","","","","","","","","","","","","","","",""
"psychophysics","241","605888","0.0-16.0-0.23","5ee3be6ff942c407cd54e6ce","6368f2eea3e9634aebcc2f6b","636b5be824d2a709103eb724","null","","","","null","","","","key","16.666616666668173","768","373","","","","","","","","","","","","","","","","","","","",""
"psychophysics","242","606389","0.0-16.0-1.23","5ee3be6ff942c407cd54e6ce","6368f2eea3e9634aebcc2f6b","636b5be824d2a709103eb724","null","","","","null","","","","key","16.667034482760034","768","373","","","","","","","","","","","","","138","-1","0","false","","","",""
"psychophysics","243","606843","0.0-16.0-2.23","5ee3be6ff942c407cd54e6ce","6368f2eea3e9634aebcc2f6b","636b5be824d2a709103eb724","453.29999999993015","","","","90","","","","key","16.666769230769624","768","373","","","","","","","","","","","","","","","","","","","",""
"html-keyboard-response","244","609618","0.0-17.0","5ee3be6ff942c407cd54e6ce","6368f2eea3e9634aebcc2f6b","636b5be824d2a709103eb724","2773.8000000000466","<p>Well Done !</p><p>Training Complete. Press the spacebar to start.</p><p>DON'T EXIT THE FULL SCREEN MODE</p>","","","32","","","","","","","","","","","","","","","","","","","","","","","","","","",""
"psychophysics","245","612633","0.0-18.0-0.0","5ee3be6ff942c407cd54e6ce","6368f2eea3e9634aebcc2f6b","636b5be824d2a709103eb724","null","","","","null","","","","key","16.66810000000017","768","373","","","","","","","","","","","","","","","","","","","",""
"psychophysics","246","613137","0.0-18.0-1.0","5ee3be6ff942c407cd54e6ce","6368f2eea3e9634aebcc2f6b","636b5be824d2a709103eb724","null","","","","null","","","","key","16.66651724138024","768","373","","","","","","","","","","","","","138","-1","0","true","","","",""
"psychophysics","247","613413","0.0-18.0-2.0","5ee3be6ff942c407cd54e6ce","6368f2eea3e9634aebcc2f6b","636b5be824d2a709103eb724","273","","","","90","","","","key","16.667187499995634","768","373","","","","","","","","","","","","","","","","","","","",""
"psychophysics","248","614417","0.0-18.0-0.1","5ee3be6ff942c407cd54e6ce","6368f2eea3e9634aebcc2f6b","636b5be824d2a709103eb724","null","","","","null","","","","key","16.666694915253604","768","373","","","","","","","","","","","","","","","","","","","",""
"psychophysics","249","614921","0.0-18.0-1.1","5ee3be6ff942c407cd54e6ce","6368f2eea3e9634aebcc2f6b","636b5be824d2a709103eb724","null","","","","null","","","","key","16.66663333333175","768","373","","","","","","","","","","","","","138","-1","2","true","","","",""
"psychophysics","250","615257","0.0-18.0-2.1","5ee3be6ff942c407cd54e6ce","6368f2eea3e9634aebcc2f6b","636b5be824d2a709103eb724","334.69999999995343","","","","90","","","","key","16.666473684213614","768","373","","","","","","","","","","","","","","","","","","","",""
"psychophysics","251","616265","0.0-18.0-0.2","5ee3be6ff942c407cd54e6ce","6368f2eea3e9634aebcc2f6b","636b5be824d2a709103eb724","null","","","","null","","","","key","16.66662711864416","768","373","","","","","","","","","","","","","","","","","","","",""
"psychophysics","252","616769","0.0-18.0-1.2","5ee3be6ff942c407cd54e6ce","6368f2eea3e9634aebcc2f6b","636b5be824d2a709103eb724","null","","","","null","","","","key","16.666896551723013","768","373","","","","","","","","","","","","","138","1","6","true","","","",""
"psychophysics","253","616870","0.0-18.0-2.2","5ee3be6ff942c407cd54e6ce","6368f2eea3e9634aebcc2f6b","636b5be824d2a709103eb724","100.5","","","","77","","","","key","16.664999999990687","768","373","","","","","","","","","","","","","","","","","","","",""
"psychophysics","254","617872","0.0-18.0-0.3","5ee3be6ff942c407cd54e6ce","6368f2eea3e9634aebcc2f6b","636b5be824d2a709103eb724","null","","","","null","","","","key","16.666699999999643","768","373","","","","","","","","","","","","","","","","","","","",""
"psychophysics","255","618377","0.0-18.0-1.3","5ee3be6ff942c407cd54e6ce","6368f2eea3e9634aebcc2f6b","636b5be824d2a709103eb724","null","","","","null","","","","key","16.66641379310348","768","373","","","","","","","","","","","","","138","1","0","true","","","",""
"psychophysics","256","618724","0.0-18.0-2.3","5ee3be6ff942c407cd54e6ce","6368f2eea3e9634aebcc2f6b","636b5be824d2a709103eb724","346.29999999993015","","","","90","","","","key","16.666499999997903","768","373","","","","","","","","","","","","","","","","","","","",""
"psychophysics","257","619729","0.0-18.0-0.4","5ee3be6ff942c407cd54e6ce","6368f2eea3e9634aebcc2f6b","636b5be824d2a709103eb724","null","","","","null","","","","key","16.66662711864416","768","373","","","","","","","","","","","","","","","","","","","",""
"psychophysics","258","620233","0.0-18.0-1.4","5ee3be6ff942c407cd54e6ce","6368f2eea3e9634aebcc2f6b","636b5be824d2a709103eb724","null","","","","null","","","","key","16.666724137933763","768","373","","","","","","","","","","","","","138","-1","5","true","","","",""
"psychophysics","259","620424","0.0-18.0-2.4","5ee3be6ff942c407cd54e6ce","6368f2eea3e9634aebcc2f6b","636b5be824d2a709103eb724","188.90000000002328","","","","77","","","","key","16.666727272730153","768","373","","","","","","","","","","","","","","","","","","","",""
"psychophysics","260","621425","0.0-18.0-0.5","5ee3be6ff942c407cd54e6ce","6368f2eea3e9634aebcc2f6b","636b5be824d2a709103eb724","null","","","","null","","","","key","16.666813559323092","768","373","","","","","","","","","","","","","","","","","","","",""
"psychophysics","261","621929","0.0-18.0-1.5","5ee3be6ff942c407cd54e6ce","6368f2eea3e9634aebcc2f6b","636b5be824d2a709103eb724","null","","","","null","","","","key","16.666758620690008","768","373","","","","","","","","","","","","","138","-1","4","true","","","",""
"psychophysics","262","622198","0.0-18.0-2.5","5ee3be6ff942c407cd54e6ce","6368f2eea3e9634aebcc2f6b","636b5be824d2a709103eb724","268","","","","90","","","","key","16.667066666670145","768","373","","","","","","","","","","","","","","","","","","","",""
"psychophysics","263","623201","0.0-18.0-0.6","5ee3be6ff942c407cd54e6ce","6368f2eea3e9634aebcc2f6b","636b5be824d2a709103eb724","null","","","","null","","","","key","16.666661016948883","768","373","","","","","","","","","","","","","","","","","","","",""
"psychophysics","264","623705","0.0-18.0-1.6","5ee3be6ff942c407cd54e6ce","6368f2eea3e9634aebcc2f6b","636b5be824d2a709103eb724","null","","","","null","","","","key","16.666866666664525","768","373","","","","","","","","","","","","","138","-1","6","true","","","",""
"psychophysics","265","623932","0.0-18.0-2.6","5ee3be6ff942c407cd54e6ce","6368f2eea3e9634aebcc2f6b","636b5be824d2a709103eb724","225","","","","77","","","","key","16.66624999999961","768","373","","","","","","","","","","","","","","","","","","","",""
"psychophysics","266","624937","0.0-18.0-0.7","5ee3be6ff942c407cd54e6ce","6368f2eea3e9634aebcc2f6b","636b5be824d2a709103eb724","null","","","","null","","","","key","16.666711864406953","768","373","","","","","","","","","","","","","","","","","","","",""
"psychophysics","267","625438","0.0-18.0-1.7","5ee3be6ff942c407cd54e6ce","6368f2eea3e9634aebcc2f6b","636b5be824d2a709103eb724","null","","","","null","","","","key","16.666633333335632","768","373","","","","","","","","","","","","","138","1","3","true","","","",""
"psychophysics","268","625766","0.0-18.0-2.7","5ee3be6ff942c407cd54e6ce","6368f2eea3e9634aebcc2f6b","636b5be824d2a709103eb724","326.30000000004657","","","","90","","","","key","16.666833333328313","768","373","","","","","","","","","","","","","","","","","","","",""
"psychophysics","269","626769","0.0-18.0-0.8","5ee3be6ff942c407cd54e6ce","6368f2eea3e9634aebcc2f6b","636b5be824d2a709103eb724","null","","","","null","","","","key","16.66650847457665","768","373","","","","","","","","","","","","","","","","","","","",""
"psychophysics","270","627271","0.0-18.0-1.8","5ee3be6ff942c407cd54e6ce","6368f2eea3e9634aebcc2f6b","636b5be824d2a709103eb724","null","","","","null","","","","key","16.666566666665798","768","373","","","","","","","","","","","","","138","1","4","true","","","",""
"psychophysics","271","627426","0.0-18.0-2.8","5ee3be6ff942c407cd54e6ce","6368f2eea3e9634aebcc2f6b","636b5be824d2a709103eb724","153.70000000006985","","","","77","","","","key","16.667499999995925","768","373","","","","","","","","","","","","","","","","","","","",""
"psychophysics","272","628433","0.0-18.0-0.9","5ee3be6ff942c407cd54e6ce","6368f2eea3e9634aebcc2f6b","636b5be824d2a709103eb724","null","","","","null","","","","key","16.66667796610223","768","373","","","","","","","","","","","","","","","","","","","",""
"psychophysics","273","628937","0.0-18.0-1.9","5ee3be6ff942c407cd54e6ce","6368f2eea3e9634aebcc2f6b","636b5be824d2a709103eb724","null","","","","null","","","","key","16.66672413792975","768","373","","","","","","","","","","","","","138","1","2","true","","","",""
"psychophysics","274","629127","0.0-18.0-2.9","5ee3be6ff942c407cd54e6ce","6368f2eea3e9634aebcc2f6b","636b5be824d2a709103eb724","184.90000000002328","","","","90","","","","key","16.66627272727518","768","373","","","","","","","","","","","","","","","","","","","",""
"psychophysics","275","630129","0.0-18.0-0.10","5ee3be6ff942c407cd54e6ce","6368f2eea3e9634aebcc2f6b","636b5be824d2a709103eb724","null","","","","null","","","","key","16.66667796610026","768","373","","","","","","","","","","","","","","","","","","","",""
"psychophysics","276","630633","0.0-18.0-1.10","5ee3be6ff942c407cd54e6ce","6368f2eea3e9634aebcc2f6b","636b5be824d2a709103eb724","null","","","","null","","","","key","16.666655172413247","768","373","","","","","","","","","","","","","138","-1","3","true","","","",""
"psychophysics","277","631011","0.0-18.0-2.10","5ee3be6ff942c407cd54e6ce","6368f2eea3e9634aebcc2f6b","636b5be824d2a709103eb724","377","","","","77","","","","key","16.66668181818254","768","373","","","","","","","","","","","","","","","","","","","",""
"psychophysics","278","632017","0.0-18.0-0.11","5ee3be6ff942c407cd54e6ce","6368f2eea3e9634aebcc2f6b","636b5be824d2a709103eb724","null","","","","null","","","","key","16.66662711864416","768","373","","","","","","","","","","","","","","","","","","","",""
"psychophysics","279","632521","0.0-18.0-1.11","5ee3be6ff942c407cd54e6ce","6368f2eea3e9634aebcc2f6b","636b5be824d2a709103eb724","null","","","","null","","","","key","16.666700000001583","768","373","","","","","","","","","","","","","138","1","5","true","","","",""
"psychophysics","280","632996","0.0-18.0-2.11","5ee3be6ff942c407cd54e6ce","6368f2eea3e9634aebcc2f6b","636b5be824d2a709103eb724","473.70000000006985","","","","77","","","","key","16.666370370369233","768","373","","","","","","","","","","","","","","","","","","","",""
"psychophysics","281","634001","0.0-18.0-0.12","5ee3be6ff942c407cd54e6ce","6368f2eea3e9634aebcc2f6b","636b5be824d2a709103eb724","null","","","","null","","","","key","16.66667796610223","768","373","","","","","","","","","","","","","","","","","","","",""
"psychophysics","282","634504","0.0-18.0-1.12","5ee3be6ff942c407cd54e6ce","6368f2eea3e9634aebcc2f6b","636b5be824d2a709103eb724","null","","","","null","","","","key","16.66643333333389","768","373","","","","","","","","","","","","","138","1","5","true","","","",""
"psychophysics","283","634732","0.0-18.0-2.12","5ee3be6ff942c407cd54e6ce","6368f2eea3e9634aebcc2f6b","636b5be824d2a709103eb724","226.5","","","","77","","","","key","16.666499999992084","768","373","","","","","","","","","","","","","","","","","","","",""
"psychophysics","284","635738","0.0-18.0-0.13","5ee3be6ff942c407cd54e6ce","6368f2eea3e9634aebcc2f6b","636b5be824d2a709103eb724","null","","","","null","","","","key","16.666466666666867","768","373","","","","","","","","","","","","","","","","","","","",""
"psychophysics","285","636241","0.0-18.0-1.13","5ee3be6ff942c407cd54e6ce","6368f2eea3e9634aebcc2f6b","636b5be824d2a709103eb724","null","","","","null","","","","key","16.66713793103278","768","373","","","","","","","","","","","","","138","-1","0","true","","","",""
"psychophysics","286","636613","0.0-18.0-2.13","5ee3be6ff942c407cd54e6ce","6368f2eea3e9634aebcc2f6b","636b5be824d2a709103eb724","370.89999999990687","","","","90","","","","key","16.6671428571433","768","373","","","","","","","","","","","","","","","","","","","",""
"psychophysics","287","637617","0.0-18.0-0.14","5ee3be6ff942c407cd54e6ce","6368f2eea3e9634aebcc2f6b","636b5be824d2a709103eb724","null","","","","null","","","","key","16.66669491525558","768","373","","","","","","","","","","","","","","","","","","","",""
"psychophysics","288","638121","0.0-18.0-1.14","5ee3be6ff942c407cd54e6ce","6368f2eea3e9634aebcc2f6b","636b5be824d2a709103eb724","null","","","","null","","","","key","16.666666666666668","768","373","","","","","","","","","","","","","138","1","0","true","","","",""
"psychophysics","289","638492","0.0-18.0-2.14","5ee3be6ff942c407cd54e6ce","6368f2eea3e9634aebcc2f6b","636b5be824d2a709103eb724","369.79999999993015","","","","90","","","","key","16.666714285716548","768","373","","","","","","","","","","","","","","","","","","","",""
"psychophysics","290","639497","0.0-18.0-0.15","5ee3be6ff942c407cd54e6ce","6368f2eea3e9634aebcc2f6b","636b5be824d2a709103eb724","null","","","","null","","","","key","16.666576271186095","768","373","","","","","","","","","","","","","","","","","","","",""
"psychophysics","291","640001","0.0-18.0-1.15","5ee3be6ff942c407cd54e6ce","6368f2eea3e9634aebcc2f6b","636b5be824d2a709103eb724","null","","","","null","","","","key","16.666758620690008","768","373","","","","","","","","","","","","","138","-1","4","true","","","",""
"psychophysics","292","640388","0.0-18.0-2.15","5ee3be6ff942c407cd54e6ce","6368f2eea3e9634aebcc2f6b","636b5be824d2a709103eb724","384.89999999990687","","","","90","","","","key","16.66672727272486","768","373","","","","","","","","","","","","","","","","","","","",""
"psychophysics","293","641393","0.0-18.0-0.16","5ee3be6ff942c407cd54e6ce","6368f2eea3e9634aebcc2f6b","636b5be824d2a709103eb724","null","","","","null","","","","key","16.666783333333054","768","373","","","","","","","","","","","","","","","","","","","",""
"psychophysics","294","641897","0.0-18.0-1.16","5ee3be6ff942c407cd54e6ce","6368f2eea3e9634aebcc2f6b","636b5be824d2a709103eb724","null","","","","null","","","","key","16.666482758619985","768","373","","","","","","","","","","","","","138","1","2","true","","","",""
"psychophysics","295","642326","0.0-18.0-2.16","5ee3be6ff942c407cd54e6ce","6368f2eea3e9634aebcc2f6b","636b5be824d2a709103eb724","427.9000000000233","","","","90","","","","key","16.666639999998733","768","373","","","","","","","","","","","","","","","","","","","",""
"psychophysics","296","643337","0.0-18.0-0.17","5ee3be6ff942c407cd54e6ce","6368f2eea3e9634aebcc2f6b","636b5be824d2a709103eb724","null","","","","null","","","","key","16.666813559323092","768","373","","","","","","","","","","","","","","","","","","","",""
"psychophysics","297","643838","0.0-18.0-1.17","5ee3be6ff942c407cd54e6ce","6368f2eea3e9634aebcc2f6b","636b5be824d2a709103eb724","null","","","","null","","","","key","16.666466666664927","768","373","","","","","","","","","","","","","138","1","4","true","","","",""
"psychophysics","298","644094","0.0-18.0-2.17","5ee3be6ff942c407cd54e6ce","6368f2eea3e9634aebcc2f6b","636b5be824d2a709103eb724","254.89999999990687","","","","77","","","","key","16.66657142857522","768","373","","","","","","","","","","","","","","","","","","","",""
"psychophysics","299","645097","0.0-18.0-0.18","5ee3be6ff942c407cd54e6ce","6368f2eea3e9634aebcc2f6b","636b5be824d2a709103eb724","null","","","","null","","","","key","16.666813559323092","768","373","","","","","","","","","","","","","","","","","","","",""
"psychophysics","300","645601","0.0-18.0-1.18","5ee3be6ff942c407cd54e6ce","6368f2eea3e9634aebcc2f6b","636b5be824d2a709103eb724","null","","","","null","","","","key","16.666655172413247","768","373","","","","","","","","","","","","","138","-1","6","true","","","",""
"psychophysics","301","645929","0.0-18.0-2.18","5ee3be6ff942c407cd54e6ce","6368f2eea3e9634aebcc2f6b","636b5be824d2a709103eb724","326.30000000004657","","","","77","","","","key","16.666894736840685","768","373","","","","","","","","","","","","","","","","","","","",""
"psychophysics","302","646940","0.0-18.0-0.19","5ee3be6ff942c407cd54e6ce","6368f2eea3e9634aebcc2f6b","636b5be824d2a709103eb724","null","","","","null","","","","key","16.66675000000008","768","373","","","","","","","","","","","","","","","","","","","",""
"psychophysics","303","647449","0.0-18.0-1.19","5ee3be6ff942c407cd54e6ce","6368f2eea3e9634aebcc2f6b","636b5be824d2a709103eb724","null","","","","null","","","","key","16.666482758623996","768","373","","","","","","","","","","","","","138","1","3","true","","","",""
"psychophysics","304","647722","0.0-18.0-2.19","5ee3be6ff942c407cd54e6ce","6368f2eea3e9634aebcc2f6b","636b5be824d2a709103eb724","272.0999999999767","","","","90","","","","key","16.66700000000128","768","373","","","","","","","","","","","","","","","","","","","",""
"psychophysics","305","648729","0.0-18.0-0.20","5ee3be6ff942c407cd54e6ce","6368f2eea3e9634aebcc2f6b","636b5be824d2a709103eb724","null","","","","null","","","","key","16.666745762711674","768","373","","","","","","","","","","","","","","","","","","","",""
"psychophysics","306","649233","0.0-18.0-1.20","5ee3be6ff942c407cd54e6ce","6368f2eea3e9634aebcc2f6b","636b5be824d2a709103eb724","null","","","","null","","","","key","16.666655172413247","768","373","","","","","","","","","","","","","138","1","6","true","","","",""
"psychophysics","307","649520","0.0-18.0-2.20","5ee3be6ff942c407cd54e6ce","6368f2eea3e9634aebcc2f6b","636b5be824d2a709103eb724","285.70000000006985","","","","77","","","","key","16.666750000003958","768","373","","","","","","","","","","","","","","","","","","","",""
"psychophysics","308","650521","0.0-18.0-0.21","5ee3be6ff942c407cd54e6ce","6368f2eea3e9634aebcc2f6b","636b5be824d2a709103eb724","null","","","","null","","","","key","16.666533333332822","768","373","","","","","","","","","","","","","","","","","","","",""
"psychophysics","309","651025","0.0-18.0-1.21","5ee3be6ff942c407cd54e6ce","6368f2eea3e9634aebcc2f6b","636b5be824d2a709103eb724","null","","","","null","","","","key","16.666931034483273","768","373","","","","","","","","","","","","","138","-1","2","true","","","",""
"psychophysics","310","651326","0.0-18.0-2.21","5ee3be6ff942c407cd54e6ce","6368f2eea3e9634aebcc2f6b","636b5be824d2a709103eb724","299.89999999990687","","","","90","","","","key","16.66682352940552","768","373","","","","","","","","","","","","","","","","","","","",""
"psychophysics","311","652329","0.0-18.0-0.22","5ee3be6ff942c407cd54e6ce","6368f2eea3e9634aebcc2f6b","636b5be824d2a709103eb724","null","","","","null","","","","key","16.66671186440498","768","373","","","","","","","","","","","","","","","","","","","",""
"psychophysics","312","652833","0.0-18.0-1.22","5ee3be6ff942c407cd54e6ce","6368f2eea3e9634aebcc2f6b","636b5be824d2a709103eb724","null","","","","null","","","","key","16.666896551723013","768","373","","","","","","","","","","","","","138","-1","5","true","","","",""
"psychophysics","313","653112","0.0-18.0-2.22","5ee3be6ff942c407cd54e6ce","6368f2eea3e9634aebcc2f6b","636b5be824d2a709103eb724","277.9000000000233","","","","77","","","","key","16.667124999999942","768","373","","","","","","","","","","","","","","","","","","","",""
"psychophysics","314","654120","0.0-18.0-0.23","5ee3be6ff942c407cd54e6ce","6368f2eea3e9634aebcc2f6b","636b5be824d2a709103eb724","null","","","","null","","","","key","16.666525423728025","768","373","","","","","","","","","","","","","","","","","","","",""
"psychophysics","315","654622","0.0-18.0-1.23","5ee3be6ff942c407cd54e6ce","6368f2eea3e9634aebcc2f6b","636b5be824d2a709103eb724","null","","","","null","","","","key","16.66690000000332","768","373","","","","","","","","","","","","","138","-1","3","true","","","",""
"psychophysics","316","654970","0.0-18.0-2.23","5ee3be6ff942c407cd54e6ce","6368f2eea3e9634aebcc2f6b","636b5be824d2a709103eb724","347.4000000000233","","","","90","","","","key","16.66647368420749","768","373","","","","","","","","","","","","","","","","","","","",""
"psychophysics","317","655972","0.0-18.0-0.24","5ee3be6ff942c407cd54e6ce","6368f2eea3e9634aebcc2f6b","636b5be824d2a709103eb724","null","","","","null","","","","key","16.666716666667103","768","373","","","","","","","","","","","","","","","","","","","",""
"psychophysics","318","656481","0.0-18.0-1.24","5ee3be6ff942c407cd54e6ce","6368f2eea3e9634aebcc2f6b","636b5be824d2a709103eb724","null","","","","null","","","","key","16.66641379310348","768","373","","","","","","","","","","","","","138","1","6","true","","","",""
"psychophysics","319","656877","0.0-18.0-2.24","5ee3be6ff942c407cd54e6ce","6368f2eea3e9634aebcc2f6b","636b5be824d2a709103eb724","394.89999999990687","","","","77","","","","key","16.666739130438224","768","373","","","","","","","","","","","","","","","","","","","",""
"psychophysics","320","657881","0.0-18.0-0.25","5ee3be6ff942c407cd54e6ce","6368f2eea3e9634aebcc2f6b","636b5be824d2a709103eb724","null","","","","null","","","","key","16.66667796610223","768","373","","","","","","","","","","","","","","","","","","","",""
"psychophysics","321","658385","0.0-18.0-1.25","5ee3be6ff942c407cd54e6ce","6368f2eea3e9634aebcc2f6b","636b5be824d2a709103eb724","null","","","","null","","","","key","16.666551724136486","768","373","","","","","","","","","","","","","138","-1","2","true","","","",""
"psychophysics","322","658685","0.0-18.0-2.25","5ee3be6ff942c407cd54e6ce","6368f2eea3e9634aebcc2f6b","636b5be824d2a709103eb724","298.5","","","","90","","","","key","16.66694117646993","768","373","","","","","","","","","","","","","","","","","","","",""
"psychophysics","323","659687","0.0-18.0-0.26","5ee3be6ff942c407cd54e6ce","6368f2eea3e9634aebcc2f6b","636b5be824d2a709103eb724","null","","","","null","","","","key","16.666711864406953","768","373","","","","","","","","","","","","","","","","","","","",""
"psychophysics","324","660189","0.0-18.0-1.26","5ee3be6ff942c407cd54e6ce","6368f2eea3e9634aebcc2f6b","636b5be824d2a709103eb724","null","","","","null","","","","key","16.66693333333436","768","373","","","","","","","","","","","","","138","1","5","true","","","",""
"psychophysics","325","660475","0.0-18.0-2.26","5ee3be6ff942c407cd54e6ce","6368f2eea3e9634aebcc2f6b","636b5be824d2a709103eb724","284.5","","","","77","","","","key","16.66681249999965","768","373","","","","","","","","","","","","","","","","","","","",""
"psychophysics","326","661481","0.0-18.0-0.27","5ee3be6ff942c407cd54e6ce","6368f2eea3e9634aebcc2f6b","636b5be824d2a709103eb724","null","","","","null","","","","key","16.66650847457665","768","373","","","","","","","","","","","","","","","","","","","",""
"psychophysics","327","661985","0.0-18.0-1.27","5ee3be6ff942c407cd54e6ce","6368f2eea3e9634aebcc2f6b","636b5be824d2a709103eb724","null","","","","null","","","","key","16.666689655173506","768","373","","","","","","","","","","","","","138","-1","0","true","","","",""
"psychophysics","328","662133","0.0-18.0-2.27","5ee3be6ff942c407cd54e6ce","6368f2eea3e9634aebcc2f6b","636b5be824d2a709103eb724","146.09999999997672","","","","90","","","","key","16.666125000003376","768","373","","","","","","","","","","","","","","","","","","","",""
"psychophysics","329","663137","0.0-18.0-0.28","5ee3be6ff942c407cd54e6ce","6368f2eea3e9634aebcc2f6b","636b5be824d2a709103eb724","null","","","","null","","","","key","16.66667796610223","768","373","","","","","","","","","","","","","","","","","","","",""
"psychophysics","330","663638","0.0-18.0-1.28","5ee3be6ff942c407cd54e6ce","6368f2eea3e9634aebcc2f6b","636b5be824d2a709103eb724","null","","","","null","","","","key","16.666533333330882","768","373","","","","","","","","","","","","","138","1","4","true","","","",""
"psychophysics","331","663789","0.0-18.0-2.28","5ee3be6ff942c407cd54e6ce","6368f2eea3e9634aebcc2f6b","636b5be824d2a709103eb724","149.09999999997672","","","","77","","","","key","16.667625000001863","768","373","","","","","","","","","","","","","","","","","","","",""
"psychophysics","332","664793","0.0-18.0-0.29","5ee3be6ff942c407cd54e6ce","6368f2eea3e9634aebcc2f6b","636b5be824d2a709103eb724","null","","","","null","","","","key","16.666491525425275","768","373","","","","","","","","","","","","","","","","","","","",""
