"trial_type","trial_index","time_elapsed","internal_node_id","PROLIFIC_PID","STUDY_ID","SESSION_ID","rt","stimulus","button_pressed","success","key_press","responses","isData","view_history","response_type","avg_frame_time","center_x","center_y","isSC","stim_side","trial_luminance","step_size","nReversal","correct","prev_ans","isThreshold","SC_threshold","final_threshold","isLuminance","FF_luminance","luminance","stimSide","ISInt","isFF","question_order","isSPQ","isCAPS","isAQ"
"pavlovia","0","19","0.0-0.0","60895dd42aa4dab10a53566c","6368f2eea3e9634aebcc2f6b","636b4899e635f966796d71ea","","","","","","","","","","","","","","","","","","","","","","","","","","","","","","","",""
"html-button-response","1","51747","0.0-1.0","60895dd42aa4dab10a53566c","6368f2eea3e9634aebcc2f6b","636b4899e635f966796d71ea","51725.09999996424","<div style='background-color: white; width:60%; margin: auto; padding: 50px; text-align: justify; text-justify: inter-word; margin-bottom: 20px;'><h1 style='text-align: center;'>Consent Form</h1><p>Please read this consent form carefully before deciding whether you would like to participate in this study. You have to be 18 years old or older to participate to this study.</p><p style='text-decoration: underline;'>Participation is voluntary:</p><p>It is your choice whether or not to participate in this research. If you choose to participate, you may change your mind and leave the study at any time. Refusal to participate or stopping your participation will involve no penalty or loss of benefits to which you are otherwise entitled.</p><p style='text-decoration: underline;'>Purpose of the Study:</p><p>To understand the mechanisms underlying human perception.</p><p style='text-decoration: underline;'>What you will do in this study:</p><p>You will be presented with a series of visual images and then you will press buttons on the keyboard of your computer to respond to simple questions about the images (e.g. Were one or two images presented?). In addition, you will be asked to complete a questionnaire concerning your beliefs and everyday mental and perceptual experiences.'</p><p style='text-decoration: underline;'> Time Required:</p><p>The study will take 40 minutes to complete. </p><p style='text-decoration: underline;'>Risks:</p><p>There are no anticipated risks associated with participating in this study that are beyond those experienced in everyday life. </p><p style='text-decoration: underline;'>Benefits:</p><p>There are no benefits to you in participating in the study. However, this study may lead to a better understanding of how different kinds of visual information are used.</p><p style='text-decoration: underline;'>Compensation:</p><p>You will be paid US$6.6/hour. </p><p style='text-decoration: underline;'>Privacy and Confidentiality:</p><p>Your participation in this study will be anonymous. No personal information about your name or identity will be asked or recorded. This anonymous data will be stored for several years and may be used for a variety of research purposes. The overall results of the study may be published, or the data files may be shared with other researchers, but your identity will not be revealed in any way. The online services we are using for this study may temporarily store your data, but this data will be downloaded and then promptly deleted from those services.Your data will not be permanently associated with your name, IP address, or any other identifiable information (e.g., your information will only be connected to your payment, not to any of your responses), though they may be temporarily stored together before we download and separate them. Even so, no guarantee of internet survey security can be given because, although unlikely, transmissions can be intercepted and IP addresses can be identified. The anonymous data may be shared publicly (for example, in conjunction with a resulting academic publication).</p><p style='text-decoration: underline;'>Participation and Withdrawal:</p><p>Your participation in this study is completely voluntary. You may stop responding to the stimuli or stop answering questions if you so choose and without penalty by exiting the full screen mode, closing this tab of your browser or redirecting it to a different website.</p><p style='text-decoration: underline;'>Contact Info of the Researcher: </p><p>If you have questions about this study, or if you would like to talk to the research team, please contact David Melcher (david.melcher@nyu.edu, md5050@nyu.edu) at the Perception and Active Cognition Laboratory, New York University Abu Dhabi, Computational Research Building, Saadiyat Island, Abu Dhabi, UAE.This research has been reviewed by the New York University Abu Dhabi Institutional Review Board (NYUAD IRB). To contact about your rights in this research, for questions, suggestions, or complaints that are not addressed by the researchers, please email IRBnyuad@nyu.edu, or call the NYUAD IRB at +971 2 628 4313. </p></div>","0","","","","","","","","","","","","","","","","","","","","","","","","","","","","",""
"fullscreen","2","53932","0.0-2.0","60895dd42aa4dab10a53566c","6368f2eea3e9634aebcc2f6b","636b4899e635f966796d71ea","","","","true","","","","","","","","","","","","","","","","","","","","","","","","","","","",""
"html-keyboard-response","3","81185","0.0-3.0","60895dd42aa4dab10a53566c","6368f2eea3e9634aebcc2f6b","636b4899e635f966796d71ea","27251.80000001192","<p>Welcome !</p><p>READ CAREFULLY THE FOLLOWING INDICATIONS:</p><p>From this moment you have ~40 minutes to complete the experiment.</p><p>During the experiment you will be prompted to take several breaks. Each break should not last longer than 2-3 minutes.</p><p>Make sure that your computer is plugged in and it's not running on battery power, even if the battery is already fully charged.</p><p>Turn off your phone and music, make sure that you are in a quiet room and that you will not be distracted for the next hour.</p><p>Failure to comply with the instructions and indications provided during the experiment will most likely result in the rejection of your data.<p>Press the spacebar to start.</p>","","","32","","","","","","","","","","","","","","","","","","","","","","","","","","",""
"survey-html-form","4","89956","0.0-4.0","60895dd42aa4dab10a53566c","6368f2eea3e9634aebcc2f6b","636b4899e635f966796d71ea","8769.900000035763","","","","","{""age"":""58"",""sex"":""M""}","true","","","","","","","","","","","","","","","","","","","","","","","","",""
"instructions","5","141497","0.0-5.0","60895dd42aa4dab10a53566c","6368f2eea3e9634aebcc2f6b","636b4899e635f966796d71ea","51540.40000003576","","","","","","","[{""page_index"":0,""viewing_time"":25876.400000035763},{""page_index"":1,""viewing_time"":17503.599999964237},{""page_index"":2,""viewing_time"":8159.800000011921}]","","","","","","","","","","","","","","","","","","","","","","","",""
"psychophysics","6","144270","0.0-6.0-0.0","60895dd42aa4dab10a53566c","6368f2eea3e9634aebcc2f6b","636b4899e635f966796d71ea","1768.8999999761581","","","","39","","","","key","17.18248447204972","683","312.5","true","1","180","30","0","-1","","","","","","","","","","","","","",""
"psychophysics","7","145391","0.0-6.0-0.1","60895dd42aa4dab10a53566c","6368f2eea3e9634aebcc2f6b","636b4899e635f966796d71ea","104.09999996423721","","","","37","","","","key","16.666417910447674","683","312.5","true","-1","180","30","0","-1","-1","","","","","","","","","","","","",""
"psychophysics","8","146814","0.0-6.0-0.2","60895dd42aa4dab10a53566c","6368f2eea3e9634aebcc2f6b","636b4899e635f966796d71ea","408.5","","","","39","","","","key","16.665119047618994","683","312.5","true","1","150","30","0","-1","-1","","","","","","","","","","","","",""
"psychophysics","9","148192","0.0-6.0-0.3","60895dd42aa4dab10a53566c","6368f2eea3e9634aebcc2f6b","636b4899e635f966796d71ea","369.69999998807907","","","","37","","","","key","16.66447560975602","683","312.5","true","-1","150","30","0","-1","-1","","","","","","","","","","","","",""
"psychophysics","10","150270","0.0-6.0-0.4","60895dd42aa4dab10a53566c","6368f2eea3e9634aebcc2f6b","636b4899e635f966796d71ea","1073.800000011921","","","","37","","","","key","16.664991869918655","683","312.5","true","-1","129","30","0","-1","-1","","","","","","","","","","","","",""
"psychophysics","11","152510","0.0-6.0-0.5","60895dd42aa4dab10a53566c","6368f2eea3e9634aebcc2f6b","636b4899e635f966796d71ea","1237.6000000238419","","","","39","","","","key","16.66576865671655","683","312.5","true","1","129","30","0","-1","-1","","","","","","","","","","","","",""
"psychophysics","12","154270","0.0-6.0-0.6","60895dd42aa4dab10a53566c","6368f2eea3e9634aebcc2f6b","636b4899e635f966796d71ea","748.3999999761581","","","","39","","","","key","16.665548076923116","683","312.5","true","-1","129","24","1","1","-1","","","","","","","","","","","","",""
"psychophysics","13","155646","0.0-6.0-0.7","60895dd42aa4dab10a53566c","6368f2eea3e9634aebcc2f6b","636b4899e635f966796d71ea","358.0999999642372","","","","39","","","","key","16.666073170731558","683","312.5","true","1","153","24","1","-1","1","","","","","","","","","","","","",""
"psychophysics","14","156926","0.0-6.0-0.8","60895dd42aa4dab10a53566c","6368f2eea3e9634aebcc2f6b","636b4899e635f966796d71ea","271.5","","","","37","","","","key","16.665131578947214","683","312.5","true","-1","153","19.2","2","-1","-1","","","","","","","","","","","","",""
"psychophysics","15","158558","0.0-6.0-0.9","60895dd42aa4dab10a53566c","6368f2eea3e9634aebcc2f6b","636b4899e635f966796d71ea","620.1999999880791","","","","39","","","","key","16.665432989690633","683","312.5","true","-1","133.8","15.36","3","1","-1","","","","","","","","","","","","",""
"psychophysics","16","159646","0.0-6.0-0.10","60895dd42aa4dab10a53566c","6368f2eea3e9634aebcc2f6b","636b4899e635f966796d71ea","79.5","","","","39","","","","key","16.6651093749997","683","312.5","true","1","149.16000000000003","15.36","3","-1","1","","","","","","","","","","","","",""
"psychophysics","17","160750","0.0-6.0-0.11","60895dd42aa4dab10a53566c","6368f2eea3e9634aebcc2f6b","636b4899e635f966796d71ea","95.59999996423721","","","","39","","","","key","16.666630769230856","683","312.5","true","1","149.16000000000003","12.287999999999998","4","-1","-1","","","","","","","","","","","","",""
"psychophysics","18","163326","0.0-6.0-0.12","60895dd42aa4dab10a53566c","6368f2eea3e9634aebcc2f6b","636b4899e635f966796d71ea","1571.699999988079","","","","39","","","","key","16.66568831168833","683","312.5","true","1","136.872","12.287999999999998","4","-1","-1","","","","","","","","","","","","",""
"psychophysics","19","164574","0.0-6.0-0.13","60895dd42aa4dab10a53566c","6368f2eea3e9634aebcc2f6b","636b4899e635f966796d71ea","236.89999997615814","","","","39","","","","key","16.66644594594569","683","312.5","true","1","136.872","12.287999999999998","4","-1","-1","","","","","","","","","","","","",""
"psychophysics","20","166350","0.0-6.0-0.14","60895dd42aa4dab10a53566c","6368f2eea3e9634aebcc2f6b","636b4899e635f966796d71ea","769.0999999642372","","","","37","","","","key","16.665171428571366","683","312.5","true","-1","129","12.287999999999998","4","-1","-1","","","","","","","","","","","","",""
"psychophysics","21","168624","0.0-6.0-0.15","60895dd42aa4dab10a53566c","6368f2eea3e9634aebcc2f6b","636b4899e635f966796d71ea","1269.9000000357628","","","","37","","","","key","16.66523529411771","683","312.5","true","-1","129","12.287999999999998","4","-1","-1","","","","","","","","","","","","",""
"psychophysics","22","170271","0.0-6.0-0.16","60895dd42aa4dab10a53566c","6368f2eea3e9634aebcc2f6b","636b4899e635f966796d71ea","636","","","","37","","","","key","16.66489690721645","683","312.5","true","1","129","9.8304","5","1","-1","","","","","","","","","","","","",""
"psychophysics","23","171374","0.0-6.0-0.17","60895dd42aa4dab10a53566c","6368f2eea3e9634aebcc2f6b","636b4899e635f966796d71ea","98.10000002384186","","","","37","","","","key","16.665287878788092","683","312.5","true","-1","138.8304","9.8304","5","-1","1","","","","","","","","","","","","",""
"psychophysics","24","173839","0.0-6.0-0.18","60895dd42aa4dab10a53566c","6368f2eea3e9634aebcc2f6b","636b4899e635f966796d71ea","1453.300000011921","","","","39","","","","key","16.665340136054375","683","312.5","true","-1","138.8304","7.864319999999999","6","1","-1","","","","","","","","","","","","",""
"psychophysics","25","174910","0.0-6.0-0.19","60895dd42aa4dab10a53566c","6368f2eea3e9634aebcc2f6b","636b4899e635f966796d71ea","65.69999998807907","","","","39","","","","key","16.66463492063497","683","312.5","true","1","146.69472","7.864319999999999","6","-1","1","","","","","","","","","","","","",""
"psychophysics","26","177246","0.0-6.0-0.20","60895dd42aa4dab10a53566c","6368f2eea3e9634aebcc2f6b","636b4899e635f966796d71ea","1326.6000000238419","","","","37","","","","key","16.66522302158263","683","312.5","true","1","146.69472","6.291456","7","1","-1","","","","","","","","","","","","",""
"psychophysics","27","178302","0.0-6.0-0.21","60895dd42aa4dab10a53566c","6368f2eea3e9634aebcc2f6b","636b4899e635f966796d71ea","48.799999952316284","","","","39","","","","key","16.66708064516124","683","312.5","true","1","152.986176","6.291456","7","-1","1","","","","","","","","","","","","",""
"psychophysics","28","179358","0.0-6.0-0.22","60895dd42aa4dab10a53566c","6368f2eea3e9634aebcc2f6b","636b4899e635f966796d71ea","38.19999998807907","","","","37","","","","key","16.666238095238064","683","312.5","true","-1","152.986176","5.033164800000001","8","-1","-1","","","","","","","","","","","","",""
"psychophysics","29","181710","0.0-6.0-0.23","60895dd42aa4dab10a53566c","6368f2eea3e9634aebcc2f6b","636b4899e635f966796d71ea","1343.199999988079","","","","37","","","","key","16.665335714285693","683","312.5","true","-1","147.9530112","5.033164800000001","8","-1","-1","","","","","","","","","","","","",""
"psychophysics","30","184062","0.0-6.0-0.24","60895dd42aa4dab10a53566c","6368f2eea3e9634aebcc2f6b","636b4899e635f966796d71ea","1343.8999999761581","","","","39","","","","key","16.664450000000112","683","312.5","true","1","147.9530112","5.033164800000001","8","-1","-1","","","","","","","","","","","","",""
"psychophysics","31","185182","0.0-6.0-0.25","60895dd42aa4dab10a53566c","6368f2eea3e9634aebcc2f6b","636b4899e635f966796d71ea","112.89999997615814","","","","37","","","","key","16.666060606060483","683","312.5","true","-1","142.91984639999998","5.033164800000001","8","-1","-1","","","","","","","","","","","","",""
"psychophysics","32","186687","0.0-6.0-0.26","60895dd42aa4dab10a53566c","6368f2eea3e9634aebcc2f6b","636b4899e635f966796d71ea","501.19999998807907","","","","39","","","","key","16.665921348314523","683","312.5","true","-1","142.91984639999998","4.0265318400000005","9","1","-1","","","","","","","","","","","","",""
"psychophysics","33","188990","0.0-6.0-0.27","60895dd42aa4dab10a53566c","6368f2eea3e9634aebcc2f6b","636b4899e635f966796d71ea","1296.699999988079","","","","39","","","","key","16.664963768116042","683","312.5","true","1","146.94637823999997","4.0265318400000005","9","-1","1","","","","","","","","","","","","",""
"psychophysics","34","190046","0.0-6.0-0.28","60895dd42aa4dab10a53566c","6368f2eea3e9634aebcc2f6b","636b4899e635f966796d71ea","52.80000001192093","","","","39","","","","key","16.66667741935488","683","312.5","true","1","146.94637823999997","3.2212254720000004","10","-1","-1","","","","","","","","","","","","",""
"psychophysics","35","192062","0.0-6.0-0.29","60895dd42aa4dab10a53566c","6368f2eea3e9634aebcc2f6b","636b4899e635f966796d71ea","1009.5999999642372","","","","37","","","","key","16.666091666666762","683","312.5","true","1","143.725152768","2.5769803776000004","11","1","-1","","","","","","","","","","","","",""
"psychophysics","36","194671","0.0-6.0-0.30","60895dd42aa4dab10a53566c","6368f2eea3e9634aebcc2f6b","636b4899e635f966796d71ea","1603","","","","39","","","","key","16.665006410256467","683","312.5","true","1","146.30213314559998","2.5769803776000004","11","-1","1","","","","","","","","","","","","",""
"psychophysics","37","196846","0.0-6.0-0.31","60895dd42aa4dab10a53566c","6368f2eea3e9634aebcc2f6b","636b4899e635f966796d71ea","1170.3999999761581","","","","39","","","","key","16.665387596899386","683","312.5","true","-1","146.30213314559998","2.0615843020800004","12","1","-1","","","","","","","","","","","","",""
"psychophysics","38","199325","0.0-6.0-0.32","60895dd42aa4dab10a53566c","6368f2eea3e9634aebcc2f6b","636b4899e635f966796d71ea","1474.300000011921","","","","39","","","","key","16.66535135135141","683","312.5","true","-1","148.36371744768","2.0615843020800004","12","1","1","","","","","","","","","","","","",""
"psychophysics","39","200381","0.0-6.0-0.33","60895dd42aa4dab10a53566c","6368f2eea3e9634aebcc2f6b","636b4899e635f966796d71ea","47.30000001192093","","","","37","","","","key","16.6643709677418","683","312.5","true","-1","150.42530174976","2.0615843020800004","12","-1","1","","","","","","","","","","","","",""
"psychophysics","40","202397","0.0-6.0-0.34","60895dd42aa4dab10a53566c","6368f2eea3e9634aebcc2f6b","636b4899e635f966796d71ea","1013.2000000476837","","","","37","","","","key","16.66532500000006","683","312.5","true","-1","150.42530174976","1.6492674416640005","13","-1","-1","","","","","","","","","","","","",""
"psychophysics","41","203406","0.0-6.0-0.35","60895dd42aa4dab10a53566c","6368f2eea3e9634aebcc2f6b","636b4899e635f966796d71ea","5","","","","37","","","","key","16.665466666666422","683","312.5","true","-1","148.776034308096","1.6492674416640005","13","-1","-1","","","","","","","","","","","","",""
"psychophysics","42","205071","0.0-6.0-0.36","60895dd42aa4dab10a53566c","6368f2eea3e9634aebcc2f6b","636b4899e635f966796d71ea","653.3999999761581","","","","37","","","","key","16.665727272727338","683","312.5","true","-1","148.776034308096","1.6492674416640005","13","-1","-1","","","","","","","","","","","","",""
"psychophysics","43","206719","0.0-6.0-0.37","60895dd42aa4dab10a53566c","6368f2eea3e9634aebcc2f6b","636b4899e635f966796d71ea","640.8000000119209","","","","39","","","","key","16.66474489795908","683","312.5","true","1","147.126766866432","1.6492674416640005","13","-1","-1","","","","","","","","","","","","",""
"psychophysics","44","209693","0.0-6.0-0.38","60895dd42aa4dab10a53566c","6368f2eea3e9634aebcc2f6b","636b4899e635f966796d71ea","1962.4000000357628","","","","39","","","","key","16.665220338983087","683","312.5","true","1","147.126766866432","1.6492674416640005","13","-1","-1","","","","","","","","","","","","",""
"psychophysics","45","210734","0.0-6.0-0.39","60895dd42aa4dab10a53566c","6368f2eea3e9634aebcc2f6b","636b4899e635f966796d71ea","38.69999998807907","","","","39","","","","key","16.66437096774227","683","312.5","true","1","145.477499424768","1.6492674416640005","13","-1","-1","","","","","","","","","","","","",""
"html-keyboard-response","46","223326","0.0-7.0","60895dd42aa4dab10a53566c","6368f2eea3e9634aebcc2f6b","636b4899e635f966796d71ea","12588.199999988079","<p>Well Done !</p><p>Prepare for a new block.</p><p>DON'T EXIT THE FULL SCREEN MODE</p><p>Press the Spacebar to start.</p>","","","32","","","","","","","","","","","","","","","true","146.8372860706816","","","","","","","","","","",""
"psychophysics","47","225070","0.0-8.0-0.0","60895dd42aa4dab10a53566c","6368f2eea3e9634aebcc2f6b","636b4899e635f966796d71ea","740.6000000238419","","","","37","","","","key","16.665628571428325","683","312.5","true","-1","180","30","0","-1","","","","","","","","","","","","","",""
"psychophysics","48","226461","0.0-8.0-0.1","60895dd42aa4dab10a53566c","6368f2eea3e9634aebcc2f6b","636b4899e635f966796d71ea","389.69999998807907","","","","37","","","","key","16.66643902439008","683","312.5","true","-1","180","30","0","-1","-1","","","","","","","","","","","","",""
"psychophysics","49","227725","0.0-8.0-0.2","60895dd42aa4dab10a53566c","6368f2eea3e9634aebcc2f6b","636b4899e635f966796d71ea","261.80000001192093","","","","37","","","","key","16.666053333333306","683","312.5","true","-1","150","30","0","-1","-1","","","","","","","","","","","","",""
"psychophysics","50","229213","0.0-8.0-0.3","60895dd42aa4dab10a53566c","6368f2eea3e9634aebcc2f6b","636b4899e635f966796d71ea","486.0999999642372","","","","39","","","","key","16.665840909091045","683","312.5","true","1","150","30","0","-1","-1","","","","","","","","","","","","",""
"psychophysics","51","231151","0.0-8.0-0.4","60895dd42aa4dab10a53566c","6368f2eea3e9634aebcc2f6b","636b4899e635f966796d71ea","934.5","","","","37","","","","key","16.66554310344835","683","312.5","true","-1","129","30","0","-1","-1","","","","","","","","","","","","",""
"psychophysics","52","233086","0.0-8.0-0.5","60895dd42aa4dab10a53566c","6368f2eea3e9634aebcc2f6b","636b4899e635f966796d71ea","931.6999999880791","","","","37","","","","key","16.66550434782605","683","312.5","true","1","129","24","1","1","-1","","","","","","","","","","","","",""
"psychophysics","53","234557","0.0-8.0-0.6","60895dd42aa4dab10a53566c","6368f2eea3e9634aebcc2f6b","636b4899e635f966796d71ea","470.30000001192093","","","","37","","","","key","16.665045977011456","683","312.5","true","-1","153","24","1","-1","1","","","","","","","","","","","","",""
"psychophysics","54","236013","0.0-8.0-0.7","60895dd42aa4dab10a53566c","6368f2eea3e9634aebcc2f6b","636b4899e635f966796d71ea","453.89999997615814","","","","39","","","","key","16.665639534883667","683","312.5","true","1","153","19.2","2","-1","-1","","","","","","","","","","","","",""
"psychophysics","55","237502","0.0-8.0-0.8","60895dd42aa4dab10a53566c","6368f2eea3e9634aebcc2f6b","636b4899e635f966796d71ea","485.0999999642372","","","","39","","","","key","16.66665168539353","683","312.5","true","1","133.8","19.2","2","-1","-1","","","","","","","","","","","","",""
"psychophysics","56","239005","0.0-8.0-0.9","60895dd42aa4dab10a53566c","6368f2eea3e9634aebcc2f6b","636b4899e635f966796d71ea","501.4000000357628","","","","39","","","","key","16.66551685393258","683","312.5","true","1","133.8","19.2","2","-1","-1","","","","","","","","","","","","",""
"psychophysics","57","240557","0.0-8.0-0.10","60895dd42aa4dab10a53566c","6368f2eea3e9634aebcc2f6b","636b4899e635f966796d71ea","550.3000000119209","","","","37","","","","key","16.665086956521996","683","312.5","true","-1","129","19.2","2","-1","-1","","","","","","","","","","","","",""
"psychophysics","58","242653","0.0-8.0-0.11","60895dd42aa4dab10a53566c","6368f2eea3e9634aebcc2f6b","636b4899e635f966796d71ea","1093.9000000357628","","","","37","","","","key","16.665023999999743","683","312.5","true","1","129","15.36","3","1","-1","","","","","","","","","","","","",""
"psychophysics","59","244173","0.0-8.0-0.12","60895dd42aa4dab10a53566c","6368f2eea3e9634aebcc2f6b","636b4899e635f966796d71ea","518","","","","37","","","","key","16.665011111110733","683","312.5","true","-1","144.36","15.36","3","-1","1","","","","","","","","","","","","",""
"psychophysics","60","245661","0.0-8.0-0.13","60895dd42aa4dab10a53566c","6368f2eea3e9634aebcc2f6b","636b4899e635f966796d71ea","485.89999997615814","","","","37","","","","key","16.66546590909076","683","312.5","true","-1","144.36","12.287999999999998","4","-1","-1","","","","","","","","","","","","",""
"psychophysics","61","247741","0.0-8.0-0.14","60895dd42aa4dab10a53566c","6368f2eea3e9634aebcc2f6b","636b4899e635f966796d71ea","1077.800000011921","","","","39","","","","key","16.665766129032203","683","312.5","true","-1","132.072","9.8304","5","1","-1","","","","","","","","","","","","",""
"psychophysics","62","249245","0.0-8.0-0.15","60895dd42aa4dab10a53566c","6368f2eea3e9634aebcc2f6b","636b4899e635f966796d71ea","502.30000001192093","","","","39","","","","key","16.665348314606256","683","312.5","true","1","141.9024","9.8304","5","-1","1","","","","","","","","","","","","",""
"psychophysics","63","250621","0.0-8.0-0.16","60895dd42aa4dab10a53566c","6368f2eea3e9634aebcc2f6b","636b4899e635f966796d71ea","372.69999998807907","","","","39","","","","key","16.665963414634106","683","312.5","true","1","141.9024","7.864319999999999","6","-1","-1","","","","","","","","","","","","",""
"psychophysics","64","252285","0.0-8.0-0.17","60895dd42aa4dab10a53566c","6368f2eea3e9634aebcc2f6b","636b4899e635f966796d71ea","661.5","","","","39","","","","key","16.66540404040404","683","312.5","true","-1","134.03808","6.291456","7","1","-1","","","","","","","","","","","","",""
"psychophysics","65","253934","0.0-8.0-0.18","60895dd42aa4dab10a53566c","6368f2eea3e9634aebcc2f6b","636b4899e635f966796d71ea","647","","","","37","","","","key","16.665224489795722","683","312.5","true","-1","140.32953600000002","6.291456","7","-1","1","","","","","","","","","","","","",""
"psychophysics","66","255550","0.0-8.0-0.19","60895dd42aa4dab10a53566c","6368f2eea3e9634aebcc2f6b","636b4899e635f966796d71ea","614.1999999880791","","","","39","","","","key","16.665187500000076","683","312.5","true","1","140.32953600000002","5.033164800000001","8","-1","-1","","","","","","","","","","","","",""
"psychophysics","67","257231","0.0-8.0-0.20","60895dd42aa4dab10a53566c","6368f2eea3e9634aebcc2f6b","636b4899e635f966796d71ea","678.9000000357628","","","","39","","","","key","16.66556565656569","683","312.5","true","-1","135.2963712","4.0265318400000005","9","1","-1","","","","","","","","","","","","",""
"psychophysics","68","259437","0.0-8.0-0.21","60895dd42aa4dab10a53566c","6368f2eea3e9634aebcc2f6b","636b4899e635f966796d71ea","1204.2999999523163","","","","37","","","","key","16.665606060605956","683","312.5","true","-1","139.32290304","4.0265318400000005","9","-1","1","","","","","","","","","","","","",""
"psychophysics","69","261037","0.0-8.0-0.22","60895dd42aa4dab10a53566c","6368f2eea3e9634aebcc2f6b","636b4899e635f966796d71ea","597.1999999880791","","","","39","","","","key","16.665852631578883","683","312.5","true","1","139.32290304","3.2212254720000004","10","-1","-1","","","","","","","","","","","","",""
"psychophysics","70","262669","0.0-8.0-0.23","60895dd42aa4dab10a53566c","6368f2eea3e9634aebcc2f6b","636b4899e635f966796d71ea","630.5","","","","37","","","","key","16.66519587628841","683","312.5","true","1","136.101677568","2.5769803776000004","11","1","-1","","","","","","","","","","","","",""
"psychophysics","71","264093","0.0-8.0-0.24","60895dd42aa4dab10a53566c","6368f2eea3e9634aebcc2f6b","636b4899e635f966796d71ea","421.9000000357628","","","","39","","","","key","16.66604761904732","683","312.5","true","1","138.6786579456","2.5769803776000004","11","-1","1","","","","","","","","","","","","",""
"psychophysics","72","265566","0.0-8.0-0.25","60895dd42aa4dab10a53566c","6368f2eea3e9634aebcc2f6b","636b4899e635f966796d71ea","470.60000002384186","","","","37","","","","key","16.666511363636925","683","312.5","true","-1","138.6786579456","2.0615843020800004","12","-1","-1","","","","","","","","","","","","",""
"psychophysics","73","267053","0.0-8.0-0.26","60895dd42aa4dab10a53566c","6368f2eea3e9634aebcc2f6b","636b4899e635f966796d71ea","485.10000002384186","","","","39","","","","key","16.665659090908857","683","312.5","true","1","136.61707364352","2.0615843020800004","12","-1","-1","","","","","","","","","","","","",""
"psychophysics","74","268717","0.0-8.0-0.27","60895dd42aa4dab10a53566c","6368f2eea3e9634aebcc2f6b","636b4899e635f966796d71ea","661.3000000119209","","","","39","","","","key","16.665747474747324","683","312.5","true","1","136.61707364352","2.0615843020800004","12","-1","-1","","","","","","","","","","","","",""
"psychophysics","75","270446","0.0-8.0-0.28","60895dd42aa4dab10a53566c","6368f2eea3e9634aebcc2f6b","636b4899e635f966796d71ea","725.4000000357628","","","","37","","","","key","16.665392156862698","683","312.5","true","-1","134.55548934144","2.0615843020800004","12","-1","-1","","","","","","","","","","","","",""
"psychophysics","76","271997","0.0-8.0-0.29","60895dd42aa4dab10a53566c","6368f2eea3e9634aebcc2f6b","636b4899e635f966796d71ea","547.5","","","","39","","","","key","16.664322580644605","683","312.5","true","-1","134.55548934144","1.6492674416640005","13","1","-1","","","","","","","","","","","","",""
"psychophysics","77","273549","0.0-8.0-0.30","60895dd42aa4dab10a53566c","6368f2eea3e9634aebcc2f6b","636b4899e635f966796d71ea","547.1999999880791","","","","39","","","","key","16.665021739130758","683","312.5","true","1","136.204756783104","1.6492674416640005","13","-1","1","","","","","","","","","","","","",""
"psychophysics","78","275133","0.0-8.0-0.31","60895dd42aa4dab10a53566c","6368f2eea3e9634aebcc2f6b","636b4899e635f966796d71ea","582.1999999880791","","","","39","","","","key","16.665191489361607","683","312.5","true","1","136.204756783104","1.3194139533312006","14","-1","-1","","","","","","","","","","","","",""
"psychophysics","79","277037","0.0-8.0-0.32","60895dd42aa4dab10a53566c","6368f2eea3e9634aebcc2f6b","636b4899e635f966796d71ea","902.0999999642372","","","","39","","","","key","16.665300884955784","683","312.5","true","1","134.88534282977278","1.3194139533312006","14","-1","-1","","","","","","","","","","","","",""
"psychophysics","80","278701","0.0-8.0-0.33","60895dd42aa4dab10a53566c","6368f2eea3e9634aebcc2f6b","636b4899e635f966796d71ea","661.2000000476837","","","","39","","","","key","16.66507070707075","683","312.5","true","1","134.88534282977278","1.3194139533312006","14","-1","-1","","","","","","","","","","","","",""
"psychophysics","81","280301","0.0-8.0-0.34","60895dd42aa4dab10a53566c","6368f2eea3e9634aebcc2f6b","636b4899e635f966796d71ea","598.5","","","","37","","","","key","16.665378947368527","683","312.5","true","-1","133.56592887644157","1.3194139533312006","14","-1","-1","","","","","","","","","","","","",""
"psychophysics","82","282013","0.0-8.0-0.35","60895dd42aa4dab10a53566c","6368f2eea3e9634aebcc2f6b","636b4899e635f966796d71ea","708.0999999642372","","","","37","","","","key","16.665245098039033","683","312.5","true","1","133.56592887644157","1.0555311626649604","15","1","-1","","","","","","","","","","","","",""
"psychophysics","83","283741","0.0-8.0-0.36","60895dd42aa4dab10a53566c","6368f2eea3e9634aebcc2f6b","636b4899e635f966796d71ea","724","","","","37","","","","key","16.665294117646923","683","312.5","true","1","134.62146003910652","1.0555311626649604","15","1","1","","","","","","","","","","","","",""
"psychophysics","84","287021","0.0-8.0-0.37","60895dd42aa4dab10a53566c","6368f2eea3e9634aebcc2f6b","636b4899e635f966796d71ea","2276.600000023842","","","","37","","","","key","16.665331632653203","683","312.5","true","-1","135.67699120177147","1.0555311626649604","15","-1","1","","","","","","","","","","","","",""
"psychophysics","85","289309","0.0-8.0-0.38","60895dd42aa4dab10a53566c","6368f2eea3e9634aebcc2f6b","636b4899e635f966796d71ea","1285.800000011921","","","","37","","","","key","16.6651911764707","683","312.5","true","-1","135.67699120177147","1","16","-1","-1","","","","","","","","","","","","",""
"psychophysics","86","291389","0.0-8.0-0.39","60895dd42aa4dab10a53566c","6368f2eea3e9634aebcc2f6b","636b4899e635f966796d71ea","1076.8999999761581","","","","37","","","","key","16.665201612903115","683","312.5","true","-1","134.67699120177147","1","16","-1","-1","","","","","","","","","","","","",""
"html-keyboard-response","87","301277","0.0-9.0","60895dd42aa4dab10a53566c","6368f2eea3e9634aebcc2f6b","636b4899e635f966796d71ea","9886.899999976158","<p>Well Done !</p><p>Prepare for a new block.</p><p>DON'T EXIT THE FULL SCREEN MODE</p><p>Press the Spacebar to start.</p>","","","32","","","","","","","","","","","","","","","true","135.39921830257182","","","","","","","","","","",""
"psychophysics","88","302285","0.0-10.0-0.0","60895dd42aa4dab10a53566c","6368f2eea3e9634aebcc2f6b","636b4899e635f966796d71ea","4.400000035762787","","","","39","","","","key","16.667050000000746","683","312.5","true","1","180","30","0","-1","","","","","","","","","","","","","",""
"psychophysics","89","303549","0.0-10.0-0.1","60895dd42aa4dab10a53566c","6368f2eea3e9634aebcc2f6b","636b4899e635f966796d71ea","261.60000002384186","","","","37","","","","key","16.666506666666827","683","312.5","true","-1","180","30","0","-1","-1","","","","","","","","","","","","",""
"psychophysics","90","304909","0.0-10.0-0.2","60895dd42aa4dab10a53566c","6368f2eea3e9634aebcc2f6b","636b4899e635f966796d71ea","357.69999998807907","","","","39","","","","key","16.66487500000003","683","312.5","true","1","150","30","0","-1","-1","","","","","","","","","","","","",""
"psychophysics","91","306205","0.0-10.0-0.3","60895dd42aa4dab10a53566c","6368f2eea3e9634aebcc2f6b","636b4899e635f966796d71ea","292.2000000476837","","","","37","","","","key","16.6658051948051","683","312.5","true","-1","150","30","0","-1","-1","","","","","","","","","","","","",""
"psychophysics","92","307694","0.0-10.0-0.4","60895dd42aa4dab10a53566c","6368f2eea3e9634aebcc2f6b","636b4899e635f966796d71ea","487.2999999523163","","","","37","","","","key","16.664674157303565","683","312.5","true","1","129","24","1","1","-1","","","","","","","","","","","","",""
"psychophysics","93","309068","0.0-10.0-0.5","60895dd42aa4dab10a53566c","6368f2eea3e9634aebcc2f6b","636b4899e635f966796d71ea","371.69999998807907","","","","37","","","","key","16.665123456790123","683","312.5","true","-1","153","24","1","-1","1","","","","","","","","","","","","",""
"psychophysics","94","310429","0.0-10.0-0.6","60895dd42aa4dab10a53566c","6368f2eea3e9634aebcc2f6b","636b4899e635f966796d71ea","357.5","","","","37","","","","key","16.665703703703237","683","312.5","true","-1","153","19.2","2","-1","-1","","","","","","","","","","","","",""
"psychophysics","95","311916","0.0-10.0-0.7","60895dd42aa4dab10a53566c","6368f2eea3e9634aebcc2f6b","636b4899e635f966796d71ea","485.19999998807907","","","","39","","","","key","16.66536363636392","683","312.5","true","1","133.8","19.2","2","-1","-1","","","","","","","","","","","","",""
"psychophysics","96","313709","0.0-10.0-0.8","60895dd42aa4dab10a53566c","6368f2eea3e9634aebcc2f6b","636b4899e635f966796d71ea","790.1000000238419","","","","39","","","","key","16.664289719625877","683","312.5","true","1","133.8","19.2","2","-1","-1","","","","","","","","","","","","",""
"psychophysics","97","315548","0.0-10.0-0.9","60895dd42aa4dab10a53566c","6368f2eea3e9634aebcc2f6b","636b4899e635f966796d71ea","835.5","","","","39","","","","key","16.665788990825654","683","312.5","true","-1","129","15.36","3","1","-1","","","","","","","","","","","","",""
"psychophysics","98","316893","0.0-10.0-0.10","60895dd42aa4dab10a53566c","6368f2eea3e9634aebcc2f6b","636b4899e635f966796d71ea","342.5","","","","37","","","","key","16.66496249999982","683","312.5","true","-1","144.36","15.36","3","-1","1","","","","","","","","","","","","",""
"psychophysics","99","318268","0.0-10.0-0.11","60895dd42aa4dab10a53566c","6368f2eea3e9634aebcc2f6b","636b4899e635f966796d71ea","372.5999999642372","","","","37","","","","key","16.666098765432434","683","312.5","true","-1","144.36","12.287999999999998","4","-1","-1","","","","","","","","","","","","",""
"psychophysics","100","320493","0.0-10.0-0.12","60895dd42aa4dab10a53566c","6368f2eea3e9634aebcc2f6b","636b4899e635f966796d71ea","1222.7000000476837","","","","37","","","","key","16.665353383458417","683","312.5","true","-1","132.072","12.287999999999998","4","-1","-1","","","","","","","","","","","","",""
"psychophysics","101","322556","0.0-10.0-0.13","60895dd42aa4dab10a53566c","6368f2eea3e9634aebcc2f6b","636b4899e635f966796d71ea","1060.7999999523163","","","","37","","","","key","16.665565573770674","683","312.5","true","1","132.072","9.8304","5","1","-1","","","","","","","","","","","","",""
"psychophysics","102","324045","0.0-10.0-0.14","60895dd42aa4dab10a53566c","6368f2eea3e9634aebcc2f6b","636b4899e635f966796d71ea","486.19999998807907","","","","37","","","","key","16.667011235955073","683","312.5","true","-1","141.9024","9.8304","5","-1","1","","","","","","","","","","","","",""
"psychophysics","103","325452","0.0-10.0-0.15","60895dd42aa4dab10a53566c","6368f2eea3e9634aebcc2f6b","636b4899e635f966796d71ea","405.10000002384186","","","","37","","","","key","16.665433734940105","683","312.5","true","-1","141.9024","7.864319999999999","6","-1","-1","","","","","","","","","","","","",""
"psychophysics","104","327132","0.0-10.0-0.16","60895dd42aa4dab10a53566c","6368f2eea3e9634aebcc2f6b","636b4899e635f966796d71ea","677.6000000238419","","","","39","","","","key","16.66540999999968","683","312.5","true","-1","134.03808","6.291456","7","1","-1","","","","","","","","","","","","",""
"psychophysics","105","329197","0.0-10.0-0.17","60895dd42aa4dab10a53566c","6368f2eea3e9634aebcc2f6b","636b4899e635f966796d71ea","1062.800000011921","","","","39","","","","key","16.665373983739485","683","312.5","true","1","140.32953600000002","6.291456","7","-1","1","","","","","","","","","","","","",""
"psychophysics","106","330636","0.0-10.0-0.18","60895dd42aa4dab10a53566c","6368f2eea3e9634aebcc2f6b","636b4899e635f966796d71ea","437.9000000357628","","","","37","","","","key","16.666223529411944","683","312.5","true","-1","140.32953600000002","5.033164800000001","8","-1","-1","","","","","","","","","","","","",""
"psychophysics","107","332894","0.0-10.0-0.19","60895dd42aa4dab10a53566c","6368f2eea3e9634aebcc2f6b","636b4899e635f966796d71ea","1255.199999988079","","","","37","","","","key","16.66551851851874","683","312.5","true","1","135.2963712","4.0265318400000005","9","1","-1","","","","","","","","","","","","",""
"psychophysics","108","334477","0.0-10.0-0.20","60895dd42aa4dab10a53566c","6368f2eea3e9634aebcc2f6b","636b4899e635f966796d71ea","581.6000000238419","","","","39","","","","key","16.664606382978704","683","312.5","true","1","139.32290304","4.0265318400000005","9","-1","1","","","","","","","","","","","","",""
"psychophysics","109","335916","0.0-10.0-0.21","60895dd42aa4dab10a53566c","6368f2eea3e9634aebcc2f6b","636b4899e635f966796d71ea","437.5999999642372","","","","39","","","","key","16.665847058823633","683","312.5","true","1","139.32290304","3.2212254720000004","10","-1","-1","","","","","","","","","","","","",""
"psychophysics","110","337980","0.0-10.0-0.22","60895dd42aa4dab10a53566c","6368f2eea3e9634aebcc2f6b","636b4899e635f966796d71ea","1062","","","","39","","","","key","16.665650406504064","683","312.5","true","1","136.101677568","3.2212254720000004","10","-1","-1","","","","","","","","","","","","",""
"psychophysics","111","340158","0.0-10.0-0.23","60895dd42aa4dab10a53566c","6368f2eea3e9634aebcc2f6b","636b4899e635f966796d71ea","1175.3999999761581","","","","39","","","","key","16.6645615384614","683","312.5","true","-1","136.101677568","2.5769803776000004","11","1","-1","","","","","","","","","","","","",""
"psychophysics","112","341564","0.0-10.0-0.24","60895dd42aa4dab10a53566c","6368f2eea3e9634aebcc2f6b","636b4899e635f966796d71ea","402.60000002384186","","","","37","","","","key","16.66630120481945","683","312.5","true","-1","138.6786579456","2.5769803776000004","11","-1","1","","","","","","","","","","","","",""
"psychophysics","113","343052","0.0-10.0-0.25","60895dd42aa4dab10a53566c","6368f2eea3e9634aebcc2f6b","636b4899e635f966796d71ea","485.7000000476837","","","","37","","","","key","16.664715909090855","683","312.5","true","-1","138.6786579456","2.0615843020800004","12","-1","-1","","","","","","","","","","","","",""
"psychophysics","114","344396","0.0-10.0-0.26","60895dd42aa4dab10a53566c","6368f2eea3e9634aebcc2f6b","636b4899e635f966796d71ea","342.10000002384186","","","","39","","","","key","16.665262500000246","683","312.5","true","1","136.61707364352","2.0615843020800004","12","-1","-1","","","","","","","","","","","","",""
"psychophysics","115","346332","0.0-10.0-0.27","60895dd42aa4dab10a53566c","6368f2eea3e9634aebcc2f6b","636b4899e635f966796d71ea","934.5999999642372","","","","39","","","","key","16.66567826086969","683","312.5","true","1","136.61707364352","2.0615843020800004","12","-1","-1","","","","","","","","","","","","",""
"psychophysics","116","349036","0.0-10.0-0.28","60895dd42aa4dab10a53566c","6368f2eea3e9634aebcc2f6b","636b4899e635f966796d71ea","1702.300000011921","","","","37","","","","key","16.665863354037434","683","312.5","true","-1","134.55548934144","2.0615843020800004","12","-1","-1","","","","","","","","","","","","",""
"psychophysics","117","350332","0.0-10.0-0.29","60895dd42aa4dab10a53566c","6368f2eea3e9634aebcc2f6b","636b4899e635f966796d71ea","293.89999997615814","","","","39","","","","key","16.66661038961074","683","312.5","true","1","134.55548934144","2.0615843020800004","12","-1","-1","","","","","","","","","","","","",""
"psychophysics","118","352060","0.0-10.0-0.30","60895dd42aa4dab10a53566c","6368f2eea3e9634aebcc2f6b","636b4899e635f966796d71ea","725.3999999761581","","","","39","","","","key","16.66505825242708","683","312.5","true","-1","132.49390503936","1.6492674416640005","13","1","-1","","","","","","","","","","","","",""
"psychophysics","119","353596","0.0-10.0-0.31","60895dd42aa4dab10a53566c","6368f2eea3e9634aebcc2f6b","636b4899e635f966796d71ea","532.8999999761581","","","","37","","","","key","16.665802197802076","683","312.5","true","-1","134.14317248102398","1.6492674416640005","13","-1","1","","","","","","","","","","","","",""
"psychophysics","120","355116","0.0-10.0-0.32","60895dd42aa4dab10a53566c","6368f2eea3e9634aebcc2f6b","636b4899e635f966796d71ea","517.8999999761581","","","","37","","","","key","16.665644444444396","683","312.5","true","1","134.14317248102398","1.3194139533312006","14","1","-1","","","","","","","","","","","","",""
"psychophysics","121","356892","0.0-10.0-0.33","60895dd42aa4dab10a53566c","6368f2eea3e9634aebcc2f6b","636b4899e635f966796d71ea","774","","","","37","","","","key","16.665207547169697","683","312.5","true","1","135.4625864343552","1.3194139533312006","14","1","1","","","","","","","","","","","","",""
"psychophysics","122","358189","0.0-10.0-0.34","60895dd42aa4dab10a53566c","6368f2eea3e9634aebcc2f6b","636b4899e635f966796d71ea","294.69999998807907","","","","39","","","","key","16.664155844156024","683","312.5","true","1","136.7820003876864","1.3194139533312006","14","-1","1","","","","","","","","","","","","",""
"psychophysics","123","359580","0.0-10.0-0.35","60895dd42aa4dab10a53566c","6368f2eea3e9634aebcc2f6b","636b4899e635f966796d71ea","387.5","","","","39","","","","key","16.665719512195565","683","312.5","true","1","136.7820003876864","1.0555311626649604","15","-1","-1","","","","","","","","","","","","",""
"psychophysics","124","361148","0.0-10.0-0.36","60895dd42aa4dab10a53566c","6368f2eea3e9634aebcc2f6b","636b4899e635f966796d71ea","565.8999999761581","","","","39","","","","key","16.665946236559346","683","312.5","true","1","135.72646922502145","1.0555311626649604","15","-1","-1","","","","","","","","","","","","",""
"psychophysics","125","362892","0.0-10.0-0.37","60895dd42aa4dab10a53566c","6368f2eea3e9634aebcc2f6b","636b4899e635f966796d71ea","741.5","","","","39","","","","key","16.66638461538465","683","312.5","true","-1","135.72646922502145","1","16","1","-1","","","","","","","","","","","","",""
"psychophysics","126","364508","0.0-10.0-0.38","60895dd42aa4dab10a53566c","6368f2eea3e9634aebcc2f6b","636b4899e635f966796d71ea","613.6999999880791","","","","39","","","","key","16.66573958333356","683","312.5","true","1","136.72646922502145","1","16","-1","1","","","","","","","","","","","","",""
"psychophysics","127","366796","0.0-10.0-0.39","60895dd42aa4dab10a53566c","6368f2eea3e9634aebcc2f6b","636b4899e635f966796d71ea","1285.1000000238419","","","","37","","","","key","16.665117647058864","683","312.5","true","-1","136.72646922502145","1","17","-1","-1","","","","","","","","","","","","",""
"html-keyboard-response","128","379676","0.0-11.0","60895dd42aa4dab10a53566c","6368f2eea3e9634aebcc2f6b","636b4899e635f966796d71ea","12879.299999952316","<p>Well Done !</p><p>Prepare for a new block.</p><p>DON'T EXIT THE FULL SCREEN MODE</p><p>Press the Spacebar to start.</p>","","","32","","","","","","","","","","","","","","","true","135.7157665351161","","","","","","","","","","",""
"psychophysics","129","380716","0.0-12.0-0.0","60895dd42aa4dab10a53566c","6368f2eea3e9634aebcc2f6b","636b4899e635f966796d71ea","36.80000001192093","","","","39","","","","key","16.665532258065088","683","312.5","true","1","180","30","0","-1","","","","","","","","","","","","","",""
"psychophysics","130","383389","0.0-12.0-0.1","60895dd42aa4dab10a53566c","6368f2eea3e9634aebcc2f6b","636b4899e635f966796d71ea","1670.800000011921","","","","37","","","","key","16.665337499999804","683","312.5","true","-1","180","30","0","-1","-1","","","","","","","","","","","","",""
"psychophysics","131","384460","0.0-12.0-0.2","60895dd42aa4dab10a53566c","6368f2eea3e9634aebcc2f6b","636b4899e635f966796d71ea","68.89999997615814","","","","37","","","","key","16.665015873016","683","312.5","true","-1","150","30","0","-1","-1","","","","","","","","","","","","",""
"psychophysics","132","387227","0.0-12.0-0.3","60895dd42aa4dab10a53566c","6368f2eea3e9634aebcc2f6b","636b4899e635f966796d71ea","1765.5","","","","37","","","","key","16.66506666666687","683","312.5","true","-1","150","30","0","-1","-1","","","","","","","","","","","","",""
"psychophysics","133","389547","0.0-12.0-0.4","60895dd42aa4dab10a53566c","6368f2eea3e9634aebcc2f6b","636b4899e635f966796d71ea","1317.6000000238419","","","","37","","","","key","16.665963768115876","683","312.5","true","1","129","24","1","1","-1","","","","","","","","","","","","",""
"psychophysics","134","393723","0.0-12.0-0.5","60895dd42aa4dab10a53566c","6368f2eea3e9634aebcc2f6b","636b4899e635f966796d71ea","3173.599999964237","","","","39","","","","key","16.66530799999996","683","312.5","true","-1","153","24","1","1","1","","","","","","","","","","","","",""
"psychophysics","135","395036","0.0-12.0-0.6","60895dd42aa4dab10a53566c","6368f2eea3e9634aebcc2f6b","636b4899e635f966796d71ea","310.5","","","","39","","","","key","16.664538461538122","683","312.5","true","1","177","24","1","-1","1","","","","","","","","","","","","",""
"psychophysics","136","396172","0.0-12.0-0.7","60895dd42aa4dab10a53566c","6368f2eea3e9634aebcc2f6b","636b4899e635f966796d71ea","132.69999998807907","","","","39","","","","key","16.667238805970392","683","312.5","true","1","177","19.2","2","-1","-1","","","","","","","","","","","","",""
"psychophysics","137","397211","0.0-12.0-0.8","60895dd42aa4dab10a53566c","6368f2eea3e9634aebcc2f6b","636b4899e635f966796d71ea","37.5","","","","37","","","","key","16.66642622950823","683","312.5","true","-1","157.8","19.2","2","-1","-1","","","","","","","","","","","","",""
"psychophysics","138","398236","0.0-12.0-0.9","60895dd42aa4dab10a53566c","6368f2eea3e9634aebcc2f6b","636b4899e635f966796d71ea","22.400000035762787","","","","39","","","","key","16.665327868852803","683","312.5","true","1","157.8","19.2","2","-1","-1","","","","","","","","","","","","",""
"psychophysics","139","399388","0.0-12.0-0.10","60895dd42aa4dab10a53566c","6368f2eea3e9634aebcc2f6b","636b4899e635f966796d71ea","148.9000000357628","","","","39","","","","key","16.665250000000334","683","312.5","true","1","138.60000000000002","19.2","2","-1","-1","","","","","","","","","","","","",""
"psychophysics","140","400732","0.0-12.0-0.11","60895dd42aa4dab10a53566c","6368f2eea3e9634aebcc2f6b","636b4899e635f966796d71ea","341.5","","","","37","","","","key","16.666949367088773","683","312.5","true","-1","138.60000000000002","19.2","2","-1","-1","","","","","","","","","","","","",""
"psychophysics","141","401963","0.0-12.0-0.12","60895dd42aa4dab10a53566c","6368f2eea3e9634aebcc2f6b","636b4899e635f966796d71ea","229.4000000357628","","","","39","","","","key","16.666410958903924","683","312.5","true","1","129","19.2","2","-1","-1","","","","","","","","","","","","",""
"psychophysics","142","403691","0.0-12.0-0.13","60895dd42aa4dab10a53566c","6368f2eea3e9634aebcc2f6b","636b4899e635f966796d71ea","726.1000000238419","","","","37","","","","key","16.665398058252073","683","312.5","true","1","129","15.36","3","1","-1","","","","","","","","","","","","",""
"psychophysics","143","404907","0.0-12.0-0.14","60895dd42aa4dab10a53566c","6368f2eea3e9634aebcc2f6b","636b4899e635f966796d71ea","213.69999998807907","","","","39","","","","key","16.664888888889337","683","312.5","true","1","144.36","15.36","3","-1","1","","","","","","","","","","","","",""
"psychophysics","144","405947","0.0-12.0-0.15","60895dd42aa4dab10a53566c","6368f2eea3e9634aebcc2f6b","636b4899e635f966796d71ea","38.19999998807907","","","","37","","","","key","16.666114754098864","683","312.5","true","-1","144.36","12.287999999999998","4","-1","-1","","","","","","","","","","","","",""
"psychophysics","145","407323","0.0-12.0-0.16","60895dd42aa4dab10a53566c","6368f2eea3e9634aebcc2f6b","636b4899e635f966796d71ea","374","","","","37","","","","key","16.665939024389754","683","312.5","true","-1","132.072","12.287999999999998","4","-1","-1","","","","","","","","","","","","",""
"psychophysics","146","409099","0.0-12.0-0.17","60895dd42aa4dab10a53566c","6368f2eea3e9634aebcc2f6b","636b4899e635f966796d71ea","774.3000000119209","","","","39","","","","key","16.665533333333276","683","312.5","true","1","132.072","12.287999999999998","4","-1","-1","","","","","","","","","","","","",""
"psychophysics","147","410939","0.0-12.0-0.18","60895dd42aa4dab10a53566c","6368f2eea3e9634aebcc2f6b","636b4899e635f966796d71ea","837.7999999523163","","","","39","","","","key","16.666245454545557","683","312.5","true","1","129","12.287999999999998","4","-1","-1","","","","","","","","","","","","",""
"psychophysics","148","412555","0.0-12.0-0.19","60895dd42aa4dab10a53566c","6368f2eea3e9634aebcc2f6b","636b4899e635f966796d71ea","614.3999999761581","","","","39","","","","key","16.666031250000135","683","312.5","true","1","129","12.287999999999998","4","-1","-1","","","","","","","","","","","","",""
"psychophysics","149","414043","0.0-12.0-0.20","60895dd42aa4dab10a53566c","6368f2eea3e9634aebcc2f6b","636b4899e635f966796d71ea","485.69999998807907","","","","37","","","","key","16.665738636363873","683","312.5","true","-1","129","12.287999999999998","4","-1","-1","","","","","","","","","","","","",""
"psychophysics","150","415979","0.0-12.0-0.21","60895dd42aa4dab10a53566c","6368f2eea3e9634aebcc2f6b","636b4899e635f966796d71ea","934.3000000119209","","","","37","","","","key","16.665060869565377","683","312.5","true","-1","129","12.287999999999998","4","-1","-1","","","","","","","","","","","","",""
"psychophysics","151","417820","0.0-12.0-0.22","60895dd42aa4dab10a53566c","6368f2eea3e9634aebcc2f6b","636b4899e635f966796d71ea","838.2000000476837","","","","37","","","","key","16.66478181818172","683","312.5","true","-1","129","12.287999999999998","4","-1","-1","","","","","","","","","","","","",""
"psychophysics","152","419436","0.0-12.0-0.23","60895dd42aa4dab10a53566c","6368f2eea3e9634aebcc2f6b","636b4899e635f966796d71ea","614","","","","37","","","","key","16.66517708333352","683","312.5","true","-1","129","12.287999999999998","4","-1","-1","","","","","","","","","","","","",""
"psychophysics","153","423323","0.0-12.0-0.24","60895dd42aa4dab10a53566c","6368f2eea3e9634aebcc2f6b","636b4899e635f966796d71ea","2884.899999976158","","","","37","","","","key","16.66543103448278","683","312.5","true","1","129","9.8304","5","1","-1","","","","","","","","","","","","",""
"psychophysics","154","424443","0.0-12.0-0.25","60895dd42aa4dab10a53566c","6368f2eea3e9634aebcc2f6b","636b4899e635f966796d71ea","118.20000004768372","","","","37","","","","key","16.664818181817694","683","312.5","true","-1","138.8304","9.8304","5","-1","1","","","","","","","","","","","","",""
"psychophysics","155","425675","0.0-12.0-0.26","60895dd42aa4dab10a53566c","6368f2eea3e9634aebcc2f6b","636b4899e635f966796d71ea","230.0999999642372","","","","39","","","","key","16.666287671232418","683","312.5","true","1","138.8304","7.864319999999999","6","-1","-1","","","","","","","","","","","","",""
"psychophysics","156","427387","0.0-12.0-0.27","60895dd42aa4dab10a53566c","6368f2eea3e9634aebcc2f6b","636b4899e635f966796d71ea","709.5999999642372","","","","39","","","","key","16.66604901960761","683","312.5","true","1","130.96608","7.864319999999999","6","-1","-1","","","","","","","","","","","","",""
"psychophysics","157","429916","0.0-12.0-0.28","60895dd42aa4dab10a53566c","6368f2eea3e9634aebcc2f6b","636b4899e635f966796d71ea","1526.9000000357628","","","","37","","","","key","16.66482119205283","683","312.5","true","-1","130.96608","7.864319999999999","6","-1","-1","","","","","","","","","","","","",""
"psychophysics","158","431452","0.0-12.0-0.29","60895dd42aa4dab10a53566c","6368f2eea3e9634aebcc2f6b","636b4899e635f966796d71ea","532.3999999761581","","","","37","","","","key","16.664835164835164","683","312.5","true","-1","129","7.864319999999999","6","-1","-1","","","","","","","","","","","","",""
"psychophysics","159","433163","0.0-12.0-0.30","60895dd42aa4dab10a53566c","6368f2eea3e9634aebcc2f6b","636b4899e635f966796d71ea","709.5","","","","37","","","","key","16.665366336633568","683","312.5","true","1","129","6.291456","7","1","-1","","","","","","","","","","","","",""
"psychophysics","160","435132","0.0-12.0-0.31","60895dd42aa4dab10a53566c","6368f2eea3e9634aebcc2f6b","636b4899e635f966796d71ea","966.8999999761581","","","","37","","","","key","16.665161016949163","683","312.5","true","-1","135.291456","6.291456","7","-1","1","","","","","","","","","","","","",""
"psychophysics","161","436571","0.0-12.0-0.32","60895dd42aa4dab10a53566c","6368f2eea3e9634aebcc2f6b","636b4899e635f966796d71ea","435.69999998807907","","","","39","","","","key","16.665894117647344","683","312.5","true","1","135.291456","5.033164800000001","8","-1","-1","","","","","","","","","","","","",""
"psychophysics","162","438699","0.0-12.0-0.33","60895dd42aa4dab10a53566c","6368f2eea3e9634aebcc2f6b","636b4899e635f966796d71ea","1126","","","","39","","","","key","16.666078740157513","683","312.5","true","1","130.2582912","5.033164800000001","8","-1","-1","","","","","","","","","","","","",""
"psychophysics","163","440747","0.0-12.0-0.34","60895dd42aa4dab10a53566c","6368f2eea3e9634aebcc2f6b","636b4899e635f966796d71ea","1045.300000011921","","","","39","","","","key","16.665347107437878","683","312.5","true","-1","130.2582912","4.0265318400000005","9","1","-1","","","","","","","","","","","","",""
"psychophysics","164","442587","0.0-12.0-0.35","60895dd42aa4dab10a53566c","6368f2eea3e9634aebcc2f6b","636b4899e635f966796d71ea","837.1999999880791","","","","39","","","","key","16.66579090909112","683","312.5","true","-1","134.28482304","4.0265318400000005","9","1","1","","","","","","","","","","","","",""
"psychophysics","165","444891","0.0-12.0-0.36","60895dd42aa4dab10a53566c","6368f2eea3e9634aebcc2f6b","636b4899e635f966796d71ea","1301.9000000357628","","","","37","","","","key","16.665226277372252","683","312.5","true","1","138.31135487999998","4.0265318400000005","9","1","1","","","","","","","","","","","","",""
"psychophysics","166","446843","0.0-12.0-0.37","60895dd42aa4dab10a53566c","6368f2eea3e9634aebcc2f6b","636b4899e635f966796d71ea","949.6999999880791","","","","37","","","","key","16.66616379310365","683","312.5","true","-1","142.33788671999997","4.0265318400000005","9","-1","1","","","","","","","","","","","","",""
"psychophysics","167","448571","0.0-12.0-0.38","60895dd42aa4dab10a53566c","6368f2eea3e9634aebcc2f6b","636b4899e635f966796d71ea","725.8999999761581","","","","37","","","","key","16.666077669902627","683","312.5","true","-1","142.33788671999997","3.2212254720000004","10","-1","-1","","","","","","","","","","","","",""
"psychophysics","168","450155","0.0-12.0-0.39","60895dd42aa4dab10a53566c","6368f2eea3e9634aebcc2f6b","636b4899e635f966796d71ea","582.3000000119209","","","","39","","","","key","16.665510638298077","683","312.5","true","1","139.11666124799996","3.2212254720000004","10","-1","-1","","","","","","","","","","","","",""
"html-keyboard-response","169","454923","0.0-13.0","60895dd42aa4dab10a53566c","6368f2eea3e9634aebcc2f6b","636b4899e635f966796d71ea","4767.200000047684","<p>Well Done !</p><p>Prepare for a new block.</p><p>DON'T EXIT THE FULL SCREEN MODE</p><p>Press the Spacebar to start.</p>","","","32","","","","","","","","","","","","","","","true","135.00540446719998","","","","","","","","","","",""
"html-keyboard-response","170","455027","0.0-14.0","60895dd42aa4dab10a53566c","6368f2eea3e9634aebcc2f6b","636b4899e635f966796d71ea","null","","","","null","","","","","","","","","","","","","","","","","138.2394188438924","true","148.4788376877848","","","","","","","",""
"instructions","171","506301","0.0-15.0","60895dd42aa4dab10a53566c","6368f2eea3e9634aebcc2f6b","636b4899e635f966796d71ea","51273.40000003576","","","","","","","[{""page_index"":0,""viewing_time"":23433.100000023842},{""page_index"":1,""viewing_time"":3687.599999964237},{""page_index"":2,""viewing_time"":24152.100000023842}]","","","","","","","","","","","","","","","","","","","","","","","",""
"psychophysics","172","509313","0.0-16.0-0.0","60895dd42aa4dab10a53566c","6368f2eea3e9634aebcc2f6b","636b4899e635f966796d71ea","null","","","","null","","","","key","16.664583333333333","683","312.5","","","","","","","","","","","","","","","","","","","",""
"psychophysics","173","509815","0.0-16.0-1.0","60895dd42aa4dab10a53566c","6368f2eea3e9634aebcc2f6b","636b4899e635f966796d71ea","null","","","","null","","","","key","16.664655172414594","683","312.5","","","","","","","","","","","","","148","1","2","false","","","",""
"psychophysics","174","511466","0.0-16.0-2.0","60895dd42aa4dab10a53566c","6368f2eea3e9634aebcc2f6b","636b4899e635f966796d71ea","1648","","","","90","","","","key","16.665897959183987","683","312.5","","","","","","","","","","","","","","","","","","","",""
"psychophysics","175","512467","0.0-16.0-0.1","60895dd42aa4dab10a53566c","6368f2eea3e9634aebcc2f6b","636b4899e635f966796d71ea","null","","","","null","","","","key","16.66545762711844","683","312.5","","","","","","","","","","","","","","","","","","","",""
"psychophysics","176","512971","0.0-16.0-1.1","60895dd42aa4dab10a53566c","6368f2eea3e9634aebcc2f6b","636b4899e635f966796d71ea","null","","","","null","","","","key","16.66848275862265","683","312.5","","","","","","","","","","","","","148","-1","6","false","","","",""
"psychophysics","177","513498","0.0-16.0-2.1","60895dd42aa4dab10a53566c","6368f2eea3e9634aebcc2f6b","636b4899e635f966796d71ea","525.9000000357628","","","","77","","","","key","16.665290322579114","683","312.5","","","","","","","","","","","","","","","","","","","",""
"psychophysics","178","514499","0.0-16.0-0.2","60895dd42aa4dab10a53566c","6368f2eea3e9634aebcc2f6b","636b4899e635f966796d71ea","null","","","","null","","","","key","16.666457627118582","683","312.5","","","","","","","","","","","","","","","","","","","",""
"psychophysics","179","515000","0.0-16.0-1.2","60895dd42aa4dab10a53566c","6368f2eea3e9634aebcc2f6b","636b4899e635f966796d71ea","null","","","","null","","","","key","16.66513793103413","683","312.5","","","","","","","","","","","","","148","-1","3","false","","","",""
"psychophysics","180","515628","0.0-16.0-2.2","60895dd42aa4dab10a53566c","6368f2eea3e9634aebcc2f6b","636b4899e635f966796d71ea","625.8999999761581","","","","90","","","","key","16.663378378379512","683","312.5","","","","","","","","","","","","","","","","","","","",""
"psychophysics","181","516629","0.0-16.0-0.3","60895dd42aa4dab10a53566c","6368f2eea3e9634aebcc2f6b","636b4899e635f966796d71ea","null","","","","null","","","","key","16.665322033899553","683","312.5","","","","","","","","","","","","","","","","","","","",""
"psychophysics","182","517131","0.0-16.0-1.3","60895dd42aa4dab10a53566c","6368f2eea3e9634aebcc2f6b","636b4899e635f966796d71ea","null","","","","null","","","","key","16.66620689654996","683","312.5","","","","","","","","","","","","","148","1","6","false","","","",""
"psychophysics","183","518875","0.0-16.0-2.3","60895dd42aa4dab10a53566c","6368f2eea3e9634aebcc2f6b","636b4899e635f966796d71ea","1740.199999988079","","","","77","","","","key","16.665211538461826","683","312.5","","","","","","","","","","","","","","","","","","","",""
"psychophysics","184","519877","0.0-16.0-0.4","60895dd42aa4dab10a53566c","6368f2eea3e9634aebcc2f6b","636b4899e635f966796d71ea","null","","","","null","","","","key","16.664559322034435","683","312.5","","","","","","","","","","","","","","","","","","","",""
"psychophysics","185","520379","0.0-16.0-1.4","60895dd42aa4dab10a53566c","6368f2eea3e9634aebcc2f6b","636b4899e635f966796d71ea","null","","","","null","","","","key","16.665034482757367","683","312.5","","","","","","","","","","","","","148","1","4","false","","","",""
"psychophysics","186","520938","0.0-16.0-2.4","60895dd42aa4dab10a53566c","6368f2eea3e9634aebcc2f6b","636b4899e635f966796d71ea","555.5","","","","77","","","","key","16.66924999999901","683","312.5","","","","","","","","","","","","","","","","","","","",""
"psychophysics","187","521940","0.0-16.0-0.5","60895dd42aa4dab10a53566c","6368f2eea3e9634aebcc2f6b","636b4899e635f966796d71ea","null","","","","null","","","","key","16.667288135593143","683","312.5","","","","","","","","","","","","","","","","","","","",""
"psychophysics","188","522441","0.0-16.0-1.5","60895dd42aa4dab10a53566c","6368f2eea3e9634aebcc2f6b","636b4899e635f966796d71ea","null","","","","null","","","","key","16.669933333333272","683","312.5","","","","","","","","","","","","","148","-1","5","false","","","",""
"psychophysics","189","522746","0.0-16.0-2.5","60895dd42aa4dab10a53566c","6368f2eea3e9634aebcc2f6b","636b4899e635f966796d71ea","299.5","","","","77","","","","key","16.6662352941177","683","312.5","","","","","","","","","","","","","","","","","","","",""
"psychophysics","190","523747","0.0-16.0-0.6","60895dd42aa4dab10a53566c","6368f2eea3e9634aebcc2f6b","636b4899e635f966796d71ea","null","","","","null","","","","key","16.666067796609347","683","312.5","","","","","","","","","","","","","","","","","","","",""
"psychophysics","191","524249","0.0-16.0-1.6","60895dd42aa4dab10a53566c","6368f2eea3e9634aebcc2f6b","636b4899e635f966796d71ea","null","","","","null","","","","key","16.66758620689607","683","312.5","","","","","","","","","","","","","148","1","3","false","","","",""
"psychophysics","192","524586","0.0-16.0-2.6","60895dd42aa4dab10a53566c","6368f2eea3e9634aebcc2f6b","636b4899e635f966796d71ea","335.80000001192093","","","","90","","","","key","16.664526315791974","683","312.5","","","","","","","","","","","","","","","","","","","",""
"psychophysics","193","525588","0.0-16.0-0.7","60895dd42aa4dab10a53566c","6368f2eea3e9634aebcc2f6b","636b4899e635f966796d71ea","null","","","","null","","","","key","16.665779661016256","683","312.5","","","","","","","","","","","","","","","","","","","",""
"psychophysics","194","526089","0.0-16.0-1.7","60895dd42aa4dab10a53566c","6368f2eea3e9634aebcc2f6b","636b4899e635f966796d71ea","null","","","","null","","","","key","16.666999999999774","683","312.5","","","","","","","","","","","","","148","-1","4","false","","","",""
"psychophysics","195","526298","0.0-16.0-2.7","60895dd42aa4dab10a53566c","6368f2eea3e9634aebcc2f6b","636b4899e635f966796d71ea","199.89999997615814","","","","77","","","","key","16.670333333332866","683","312.5","","","","","","","","","","","","","","","","","","","",""
"psychophysics","196","527300","0.0-16.0-0.8","60895dd42aa4dab10a53566c","6368f2eea3e9634aebcc2f6b","636b4899e635f966796d71ea","null","","","","null","","","","key","16.664932203390318","683","312.5","","","","","","","","","","","","","","","","","","","",""
"psychophysics","197","527801","0.0-16.0-1.8","60895dd42aa4dab10a53566c","6368f2eea3e9634aebcc2f6b","636b4899e635f966796d71ea","null","","","","null","","","","key","16.66310344827522","683","312.5","","","","","","","","","","","","","148","-1","0","false","","","",""
"psychophysics","198","528027","0.0-16.0-2.8","60895dd42aa4dab10a53566c","6368f2eea3e9634aebcc2f6b","636b4899e635f966796d71ea","222.19999998807907","","","","90","","","","key","16.66653846154133","683","312.5","","","","","","","","","","","","","","","","","","","",""
"psychophysics","199","529028","0.0-16.0-0.9","60895dd42aa4dab10a53566c","6368f2eea3e9634aebcc2f6b","636b4899e635f966796d71ea","null","","","","null","","","","key","16.66422033898327","683","312.5","","","","","","","","","","","","","","","","","","","",""
"psychophysics","200","529530","0.0-16.0-1.9","60895dd42aa4dab10a53566c","6368f2eea3e9634aebcc2f6b","636b4899e635f966796d71ea","null","","","","null","","","","key","16.66427586206781","683","312.5","","","","","","","","","","","","","148","1","0","false","","","",""
"psychophysics","201","529930","0.0-16.0-2.9","60895dd42aa4dab10a53566c","6368f2eea3e9634aebcc2f6b","636b4899e635f966796d71ea","396.0999999642372","","","","90","","","","key","16.671347826086592","683","312.5","","","","","","","","","","","","","","","","","","","",""
"psychophysics","202","530931","0.0-16.0-0.10","60895dd42aa4dab10a53566c","6368f2eea3e9634aebcc2f6b","636b4899e635f966796d71ea","null","","","","null","","","","key","16.665203389830065","683","312.5","","","","","","","","","","","","","","","","","","","",""
"psychophysics","203","531433","0.0-16.0-1.10","60895dd42aa4dab10a53566c","6368f2eea3e9634aebcc2f6b","636b4899e635f966796d71ea","null","","","","null","","","","key","16.66244827585841","683","312.5","","","","","","","","","","","","","148","1","5","false","","","",""
"psychophysics","204","531643","0.0-16.0-2.10","60895dd42aa4dab10a53566c","6368f2eea3e9634aebcc2f6b","636b4899e635f966796d71ea","207","","","","77","","","","key","16.666583333329374","683","312.5","","","","","","","","","","","","","","","","","","","",""
"psychophysics","205","532646","0.0-16.0-0.11","60895dd42aa4dab10a53566c","6368f2eea3e9634aebcc2f6b","636b4899e635f966796d71ea","null","","","","null","","","","key","16.665610169490673","683","312.5","","","","","","","","","","","","","","","","","","","",""
"psychophysics","206","533148","0.0-16.0-1.11","60895dd42aa4dab10a53566c","6368f2eea3e9634aebcc2f6b","636b4899e635f966796d71ea","null","","","","null","","","","key","16.66513793103413","683","312.5","","","","","","","","","","","","","148","-1","2","false","","","",""
"psychophysics","207","533418","0.0-16.0-2.11","60895dd42aa4dab10a53566c","6368f2eea3e9634aebcc2f6b","636b4899e635f966796d71ea","268.19999998807907","","","","90","","","","key","16.664866666666544","683","312.5","","","","","","","","","","","","","","","","","","","",""
"psychophysics","208","534419","0.0-16.0-0.12","60895dd42aa4dab10a53566c","6368f2eea3e9634aebcc2f6b","636b4899e635f966796d71ea","null","","","","null","","","","key","16.66747457627207","683","312.5","","","","","","","","","","","","","","","","","","","",""
"psychophysics","209","534920","0.0-16.0-1.12","60895dd42aa4dab10a53566c","6368f2eea3e9634aebcc2f6b","636b4899e635f966796d71ea","null","","","","null","","","","key","16.667724137929074","683","312.5","","","","","","","","","","","","","148","1","2","false","","","",""
"psychophysics","210","535307","0.0-16.0-2.12","60895dd42aa4dab10a53566c","6368f2eea3e9634aebcc2f6b","636b4899e635f966796d71ea","385","","","","90","","","","key","16.66326086956542","683","312.5","","","","","","","","","","","","","","","","","","","",""
"psychophysics","211","536310","0.0-16.0-0.13","60895dd42aa4dab10a53566c","6368f2eea3e9634aebcc2f6b","636b4899e635f966796d71ea","null","","","","null","","","","key","16.665830508474325","683","312.5","","","","","","","","","","","","","","","","","","","",""
"psychophysics","212","536811","0.0-16.0-1.13","60895dd42aa4dab10a53566c","6368f2eea3e9634aebcc2f6b","636b4899e635f966796d71ea","null","","","","null","","","","key","16.665206896550632","683","312.5","","","","","","","","","","","","","148","-1","3","false","","","",""
"psychophysics","213","537786","0.0-16.0-2.13","60895dd42aa4dab10a53566c","6368f2eea3e9634aebcc2f6b","636b4899e635f966796d71ea","970.9000000357628","","","","90","","","","key","16.666508771930495","683","312.5","","","","","","","","","","","","","","","","","","","",""
"psychophysics","214","538787","0.0-16.0-0.14","60895dd42aa4dab10a53566c","6368f2eea3e9634aebcc2f6b","636b4899e635f966796d71ea","null","","","","null","","","","key","16.665135593220622","683","312.5","","","","","","","","","","","","","","","","","","","",""
"psychophysics","215","539290","0.0-16.0-1.14","60895dd42aa4dab10a53566c","6368f2eea3e9634aebcc2f6b","636b4899e635f966796d71ea","null","","","","null","","","","key","16.666766666667534","683","312.5","","","","","","","","","","","","","148","-1","6","false","","","",""
"psychophysics","216","539482","0.0-16.0-2.14","60895dd42aa4dab10a53566c","6368f2eea3e9634aebcc2f6b","636b4899e635f966796d71ea","188.89999997615814","","","","77","","","","key","16.670799999998415","683","312.5","","","","","","","","","","","","","","","","","","","",""
"psychophysics","217","540483","0.0-16.0-0.15","60895dd42aa4dab10a53566c","6368f2eea3e9634aebcc2f6b","636b4899e635f966796d71ea","null","","","","null","","","","key","16.66650847457665","683","312.5","","","","","","","","","","","","","","","","","","","",""
"psychophysics","218","540985","0.0-16.0-1.15","60895dd42aa4dab10a53566c","6368f2eea3e9634aebcc2f6b","636b4899e635f966796d71ea","null","","","","null","","","","key","16.66344827586576","683","312.5","","","","","","","","","","","","","148","-1","4","false","","","",""
"psychophysics","219","541146","0.0-16.0-2.15","60895dd42aa4dab10a53566c","6368f2eea3e9634aebcc2f6b","636b4899e635f966796d71ea","159.9000000357628","","","","77","","","","key","16.666333333330435","683","312.5","","","","","","","","","","","","","","","","","","","",""
"psychophysics","220","542148","0.0-16.0-0.16","60895dd42aa4dab10a53566c","6368f2eea3e9634aebcc2f6b","636b4899e635f966796d71ea","null","","","","null","","","","key","16.667169491523655","683","312.5","","","","","","","","","","","","","","","","","","","",""
"psychophysics","221","542650","0.0-16.0-1.16","60895dd42aa4dab10a53566c","6368f2eea3e9634aebcc2f6b","636b4899e635f966796d71ea","null","","","","null","","","","key","16.665344827587653","683","312.5","","","","","","","","","","","","","148","1","6","false","","","",""
"psychophysics","222","542761","0.0-16.0-2.16","60895dd42aa4dab10a53566c","6368f2eea3e9634aebcc2f6b","636b4899e635f966796d71ea","110","","","","77","","","","key","16.664999999998447","683","312.5","","","","","","","","","","","","","","","","","","","",""
"psychophysics","223","543763","0.0-16.0-0.17","60895dd42aa4dab10a53566c","6368f2eea3e9634aebcc2f6b","636b4899e635f966796d71ea","null","","","","null","","","","key","16.666135593220766","683","312.5","","","","","","","","","","","","","","","","","","","",""
"psychophysics","224","544264","0.0-16.0-1.17","60895dd42aa4dab10a53566c","6368f2eea3e9634aebcc2f6b","636b4899e635f966796d71ea","null","","","","null","","","","key","16.663793103448278","683","312.5","","","","","","","","","","","","","148","-1","2","false","","","",""
"psychophysics","225","545481","0.0-16.0-2.17","60895dd42aa4dab10a53566c","6368f2eea3e9634aebcc2f6b","636b4899e635f966796d71ea","1213.8999999761581","","","","77","","","","key","16.667208333333193","683","312.5","","","","","","","","","","","","","","","","","","","",""
"psychophysics","226","546483","0.0-16.0-0.18","60895dd42aa4dab10a53566c","6368f2eea3e9634aebcc2f6b","636b4899e635f966796d71ea","null","","","","null","","","","key","16.664983050848388","683","312.5","","","","","","","","","","","","","","","","","","","",""
"psychophysics","227","546987","0.0-16.0-1.18","60895dd42aa4dab10a53566c","6368f2eea3e9634aebcc2f6b","636b4899e635f966796d71ea","null","","","","null","","","","key","16.667862068966095","683","312.5","","","","","","","","","","","","","148","1","5","false","","","",""
"psychophysics","228","547193","0.0-16.0-2.18","60895dd42aa4dab10a53566c","6368f2eea3e9634aebcc2f6b","636b4899e635f966796d71ea","205.29999995231628","","","","77","","","","key","16.669833333328523","683","312.5","","","","","","","","","","","","","","","","","","","",""
"psychophysics","229","548196","0.0-16.0-0.19","60895dd42aa4dab10a53566c","6368f2eea3e9634aebcc2f6b","636b4899e635f966796d71ea","null","","","","null","","","","key","16.66720338983035","683","312.5","","","","","","","","","","","","","","","","","","","",""
"psychophysics","230","548697","0.0-16.0-1.19","60895dd42aa4dab10a53566c","6368f2eea3e9634aebcc2f6b","636b4899e635f966796d71ea","null","","","","null","","","","key","16.665310344827393","683","312.5","","","","","","","","","","","","","148","1","0","false","","","",""
"psychophysics","231","549065","0.0-16.0-2.19","60895dd42aa4dab10a53566c","6368f2eea3e9634aebcc2f6b","636b4899e635f966796d71ea","367.19999998807907","","","","90","","","","key","16.66852380952332","683","312.5","","","","","","","","","","","","","","","","","","","",""
"psychophysics","232","550066","0.0-16.0-0.20","60895dd42aa4dab10a53566c","6368f2eea3e9634aebcc2f6b","636b4899e635f966796d71ea","null","","","","null","","","","key","16.66733898305121","683","312.5","","","","","","","","","","","","","","","","","","","",""
"psychophysics","233","550568","0.0-16.0-1.20","60895dd42aa4dab10a53566c","6368f2eea3e9634aebcc2f6b","636b4899e635f966796d71ea","null","","","","null","","","","key","16.6679999999991","683","312.5","","","","","","","","","","","","","148","1","4","false","","","",""
"psychophysics","234","550938","0.0-16.0-2.20","60895dd42aa4dab10a53566c","6368f2eea3e9634aebcc2f6b","636b4899e635f966796d71ea","366.60000002384186","","","","77","","","","key","16.667999999996805","683","312.5","","","","","","","","","","","","","","","","","","","",""
"psychophysics","235","551939","0.0-16.0-0.21","60895dd42aa4dab10a53566c","6368f2eea3e9634aebcc2f6b","636b4899e635f966796d71ea","null","","","","null","","","","key","16.666949999999876","683","312.5","","","","","","","","","","","","","","","","","","","",""
"psychophysics","236","552442","0.0-16.0-1.21","60895dd42aa4dab10a53566c","6368f2eea3e9634aebcc2f6b","636b4899e635f966796d71ea","null","","","","null","","","","key","16.665551724141174","683","312.5","","","","","","","","","","","","","148","-1","5","false","","","",""
"psychophysics","237","552665","0.0-16.0-2.21","60895dd42aa4dab10a53566c","6368f2eea3e9634aebcc2f6b","636b4899e635f966796d71ea","221.89999997615814","","","","77","","","","key","16.671500000006443","683","312.5","","","","","","","","","","","","","","","","","","","",""
"psychophysics","238","553668","0.0-16.0-0.22","60895dd42aa4dab10a53566c","6368f2eea3e9634aebcc2f6b","636b4899e635f966796d71ea","null","","","","null","","","","key","16.666796610169744","683","312.5","","","","","","","","","","","","","","","","","","","",""
"psychophysics","239","554169","0.0-16.0-1.22","60895dd42aa4dab10a53566c","6368f2eea3e9634aebcc2f6b","636b4899e635f966796d71ea","null","","","","null","","","","key","16.66320689655198","683","312.5","","","","","","","","","","","","","148","-1","0","false","","","",""
"psychophysics","240","554474","0.0-16.0-2.22","60895dd42aa4dab10a53566c","6368f2eea3e9634aebcc2f6b","636b4899e635f966796d71ea","301.7999999523163","","","","90","","","","key","16.671277777776897","683","312.5","","","","","","","","","","","","","","","","","","","",""
"psychophysics","241","555475","0.0-16.0-0.23","60895dd42aa4dab10a53566c","6368f2eea3e9634aebcc2f6b","636b4899e635f966796d71ea","null","","","","null","","","","key","16.66476271186474","683","312.5","","","","","","","","","","","","","","","","","","","",""
"psychophysics","242","555976","0.0-16.0-1.23","60895dd42aa4dab10a53566c","6368f2eea3e9634aebcc2f6b","636b4899e635f966796d71ea","null","","","","null","","","","key","16.665379310343898","683","312.5","","","","","","","","","","","","","148","1","3","false","","","",""
"psychophysics","243","556313","0.0-16.0-2.23","60895dd42aa4dab10a53566c","6368f2eea3e9634aebcc2f6b","636b4899e635f966796d71ea","335.80000001192093","","","","90","","","","key","16.667473684212094","683","312.5","","","","","","","","","","","","","","","","","","","",""
"html-keyboard-response","244","561434","0.0-17.0","60895dd42aa4dab10a53566c","6368f2eea3e9634aebcc2f6b","636b4899e635f966796d71ea","5118.599999964237","<p>Well Done !</p><p>Training Complete. Press the spacebar to start.</p><p>DON'T EXIT THE FULL SCREEN MODE</p>","","","32","","","","","","","","","","","","","","","","","","","","","","","","","","",""
"psychophysics","245","564444","0.0-18.0-0.0","60895dd42aa4dab10a53566c","6368f2eea3e9634aebcc2f6b","636b4899e635f966796d71ea","null","","","","null","","","","key","16.66739999999991","683","312.5","","","","","","","","","","","","","","","","","","","",""
"psychophysics","246","564947","0.0-18.0-1.0","60895dd42aa4dab10a53566c","6368f2eea3e9634aebcc2f6b","636b4899e635f966796d71ea","null","","","","null","","","","key","16.66782758620584","683","312.5","","","","","","","","","","","","","148","-1","4","true","","","",""
"psychophysics","247","565209","0.0-18.0-2.0","60895dd42aa4dab10a53566c","6368f2eea3e9634aebcc2f6b","636b4899e635f966796d71ea","261.10000002384186","","","","90","","","","key","16.667866666661574","683","312.5","","","","","","","","","","","","","","","","","","","",""
"psychophysics","248","566211","0.0-18.0-0.1","60895dd42aa4dab10a53566c","6368f2eea3e9634aebcc2f6b","636b4899e635f966796d71ea","null","","","","null","","","","key","16.667440677965377","683","312.5","","","","","","","","","","","","","","","","","","","",""
"psychophysics","249","566712","0.0-18.0-1.1","60895dd42aa4dab10a53566c","6368f2eea3e9634aebcc2f6b","636b4899e635f966796d71ea","null","","","","null","","","","key","16.66458620689408","683","312.5","","","","","","","","","","","","","148","1","0","true","","","",""
"psychophysics","250","566970","0.0-18.0-2.1","60895dd42aa4dab10a53566c","6368f2eea3e9634aebcc2f6b","636b4899e635f966796d71ea","256.4000000357628","","","","90","","","","key","16.667857142863795","683","312.5","","","","","","","","","","","","","","","","","","","",""
"psychophysics","251","567972","0.0-18.0-0.2","60895dd42aa4dab10a53566c","6368f2eea3e9634aebcc2f6b","636b4899e635f966796d71ea","null","","","","null","","","","key","16.66644999999941","683","312.5","","","","","","","","","","","","","","","","","","","",""
"psychophysics","252","568475","0.0-18.0-1.2","60895dd42aa4dab10a53566c","6368f2eea3e9634aebcc2f6b","636b4899e635f966796d71ea","null","","","","null","","","","key","16.66437931034457","683","312.5","","","","","","","","","","","","","148","1","4","true","","","",""
"psychophysics","253","568524","0.0-18.0-2.2","60895dd42aa4dab10a53566c","6368f2eea3e9634aebcc2f6b","636b4899e635f966796d71ea","45","","","","77","","","","key","16.699999999953434","683","312.5","","","","","","","","","","","","","","","","","","","",""
"psychophysics","254","569526","0.0-18.0-0.3","60895dd42aa4dab10a53566c","6368f2eea3e9634aebcc2f6b","636b4899e635f966796d71ea","null","","","","null","","","","key","16.665779661016256","683","312.5","","","","","","","","","","","","","","","","","","","",""
"psychophysics","255","570028","0.0-18.0-1.3","60895dd42aa4dab10a53566c","6368f2eea3e9634aebcc2f6b","636b4899e635f966796d71ea","null","","","","null","","","","key","16.664655172414594","683","312.5","","","","","","","","","","","","","148","-1","0","true","","","",""
"psychophysics","256","570154","0.0-18.0-2.3","60895dd42aa4dab10a53566c","6368f2eea3e9634aebcc2f6b","636b4899e635f966796d71ea","122.5","","","","90","","","","key","16.676142857143923","683","312.5","","","","","","","","","","","","","","","","","","","",""
"psychophysics","257","571157","0.0-18.0-0.4","60895dd42aa4dab10a53566c","6368f2eea3e9634aebcc2f6b","636b4899e635f966796d71ea","null","","","","null","","","","key","16.66501694915311","683","312.5","","","","","","","","","","","","","","","","","","","",""
"psychophysics","258","571659","0.0-18.0-1.4","60895dd42aa4dab10a53566c","6368f2eea3e9634aebcc2f6b","636b4899e635f966796d71ea","null","","","","null","","","","key","16.664586206898093","683","312.5","","","","","","","","","","","","","148","-1","2","true","","","",""
"psychophysics","259","571849","0.0-18.0-2.4","60895dd42aa4dab10a53566c","6368f2eea3e9634aebcc2f6b","636b4899e635f966796d71ea","187.10000002384186","","","","90","","","","key","16.668699999991805","683","312.5","","","","","","","","","","","","","","","","","","","",""
"psychophysics","260","572851","0.0-18.0-0.5","60895dd42aa4dab10a53566c","6368f2eea3e9634aebcc2f6b","636b4899e635f966796d71ea","null","","","","null","","","","key","16.66501694915311","683","312.5","","","","","","","","","","","","","","","","","","","",""
"psychophysics","261","573352","0.0-18.0-1.5","60895dd42aa4dab10a53566c","6368f2eea3e9634aebcc2f6b","636b4899e635f966796d71ea","null","","","","null","","","","key","16.66803448275936","683","312.5","","","","","","","","","","","","","148","-1","5","true","","","",""
"psychophysics","262","573481","0.0-18.0-2.5","60895dd42aa4dab10a53566c","6368f2eea3e9634aebcc2f6b","636b4899e635f966796d71ea","120.60000002384186","","","","77","","","","key","16.678428571438417","683","312.5","","","","","","","","","","","","","","","","","","","",""
"psychophysics","263","574483","0.0-18.0-0.6","60895dd42aa4dab10a53566c","6368f2eea3e9634aebcc2f6b","636b4899e635f966796d71ea","null","","","","null","","","","key","16.66703389830477","683","312.5","","","","","","","","","","","","","","","","","","","",""
"psychophysics","264","574984","0.0-18.0-1.6","60895dd42aa4dab10a53566c","6368f2eea3e9634aebcc2f6b","636b4899e635f966796d71ea","null","","","","null","","","","key","16.66734482758229","683","312.5","","","","","","","","","","","","","148","-1","6","true","","","",""
"psychophysics","265","575145","0.0-18.0-2.6","60895dd42aa4dab10a53566c","6368f2eea3e9634aebcc2f6b","636b4899e635f966796d71ea","157.69999998807907","","","","77","","","","key","16.67188888887823","683","312.5","","","","","","","","","","","","","","","","","","","",""
"psychophysics","266","576147","0.0-18.0-0.7","60895dd42aa4dab10a53566c","6368f2eea3e9634aebcc2f6b","636b4899e635f966796d71ea","null","","","","null","","","","key","16.666762711865022","683","312.5","","","","","","","","","","","","","","","","","","","",""
"psychophysics","267","576649","0.0-18.0-1.7","60895dd42aa4dab10a53566c","6368f2eea3e9634aebcc2f6b","636b4899e635f966796d71ea","null","","","","null","","","","key","16.66706896551628","683","312.5","","","","","","","","","","","","","148","1","2","true","","","",""
"psychophysics","268","576793","0.0-18.0-2.7","60895dd42aa4dab10a53566c","6368f2eea3e9634aebcc2f6b","636b4899e635f966796d71ea","141","","","","90","","","","key","16.676000000006752","683","312.5","","","","","","","","","","","","","","","","","","","",""
"psychophysics","269","577794","0.0-18.0-0.8","60895dd42aa4dab10a53566c","6368f2eea3e9634aebcc2f6b","636b4899e635f966796d71ea","null","","","","null","","","","key","16.665322033897578","683","312.5","","","","","","","","","","","","","","","","","","","",""
"psychophysics","270","578296","0.0-18.0-1.8","60895dd42aa4dab10a53566c","6368f2eea3e9634aebcc2f6b","636b4899e635f966796d71ea","null","","","","null","","","","key","16.666896551723013","683","312.5","","","","","","","","","","","","","148","1","5","true","","","",""
"psychophysics","271","578489","0.0-18.0-2.8","60895dd42aa4dab10a53566c","6368f2eea3e9634aebcc2f6b","636b4899e635f966796d71ea","189.9000000357628","","","","77","","","","key","16.67027272726409","683","312.5","","","","","","","","","","","","","","","","","","","",""
"psychophysics","272","579490","0.0-18.0-0.9","60895dd42aa4dab10a53566c","6368f2eea3e9634aebcc2f6b","636b4899e635f966796d71ea","null","","","","null","","","","key","16.66391525423683","683","312.5","","","","","","","","","","","","","","","","","","","",""
"psychophysics","273","579992","0.0-18.0-1.9","60895dd42aa4dab10a53566c","6368f2eea3e9634aebcc2f6b","636b4899e635f966796d71ea","null","","","","null","","","","key","16.661999999999132","683","312.5","","","","","","","","","","","","","148","1","6","true","","","",""
"psychophysics","274","580297","0.0-18.0-2.9","60895dd42aa4dab10a53566c","6368f2eea3e9634aebcc2f6b","636b4899e635f966796d71ea","301.69999998807907","","","","77","","","","key","16.66982352941105","683","312.5","","","","","","","","","","","","","","","","","","","",""
"psychophysics","275","581297","0.0-18.0-0.10","60895dd42aa4dab10a53566c","6368f2eea3e9634aebcc2f6b","636b4899e635f966796d71ea","null","","","","null","","","","key","16.66588135593239","683","312.5","","","","","","","","","","","","","","","","","","","",""
"psychophysics","276","581798","0.0-18.0-1.10","60895dd42aa4dab10a53566c","6368f2eea3e9634aebcc2f6b","636b4899e635f966796d71ea","null","","","","null","","","","key","16.667655172412573","683","312.5","","","","","","","","","","","","","148","-1","3","true","","","",""
"psychophysics","277","581977","0.0-18.0-2.10","60895dd42aa4dab10a53566c","6368f2eea3e9634aebcc2f6b","636b4899e635f966796d71ea","177.30000001192093","","","","77","","","","key","16.666299999994227","683","312.5","","","","","","","","","","","","","","","","","","","",""
"psychophysics","278","582979","0.0-18.0-0.11","60895dd42aa4dab10a53566c","6368f2eea3e9634aebcc2f6b","636b4899e635f966796d71ea","null","","","","null","","","","key","16.667067796611462","683","312.5","","","","","","","","","","","","","","","","","","","",""
"psychophysics","279","583480","0.0-18.0-1.11","60895dd42aa4dab10a53566c","6368f2eea3e9634aebcc2f6b","636b4899e635f966796d71ea","null","","","","null","","","","key","16.666172413793714","683","312.5","","","","","","","","","","","","","148","1","3","true","","","",""
"psychophysics","280","583608","0.0-18.0-2.11","60895dd42aa4dab10a53566c","6368f2eea3e9634aebcc2f6b","636b4899e635f966796d71ea","127.19999998807907","","","","77","","","","key","16.66571428571894","683","312.5","","","","","","","","","","","","","","","","","","","",""
"psychophysics","281","584611","0.0-18.0-0.12","60895dd42aa4dab10a53566c","6368f2eea3e9634aebcc2f6b","636b4899e635f966796d71ea","null","","","","null","","","","key","16.666101694916044","683","312.5","","","","","","","","","","","","","","","","","","","",""
"psychophysics","282","585112","0.0-18.0-1.12","60895dd42aa4dab10a53566c","6368f2eea3e9634aebcc2f6b","636b4899e635f966796d71ea","null","","","","null","","","","key","16.6647931034476","683","312.5","","","","","","","","","","","","","148","-1","0","true","","","",""
"psychophysics","283","585848","0.0-18.0-2.12","60895dd42aa4dab10a53566c","6368f2eea3e9634aebcc2f6b","636b4899e635f966796d71ea","733.3000000119209","","","","77","","","","key","16.667069767442054","683","312.5","","","","","","","","","","","","","","","","","","","",""
"psychophysics","284","586849","0.0-18.0-0.13","60895dd42aa4dab10a53566c","6368f2eea3e9634aebcc2f6b","636b4899e635f966796d71ea","null","","","","null","","","","key","16.664152542371856","683","312.5","","","","","","","","","","","","","","","","","","","",""
"psychophysics","285","587351","0.0-18.0-1.13","60895dd42aa4dab10a53566c","6368f2eea3e9634aebcc2f6b","636b4899e635f966796d71ea","null","","","","null","","","","key","16.669862068964747","683","312.5","","","","","","","","","","","","","148","1","3","true","","","",""
"psychophysics","286","587497","0.0-18.0-2.13","60895dd42aa4dab10a53566c","6368f2eea3e9634aebcc2f6b","636b4899e635f966796d71ea","137.19999998807907","","","","90","","","","key","16.66537500001141","683","312.5","","","","","","","","","","","","","","","","","","","",""
"psychophysics","287","588498","0.0-18.0-0.14","60895dd42aa4dab10a53566c","6368f2eea3e9634aebcc2f6b","636b4899e635f966796d71ea","null","","","","null","","","","key","16.665711864406813","683","312.5","","","","","","","","","","","","","","","","","","","",""
"psychophysics","288","589000","0.0-18.0-1.14","60895dd42aa4dab10a53566c","6368f2eea3e9634aebcc2f6b","636b4899e635f966796d71ea","null","","","","null","","","","key","16.66731034483006","683","312.5","","","","","","","","","","","","","148","1","2","true","","","",""
"psychophysics","289","589096","0.0-18.0-2.14","60895dd42aa4dab10a53566c","6368f2eea3e9634aebcc2f6b","636b4899e635f966796d71ea","94.10000002384186","","","","90","","","","key","16.691599999996832","683","312.5","","","","","","","","","","","","","","","","","","","",""
"psychophysics","290","590098","0.0-18.0-0.15","60895dd42aa4dab10a53566c","6368f2eea3e9634aebcc2f6b","636b4899e635f966796d71ea","null","","","","null","","","","key","16.664949152541695","683","312.5","","","","","","","","","","","","","","","","","","","",""
"psychophysics","291","590600","0.0-18.0-1.15","60895dd42aa4dab10a53566c","6368f2eea3e9634aebcc2f6b","636b4899e635f966796d71ea","null","","","","null","","","","key","16.667551724135812","683","312.5","","","","","","","","","","","","","148","-1","2","true","","","",""
"psychophysics","292","590840","0.0-18.0-2.15","60895dd42aa4dab10a53566c","6368f2eea3e9634aebcc2f6b","636b4899e635f966796d71ea","235.69999998807907","","","","90","","","","key","16.66750000000632","683","312.5","","","","","","","","","","","","","","","","","","","",""
"psychophysics","293","591841","0.0-18.0-0.16","60895dd42aa4dab10a53566c","6368f2eea3e9634aebcc2f6b","636b4899e635f966796d71ea","null","","","","null","","","","key","16.66567796610209","683","312.5","","","","","","","","","","","","","","","","","","","",""
"psychophysics","294","592343","0.0-18.0-1.16","60895dd42aa4dab10a53566c","6368f2eea3e9634aebcc2f6b","636b4899e635f966796d71ea","null","","","","null","","","","key","16.66513793103413","683","312.5","","","","","","","","","","","","","148","-1","3","true","","","",""
"psychophysics","295","592921","0.0-18.0-2.16","60895dd42aa4dab10a53566c","6368f2eea3e9634aebcc2f6b","636b4899e635f966796d71ea","576.4000000357628","","","","77","","","","key","16.66638235294137","683","312.5","","","","","","","","","","","","","","","","","","","",""
"psychophysics","296","593922","0.0-18.0-0.17","60895dd42aa4dab10a53566c","6368f2eea3e9634aebcc2f6b","636b4899e635f966796d71ea","null","","","","null","","","","key","16.6658474576257","683","312.5","","","","","","","","","","","","","","","","","","","",""
"psychophysics","297","594424","0.0-18.0-1.17","60895dd42aa4dab10a53566c","6368f2eea3e9634aebcc2f6b","636b4899e635f966796d71ea","null","","","","null","","","","key","16.66896551724218","683","312.5","","","","","","","","","","","","","148","-1","6","true","","","",""
"psychophysics","298","594617","0.0-18.0-2.17","60895dd42aa4dab10a53566c","6368f2eea3e9634aebcc2f6b","636b4899e635f966796d71ea","191","","","","77","","","","key","16.665099999995437","683","312.5","","","","","","","","","","","","","","","","","","","",""
"psychophysics","299","595619","0.0-18.0-0.18","60895dd42aa4dab10a53566c","6368f2eea3e9634aebcc2f6b","636b4899e635f966796d71ea","null","","","","null","","","","key","16.666783333333054","683","312.5","","","","","","","","","","","","","","","","","","","",""
"psychophysics","300","596121","0.0-18.0-1.18","60895dd42aa4dab10a53566c","6368f2eea3e9634aebcc2f6b","636b4899e635f966796d71ea","null","","","","null","","","","key","16.6647931034476","683","312.5","","","","","","","","","","","","","148","1","0","true","","","",""
"psychophysics","301","596521","0.0-18.0-2.18","60895dd42aa4dab10a53566c","6368f2eea3e9634aebcc2f6b","636b4899e635f966796d71ea","398.80000001192093","","","","90","","","","key","16.66960869565019","683","312.5","","","","","","","","","","","","","","","","","","","",""
"psychophysics","302","597522","0.0-18.0-0.19","60895dd42aa4dab10a53566c","6368f2eea3e9634aebcc2f6b","636b4899e635f966796d71ea","null","","","","null","","","","key","16.666966101695326","683","312.5","","","","","","","","","","","","","","","","","","","",""
"psychophysics","303","598024","0.0-18.0-1.19","60895dd42aa4dab10a53566c","6368f2eea3e9634aebcc2f6b","636b4899e635f966796d71ea","null","","","","null","","","","key","16.665344827587653","683","312.5","","","","","","","","","","","","","148","1","4","true","","","",""
"psychophysics","304","598344","0.0-18.0-2.19","60895dd42aa4dab10a53566c","6368f2eea3e9634aebcc2f6b","636b4899e635f966796d71ea","318.0999999642372","","","","77","","","","key","16.673111111113233","683","312.5","","","","","","","","","","","","","","","","","","","",""
"psychophysics","305","599345","0.0-18.0-0.20","60895dd42aa4dab10a53566c","6368f2eea3e9634aebcc2f6b","636b4899e635f966796d71ea","null","","","","null","","","","key","16.665254237288135","683","312.5","","","","","","","","","","","","","","","","","","","",""
"psychophysics","306","599846","0.0-18.0-1.20","60895dd42aa4dab10a53566c","6368f2eea3e9634aebcc2f6b","636b4899e635f966796d71ea","null","","","","null","","","","key","16.666172413793714","683","312.5","","","","","","","","","","","","","148","1","5","true","","","",""
"psychophysics","307","599976","0.0-18.0-2.20","60895dd42aa4dab10a53566c","6368f2eea3e9634aebcc2f6b","636b4899e635f966796d71ea","126","","","","77","","","","key","16.67471428571402","683","312.5","","","","","","","","","","","","","","","","","","","",""
"psychophysics","308","600977","0.0-18.0-0.21","60895dd42aa4dab10a53566c","6368f2eea3e9634aebcc2f6b","636b4899e635f966796d71ea","null","","","","null","","","","key","16.66615254237214","683","312.5","","","","","","","","","","","","","","","","","","","",""
"psychophysics","309","601479","0.0-18.0-1.21","60895dd42aa4dab10a53566c","6368f2eea3e9634aebcc2f6b","636b4899e635f966796d71ea","null","","","","null","","","","key","16.665310344827393","683","312.5","","","","","","","","","","","","","148","1","6","true","","","",""
"psychophysics","310","601608","0.0-18.0-2.21","60895dd42aa4dab10a53566c","6368f2eea3e9634aebcc2f6b","636b4899e635f966796d71ea","126.69999998807907","","","","77","","","","key","16.68314285714379","683","312.5","","","","","","","","","","","","","","","","","","","",""
"psychophysics","311","602610","0.0-18.0-0.22","60895dd42aa4dab10a53566c","6368f2eea3e9634aebcc2f6b","636b4899e635f966796d71ea","null","","","","null","","","","key","16.66554237288123","683","312.5","","","","","","","","","","","","","","","","","","","",""
"psychophysics","312","603111","0.0-18.0-1.22","60895dd42aa4dab10a53566c","6368f2eea3e9634aebcc2f6b","636b4899e635f966796d71ea","null","","","","null","","","","key","16.66341379310149","683","312.5","","","","","","","","","","","","","148","-1","5","true","","","",""
"psychophysics","313","603224","0.0-18.0-2.22","60895dd42aa4dab10a53566c","6368f2eea3e9634aebcc2f6b","636b4899e635f966796d71ea","109.69999998807907","","","","77","","","","key","16.677499999990687","683","312.5","","","","","","","","","","","","","","","","","","","",""
"psychophysics","314","604226","0.0-18.0-0.23","60895dd42aa4dab10a53566c","6368f2eea3e9634aebcc2f6b","636b4899e635f966796d71ea","null","","","","null","","","","key","16.665644067797366","683","312.5","","","","","","","","","","","","","","","","","","","",""
"psychophysics","315","604727","0.0-18.0-1.23","60895dd42aa4dab10a53566c","6368f2eea3e9634aebcc2f6b","636b4899e635f966796d71ea","null","","","","null","","","","key","16.665344827587653","683","312.5","","","","","","","","","","","","","148","-1","4","true","","","",""
"psychophysics","316","604776","0.0-18.0-2.23","60895dd42aa4dab10a53566c","6368f2eea3e9634aebcc2f6b","636b4899e635f966796d71ea","46.700000047683716","","","","77","","","","key","16.73300000000745","683","312.5","","","","","","","","","","","","","","","","","","","",""
"psychophysics","317","605777","0.0-18.0-0.24","60895dd42aa4dab10a53566c","6368f2eea3e9634aebcc2f6b","636b4899e635f966796d71ea","null","","","","null","","","","key","16.66549152542316","683","312.5","","","","","","","","","","","","","","","","","","","",""
"psychophysics","318","606279","0.0-18.0-1.24","60895dd42aa4dab10a53566c","6368f2eea3e9634aebcc2f6b","636b4899e635f966796d71ea","null","","","","null","","","","key","16.665241379310892","683","312.5","","","","","","","","","","","","","148","-1","0","true","","","",""
"psychophysics","319","606536","0.0-18.0-2.24","60895dd42aa4dab10a53566c","6368f2eea3e9634aebcc2f6b","636b4899e635f966796d71ea","253.5999999642372","","","","90","","","","key","16.661066666672316","683","312.5","","","","","","","","","","","","","","","","","","","",""
"psychophysics","320","607538","0.0-18.0-0.25","60895dd42aa4dab10a53566c","6368f2eea3e9634aebcc2f6b","636b4899e635f966796d71ea","null","","","","null","","","","key","16.664593220339157","683","312.5","","","","","","","","","","","","","","","","","","","",""
"psychophysics","321","608040","0.0-18.0-1.25","60895dd42aa4dab10a53566c","6368f2eea3e9634aebcc2f6b","636b4899e635f966796d71ea","null","","","","null","","","","key","16.66396551724154","683","312.5","","","","","","","","","","","","","148","-1","3","true","","","",""
"psychophysics","322","608201","0.0-18.0-2.25","60895dd42aa4dab10a53566c","6368f2eea3e9634aebcc2f6b","636b4899e635f966796d71ea","159.30000001192093","","","","90","","","","key","16.662222222218084","683","312.5","","","","","","","","","","","","","","","","","","","",""
"psychophysics","323","609204","0.0-18.0-0.26","60895dd42aa4dab10a53566c","6368f2eea3e9634aebcc2f6b","636b4899e635f966796d71ea","null","","","","null","","","","key","16.66554237288123","683","312.5","","","","","","","","","","","","","","","","","","","",""
"psychophysics","324","609705","0.0-18.0-1.26","60895dd42aa4dab10a53566c","6368f2eea3e9634aebcc2f6b","636b4899e635f966796d71ea","null","","","","null","","","","key","16.668344827585628","683","312.5","","","","","","","","","","","","","148","-1","5","true","","","",""
"psychophysics","325","609912","0.0-18.0-2.26","60895dd42aa4dab10a53566c","6368f2eea3e9634aebcc2f6b","636b4899e635f966796d71ea","205.80000001192093","","","","77","","","","key","16.663454545460727","683","312.5","","","","","","","","","","","","","","","","","","","",""
"psychophysics","326","610914","0.0-18.0-0.27","60895dd42aa4dab10a53566c","6368f2eea3e9634aebcc2f6b","636b4899e635f966796d71ea","null","","","","null","","","","key","16.665610169490673","683","312.5","","","","","","","","","","","","","","","","","","","",""
"psychophysics","327","611415","0.0-18.0-1.27","60895dd42aa4dab10a53566c","6368f2eea3e9634aebcc2f6b","636b4899e635f966796d71ea","null","","","","null","","","","key","16.66941379310547","683","312.5","","","","","","","","","","","","","148","-1","2","true","","","",""
"psychophysics","328","611560","0.0-18.0-2.27","60895dd42aa4dab10a53566c","6368f2eea3e9634aebcc2f6b","636b4899e635f966796d71ea","136.5","","","","90","","","","key","16.668124999996508","683","312.5","","","","","","","","","","","","","","","","","","","",""
"psychophysics","329","612561","0.0-18.0-0.28","60895dd42aa4dab10a53566c","6368f2eea3e9634aebcc2f6b","636b4899e635f966796d71ea","null","","","","null","","","","key","16.665576271187923","683","312.5","","","","","","","","","","","","","","","","","","","",""
"psychophysics","330","613063","0.0-18.0-1.28","60895dd42aa4dab10a53566c","6368f2eea3e9634aebcc2f6b","636b4899e635f966796d71ea","null","","","","null","","","","key","16.666999999999774","683","312.5","","","","","","","","","","","","","148","1","2","true","","","",""
