"trial_type","trial_index","time_elapsed","internal_node_id","PROLIFIC_PID","STUDY_ID","SESSION_ID","rt","stimulus","button_pressed","success","key_press","responses","isData","view_history","response_type","avg_frame_time","center_x","center_y","isSC","stim_side","trial_luminance","step_size","nReversal","correct","prev_ans","isThreshold","SC_threshold","final_threshold","isLuminance","FF_luminance","luminance","stimSide","ISInt","isFF","question_order","isSPQ","isCAPS","isAQ"
"pavlovia","0","13","0.0-0.0","5eb33bad3ce6e6129e9f9f5b","6368f2eea3e9634aebcc2f6b","636b6fc429f577385d2632a4","","","","","","","","","","","","","","","","","","","","","","","","","","","","","","","",""
"html-button-response","1","12267","0.0-1.0","5eb33bad3ce6e6129e9f9f5b","6368f2eea3e9634aebcc2f6b","636b6fc429f577385d2632a4","12251.700000286102","<div style='background-color: white; width:60%; margin: auto; padding: 50px; text-align: justify; text-justify: inter-word; margin-bottom: 20px;'><h1 style='text-align: center;'>Consent Form</h1><p>Please read this consent form carefully before deciding whether you would like to participate in this study. You have to be 18 years old or older to participate to this study.</p><p style='text-decoration: underline;'>Participation is voluntary:</p><p>It is your choice whether or not to participate in this research. If you choose to participate, you may change your mind and leave the study at any time. Refusal to participate or stopping your participation will involve no penalty or loss of benefits to which you are otherwise entitled.</p><p style='text-decoration: underline;'>Purpose of the Study:</p><p>To understand the mechanisms underlying human perception.</p><p style='text-decoration: underline;'>What you will do in this study:</p><p>You will be presented with a series of visual images and then you will press buttons on the keyboard of your computer to respond to simple questions about the images (e.g. Were one or two images presented?). In addition, you will be asked to complete a questionnaire concerning your beliefs and everyday mental and perceptual experiences.'</p><p style='text-decoration: underline;'> Time Required:</p><p>The study will take 40 minutes to complete. </p><p style='text-decoration: underline;'>Risks:</p><p>There are no anticipated risks associated with participating in this study that are beyond those experienced in everyday life. </p><p style='text-decoration: underline;'>Benefits:</p><p>There are no benefits to you in participating in the study. However, this study may lead to a better understanding of how different kinds of visual information are used.</p><p style='text-decoration: underline;'>Compensation:</p><p>You will be paid US$6.6/hour. </p><p style='text-decoration: underline;'>Privacy and Confidentiality:</p><p>Your participation in this study will be anonymous. No personal information about your name or identity will be asked or recorded. This anonymous data will be stored for several years and may be used for a variety of research purposes. The overall results of the study may be published, or the data files may be shared with other researchers, but your identity will not be revealed in any way. The online services we are using for this study may temporarily store your data, but this data will be downloaded and then promptly deleted from those services.Your data will not be permanently associated with your name, IP address, or any other identifiable information (e.g., your information will only be connected to your payment, not to any of your responses), though they may be temporarily stored together before we download and separate them. Even so, no guarantee of internet survey security can be given because, although unlikely, transmissions can be intercepted and IP addresses can be identified. The anonymous data may be shared publicly (for example, in conjunction with a resulting academic publication).</p><p style='text-decoration: underline;'>Participation and Withdrawal:</p><p>Your participation in this study is completely voluntary. You may stop responding to the stimuli or stop answering questions if you so choose and without penalty by exiting the full screen mode, closing this tab of your browser or redirecting it to a different website.</p><p style='text-decoration: underline;'>Contact Info of the Researcher: </p><p>If you have questions about this study, or if you would like to talk to the research team, please contact David Melcher (david.melcher@nyu.edu, md5050@nyu.edu) at the Perception and Active Cognition Laboratory, New York University Abu Dhabi, Computational Research Building, Saadiyat Island, Abu Dhabi, UAE.This research has been reviewed by the New York University Abu Dhabi Institutional Review Board (NYUAD IRB). To contact about your rights in this research, for questions, suggestions, or complaints that are not addressed by the researchers, please email IRBnyuad@nyu.edu, or call the NYUAD IRB at +971 2 628 4313. </p></div>","0","","","","","","","","","","","","","","","","","","","","","","","","","","","","",""
"fullscreen","2","14544","0.0-2.0","5eb33bad3ce6e6129e9f9f5b","6368f2eea3e9634aebcc2f6b","636b6fc429f577385d2632a4","","","","true","","","","","","","","","","","","","","","","","","","","","","","","","","","",""
"html-keyboard-response","3","24498","0.0-3.0","5eb33bad3ce6e6129e9f9f5b","6368f2eea3e9634aebcc2f6b","636b6fc429f577385d2632a4","9950.400000095367","<p>Welcome !</p><p>READ CAREFULLY THE FOLLOWING INDICATIONS:</p><p>From this moment you have ~40 minutes to complete the experiment.</p><p>During the experiment you will be prompted to take several breaks. Each break should not last longer than 2-3 minutes.</p><p>Make sure that your computer is plugged in and it's not running on battery power, even if the battery is already fully charged.</p><p>Turn off your phone and music, make sure that you are in a quiet room and that you will not be distracted for the next hour.</p><p>Failure to comply with the instructions and indications provided during the experiment will most likely result in the rejection of your data.<p>Press the spacebar to start.</p>","","","32","","","","","","","","","","","","","","","","","","","","","","","","","","",""
"survey-html-form","4","34142","0.0-4.0","5eb33bad3ce6e6129e9f9f5b","6368f2eea3e9634aebcc2f6b","636b6fc429f577385d2632a4","9642.900000095367","","","","","{""age"":""45"",""sex"":""F""}","true","","","","","","","","","","","","","","","","","","","","","","","","",""
"instructions","5","66631","0.0-5.0","5eb33bad3ce6e6129e9f9f5b","6368f2eea3e9634aebcc2f6b","636b6fc429f577385d2632a4","32487.200000286102","","","","","","","[{""page_index"":0,""viewing_time"":14260.400000095367},{""page_index"":1,""viewing_time"":1017},{""page_index"":0,""viewing_time"":2186.0999999046326},{""page_index"":1,""viewing_time"":8180.5},{""page_index"":2,""viewing_time"":6843}]","","","","","","","","","","","","","","","","","","","","","","","",""
"psychophysics","6","69218","0.0-6.0-0.0","5eb33bad3ce6e6129e9f9f5b","6368f2eea3e9634aebcc2f6b","636b6fc429f577385d2632a4","1581.6000003814697","","","","39","","","","key","16.662019354838787","853.5","401","true","1","180","30","0","-1","","","","","","","","","","","","","",""
"psychophysics","7","70321","0.0-6.0-0.1","5eb33bad3ce6e6129e9f9f5b","6368f2eea3e9634aebcc2f6b","636b6fc429f577385d2632a4","99.90000009536743","","","","37","","","","key","16.6611846153846","853.5","401","true","-1","180","30","0","-1","-1","","","","","","","","","","","","",""
"psychophysics","8","71626","0.0-6.0-0.2","5eb33bad3ce6e6129e9f9f5b","6368f2eea3e9634aebcc2f6b","636b6fc429f577385d2632a4","302.59999990463257","","","","37","","","","key","16.662142857142864","853.5","401","true","-1","150","30","0","-1","-1","","","","","","","","","","","","",""
"psychophysics","9","73031","0.0-6.0-0.3","5eb33bad3ce6e6129e9f9f5b","6368f2eea3e9634aebcc2f6b","636b6fc429f577385d2632a4","402.09999990463257","","","","39","","","","key","16.665119047618994","853.5","401","true","1","150","30","0","-1","-1","","","","","","","","","","","","",""
"psychophysics","10","75214","0.0-6.0-0.4","5eb33bad3ce6e6129e9f9f5b","6368f2eea3e9634aebcc2f6b","636b6fc429f577385d2632a4","1180.2999997138977","","","","37","","","","key","16.65946153846162","853.5","401","true","-1","129","30","0","-1","-1","","","","","","","","","","","","",""
"psychophysics","11","76922","0.0-6.0-0.5","5eb33bad3ce6e6129e9f9f5b","6368f2eea3e9634aebcc2f6b","636b6fc429f577385d2632a4","697.1999998092651","","","","37","","","","key","16.660732673267294","853.5","401","true","1","129","24","1","1","-1","","","","","","","","","","","","",""
"psychophysics","12","78343","0.0-6.0-0.6","5eb33bad3ce6e6129e9f9f5b","6368f2eea3e9634aebcc2f6b","636b6fc429f577385d2632a4","407","","","","39","","","","key","16.66151764705873","853.5","401","true","1","153","24","1","-1","1","","","","","","","","","","","","",""
"psychophysics","13","79908","0.0-6.0-0.7","5eb33bad3ce6e6129e9f9f5b","6368f2eea3e9634aebcc2f6b","636b6fc429f577385d2632a4","554","","","","39","","","","key","16.662376344086127","853.5","401","true","1","153","19.2","2","-1","-1","","","","","","","","","","","","",""
"psychophysics","14","82845","0.0-6.0-0.8","5eb33bad3ce6e6129e9f9f5b","6368f2eea3e9634aebcc2f6b","636b6fc429f577385d2632a4","1926.7000002861023","","","","37","","","","key","16.662520000000036","853.5","401","true","1","133.8","15.36","3","1","-1","","","","","","","","","","","","",""
"psychophysics","15","84305","0.0-6.0-0.9","5eb33bad3ce6e6129e9f9f5b","6368f2eea3e9634aebcc2f6b","636b6fc429f577385d2632a4","450.40000009536743","","","","37","","","","key","16.65934883720928","853.5","401","true","-1","149.16000000000003","15.36","3","-1","1","","","","","","","","","","","","",""
"psychophysics","16","85823","0.0-6.0-0.10","5eb33bad3ce6e6129e9f9f5b","6368f2eea3e9634aebcc2f6b","636b6fc429f577385d2632a4","512.1999998092651","","","","39","","","","key","16.665373626373615","853.5","401","true","1","149.16000000000003","12.287999999999998","4","-1","-1","","","","","","","","","","","","",""
"psychophysics","17","87455","0.0-6.0-0.11","5eb33bad3ce6e6129e9f9f5b","6368f2eea3e9634aebcc2f6b","636b6fc429f577385d2632a4","622.4000000953674","","","","39","","","","key","16.659247422680412","853.5","401","true","1","136.872","12.287999999999998","4","-1","-1","","","","","","","","","","","","",""
"psychophysics","18","88983","0.0-6.0-0.12","5eb33bad3ce6e6129e9f9f5b","6368f2eea3e9634aebcc2f6b","636b6fc429f577385d2632a4","521.2999997138977","","","","37","","","","key","16.661022222222204","853.5","401","true","-1","136.872","12.287999999999998","4","-1","-1","","","","","","","","","","","","",""
"psychophysics","19","90572","0.0-6.0-0.13","5eb33bad3ce6e6129e9f9f5b","6368f2eea3e9634aebcc2f6b","636b6fc429f577385d2632a4","586","","","","39","","","","key","16.66173684210532","853.5","401","true","-1","129","9.8304","5","1","-1","","","","","","","","","","","","",""
"psychophysics","20","92138","0.0-6.0-0.14","5eb33bad3ce6e6129e9f9f5b","6368f2eea3e9634aebcc2f6b","636b6fc429f577385d2632a4","553.7000002861023","","","","39","","","","key","16.661494623655916","853.5","401","true","1","138.8304","9.8304","5","-1","1","","","","","","","","","","","","",""
"psychophysics","21","93715","0.0-6.0-0.15","5eb33bad3ce6e6129e9f9f5b","6368f2eea3e9634aebcc2f6b","636b6fc429f577385d2632a4","564.9000000953674","","","","39","","","","key","16.660892473118317","853.5","401","true","1","138.8304","7.864319999999999","6","-1","-1","","","","","","","","","","","","",""
"psychophysics","22","95436","0.0-6.0-0.16","5eb33bad3ce6e6129e9f9f5b","6368f2eea3e9634aebcc2f6b","636b6fc429f577385d2632a4","718.6999998092651","","","","39","","","","key","16.660524271844658","853.5","401","true","1","130.96608","7.864319999999999","6","-1","-1","","","","","","","","","","","","",""
"psychophysics","23","97030","0.0-6.0-0.17","5eb33bad3ce6e6129e9f9f5b","6368f2eea3e9634aebcc2f6b","636b6fc429f577385d2632a4","579.7999997138977","","","","39","","","","key","16.661425531914883","853.5","401","true","-1","130.96608","6.291456","7","1","-1","","","","","","","","","","","","",""
"psychophysics","24","98797","0.0-6.0-0.18","5eb33bad3ce6e6129e9f9f5b","6368f2eea3e9634aebcc2f6b","636b6fc429f577385d2632a4","764","","","","37","","","","key","16.663971428571468","853.5","401","true","-1","137.25753600000002","6.291456","7","-1","1","","","","","","","","","","","","",""
"psychophysics","25","100156","0.0-6.0-0.19","5eb33bad3ce6e6129e9f9f5b","6368f2eea3e9634aebcc2f6b","636b6fc429f577385d2632a4","355.7000002861023","","","","39","","","","key","16.661148148148147","853.5","401","true","1","137.25753600000002","5.033164800000001","8","-1","-1","","","","","","","","","","","","",""
"psychophysics","26","102060","0.0-6.0-0.20","5eb33bad3ce6e6129e9f9f5b","6368f2eea3e9634aebcc2f6b","636b6fc429f577385d2632a4","894.4000000953674","","","","37","","","","key","16.661522123893743","853.5","401","true","1","132.2243712","4.0265318400000005","9","1","-1","","","","","","","","","","","","",""
"psychophysics","27","103467","0.0-6.0-0.21","5eb33bad3ce6e6129e9f9f5b","6368f2eea3e9634aebcc2f6b","636b6fc429f577385d2632a4","401.7000002861023","","","","37","","","","key","16.65600000000008","853.5","401","true","-1","136.25090304","4.0265318400000005","9","-1","1","","","","","","","","","","","","",""
"psychophysics","28","105267","0.0-6.0-0.22","5eb33bad3ce6e6129e9f9f5b","6368f2eea3e9634aebcc2f6b","636b6fc429f577385d2632a4","792.3999996185303","","","","37","","","","key","16.659140186915806","853.5","401","true","1","136.25090304","3.2212254720000004","10","1","-1","","","","","","","","","","","","",""
"psychophysics","29","106506","0.0-6.0-0.23","5eb33bad3ce6e6129e9f9f5b","6368f2eea3e9634aebcc2f6b","636b6fc429f577385d2632a4","231.09999990463257","","","","37","","","","key","16.66646575342468","853.5","401","true","-1","139.47212851199998","3.2212254720000004","10","-1","1","","","","","","","","","","","","",""
"psychophysics","30","107916","0.0-6.0-0.24","5eb33bad3ce6e6129e9f9f5b","6368f2eea3e9634aebcc2f6b","636b6fc429f577385d2632a4","403.19999980926514","","","","39","","","","key","16.660511904761993","853.5","401","true","1","139.47212851199998","2.5769803776000004","11","-1","-1","","","","","","","","","","","","",""
"psychophysics","31","109278","0.0-6.0-0.25","5eb33bad3ce6e6129e9f9f5b","6368f2eea3e9634aebcc2f6b","636b6fc429f577385d2632a4","353.6000003814697","","","","37","","","","key","16.66492500000004","853.5","401","true","-1","136.8951481344","2.5769803776000004","11","-1","-1","","","","","","","","","","","","",""
"psychophysics","32","110947","0.0-6.0-0.26","5eb33bad3ce6e6129e9f9f5b","6368f2eea3e9634aebcc2f6b","636b6fc429f577385d2632a4","660.8999996185303","","","","37","","","","key","16.66252999999997","853.5","401","true","-1","136.8951481344","2.5769803776000004","11","-1","-1","","","","","","","","","","","","",""
"psychophysics","33","112425","0.0-6.0-0.27","5eb33bad3ce6e6129e9f9f5b","6368f2eea3e9634aebcc2f6b","636b6fc429f577385d2632a4","467.2999997138977","","","","37","","","","key","16.66148275862068","853.5","401","true","-1","134.3181677568","2.5769803776000004","11","-1","-1","","","","","","","","","","","","",""
"psychophysics","34","113926","0.0-6.0-0.28","5eb33bad3ce6e6129e9f9f5b","6368f2eea3e9634aebcc2f6b","636b6fc429f577385d2632a4","497.90000009536743","","","","37","","","","key","16.666134831460756","853.5","401","true","-1","134.3181677568","2.5769803776000004","11","-1","-1","","","","","","","","","","","","",""
"psychophysics","35","115648","0.0-6.0-0.29","5eb33bad3ce6e6129e9f9f5b","6368f2eea3e9634aebcc2f6b","636b6fc429f577385d2632a4","711.6999998092651","","","","37","","","","key","16.664980582524294","853.5","401","true","-1","131.7411873792","2.5769803776000004","11","-1","-1","","","","","","","","","","","","",""
"psychophysics","36","117306","0.0-6.0-0.30","5eb33bad3ce6e6129e9f9f5b","6368f2eea3e9634aebcc2f6b","636b6fc429f577385d2632a4","655.6999998092651","","","","37","","","","key","16.661081632652987","853.5","401","true","1","131.7411873792","2.0615843020800004","12","1","-1","","","","","","","","","","","","",""
"psychophysics","37","118753","0.0-6.0-0.31","5eb33bad3ce6e6129e9f9f5b","6368f2eea3e9634aebcc2f6b","636b6fc429f577385d2632a4","444.3999996185303","","","","37","","","","key","16.662930232558168","853.5","401","true","-1","133.80277168128","2.0615843020800004","12","-1","1","","","","","","","","","","","","",""
"psychophysics","38","120128","0.0-6.0-0.32","5eb33bad3ce6e6129e9f9f5b","6368f2eea3e9634aebcc2f6b","636b6fc429f577385d2632a4","369","","","","37","","","","key","16.66417073170749","853.5","401","true","-1","133.80277168128","1.6492674416640005","13","-1","-1","","","","","","","","","","","","",""
"psychophysics","39","121670","0.0-6.0-0.33","5eb33bad3ce6e6129e9f9f5b","6368f2eea3e9634aebcc2f6b","636b6fc429f577385d2632a4","535.5999999046326","","","","37","","","","key","16.661131868131875","853.5","401","true","-1","132.153504239616","1.6492674416640005","13","-1","-1","","","","","","","","","","","","",""
"psychophysics","40","123627","0.0-6.0-0.34","5eb33bad3ce6e6129e9f9f5b","6368f2eea3e9634aebcc2f6b","636b6fc429f577385d2632a4","953.3000001907349","","","","37","","","","key","16.66181196581197","853.5","401","true","1","132.153504239616","1.3194139533312006","14","1","-1","","","","","","","","","","","","",""
"psychophysics","41","125059","0.0-6.0-0.35","5eb33bad3ce6e6129e9f9f5b","6368f2eea3e9634aebcc2f6b","636b6fc429f577385d2632a4","423.69999980926514","","","","37","","","","key","16.655576470588258","853.5","401","true","1","133.47291819294722","1.3194139533312006","14","1","1","","","","","","","","","","","","",""
"psychophysics","42","126717","0.0-6.0-0.36","5eb33bad3ce6e6129e9f9f5b","6368f2eea3e9634aebcc2f6b","636b6fc429f577385d2632a4","643.8000001907349","","","","37","","","","key","16.660071428571335","853.5","401","true","1","134.79233214627843","1.3194139533312006","14","1","1","","","","","","","","","","","","",""
"psychophysics","43","128067","0.0-6.0-0.37","5eb33bad3ce6e6129e9f9f5b","6368f2eea3e9634aebcc2f6b","636b6fc429f577385d2632a4","343.80000019073486","","","","37","","","","key","16.665087499999935","853.5","401","true","-1","136.11174609960963","1.3194139533312006","14","-1","1","","","","","","","","","","","","",""
"psychophysics","44","129441","0.0-6.0-0.38","5eb33bad3ce6e6129e9f9f5b","6368f2eea3e9634aebcc2f6b","636b6fc429f577385d2632a4","372.7000002861023","","","","39","","","","key","16.661439024390216","853.5","401","true","1","136.11174609960963","1.0555311626649604","15","-1","-1","","","","","","","","","","","","",""
"psychophysics","45","131006","0.0-6.0-0.39","5eb33bad3ce6e6129e9f9f5b","6368f2eea3e9634aebcc2f6b","636b6fc429f577385d2632a4","551.5","","","","37","","","","key","16.656521739130373","853.5","401","true","-1","135.05621493694468","1.0555311626649604","15","-1","-1","","","","","","","","","","","","",""
"html-keyboard-response","46","219891","0.0-7.0","5eb33bad3ce6e6129e9f9f5b","6368f2eea3e9634aebcc2f6b","636b6fc429f577385d2632a4","88883","<p>Well Done !</p><p>Prepare for a new block.</p><p>DON'T EXIT THE FULL SCREEN MODE</p><p>Press the Spacebar to start.</p>","","","32","","","","","","","","","","","","","","","true","134.2244343905321","","","","","","","","","","",""
"psychophysics","47","224527","0.0-8.0-0.0","5eb33bad3ce6e6129e9f9f5b","6368f2eea3e9634aebcc2f6b","636b6fc429f577385d2632a4","3629.5999999046326","","","","37","","","","key","16.719949640287798","853.5","401","true","-1","180","30","0","-1","","","","","","","","","","","","","",""
"psychophysics","48","225732","0.0-8.0-0.1","5eb33bad3ce6e6129e9f9f5b","6368f2eea3e9634aebcc2f6b","636b6fc429f577385d2632a4","199.59999990463257","","","","37","","","","key","16.66209859154958","853.5","401","true","-1","180","30","0","-1","-1","","","","","","","","","","","","",""
"psychophysics","49","227231","0.0-8.0-0.2","5eb33bad3ce6e6129e9f9f5b","6368f2eea3e9634aebcc2f6b","636b6fc429f577385d2632a4","491.30000019073486","","","","37","","","","key","16.666696629213597","853.5","401","true","-1","150","30","0","-1","-1","","","","","","","","","","","","",""
"psychophysics","50","228726","0.0-8.0-0.3","5eb33bad3ce6e6129e9f9f5b","6368f2eea3e9634aebcc2f6b","636b6fc429f577385d2632a4","487","","","","37","","","","key","16.661112359550316","853.5","401","true","-1","150","30","0","-1","-1","","","","","","","","","","","","",""
"psychophysics","51","230284","0.0-8.0-0.4","5eb33bad3ce6e6129e9f9f5b","6368f2eea3e9634aebcc2f6b","636b6fc429f577385d2632a4","554.9000000953674","","","","39","","","","key","16.665608695651905","853.5","401","true","-1","129","24","1","1","-1","","","","","","","","","","","","",""
"psychophysics","52","231817","0.0-8.0-0.5","5eb33bad3ce6e6129e9f9f5b","6368f2eea3e9634aebcc2f6b","636b6fc429f577385d2632a4","528.6999998092651","","","","39","","","","key","16.66231868131877","853.5","401","true","1","153","24","1","-1","1","","","","","","","","","","","","",""
"psychophysics","53","233401","0.0-8.0-0.6","5eb33bad3ce6e6129e9f9f5b","6368f2eea3e9634aebcc2f6b","636b6fc429f577385d2632a4","580.3999996185303","","","","37","","","","key","16.65648936170204","853.5","401","true","-1","153","19.2","2","-1","-1","","","","","","","","","","","","",""
"psychophysics","54","234632","0.0-8.0-0.7","5eb33bad3ce6e6129e9f9f5b","6368f2eea3e9634aebcc2f6b","636b6fc429f577385d2632a4","227.2999997138977","","","","37","","","","key","16.661917808219275","853.5","401","true","-1","133.8","19.2","2","-1","-1","","","","","","","","","","","","",""
"psychophysics","55","236079","0.0-8.0-0.8","5eb33bad3ce6e6129e9f9f5b","6368f2eea3e9634aebcc2f6b","636b6fc429f577385d2632a4","442.69999980926514","","","","37","","","","key","16.65749999999981","853.5","401","true","-1","133.8","19.2","2","-1","-1","","","","","","","","","","","","",""
"psychophysics","56","237728","0.0-8.0-0.9","5eb33bad3ce6e6129e9f9f5b","6368f2eea3e9634aebcc2f6b","636b6fc429f577385d2632a4","641.2000002861023","","","","37","","","","key","16.6659489795919","853.5","401","true","1","129","15.36","3","1","-1","","","","","","","","","","","","",""
"psychophysics","57","239151","0.0-8.0-0.10","5eb33bad3ce6e6129e9f9f5b","6368f2eea3e9634aebcc2f6b","636b6fc429f577385d2632a4","415.1000003814697","","","","39","","","","key","16.661095238095317","853.5","401","true","1","144.36","15.36","3","-1","1","","","","","","","","","","","","",""
"psychophysics","58","240627","0.0-8.0-0.11","5eb33bad3ce6e6129e9f9f5b","6368f2eea3e9634aebcc2f6b","636b6fc429f577385d2632a4","471.8999996185303","","","","39","","","","key","16.666511363636594","853.5","401","true","1","144.36","12.287999999999998","4","-1","-1","","","","","","","","","","","","",""
"psychophysics","59","242118","0.0-8.0-0.12","5eb33bad3ce6e6129e9f9f5b","6368f2eea3e9634aebcc2f6b","636b6fc429f577385d2632a4","482.40000009536743","","","","37","","","","key","16.660113636363597","853.5","401","true","-1","132.072","12.287999999999998","4","-1","-1","","","","","","","","","","","","",""
"psychophysics","60","243697","0.0-8.0-0.13","5eb33bad3ce6e6129e9f9f5b","6368f2eea3e9634aebcc2f6b","636b6fc429f577385d2632a4","576.5999999046326","","","","37","","","","key","16.66596808510664","853.5","401","true","-1","132.072","12.287999999999998","4","-1","-1","","","","","","","","","","","","",""
"psychophysics","61","245155","0.0-8.0-0.14","5eb33bad3ce6e6129e9f9f5b","6368f2eea3e9634aebcc2f6b","636b6fc429f577385d2632a4","454.7000002861023","","","","37","","","","key","16.664333333333236","853.5","401","true","-1","129","12.287999999999998","4","-1","-1","","","","","","","","","","","","",""
"psychophysics","62","246672","0.0-8.0-0.15","5eb33bad3ce6e6129e9f9f5b","6368f2eea3e9634aebcc2f6b","636b6fc429f577385d2632a4","505.69999980926514","","","","37","","","","key","16.663511111110953","853.5","401","true","1","129","9.8304","5","1","-1","","","","","","","","","","","","",""
"psychophysics","63","248400","0.0-8.0-0.16","5eb33bad3ce6e6129e9f9f5b","6368f2eea3e9634aebcc2f6b","636b6fc429f577385d2632a4","718","","","","39","","","","key","16.661932038834987","853.5","401","true","1","138.8304","9.8304","5","-1","1","","","","","","","","","","","","",""
"psychophysics","64","249884","0.0-8.0-0.17","5eb33bad3ce6e6129e9f9f5b","6368f2eea3e9634aebcc2f6b","636b6fc429f577385d2632a4","471.80000019073486","","","","37","","","","key","16.66018181818171","853.5","401","true","-1","138.8304","7.864319999999999","6","-1","-1","","","","","","","","","","","","",""
"psychophysics","65","251644","0.0-8.0-0.18","5eb33bad3ce6e6129e9f9f5b","6368f2eea3e9634aebcc2f6b","636b6fc429f577385d2632a4","758.2000002861023","","","","39","","","","key","17.15640594059426","853.5","401","true","1","130.96608","7.864319999999999","6","-1","-1","","","","","","","","","","","","",""
"psychophysics","66","253226","0.0-8.0-0.19","5eb33bad3ce6e6129e9f9f5b","6368f2eea3e9634aebcc2f6b","636b6fc429f577385d2632a4","581.2000002861023","","","","39","","","","key","16.658106382978655","853.5","401","true","1","130.96608","7.864319999999999","6","-1","-1","","","","","","","","","","","","",""
"psychophysics","67","254758","0.0-8.0-0.20","5eb33bad3ce6e6129e9f9f5b","6368f2eea3e9634aebcc2f6b","636b6fc429f577385d2632a4","529.4000000953674","","","","37","","","","key","16.661956043955858","853.5","401","true","1","129","6.291456","7","1","-1","","","","","","","","","","","","",""
"psychophysics","68","256666","0.0-8.0-0.21","5eb33bad3ce6e6129e9f9f5b","6368f2eea3e9634aebcc2f6b","636b6fc429f577385d2632a4","904.9000000953674","","","","37","","","","key","16.658833333333238","853.5","401","true","-1","135.291456","6.291456","7","-1","1","","","","","","","","","","","","",""
"psychophysics","69","258114","0.0-8.0-0.22","5eb33bad3ce6e6129e9f9f5b","6368f2eea3e9634aebcc2f6b","636b6fc429f577385d2632a4","446.3999996185303","","","","37","","","","key","16.66020930232548","853.5","401","true","-1","135.291456","5.033164800000001","8","-1","-1","","","","","","","","","","","","",""
"psychophysics","70","259865","0.0-8.0-0.23","5eb33bad3ce6e6129e9f9f5b","6368f2eea3e9634aebcc2f6b","636b6fc429f577385d2632a4","748.9000000953674","","","","37","","","","key","16.661105769230815","853.5","401","true","1","130.2582912","4.0265318400000005","9","1","-1","","","","","","","","","","","","",""
"psychophysics","71","261410","0.0-8.0-0.24","5eb33bad3ce6e6129e9f9f5b","6368f2eea3e9634aebcc2f6b","636b6fc429f577385d2632a4","543.1999998092651","","","","39","","","","key","16.663703296703265","853.5","401","true","-1","134.28482304","4.0265318400000005","9","1","1","","","","","","","","","","","","",""
"psychophysics","72","262793","0.0-8.0-0.25","5eb33bad3ce6e6129e9f9f5b","6368f2eea3e9634aebcc2f6b","636b6fc429f577385d2632a4","379.3999996185303","","","","37","","","","key","16.663670731707697","853.5","401","true","-1","138.31135487999998","4.0265318400000005","9","-1","1","","","","","","","","","","","","",""
"psychophysics","73","264334","0.0-8.0-0.26","5eb33bad3ce6e6129e9f9f5b","6368f2eea3e9634aebcc2f6b","636b6fc429f577385d2632a4","538","","","","39","","","","key","16.663021739130667","853.5","401","true","1","138.31135487999998","3.2212254720000004","10","-1","-1","","","","","","","","","","","","",""
"psychophysics","74","266034","0.0-8.0-0.27","5eb33bad3ce6e6129e9f9f5b","6368f2eea3e9634aebcc2f6b","636b6fc429f577385d2632a4","697.0999999046326","","","","37","","","","key","16.664039603960678","853.5","401","true","1","135.090129408","2.5769803776000004","11","1","-1","","","","","","","","","","","","",""
"psychophysics","75","267663","0.0-8.0-0.28","5eb33bad3ce6e6129e9f9f5b","6368f2eea3e9634aebcc2f6b","636b6fc429f577385d2632a4","627.1999998092651","","","","37","","","","key","16.662030927835094","853.5","401","true","-1","137.6671097856","2.5769803776000004","11","-1","1","","","","","","","","","","","","",""
"psychophysics","76","269166","0.0-8.0-0.29","5eb33bad3ce6e6129e9f9f5b","6368f2eea3e9634aebcc2f6b","636b6fc429f577385d2632a4","500.2000002861023","","","","37","","","","key","16.664235955056487","853.5","401","true","-1","137.6671097856","2.0615843020800004","12","-1","-1","","","","","","","","","","","","",""
"psychophysics","77","270905","0.0-8.0-0.30","5eb33bad3ce6e6129e9f9f5b","6368f2eea3e9634aebcc2f6b","636b6fc429f577385d2632a4","737.0999999046326","","","","37","","","","key","16.662932038835013","853.5","401","true","-1","135.60552548351998","2.0615843020800004","12","-1","-1","","","","","","","","","","","","",""
"psychophysics","78","272339","0.0-8.0-0.31","5eb33bad3ce6e6129e9f9f5b","6368f2eea3e9634aebcc2f6b","636b6fc429f577385d2632a4","431.69999980926514","","","","39","","","","key","16.66423529411721","853.5","401","true","1","135.60552548351998","2.0615843020800004","12","-1","-1","","","","","","","","","","","","",""
"psychophysics","79","273803","0.0-8.0-0.32","5eb33bad3ce6e6129e9f9f5b","6368f2eea3e9634aebcc2f6b","636b6fc429f577385d2632a4","462.7999997138977","","","","37","","","","key","16.663735632183855","853.5","401","true","-1","133.54394118143998","2.0615843020800004","12","-1","-1","","","","","","","","","","","","",""
"psychophysics","80","275329","0.0-8.0-0.33","5eb33bad3ce6e6129e9f9f5b","6368f2eea3e9634aebcc2f6b","636b6fc429f577385d2632a4","523.7999997138977","","","","39","","","","key","16.660021978022357","853.5","401","true","1","133.54394118143998","2.0615843020800004","12","-1","-1","","","","","","","","","","","","",""
"psychophysics","81","276822","0.0-8.0-0.34","5eb33bad3ce6e6129e9f9f5b","6368f2eea3e9634aebcc2f6b","636b6fc429f577385d2632a4","490.40000009536743","","","","39","","","","key","16.659181818181505","853.5","401","true","1","131.48235687935997","2.0615843020800004","12","-1","-1","","","","","","","","","","","","",""
"psychophysics","82","278419","0.0-8.0-0.35","5eb33bad3ce6e6129e9f9f5b","6368f2eea3e9634aebcc2f6b","636b6fc429f577385d2632a4","594","","","","39","","","","key","16.661126315789787","853.5","401","true","1","131.48235687935997","2.0615843020800004","12","-1","-1","","","","","","","","","","","","",""
"psychophysics","83","279925","0.0-8.0-0.36","5eb33bad3ce6e6129e9f9f5b","6368f2eea3e9634aebcc2f6b","636b6fc429f577385d2632a4","504.40000009536743","","","","39","","","","key","16.661200000000342","853.5","401","true","1","129.42077257727996","2.0615843020800004","12","-1","-1","","","","","","","","","","","","",""
"psychophysics","84","281472","0.0-8.0-0.37","5eb33bad3ce6e6129e9f9f5b","6368f2eea3e9634aebcc2f6b","636b6fc429f577385d2632a4","544.1999998092651","","","","39","","","","key","16.659021739130484","853.5","401","true","1","129.42077257727996","2.0615843020800004","12","-1","-1","","","","","","","","","","","","",""
"psychophysics","85","283035","0.0-8.0-0.38","5eb33bad3ce6e6129e9f9f5b","6368f2eea3e9634aebcc2f6b","636b6fc429f577385d2632a4","559","","","","39","","","","key","16.660097826086872","853.5","401","true","1","129","2.0615843020800004","12","-1","-1","","","","","","","","","","","","",""
"psychophysics","86","284647","0.0-8.0-0.39","5eb33bad3ce6e6129e9f9f5b","6368f2eea3e9634aebcc2f6b","636b6fc429f577385d2632a4","610.2000002861023","","","","39","","","","key","16.663010416666413","853.5","401","true","1","129","2.0615843020800004","12","-1","-1","","","","","","","","","","","","",""
"html-keyboard-response","87","286702","0.0-9.0","5eb33bad3ce6e6129e9f9f5b","6368f2eea3e9634aebcc2f6b","636b6fc429f577385d2632a4","2054","<p>Well Done !</p><p>Prepare for a new block.</p><p>DON'T EXIT THE FULL SCREEN MODE</p><p>Press the Spacebar to start.</p>","","","32","","","","","","","","","","","","","","","true","133.67681673215995","","","","","","","","","","",""
"psychophysics","88","287987","0.0-10.0-0.0","5eb33bad3ce6e6129e9f9f5b","6368f2eea3e9634aebcc2f6b","636b6fc429f577385d2632a4","281.1000003814697","","","","39","","","","key","16.65670129870119","853.5","401","true","1","180","30","0","-1","","","","","","","","","","","","","",""
"psychophysics","89","289294","0.0-10.0-0.1","5eb33bad3ce6e6129e9f9f5b","6368f2eea3e9634aebcc2f6b","636b6fc429f577385d2632a4","304.59999990463257","","","","39","","","","key","16.66288311688332","853.5","401","true","1","180","30","0","-1","-1","","","","","","","","","","","","",""
"psychophysics","90","290477","0.0-10.0-0.2","5eb33bad3ce6e6129e9f9f5b","6368f2eea3e9634aebcc2f6b","636b6fc429f577385d2632a4","181.09999990463257","","","","37","","","","key","16.662042857142765","853.5","401","true","-1","150","30","0","-1","-1","","","","","","","","","","","","",""
"psychophysics","91","291712","0.0-10.0-0.3","5eb33bad3ce6e6129e9f9f5b","6368f2eea3e9634aebcc2f6b","636b6fc429f577385d2632a4","232.59999990463257","","","","39","","","","key","16.654780821917797","853.5","401","true","1","150","30","0","-1","-1","","","","","","","","","","","","",""
"psychophysics","92","293063","0.0-10.0-0.4","5eb33bad3ce6e6129e9f9f5b","6368f2eea3e9634aebcc2f6b","636b6fc429f577385d2632a4","348.5","","","","37","","","","key","16.661149999999907","853.5","401","true","1","129","24","1","1","-1","","","","","","","","","","","","",""
"psychophysics","93","294444","0.0-10.0-0.5","5eb33bad3ce6e6129e9f9f5b","6368f2eea3e9634aebcc2f6b","636b6fc429f577385d2632a4","379.5","","","","37","","","","key","16.66201219512164","853.5","401","true","-1","153","24","1","-1","1","","","","","","","","","","","","",""
"psychophysics","94","295664","0.0-10.0-0.6","5eb33bad3ce6e6129e9f9f5b","6368f2eea3e9634aebcc2f6b","636b6fc429f577385d2632a4","217.80000019073486","","","","39","","","","key","16.66624999999961","853.5","401","true","1","153","19.2","2","-1","-1","","","","","","","","","","","","",""
"psychophysics","95","296884","0.0-10.0-0.7","5eb33bad3ce6e6129e9f9f5b","6368f2eea3e9634aebcc2f6b","636b6fc429f577385d2632a4","218.19999980926514","","","","39","","","","key","16.662452054794475","853.5","401","true","1","133.8","19.2","2","-1","-1","","","","","","","","","","","","",""
"psychophysics","96","298112","0.0-10.0-0.8","5eb33bad3ce6e6129e9f9f5b","6368f2eea3e9634aebcc2f6b","636b6fc429f577385d2632a4","225","","","","39","","","","key","16.662097222221846","853.5","401","true","1","133.8","19.2","2","-1","-1","","","","","","","","","","","","",""
"psychophysics","97","300268","0.0-10.0-0.9","5eb33bad3ce6e6129e9f9f5b","6368f2eea3e9634aebcc2f6b","636b6fc429f577385d2632a4","1153.0999999046326","","","","39","","","","key","16.660403100775046","853.5","401","true","1","129","19.2","2","-1","-1","","","","","","","","","","","","",""
"psychophysics","98","302062","0.0-10.0-0.10","5eb33bad3ce6e6129e9f9f5b","6368f2eea3e9634aebcc2f6b","636b6fc429f577385d2632a4","788","","","","37","","","","key","16.66300943396208","853.5","401","true","-1","129","19.2","2","-1","-1","","","","","","","","","","","","",""
"psychophysics","99","304131","0.0-10.0-0.11","5eb33bad3ce6e6129e9f9f5b","6368f2eea3e9634aebcc2f6b","636b6fc429f577385d2632a4","1067.7000002861023","","","","37","","","","key","16.66477419354816","853.5","401","true","-1","129","19.2","2","-1","-1","","","","","","","","","","","","",""
"psychophysics","100","305797","0.0-10.0-0.12","5eb33bad3ce6e6129e9f9f5b","6368f2eea3e9634aebcc2f6b","636b6fc429f577385d2632a4","650.8000001907349","","","","37","","","","key","16.65991919191914","853.5","401","true","-1","129","19.2","2","-1","-1","","","","","","","","","","","","",""
"psychophysics","101","307412","0.0-10.0-0.13","5eb33bad3ce6e6129e9f9f5b","6368f2eea3e9634aebcc2f6b","636b6fc429f577385d2632a4","602.5999999046326","","","","37","","","","key","16.661631578947173","853.5","401","true","1","129","15.36","3","1","-1","","","","","","","","","","","","",""
"psychophysics","102","308769","0.0-10.0-0.14","5eb33bad3ce6e6129e9f9f5b","6368f2eea3e9634aebcc2f6b","636b6fc429f577385d2632a4","330.09999990463257","","","","39","","","","key","16.66664197530819","853.5","401","true","1","144.36","15.36","3","-1","1","","","","","","","","","","","","",""
"psychophysics","103","310120","0.0-10.0-0.15","5eb33bad3ce6e6129e9f9f5b","6368f2eea3e9634aebcc2f6b","636b6fc429f577385d2632a4","342.09999990463257","","","","37","","","","key","16.66128749999989","853.5","401","true","-1","144.36","12.287999999999998","4","-1","-1","","","","","","","","","","","","",""
"psychophysics","104","311782","0.0-10.0-0.16","5eb33bad3ce6e6129e9f9f5b","6368f2eea3e9634aebcc2f6b","636b6fc429f577385d2632a4","653.1999998092651","","","","37","","","","key","16.65807070707046","853.5","401","true","1","132.072","9.8304","5","1","-1","","","","","","","","","","","","",""
"psychophysics","105","313128","0.0-10.0-0.17","5eb33bad3ce6e6129e9f9f5b","6368f2eea3e9634aebcc2f6b","636b6fc429f577385d2632a4","338.2000002861023","","","","37","","","","key","16.66559999999954","853.5","401","true","-1","141.9024","9.8304","5","-1","1","","","","","","","","","","","","",""
"psychophysics","106","314469","0.0-10.0-0.18","5eb33bad3ce6e6129e9f9f5b","6368f2eea3e9634aebcc2f6b","636b6fc429f577385d2632a4","336.09999990463257","","","","37","","","","key","16.660848101265756","853.5","401","true","-1","141.9024","7.864319999999999","6","-1","-1","","","","","","","","","","","","",""
"psychophysics","107","315917","0.0-10.0-0.19","5eb33bad3ce6e6129e9f9f5b","6368f2eea3e9634aebcc2f6b","636b6fc429f577385d2632a4","440.59999990463257","","","","37","","","","key","16.66623255813922","853.5","401","true","-1","134.03808","7.864319999999999","6","-1","-1","","","","","","","","","","","","",""
"psychophysics","108","317466","0.0-10.0-0.20","5eb33bad3ce6e6129e9f9f5b","6368f2eea3e9634aebcc2f6b","636b6fc429f577385d2632a4","540.6999998092651","","","","37","","","","key","16.66274999999998","853.5","401","true","1","134.03808","6.291456","7","1","-1","","","","","","","","","","","","",""
"psychophysics","109","318880","0.0-10.0-0.21","5eb33bad3ce6e6129e9f9f5b","6368f2eea3e9634aebcc2f6b","636b6fc429f577385d2632a4","411.2000002861023","","","","39","","","","key","16.660238095238345","853.5","401","true","1","140.32953600000002","6.291456","7","-1","1","","","","","","","","","","","","",""
"psychophysics","110","320296","0.0-10.0-0.22","5eb33bad3ce6e6129e9f9f5b","6368f2eea3e9634aebcc2f6b","636b6fc429f577385d2632a4","404.40000009536743","","","","37","","","","key","16.65749999999978","853.5","401","true","-1","140.32953600000002","5.033164800000001","8","-1","-1","","","","","","","","","","","","",""
"psychophysics","111","321650","0.0-10.0-0.23","5eb33bad3ce6e6129e9f9f5b","6368f2eea3e9634aebcc2f6b","636b6fc429f577385d2632a4","351.59999990463257","","","","37","","","","key","16.661737500000164","853.5","401","true","-1","135.2963712","5.033164800000001","8","-1","-1","","","","","","","","","","","","",""
"psychophysics","112","323092","0.0-10.0-0.24","5eb33bad3ce6e6129e9f9f5b","6368f2eea3e9634aebcc2f6b","636b6fc429f577385d2632a4","439.30000019073486","","","","39","","","","key","16.66002325581381","853.5","401","true","1","135.2963712","5.033164800000001","8","-1","-1","","","","","","","","","","","","",""
"psychophysics","113","324598","0.0-10.0-0.25","5eb33bad3ce6e6129e9f9f5b","6368f2eea3e9634aebcc2f6b","636b6fc429f577385d2632a4","491.09999990463257","","","","39","","","","key","16.661617977528316","853.5","401","true","-1","130.2632064","4.0265318400000005","9","1","-1","","","","","","","","","","","","",""
"psychophysics","114","325911","0.0-10.0-0.26","5eb33bad3ce6e6129e9f9f5b","6368f2eea3e9634aebcc2f6b","636b6fc429f577385d2632a4","304","","","","39","","","","key","16.661961538461185","853.5","401","true","-1","134.28973824","4.0265318400000005","9","1","1","","","","","","","","","","","","",""
"psychophysics","115","327371","0.0-10.0-0.27","5eb33bad3ce6e6129e9f9f5b","6368f2eea3e9634aebcc2f6b","636b6fc429f577385d2632a4","449.69999980926514","","","","39","","","","key","16.665488372093236","853.5","401","true","1","138.31627007999998","4.0265318400000005","9","-1","1","","","","","","","","","","","","",""
"psychophysics","116","328683","0.0-10.0-0.28","5eb33bad3ce6e6129e9f9f5b","6368f2eea3e9634aebcc2f6b","636b6fc429f577385d2632a4","310","","","","37","","","","key","16.666358974359284","853.5","401","true","-1","138.31627007999998","3.2212254720000004","10","-1","-1","","","","","","","","","","","","",""
"psychophysics","117","330116","0.0-10.0-0.29","5eb33bad3ce6e6129e9f9f5b","6368f2eea3e9634aebcc2f6b","636b6fc429f577385d2632a4","430.6000003814697","","","","39","","","","key","16.654752941176927","853.5","401","true","1","135.09504460799997","3.2212254720000004","10","-1","-1","","","","","","","","","","","","",""
"psychophysics","118","331540","0.0-10.0-0.30","5eb33bad3ce6e6129e9f9f5b","6368f2eea3e9634aebcc2f6b","636b6fc429f577385d2632a4","402.1000003814697","","","","37","","","","key","16.66629411764717","853.5","401","true","-1","135.09504460799997","3.2212254720000004","10","-1","-1","","","","","","","","","","","","",""
"psychophysics","119","333361","0.0-10.0-0.31","5eb33bad3ce6e6129e9f9f5b","6368f2eea3e9634aebcc2f6b","636b6fc429f577385d2632a4","814.4000000953674","","","","37","","","","key","16.660342592592954","853.5","401","true","1","131.87381913599995","2.5769803776000004","11","1","-1","","","","","","","","","","","","",""
"psychophysics","120","334671","0.0-10.0-0.32","5eb33bad3ce6e6129e9f9f5b","6368f2eea3e9634aebcc2f6b","636b6fc429f577385d2632a4","301.5","","","","37","","","","key","16.662782051281866","853.5","401","true","-1","134.45079951359995","2.5769803776000004","11","-1","1","","","","","","","","","","","","",""
"psychophysics","121","336087","0.0-10.0-0.33","5eb33bad3ce6e6129e9f9f5b","6368f2eea3e9634aebcc2f6b","636b6fc429f577385d2632a4","403.40000009536743","","","","37","","","","key","16.664416666667204","853.5","401","true","-1","134.45079951359995","2.0615843020800004","12","-1","-1","","","","","","","","","","","","",""
"psychophysics","122","337558","0.0-10.0-0.34","5eb33bad3ce6e6129e9f9f5b","6368f2eea3e9634aebcc2f6b","636b6fc429f577385d2632a4","467.7999997138977","","","","37","","","","key","16.655724137930477","853.5","401","true","-1","132.38921521151994","2.0615843020800004","12","-1","-1","","","","","","","","","","","","",""
"psychophysics","123","339171","0.0-10.0-0.35","5eb33bad3ce6e6129e9f9f5b","6368f2eea3e9634aebcc2f6b","636b6fc429f577385d2632a4","611.1999998092651","","","","37","","","","key","16.65782291666619","853.5","401","true","-1","132.38921521151994","2.0615843020800004","12","-1","-1","","","","","","","","","","","","",""
"psychophysics","124","340687","0.0-10.0-0.36","5eb33bad3ce6e6129e9f9f5b","6368f2eea3e9634aebcc2f6b","636b6fc429f577385d2632a4","503.40000009536743","","","","37","","","","key","16.658866666666775","853.5","401","true","1","130.32763090943993","1.6492674416640005","13","1","-1","","","","","","","","","","","","",""
"psychophysics","125","342103","0.0-10.0-0.37","5eb33bad3ce6e6129e9f9f5b","6368f2eea3e9634aebcc2f6b","636b6fc429f577385d2632a4","403.19999980926514","","","","37","","","","key","16.66114285714312","853.5","401","true","-1","131.97689835110393","1.6492674416640005","13","-1","1","","","","","","","","","","","","",""
"psychophysics","126","343678","0.0-10.0-0.38","5eb33bad3ce6e6129e9f9f5b","6368f2eea3e9634aebcc2f6b","636b6fc429f577385d2632a4","565.3999996185303","","","","37","","","","key","16.661043010752834","853.5","401","true","1","131.97689835110393","1.3194139533312006","14","1","-1","","","","","","","","","","","","",""
"psychophysics","127","345268","0.0-10.0-0.39","5eb33bad3ce6e6129e9f9f5b","6368f2eea3e9634aebcc2f6b","636b6fc429f577385d2632a4","585.5999999046326","","","","37","","","","key","16.6611157894735","853.5","401","true","1","133.29631230443513","1.3194139533312006","14","1","1","","","","","","","","","","","","",""
"html-keyboard-response","128","348235","0.0-11.0","5eb33bad3ce6e6129e9f9f5b","6368f2eea3e9634aebcc2f6b","636b6fc429f577385d2632a4","2965.5","<p>Well Done !</p><p>Prepare for a new block.</p><p>DON'T EXIT THE FULL SCREEN MODE</p><p>Press the Spacebar to start.</p>","","","32","","","","","","","","","","","","","","","true","133.63381083455485","","","","","","","","","","",""
"psychophysics","129","349301","0.0-12.0-0.0","5eb33bad3ce6e6129e9f9f5b","6368f2eea3e9634aebcc2f6b","636b6fc429f577385d2632a4","62.09999990463257","","","","39","","","","key","16.67254687500008","853.5","401","true","1","180","30","0","-1","","","","","","","","","","","","","",""
"psychophysics","130","350362","0.0-12.0-0.1","5eb33bad3ce6e6129e9f9f5b","6368f2eea3e9634aebcc2f6b","636b6fc429f577385d2632a4","59.09999990463257","","","","39","","","","key","16.665903225805867","853.5","401","true","1","180","30","0","-1","-1","","","","","","","","","","","","",""
"psychophysics","131","351366","0.0-12.0-0.2","5eb33bad3ce6e6129e9f9f5b","6368f2eea3e9634aebcc2f6b","636b6fc429f577385d2632a4","2.8000001907348633","","","","37","","","","key","16.660616666666463","853.5","401","true","-1","150","30","0","-1","-1","","","","","","","","","","","","",""
"psychophysics","132","353847","0.0-12.0-0.3","5eb33bad3ce6e6129e9f9f5b","6368f2eea3e9634aebcc2f6b","636b6fc429f577385d2632a4","1478.0999999046326","","","","39","","","","key","16.66112925170059","853.5","401","true","1","150","30","0","-1","-1","","","","","","","","","","","","",""
"psychophysics","133","356048","0.0-12.0-0.4","5eb33bad3ce6e6129e9f9f5b","6368f2eea3e9634aebcc2f6b","636b6fc429f577385d2632a4","1198.2999997138977","","","","39","","","","key","16.66455303030318","853.5","401","true","-1","129","24","1","1","-1","","","","","","","","","","","","",""
"psychophysics","134","357142","0.0-12.0-0.5","5eb33bad3ce6e6129e9f9f5b","6368f2eea3e9634aebcc2f6b","636b6fc429f577385d2632a4","92.5","","","","37","","","","key","16.653890624999804","853.5","401","true","-1","153","24","1","-1","1","","","","","","","","","","","","",""
"psychophysics","135","360131","0.0-12.0-0.6","5eb33bad3ce6e6129e9f9f5b","6368f2eea3e9634aebcc2f6b","636b6fc429f577385d2632a4","1987.3000001907349","","","","37","","","","key","16.662804469273702","853.5","401","true","-1","153","19.2","2","-1","-1","","","","","","","","","","","","",""
"psychophysics","136","361632","0.0-12.0-0.7","5eb33bad3ce6e6129e9f9f5b","6368f2eea3e9634aebcc2f6b","636b6fc429f577385d2632a4","497.2000002861023","","","","37","","","","key","16.65617977528116","853.5","401","true","1","133.8","15.36","3","1","-1","","","","","","","","","","","","",""
"psychophysics","137","362675","0.0-12.0-0.8","5eb33bad3ce6e6129e9f9f5b","6368f2eea3e9634aebcc2f6b","636b6fc429f577385d2632a4","41.19999980926514","","","","39","","","","key","16.664049180328547","853.5","401","true","1","149.16000000000003","15.36","3","-1","1","","","","","","","","","","","","",""
"psychophysics","138","363773","0.0-12.0-0.9","5eb33bad3ce6e6129e9f9f5b","6368f2eea3e9634aebcc2f6b","636b6fc429f577385d2632a4","96.2999997138977","","","","39","","","","key","16.66826153846207","853.5","401","true","1","149.16000000000003","12.287999999999998","4","-1","-1","","","","","","","","","","","","",""
"psychophysics","139","366822","0.0-12.0-0.10","5eb33bad3ce6e6129e9f9f5b","6368f2eea3e9634aebcc2f6b","636b6fc429f577385d2632a4","2046.8000001907349","","","","39","","","","key","16.66097252747264","853.5","401","true","-1","136.872","9.8304","5","1","-1","","","","","","","","","","","","",""
"psychophysics","140","367880","0.0-12.0-0.11","5eb33bad3ce6e6129e9f9f5b","6368f2eea3e9634aebcc2f6b","636b6fc429f577385d2632a4","54.80000019073486","","","","39","","","","key","16.660619047619143","853.5","401","true","1","146.7024","9.8304","5","-1","1","","","","","","","","","","","","",""
"psychophysics","141","369043","0.0-12.0-0.12","5eb33bad3ce6e6129e9f9f5b","6368f2eea3e9634aebcc2f6b","636b6fc429f577385d2632a4","160.09999990463257","","","","37","","","","key","16.66373529411794","853.5","401","true","-1","146.7024","7.864319999999999","6","-1","-1","","","","","","","","","","","","",""
"psychophysics","142","370190","0.0-12.0-0.13","5eb33bad3ce6e6129e9f9f5b","6368f2eea3e9634aebcc2f6b","636b6fc429f577385d2632a4","144.5","","","","39","","","","key","16.66791176470596","853.5","401","true","1","138.83808000000002","7.864319999999999","6","-1","-1","","","","","","","","","","","","",""
"psychophysics","143","371337","0.0-12.0-0.14","5eb33bad3ce6e6129e9f9f5b","6368f2eea3e9634aebcc2f6b","636b6fc429f577385d2632a4","144.7999997138977","","","","37","","","","key","16.662926470588634","853.5","401","true","-1","138.83808000000002","7.864319999999999","6","-1","-1","","","","","","","","","","","","",""
"psychophysics","144","373277","0.0-12.0-0.15","5eb33bad3ce6e6129e9f9f5b","6368f2eea3e9634aebcc2f6b","636b6fc429f577385d2632a4","938","","","","37","","","","key","16.660982758620683","853.5","401","true","1","130.97376000000003","6.291456","7","1","-1","","","","","","","","","","","","",""
"psychophysics","145","374492","0.0-12.0-0.16","5eb33bad3ce6e6129e9f9f5b","6368f2eea3e9634aebcc2f6b","636b6fc429f577385d2632a4","212.7999997138977","","","","39","","","","key","16.66000000000026","853.5","401","true","1","137.26521600000004","6.291456","7","-1","1","","","","","","","","","","","","",""
"psychophysics","146","375763","0.0-12.0-0.17","5eb33bad3ce6e6129e9f9f5b","6368f2eea3e9634aebcc2f6b","636b6fc429f577385d2632a4","269.5","","","","37","","","","key","16.66794666666615","853.5","401","true","-1","137.26521600000004","5.033164800000001","8","-1","-1","","","","","","","","","","","","",""
"psychophysics","147","377888","0.0-12.0-0.18","5eb33bad3ce6e6129e9f9f5b","6368f2eea3e9634aebcc2f6b","636b6fc429f577385d2632a4","1122.5999999046326","","","","39","","","","key","16.660642857142697","853.5","401","true","-1","132.23205120000003","4.0265318400000005","9","1","-1","","","","","","","","","","","","",""
"psychophysics","148","379310","0.0-12.0-0.19","5eb33bad3ce6e6129e9f9f5b","6368f2eea3e9634aebcc2f6b","636b6fc429f577385d2632a4","421","","","","39","","","","key","16.662599999999955","853.5","401","true","1","136.25858304000002","4.0265318400000005","9","-1","1","","","","","","","","","","","","",""
"psychophysics","149","380712","0.0-12.0-0.20","5eb33bad3ce6e6129e9f9f5b","6368f2eea3e9634aebcc2f6b","636b6fc429f577385d2632a4","390.8999996185303","","","","37","","","","key","16.66233734939744","853.5","401","true","-1","136.25858304000002","3.2212254720000004","10","-1","-1","","","","","","","","","","","","",""
"psychophysics","150","382196","0.0-12.0-0.21","5eb33bad3ce6e6129e9f9f5b","6368f2eea3e9634aebcc2f6b","636b6fc429f577385d2632a4","474.69999980926514","","","","39","","","","key","16.65821590909102","853.5","401","true","1","133.037357568","3.2212254720000004","10","-1","-1","","","","","","","","","","","","",""
"psychophysics","151","383755","0.0-12.0-0.22","5eb33bad3ce6e6129e9f9f5b","6368f2eea3e9634aebcc2f6b","636b6fc429f577385d2632a4","553.3000001907349","","","","37","","","","key","16.661161290322084","853.5","401","true","-1","133.037357568","3.2212254720000004","10","-1","-1","","","","","","","","","","","","",""
"psychophysics","152","385329","0.0-12.0-0.23","5eb33bad3ce6e6129e9f9f5b","6368f2eea3e9634aebcc2f6b","636b6fc429f577385d2632a4","563.6999998092651","","","","39","","","","key","16.665569892472973","853.5","401","true","-1","129.816132096","2.5769803776000004","11","1","-1","","","","","","","","","","","","",""
"psychophysics","153","386919","0.0-12.0-0.24","5eb33bad3ce6e6129e9f9f5b","6368f2eea3e9634aebcc2f6b","636b6fc429f577385d2632a4","584.5999999046326","","","","37","","","","key","16.655840425532276","853.5","401","true","1","132.39311247359998","2.5769803776000004","11","1","1","","","","","","","","","","","","",""
"psychophysics","154","388589","0.0-12.0-0.25","5eb33bad3ce6e6129e9f9f5b","6368f2eea3e9634aebcc2f6b","636b6fc429f577385d2632a4","669.3000001907349","","","","37","","","","key","16.664769999999553","853.5","401","true","-1","134.97009285119998","2.5769803776000004","11","-1","1","","","","","","","","","","","","",""
"psychophysics","155","390193","0.0-12.0-0.26","5eb33bad3ce6e6129e9f9f5b","6368f2eea3e9634aebcc2f6b","636b6fc429f577385d2632a4","591.7999997138977","","","","37","","","","key","16.658578947368447","853.5","401","true","-1","134.97009285119998","2.0615843020800004","12","-1","-1","","","","","","","","","","","","",""
"psychophysics","156","392490","0.0-12.0-0.27","5eb33bad3ce6e6129e9f9f5b","6368f2eea3e9634aebcc2f6b","636b6fc429f577385d2632a4","1291.1999998092651","","","","37","","","","key","16.660087591241094","853.5","401","true","1","132.90850854911997","1.6492674416640005","13","1","-1","","","","","","","","","","","","",""
"psychophysics","157","394117","0.0-12.0-0.28","5eb33bad3ce6e6129e9f9f5b","6368f2eea3e9634aebcc2f6b","636b6fc429f577385d2632a4","616.5999999046326","","","","37","","","","key","16.65635051546359","853.5","401","true","-1","134.55777599078397","1.6492674416640005","13","-1","1","","","","","","","","","","","","",""
"psychophysics","158","396368","0.0-12.0-0.29","5eb33bad3ce6e6129e9f9f5b","6368f2eea3e9634aebcc2f6b","636b6fc429f577385d2632a4","1245.5999999046326","","","","37","","","","key","16.65835074626853","853.5","401","true","1","134.55777599078397","1.3194139533312006","14","1","-1","","","","","","","","","","","","",""
"psychophysics","159","397794","0.0-12.0-0.30","5eb33bad3ce6e6129e9f9f5b","6368f2eea3e9634aebcc2f6b","636b6fc429f577385d2632a4","411.69999980926514","","","","39","","","","key","16.66014285714274","853.5","401","true","1","135.87718994411517","1.3194139533312006","14","-1","1","","","","","","","","","","","","",""
"psychophysics","160","399391","0.0-12.0-0.31","5eb33bad3ce6e6129e9f9f5b","6368f2eea3e9634aebcc2f6b","636b6fc429f577385d2632a4","593","","","","39","","","","key","16.66114736842114","853.5","401","true","1","135.87718994411517","1.0555311626649604","15","-1","-1","","","","","","","","","","","","",""
"psychophysics","161","400939","0.0-12.0-0.32","5eb33bad3ce6e6129e9f9f5b","6368f2eea3e9634aebcc2f6b","636b6fc429f577385d2632a4","541.1999998092651","","","","39","","","","key","16.657597826087073","853.5","401","true","1","134.82165878145022","1.0555311626649604","15","-1","-1","","","","","","","","","","","","",""
"psychophysics","162","402415","0.0-12.0-0.33","5eb33bad3ce6e6129e9f9f5b","6368f2eea3e9634aebcc2f6b","636b6fc429f577385d2632a4","467.5","","","","37","","","","key","16.658443181818505","853.5","401","true","-1","134.82165878145022","1.0555311626649604","15","-1","-1","","","","","","","","","","","","",""
"psychophysics","163","404018","0.0-12.0-0.34","5eb33bad3ce6e6129e9f9f5b","6368f2eea3e9634aebcc2f6b","636b6fc429f577385d2632a4","591.1000003814697","","","","37","","","","key","16.65960000000012","853.5","401","true","-1","133.76612761878528","1.0555311626649604","15","-1","-1","","","","","","","","","","","","",""
"psychophysics","164","405503","0.0-12.0-0.35","5eb33bad3ce6e6129e9f9f5b","6368f2eea3e9634aebcc2f6b","636b6fc429f577385d2632a4","481","","","","37","","","","key","16.661511363636237","853.5","401","true","-1","133.76612761878528","1.0555311626649604","15","-1","-1","","","","","","","","","","","","",""
"psychophysics","165","407191","0.0-12.0-0.36","5eb33bad3ce6e6129e9f9f5b","6368f2eea3e9634aebcc2f6b","636b6fc429f577385d2632a4","682.5999999046326","","","","37","","","","key","16.663340000000318","853.5","401","true","1","132.71059645612033","1","16","1","-1","","","","","","","","","","","","",""
"psychophysics","166","408646","0.0-12.0-0.37","5eb33bad3ce6e6129e9f9f5b","6368f2eea3e9634aebcc2f6b","636b6fc429f577385d2632a4","451.5","","","","37","","","","key","16.660011764706166","853.5","401","true","-1","133.71059645612033","1","16","-1","1","","","","","","","","","","","","",""
"psychophysics","167","410174","0.0-12.0-0.38","5eb33bad3ce6e6129e9f9f5b","6368f2eea3e9634aebcc2f6b","636b6fc429f577385d2632a4","513.1999998092651","","","","37","","","","key","16.665043478260962","853.5","401","true","-1","133.71059645612033","1","17","-1","-1","","","","","","","","","","","","",""
"psychophysics","168","411840","0.0-12.0-0.39","5eb33bad3ce6e6129e9f9f5b","6368f2eea3e9634aebcc2f6b","636b6fc429f577385d2632a4","663.0999999046326","","","","37","","","","key","16.659969696969693","853.5","401","true","1","132.71059645612033","1","18","1","-1","","","","","","","","","","","","",""
"html-keyboard-response","169","413220","0.0-13.0","5eb33bad3ce6e6129e9f9f5b","6368f2eea3e9634aebcc2f6b","636b6fc429f577385d2632a4","1378.5999999046326","<p>Well Done !</p><p>Prepare for a new block.</p><p>DON'T EXIT THE FULL SCREEN MODE</p><p>Press the Spacebar to start.</p>","","","32","","","","","","","","","","","","","","","true","134.24910564975136","","","","","","","","","","",""
"html-keyboard-response","170","413329","0.0-14.0","5eb33bad3ce6e6129e9f9f5b","6368f2eea3e9634aebcc2f6b","636b6fc429f577385d2632a4","null","","","","null","","","","","","","","","","","","","","","","","133.9460419017496","true","139.8920838034992","","","","","","","",""
"instructions","171","441669","0.0-15.0","5eb33bad3ce6e6129e9f9f5b","6368f2eea3e9634aebcc2f6b","636b6fc429f577385d2632a4","28338.699999809265","","","","","","","[{""page_index"":0,""viewing_time"":21088},{""page_index"":1,""viewing_time"":1505},{""page_index"":2,""viewing_time"":5745.400000095367}]","","","","","","","","","","","","","","","","","","","","","","","",""
"psychophysics","172","444677","0.0-16.0-0.0","5eb33bad3ce6e6129e9f9f5b","6368f2eea3e9634aebcc2f6b","636b6fc429f577385d2632a4","null","","","","null","","","","key","16.662283333333715","853.5","401","","","","","","","","","","","","","","","","","","","",""
"psychophysics","173","445180","0.0-16.0-1.0","5eb33bad3ce6e6129e9f9f5b","6368f2eea3e9634aebcc2f6b","636b6fc429f577385d2632a4","null","","","","null","","","","key","16.660137931033486","853.5","401","","","","","","","","","","","","","140","1","0","false","","","",""
"psychophysics","174","445968","0.0-16.0-2.0","5eb33bad3ce6e6129e9f9f5b","6368f2eea3e9634aebcc2f6b","636b6fc429f577385d2632a4","786.5999999046326","","","","90","","","","key","16.659914893617092","853.5","401","","","","","","","","","","","","","","","","","","","",""
"psychophysics","175","446971","0.0-16.0-0.1","5eb33bad3ce6e6129e9f9f5b","6368f2eea3e9634aebcc2f6b","636b6fc429f577385d2632a4","null","","","","null","","","","key","16.664067796611036","853.5","401","","","","","","","","","","","","","","","","","","","",""
"psychophysics","176","447473","0.0-16.0-1.1","5eb33bad3ce6e6129e9f9f5b","6368f2eea3e9634aebcc2f6b","636b6fc429f577385d2632a4","null","","","","null","","","","key","16.661724137931113","853.5","401","","","","","","","","","","","","","140","1","4","false","","","",""
"psychophysics","177","447789","0.0-16.0-2.1","5eb33bad3ce6e6129e9f9f5b","6368f2eea3e9634aebcc2f6b","636b6fc429f577385d2632a4","314.5","","","","77","","","","key","16.644666666666225","853.5","401","","","","","","","","","","","","","","","","","","","",""
"psychophysics","178","448791","0.0-16.0-0.2","5eb33bad3ce6e6129e9f9f5b","6368f2eea3e9634aebcc2f6b","636b6fc429f577385d2632a4","null","","","","null","","","","key","16.66883050847475","853.5","401","","","","","","","","","","","","","","","","","","","",""
"psychophysics","179","449292","0.0-16.0-1.2","5eb33bad3ce6e6129e9f9f5b","6368f2eea3e9634aebcc2f6b","636b6fc429f577385d2632a4","null","","","","null","","","","key","16.665896551723687","853.5","401","","","","","","","","","","","","","140","-1","2","false","","","",""
"psychophysics","180","449483","0.0-16.0-2.2","5eb33bad3ce6e6129e9f9f5b","6368f2eea3e9634aebcc2f6b","636b6fc429f577385d2632a4","189.90000009536743","","","","90","","","","key","16.681636363633018","853.5","401","","","","","","","","","","","","","","","","","","","",""
"psychophysics","181","450490","0.0-16.0-0.3","5eb33bad3ce6e6129e9f9f5b","6368f2eea3e9634aebcc2f6b","636b6fc429f577385d2632a4","null","","","","null","","","","key","16.6609491525431","853.5","401","","","","","","","","","","","","","","","","","","","",""
"psychophysics","182","450996","0.0-16.0-1.3","5eb33bad3ce6e6129e9f9f5b","6368f2eea3e9634aebcc2f6b","636b6fc429f577385d2632a4","null","","","","null","","","","key","16.661413793102838","853.5","401","","","","","","","","","","","","","140","1","5","false","","","",""
"psychophysics","183","451394","0.0-16.0-2.3","5eb33bad3ce6e6129e9f9f5b","6368f2eea3e9634aebcc2f6b","636b6fc429f577385d2632a4","395.09999990463257","","","","77","","","","key","16.6731304347834","853.5","401","","","","","","","","","","","","","","","","","","","",""
"psychophysics","184","452397","0.0-16.0-0.4","5eb33bad3ce6e6129e9f9f5b","6368f2eea3e9634aebcc2f6b","636b6fc429f577385d2632a4","null","","","","null","","","","key","16.667694915253747","853.5","401","","","","","","","","","","","","","","","","","","","",""
"psychophysics","185","452913","0.0-16.0-1.4","5eb33bad3ce6e6129e9f9f5b","6368f2eea3e9634aebcc2f6b","636b6fc429f577385d2632a4","null","","","","null","","","","key","16.66286666666662","853.5","401","","","","","","","","","","","","","140","-1","5","false","","","",""
"psychophysics","186","453656","0.0-16.0-2.4","5eb33bad3ce6e6129e9f9f5b","6368f2eea3e9634aebcc2f6b","636b6fc429f577385d2632a4","737.7000002861023","","","","77","","","","key","16.66106818181817","853.5","401","","","","","","","","","","","","","","","","","","","",""
"psychophysics","187","454659","0.0-16.0-0.5","5eb33bad3ce6e6129e9f9f5b","6368f2eea3e9634aebcc2f6b","636b6fc429f577385d2632a4","null","","","","null","","","","key","16.668220338982852","853.5","401","","","","","","","","","","","","","","","","","","","",""
"psychophysics","188","455163","0.0-16.0-1.5","5eb33bad3ce6e6129e9f9f5b","6368f2eea3e9634aebcc2f6b","636b6fc429f577385d2632a4","null","","","","null","","","","key","16.66527586206914","853.5","401","","","","","","","","","","","","","140","1","3","false","","","",""
"psychophysics","189","455552","0.0-16.0-2.5","5eb33bad3ce6e6129e9f9f5b","6368f2eea3e9634aebcc2f6b","636b6fc429f577385d2632a4","384.2000002861023","","","","77","","","","key","16.647913043478344","853.5","401","","","","","","","","","","","","","","","","","","","",""
"psychophysics","190","456559","0.0-16.0-0.6","5eb33bad3ce6e6129e9f9f5b","6368f2eea3e9634aebcc2f6b","636b6fc429f577385d2632a4","null","","","","null","","","","key","16.65661016949137","853.5","401","","","","","","","","","","","","","","","","","","","",""
"psychophysics","191","457062","0.0-16.0-1.6","5eb33bad3ce6e6129e9f9f5b","6368f2eea3e9634aebcc2f6b","636b6fc429f577385d2632a4","null","","","","null","","","","key","16.67241379310345","853.5","401","","","","","","","","","","","","","140","-1","0","false","","","",""
"psychophysics","192","457278","0.0-16.0-2.6","5eb33bad3ce6e6129e9f9f5b","6368f2eea3e9634aebcc2f6b","636b6fc429f577385d2632a4","210.19999980926514","","","","77","","","","key","16.636916666665154","853.5","401","","","","","","","","","","","","","","","","","","","",""
"psychophysics","193","458279","0.0-16.0-0.7","5eb33bad3ce6e6129e9f9f5b","6368f2eea3e9634aebcc2f6b","636b6fc429f577385d2632a4","null","","","","null","","","","key","16.66856666666669","853.5","401","","","","","","","","","","","","","","","","","","","",""
"psychophysics","194","458793","0.0-16.0-1.7","5eb33bad3ce6e6129e9f9f5b","6368f2eea3e9634aebcc2f6b","636b6fc429f577385d2632a4","null","","","","null","","","","key","16.65420689655203","853.5","401","","","","","","","","","","","","","140","-1","3","false","","","",""
"psychophysics","195","459279","0.0-16.0-2.7","5eb33bad3ce6e6129e9f9f5b","6368f2eea3e9634aebcc2f6b","636b6fc429f577385d2632a4","479.59999990463257","","","","90","","","","key","16.679344827586238","853.5","401","","","","","","","","","","","","","","","","","","","",""
"psychophysics","196","460293","0.0-16.0-0.8","5eb33bad3ce6e6129e9f9f5b","6368f2eea3e9634aebcc2f6b","636b6fc429f577385d2632a4","null","","","","null","","","","key","16.65998305084768","853.5","401","","","","","","","","","","","","","","","","","","","",""
"psychophysics","197","460802","0.0-16.0-1.8","5eb33bad3ce6e6129e9f9f5b","6368f2eea3e9634aebcc2f6b","636b6fc429f577385d2632a4","null","","","","null","","","","key","16.66546666666594","853.5","401","","","","","","","","","","","","","140","1","2","false","","","",""
"psychophysics","198","461395","0.0-16.0-2.8","5eb33bad3ce6e6129e9f9f5b","6368f2eea3e9634aebcc2f6b","636b6fc429f577385d2632a4","591.9000000953674","","","","90","","","","key","16.64708571428533","853.5","401","","","","","","","","","","","","","","","","","","","",""
"psychophysics","199","462401","0.0-16.0-0.9","5eb33bad3ce6e6129e9f9f5b","6368f2eea3e9634aebcc2f6b","636b6fc429f577385d2632a4","null","","","","null","","","","key","16.6679152542374","853.5","401","","","","","","","","","","","","","","","","","","","",""
"psychophysics","200","462905","0.0-16.0-1.9","5eb33bad3ce6e6129e9f9f5b","6368f2eea3e9634aebcc2f6b","636b6fc429f577385d2632a4","null","","","","null","","","","key","16.678724137929684","853.5","401","","","","","","","","","","","","","140","1","6","false","","","",""
"psychophysics","201","463244","0.0-16.0-2.9","5eb33bad3ce6e6129e9f9f5b","6368f2eea3e9634aebcc2f6b","636b6fc429f577385d2632a4","338.19999980926514","","","","77","","","","key","16.636800000001678","853.5","401","","","","","","","","","","","","","","","","","","","",""
"psychophysics","202","464247","0.0-16.0-0.10","5eb33bad3ce6e6129e9f9f5b","6368f2eea3e9634aebcc2f6b","636b6fc429f577385d2632a4","null","","","","null","","","","key","16.6578135593228","853.5","401","","","","","","","","","","","","","","","","","","","",""
"psychophysics","203","464752","0.0-16.0-1.10","5eb33bad3ce6e6129e9f9f5b","6368f2eea3e9634aebcc2f6b","636b6fc429f577385d2632a4","null","","","","null","","","","key","16.660896551725052","853.5","401","","","","","","","","","","","","","140","-1","6","false","","","",""
"psychophysics","204","464892","0.0-16.0-2.10","5eb33bad3ce6e6129e9f9f5b","6368f2eea3e9634aebcc2f6b","636b6fc429f577385d2632a4","137.40000009536743","","","","77","","","","key","16.730857142854283","853.5","401","","","","","","","","","","","","","","","","","","","",""
"psychophysics","205","465907","0.0-16.0-0.11","5eb33bad3ce6e6129e9f9f5b","6368f2eea3e9634aebcc2f6b","636b6fc429f577385d2632a4","null","","","","null","","","","key","16.66451666666641","853.5","401","","","","","","","","","","","","","","","","","","","",""
"psychophysics","206","466409","0.0-16.0-1.11","5eb33bad3ce6e6129e9f9f5b","6368f2eea3e9634aebcc2f6b","636b6fc429f577385d2632a4","null","","","","null","","","","key","16.676310344828003","853.5","401","","","","","","","","","","","","","140","-1","4","false","","","",""
"psychophysics","207","466661","0.0-16.0-2.11","5eb33bad3ce6e6129e9f9f5b","6368f2eea3e9634aebcc2f6b","636b6fc429f577385d2632a4","248.40000009536743","","","","77","","","","key","16.65993333333172","853.5","401","","","","","","","","","","","","","","","","","","","",""
"psychophysics","208","467672","0.0-16.0-0.12","5eb33bad3ce6e6129e9f9f5b","6368f2eea3e9634aebcc2f6b","636b6fc429f577385d2632a4","null","","","","null","","","","key","16.662000000000322","853.5","401","","","","","","","","","","","","","","","","","","","",""
"psychophysics","209","468175","0.0-16.0-1.12","5eb33bad3ce6e6129e9f9f5b","6368f2eea3e9634aebcc2f6b","636b6fc429f577385d2632a4","null","","","","null","","","","key","16.657344827585018","853.5","401","","","","","","","","","","","","","140","-1","4","false","","","",""
"psychophysics","210","468341","0.0-16.0-2.12","5eb33bad3ce6e6129e9f9f5b","6368f2eea3e9634aebcc2f6b","636b6fc429f577385d2632a4","159.5","","","","77","","","","key","16.699999999998706","853.5","401","","","","","","","","","","","","","","","","","","","",""
"psychophysics","211","469342","0.0-16.0-0.13","5eb33bad3ce6e6129e9f9f5b","6368f2eea3e9634aebcc2f6b","636b6fc429f577385d2632a4","null","","","","null","","","","key","16.668449999999332","853.5","401","","","","","","","","","","","","","","","","","","","",""
"psychophysics","212","469858","0.0-16.0-1.13","5eb33bad3ce6e6129e9f9f5b","6368f2eea3e9634aebcc2f6b","636b6fc429f577385d2632a4","null","","","","null","","","","key","16.660896551725052","853.5","401","","","","","","","","","","","","","140","-1","5","false","","","",""
"psychophysics","213","470180","0.0-16.0-2.13","5eb33bad3ce6e6129e9f9f5b","6368f2eea3e9634aebcc2f6b","636b6fc429f577385d2632a4","317.7000002861023","","","","77","","","","key","16.660842105262226","853.5","401","","","","","","","","","","","","","","","","","","","",""
"psychophysics","214","471191","0.0-16.0-0.14","5eb33bad3ce6e6129e9f9f5b","6368f2eea3e9634aebcc2f6b","636b6fc429f577385d2632a4","null","","","","null","","","","key","16.66088135593267","853.5","401","","","","","","","","","","","","","","","","","","","",""
"psychophysics","215","471697","0.0-16.0-1.14","5eb33bad3ce6e6129e9f9f5b","6368f2eea3e9634aebcc2f6b","636b6fc429f577385d2632a4","null","","","","null","","","","key","16.661633333332915","853.5","401","","","","","","","","","","","","","140","1","4","false","","","",""
"psychophysics","216","471793","0.0-16.0-2.14","5eb33bad3ce6e6129e9f9f5b","6368f2eea3e9634aebcc2f6b","636b6fc429f577385d2632a4","92.59999990463257","","","","77","","","","key","16.675799999991433","853.5","401","","","","","","","","","","","","","","","","","","","",""
"psychophysics","217","472801","0.0-16.0-0.15","5eb33bad3ce6e6129e9f9f5b","6368f2eea3e9634aebcc2f6b","636b6fc429f577385d2632a4","null","","","","null","","","","key","16.668864406780457","853.5","401","","","","","","","","","","","","","","","","","","","",""
"psychophysics","218","473307","0.0-16.0-1.15","5eb33bad3ce6e6129e9f9f5b","6368f2eea3e9634aebcc2f6b","636b6fc429f577385d2632a4","null","","","","null","","","","key","16.678000000000385","853.5","401","","","","","","","","","","","","","140","1","6","false","","","",""
"psychophysics","219","473468","0.0-16.0-2.15","5eb33bad3ce6e6129e9f9f5b","6368f2eea3e9634aebcc2f6b","636b6fc429f577385d2632a4","157.2000002861023","","","","77","","","","key","16.655222222221912","853.5","401","","","","","","","","","","","","","","","","","","","",""
"psychophysics","220","474473","0.0-16.0-0.16","5eb33bad3ce6e6129e9f9f5b","6368f2eea3e9634aebcc2f6b","636b6fc429f577385d2632a4","null","","","","null","","","","key","16.66620338983021","853.5","401","","","","","","","","","","","","","","","","","","","",""
"psychophysics","221","474984","0.0-16.0-1.16","5eb33bad3ce6e6129e9f9f5b","6368f2eea3e9634aebcc2f6b","636b6fc429f577385d2632a4","null","","","","null","","","","key","16.66093333333265","853.5","401","","","","","","","","","","","","","140","1","0","false","","","",""
"psychophysics","222","475469","0.0-16.0-2.16","5eb33bad3ce6e6129e9f9f5b","6368f2eea3e9634aebcc2f6b","636b6fc429f577385d2632a4","483.3999996185303","","","","77","","","","key","16.66060714285829","853.5","401","","","","","","","","","","","","","","","","","","","",""
"psychophysics","223","476472","0.0-16.0-0.17","5eb33bad3ce6e6129e9f9f5b","6368f2eea3e9634aebcc2f6b","636b6fc429f577385d2632a4","null","","","","null","","","","key","16.66081355932125","853.5","401","","","","","","","","","","","","","","","","","","","",""
"psychophysics","224","476979","0.0-16.0-1.17","5eb33bad3ce6e6129e9f9f5b","6368f2eea3e9634aebcc2f6b","636b6fc429f577385d2632a4","null","","","","null","","","","key","16.662733333334714","853.5","401","","","","","","","","","","","","","140","-1","6","false","","","",""
"psychophysics","225","477142","0.0-16.0-2.17","5eb33bad3ce6e6129e9f9f5b","6368f2eea3e9634aebcc2f6b","636b6fc429f577385d2632a4","161.2000002861023","","","","77","","","","key","16.629555555558504","853.5","401","","","","","","","","","","","","","","","","","","","",""
"psychophysics","226","478146","0.0-16.0-0.18","5eb33bad3ce6e6129e9f9f5b","6368f2eea3e9634aebcc2f6b","636b6fc429f577385d2632a4","null","","","","null","","","","key","16.66113559322104","853.5","401","","","","","","","","","","","","","","","","","","","",""
"psychophysics","227","478653","0.0-16.0-1.18","5eb33bad3ce6e6129e9f9f5b","6368f2eea3e9634aebcc2f6b","636b6fc429f577385d2632a4","null","","","","null","","","","key","16.651862068964842","853.5","401","","","","","","","","","","","","","140","-1","3","false","","","",""
"psychophysics","228","479115","0.0-16.0-2.18","5eb33bad3ce6e6129e9f9f5b","6368f2eea3e9634aebcc2f6b","636b6fc429f577385d2632a4","461.19999980926514","","","","90","","","","key","16.6691111111108","853.5","401","","","","","","","","","","","","","","","","","","","",""
"psychophysics","229","480116","0.0-16.0-0.19","5eb33bad3ce6e6129e9f9f5b","6368f2eea3e9634aebcc2f6b","636b6fc429f577385d2632a4","null","","","","null","","","","key","16.661152542372417","853.5","401","","","","","","","","","","","","","","","","","","","",""
"psychophysics","230","480621","0.0-16.0-1.19","5eb33bad3ce6e6129e9f9f5b","6368f2eea3e9634aebcc2f6b","636b6fc429f577385d2632a4","null","","","","null","","","","key","16.649206896551387","853.5","401","","","","","","","","","","","","","140","1","2","false","","","",""
"psychophysics","231","480943","0.0-16.0-2.19","5eb33bad3ce6e6129e9f9f5b","6368f2eea3e9634aebcc2f6b","636b6fc429f577385d2632a4","318.30000019073486","","","","90","","","","key","16.660894736843673","853.5","401","","","","","","","","","","","","","","","","","","","",""
"psychophysics","232","481950","0.0-16.0-0.20","5eb33bad3ce6e6129e9f9f5b","6368f2eea3e9634aebcc2f6b","636b6fc429f577385d2632a4","null","","","","null","","","","key","16.662932203390035","853.5","401","","","","","","","","","","","","","","","","","","","",""
"psychophysics","233","482454","0.0-16.0-1.20","5eb33bad3ce6e6129e9f9f5b","6368f2eea3e9634aebcc2f6b","636b6fc429f577385d2632a4","null","","","","null","","","","key","16.666827586206512","853.5","401","","","","","","","","","","","","","140","1","3","false","","","",""
"psychophysics","234","482697","0.0-16.0-2.20","5eb33bad3ce6e6129e9f9f5b","6368f2eea3e9634aebcc2f6b","636b6fc429f577385d2632a4","239.7999997138977","","","","90","","","","key","16.65971428571668","853.5","401","","","","","","","","","","","","","","","","","","","",""
"psychophysics","235","483703","0.0-16.0-0.21","5eb33bad3ce6e6129e9f9f5b","6368f2eea3e9634aebcc2f6b","636b6fc429f577385d2632a4","null","","","","null","","","","key","16.663322033898282","853.5","401","","","","","","","","","","","","","","","","","","","",""
"psychophysics","236","484213","0.0-16.0-1.21","5eb33bad3ce6e6129e9f9f5b","6368f2eea3e9634aebcc2f6b","636b6fc429f577385d2632a4","null","","","","null","","","","key","16.661533333332045","853.5","401","","","","","","","","","","","","","140","-1","0","false","","","",""
"psychophysics","237","484260","0.0-16.0-2.21","5eb33bad3ce6e6129e9f9f5b","6368f2eea3e9634aebcc2f6b","636b6fc429f577385d2632a4","46.09999990463257","","","","90","","","","key","16.692500000004657","853.5","401","","","","","","","","","","","","","","","","","","","",""
"psychophysics","238","485266","0.0-16.0-0.22","5eb33bad3ce6e6129e9f9f5b","6368f2eea3e9634aebcc2f6b","636b6fc429f577385d2632a4","null","","","","null","","","","key","16.65854237288221","853.5","401","","","","","","","","","","","","","","","","","","","",""
"psychophysics","239","485769","0.0-16.0-1.22","5eb33bad3ce6e6129e9f9f5b","6368f2eea3e9634aebcc2f6b","636b6fc429f577385d2632a4","null","","","","null","","","","key","16.661275862069832","853.5","401","","","","","","","","","","","","","140","1","5","false","","","",""
"psychophysics","240","486019","0.0-16.0-2.22","5eb33bad3ce6e6129e9f9f5b","6368f2eea3e9634aebcc2f6b","636b6fc429f577385d2632a4","246.2999997138977","","","","77","","","","key","16.672785714285315","853.5","401","","","","","","","","","","","","","","","","","","","",""
"psychophysics","241","487020","0.0-16.0-0.23","5eb33bad3ce6e6129e9f9f5b","6368f2eea3e9634aebcc2f6b","636b6fc429f577385d2632a4","null","","","","null","","","","key","16.668416666666356","853.5","401","","","","","","","","","","","","","","","","","","","",""
"psychophysics","242","487527","0.0-16.0-1.23","5eb33bad3ce6e6129e9f9f5b","6368f2eea3e9634aebcc2f6b","636b6fc429f577385d2632a4","null","","","","null","","","","key","16.66527586206914","853.5","401","","","","","","","","","","","","","140","-1","2","false","","","",""
"psychophysics","243","487930","0.0-16.0-2.23","5eb33bad3ce6e6129e9f9f5b","6368f2eea3e9634aebcc2f6b","636b6fc429f577385d2632a4","402.09999990463257","","","","90","","","","key","16.66143478260821","853.5","401","","","","","","","","","","","","","","","","","","","",""
"html-keyboard-response","244","489659","0.0-17.0","5eb33bad3ce6e6129e9f9f5b","6368f2eea3e9634aebcc2f6b","636b6fc429f577385d2632a4","1727.3000001907349","<p>Well Done !</p><p>Training Complete. Press the spacebar to start.</p><p>DON'T EXIT THE FULL SCREEN MODE</p>","","","32","","","","","","","","","","","","","","","","","","","","","","","","","","",""
"psychophysics","245","492671","0.0-18.0-0.0","5eb33bad3ce6e6129e9f9f5b","6368f2eea3e9634aebcc2f6b","636b6fc429f577385d2632a4","null","","","","null","","","","key","16.665333333334033","853.5","401","","","","","","","","","","","","","","","","","","","",""
"psychophysics","246","493174","0.0-18.0-1.0","5eb33bad3ce6e6129e9f9f5b","6368f2eea3e9634aebcc2f6b","636b6fc429f577385d2632a4","null","","","","null","","","","key","16.669931034483255","853.5","401","","","","","","","","","","","","","140","1","0","true","","","",""
"psychophysics","247","494906","0.0-18.0-2.0","5eb33bad3ce6e6129e9f9f5b","6368f2eea3e9634aebcc2f6b","636b6fc429f577385d2632a4","1731","","","","90","","","","key","16.658058252427455","853.5","401","","","","","","","","","","","","","","","","","","","",""
"psychophysics","248","495907","0.0-18.0-0.1","5eb33bad3ce6e6129e9f9f5b","6368f2eea3e9634aebcc2f6b","636b6fc429f577385d2632a4","null","","","","null","","","","key","16.660525423729144","853.5","401","","","","","","","","","","","","","","","","","","","",""
"psychophysics","249","496410","0.0-18.0-1.1","5eb33bad3ce6e6129e9f9f5b","6368f2eea3e9634aebcc2f6b","636b6fc429f577385d2632a4","null","","","","null","","","","key","16.65644827586045","853.5","401","","","","","","","","","","","","","140","-1","0","true","","","",""
"psychophysics","250","496958","0.0-18.0-2.1","5eb33bad3ce6e6129e9f9f5b","6368f2eea3e9634aebcc2f6b","636b6fc429f577385d2632a4","545.5","","","","90","","","","key","16.677093749998676","853.5","401","","","","","","","","","","","","","","","","","","","",""
"psychophysics","251","497959","0.0-18.0-0.2","5eb33bad3ce6e6129e9f9f5b","6368f2eea3e9634aebcc2f6b","636b6fc429f577385d2632a4","null","","","","null","","","","key","16.651711864406796","853.5","401","","","","","","","","","","","","","","","","","","","",""
"psychophysics","252","498461","0.0-18.0-1.2","5eb33bad3ce6e6129e9f9f5b","6368f2eea3e9634aebcc2f6b","636b6fc429f577385d2632a4","null","","","","null","","","","key","16.677068965517563","853.5","401","","","","","","","","","","","","","140","1","2","true","","","",""
"psychophysics","253","498743","0.0-18.0-2.2","5eb33bad3ce6e6129e9f9f5b","6368f2eea3e9634aebcc2f6b","636b6fc429f577385d2632a4","281.30000019073486","","","","90","","","","key","16.649499999999534","853.5","401","","","","","","","","","","","","","","","","","","","",""
"psychophysics","254","499745","0.0-18.0-0.3","5eb33bad3ce6e6129e9f9f5b","6368f2eea3e9634aebcc2f6b","636b6fc429f577385d2632a4","null","","","","null","","","","key","16.66161016949109","853.5","401","","","","","","","","","","","","","","","","","","","",""
"psychophysics","255","500248","0.0-18.0-1.3","5eb33bad3ce6e6129e9f9f5b","6368f2eea3e9634aebcc2f6b","636b6fc429f577385d2632a4","null","","","","null","","","","key","16.666758620690008","853.5","401","","","","","","","","","","","","","140","-1","3","true","","","",""
"psychophysics","256","500416","0.0-18.0-2.3","5eb33bad3ce6e6129e9f9f5b","6368f2eea3e9634aebcc2f6b","636b6fc429f577385d2632a4","164.90000009536743","","","","90","","","","key","16.65800000000163","853.5","401","","","","","","","","","","","","","","","","","","","",""
"psychophysics","257","501428","0.0-18.0-0.4","5eb33bad3ce6e6129e9f9f5b","6368f2eea3e9634aebcc2f6b","636b6fc429f577385d2632a4","null","","","","null","","","","key","16.658237288135766","853.5","401","","","","","","","","","","","","","","","","","","","",""
"psychophysics","258","501930","0.0-18.0-1.4","5eb33bad3ce6e6129e9f9f5b","6368f2eea3e9634aebcc2f6b","636b6fc429f577385d2632a4","null","","","","null","","","","key","16.67410344827583","853.5","401","","","","","","","","","","","","","140","-1","2","true","","","",""
"psychophysics","259","502411","0.0-18.0-2.4","5eb33bad3ce6e6129e9f9f5b","6368f2eea3e9634aebcc2f6b","636b6fc429f577385d2632a4","477.2999997138977","","","","90","","","","key","16.64760714285824","853.5","401","","","","","","","","","","","","","","","","","","","",""
"psychophysics","260","503413","0.0-18.0-0.5","5eb33bad3ce6e6129e9f9f5b","6368f2eea3e9634aebcc2f6b","636b6fc429f577385d2632a4","null","","","","null","","","","key","16.66966101694931","853.5","401","","","","","","","","","","","","","","","","","","","",""
"psychophysics","261","503926","0.0-18.0-1.5","5eb33bad3ce6e6129e9f9f5b","6368f2eea3e9634aebcc2f6b","636b6fc429f577385d2632a4","null","","","","null","","","","key","16.66176666666676","853.5","401","","","","","","","","","","","","","140","-1","6","true","","","",""
"psychophysics","262","504187","0.0-18.0-2.5","5eb33bad3ce6e6129e9f9f5b","6368f2eea3e9634aebcc2f6b","636b6fc429f577385d2632a4","259.5","","","","77","","","","key","16.637533333331035","853.5","401","","","","","","","","","","","","","","","","","","","",""
"psychophysics","263","505191","0.0-18.0-0.6","5eb33bad3ce6e6129e9f9f5b","6368f2eea3e9634aebcc2f6b","636b6fc429f577385d2632a4","null","","","","null","","","","key","16.65767796610194","853.5","401","","","","","","","","","","","","","","","","","","","",""
"psychophysics","264","505695","0.0-18.0-1.6","5eb33bad3ce6e6129e9f9f5b","6368f2eea3e9634aebcc2f6b","636b6fc429f577385d2632a4","null","","","","null","","","","key","16.660103448277244","853.5","401","","","","","","","","","","","","","140","1","4","true","","","",""
"psychophysics","265","505897","0.0-18.0-2.6","5eb33bad3ce6e6129e9f9f5b","6368f2eea3e9634aebcc2f6b","636b6fc429f577385d2632a4","198.40000009536743","","","","77","","","","key","16.69566666666651","853.5","401","","","","","","","","","","","","","","","","","","","",""
"psychophysics","266","506912","0.0-18.0-0.7","5eb33bad3ce6e6129e9f9f5b","6368f2eea3e9634aebcc2f6b","636b6fc429f577385d2632a4","null","","","","null","","","","key","16.6615254237283","853.5","401","","","","","","","","","","","","","","","","","","","",""
"psychophysics","267","507419","0.0-18.0-1.7","5eb33bad3ce6e6129e9f9f5b","6368f2eea3e9634aebcc2f6b","636b6fc429f577385d2632a4","null","","","","null","","","","key","16.66353333333391","853.5","401","","","","","","","","","","","","","140","1","3","true","","","",""
"psychophysics","268","507808","0.0-18.0-2.7","5eb33bad3ce6e6129e9f9f5b","6368f2eea3e9634aebcc2f6b","636b6fc429f577385d2632a4","387.69999980926514","","","","90","","","","key","16.642318181817906","853.5","401","","","","","","","","","","","","","","","","","","","",""
"psychophysics","269","508812","0.0-18.0-0.8","5eb33bad3ce6e6129e9f9f5b","6368f2eea3e9634aebcc2f6b","636b6fc429f577385d2632a4","null","","","","null","","","","key","16.670050847457556","853.5","401","","","","","","","","","","","","","","","","","","","",""
"psychophysics","270","509316","0.0-18.0-1.8","5eb33bad3ce6e6129e9f9f5b","6368f2eea3e9634aebcc2f6b","636b6fc429f577385d2632a4","null","","","","null","","","","key","16.663200000000263","853.5","401","","","","","","","","","","","","","140","-1","4","true","","","",""
"psychophysics","271","509510","0.0-18.0-2.8","5eb33bad3ce6e6129e9f9f5b","6368f2eea3e9634aebcc2f6b","636b6fc429f577385d2632a4","192.30000019073486","","","","77","","","","key","16.6649000000034","853.5","401","","","","","","","","","","","","","","","","","","","",""
"psychophysics","272","510511","0.0-18.0-0.9","5eb33bad3ce6e6129e9f9f5b","6368f2eea3e9634aebcc2f6b","636b6fc429f577385d2632a4","null","","","","null","","","","key","16.669372881356217","853.5","401","","","","","","","","","","","","","","","","","","","",""
"psychophysics","273","511024","0.0-18.0-1.9","5eb33bad3ce6e6129e9f9f5b","6368f2eea3e9634aebcc2f6b","636b6fc429f577385d2632a4","null","","","","null","","","","key","16.661000000000545","853.5","401","","","","","","","","","","","","","140","1","6","true","","","",""
"psychophysics","274","511671","0.0-18.0-2.9","5eb33bad3ce6e6129e9f9f5b","6368f2eea3e9634aebcc2f6b","636b6fc429f577385d2632a4","644.2999997138977","","","","77","","","","key","16.668236842104786","853.5","401","","","","","","","","","","","","","","","","","","","",""
"psychophysics","275","512677","0.0-18.0-0.10","5eb33bad3ce6e6129e9f9f5b","6368f2eea3e9634aebcc2f6b","636b6fc429f577385d2632a4","null","","","","null","","","","key","16.661338983051344","853.5","401","","","","","","","","","","","","","","","","","","","",""
"psychophysics","276","513191","0.0-18.0-1.10","5eb33bad3ce6e6129e9f9f5b","6368f2eea3e9634aebcc2f6b","636b6fc429f577385d2632a4","null","","","","null","","","","key","16.652533333333363","853.5","401","","","","","","","","","","","","","140","-1","5","true","","","",""
"psychophysics","277","513324","0.0-18.0-2.10","5eb33bad3ce6e6129e9f9f5b","6368f2eea3e9634aebcc2f6b","636b6fc429f577385d2632a4","132.40000009536743","","","","77","","","","key","16.696714285711227","853.5","401","","","","","","","","","","","","","","","","","","","",""
"psychophysics","278","514326","0.0-18.0-0.11","5eb33bad3ce6e6129e9f9f5b","6368f2eea3e9634aebcc2f6b","636b6fc429f577385d2632a4","null","","","","null","","","","key","16.664915254236973","853.5","401","","","","","","","","","","","","","","","","","","","",""
"psychophysics","279","514835","0.0-18.0-1.11","5eb33bad3ce6e6129e9f9f5b","6368f2eea3e9634aebcc2f6b","636b6fc429f577385d2632a4","null","","","","null","","","","key","16.66166666666589","853.5","401","","","","","","","","","","","","","140","1","5","true","","","",""
"psychophysics","280","514949","0.0-18.0-2.11","5eb33bad3ce6e6129e9f9f5b","6368f2eea3e9634aebcc2f6b","636b6fc429f577385d2632a4","113.09999990463257","","","","77","","","","key","16.6553333333383","853.5","401","","","","","","","","","","","","","","","","","","","",""
"psychophysics","281","515957","0.0-18.0-0.12","5eb33bad3ce6e6129e9f9f5b","6368f2eea3e9634aebcc2f6b","636b6fc429f577385d2632a4","null","","","","null","","","","key","16.660644067796657","853.5","401","","","","","","","","","","","","","","","","","","","",""
"psychophysics","282","516459","0.0-18.0-1.12","5eb33bad3ce6e6129e9f9f5b","6368f2eea3e9634aebcc2f6b","636b6fc429f577385d2632a4","null","","","","null","","","","key","16.66076666666583","853.5","401","","","","","","","","","","","","","140","-1","2","true","","","",""
"psychophysics","283","516906","0.0-18.0-2.12","5eb33bad3ce6e6129e9f9f5b","6368f2eea3e9634aebcc2f6b","636b6fc429f577385d2632a4","445.59999990463257","","","","90","","","","key","16.670800000000746","853.5","401","","","","","","","","","","","","","","","","","","","",""
"psychophysics","284","517908","0.0-18.0-0.13","5eb33bad3ce6e6129e9f9f5b","6368f2eea3e9634aebcc2f6b","636b6fc429f577385d2632a4","null","","","","null","","","","key","16.665203389831053","853.5","401","","","","","","","","","","","","","","","","","","","",""
"psychophysics","285","518412","0.0-18.0-1.13","5eb33bad3ce6e6129e9f9f5b","6368f2eea3e9634aebcc2f6b","636b6fc429f577385d2632a4","null","","","","null","","","","key","16.654266666667535","853.5","401","","","","","","","","","","","","","140","1","2","true","","","",""
"psychophysics","286","518694","0.0-18.0-2.13","5eb33bad3ce6e6129e9f9f5b","6368f2eea3e9634aebcc2f6b","636b6fc429f577385d2632a4","279.40000009536743","","","","90","","","","key","16.67156249999971","853.5","401","","","","","","","","","","","","","","","","","","","",""
"psychophysics","287","519706","0.0-18.0-0.14","5eb33bad3ce6e6129e9f9f5b","6368f2eea3e9634aebcc2f6b","636b6fc429f577385d2632a4","null","","","","null","","","","key","16.65388135593266","853.5","401","","","","","","","","","","","","","","","","","","","",""
"psychophysics","288","520207","0.0-18.0-1.14","5eb33bad3ce6e6129e9f9f5b","6368f2eea3e9634aebcc2f6b","636b6fc429f577385d2632a4","null","","","","null","","","","key","16.67541379310343","853.5","401","","","","","","","","","","","","","140","-1","5","true","","","",""
"psychophysics","289","520348","0.0-18.0-2.14","5eb33bad3ce6e6129e9f9f5b","6368f2eea3e9634aebcc2f6b","636b6fc429f577385d2632a4","135.2000002861023","","","","77","","","","key","16.707249999999476","853.5","401","","","","","","","","","","","","","","","","","","","",""
"psychophysics","290","521357","0.0-18.0-0.15","5eb33bad3ce6e6129e9f9f5b","6368f2eea3e9634aebcc2f6b","636b6fc429f577385d2632a4","null","","","","null","","","","key","16.66166101694916","853.5","401","","","","","","","","","","","","","","","","","","","",""
"psychophysics","291","521864","0.0-18.0-1.15","5eb33bad3ce6e6129e9f9f5b","6368f2eea3e9634aebcc2f6b","636b6fc429f577385d2632a4","null","","","","null","","","","key","16.662466666665082","853.5","401","","","","","","","","","","","","","140","-1","6","true","","","",""
"psychophysics","292","522013","0.0-18.0-2.15","5eb33bad3ce6e6129e9f9f5b","6368f2eea3e9634aebcc2f6b","636b6fc429f577385d2632a4","145.90000009536743","","","","77","","","","key","16.666125000003376","853.5","401","","","","","","","","","","","","","","","","","","","",""
"psychophysics","293","523021","0.0-18.0-0.16","5eb33bad3ce6e6129e9f9f5b","6368f2eea3e9634aebcc2f6b","636b6fc429f577385d2632a4","null","","","","null","","","","key","16.661067796609625","853.5","401","","","","","","","","","","","","","","","","","","","",""
"psychophysics","294","523523","0.0-18.0-1.16","5eb33bad3ce6e6129e9f9f5b","6368f2eea3e9634aebcc2f6b","636b6fc429f577385d2632a4","null","","","","null","","","","key","16.661099999999472","853.5","401","","","","","","","","","","","","","140","1","0","true","","","",""
"psychophysics","295","523857","0.0-18.0-2.16","5eb33bad3ce6e6129e9f9f5b","6368f2eea3e9634aebcc2f6b","636b6fc429f577385d2632a4","331.80000019073486","","","","90","","","","key","16.663315789476894","853.5","401","","","","","","","","","","","","","","","","","","","",""
"psychophysics","296","524873","0.0-18.0-0.17","5eb33bad3ce6e6129e9f9f5b","6368f2eea3e9634aebcc2f6b","636b6fc429f577385d2632a4","null","","","","null","","","","key","16.668508474576935","853.5","401","","","","","","","","","","","","","","","","","","","",""
"psychophysics","297","525376","0.0-18.0-1.17","5eb33bad3ce6e6129e9f9f5b","6368f2eea3e9634aebcc2f6b","636b6fc429f577385d2632a4","null","","","","null","","","","key","16.66166666666977","853.5","401","","","","","","","","","","","","","140","1","6","true","","","",""
"psychophysics","298","525505","0.0-18.0-2.17","5eb33bad3ce6e6129e9f9f5b","6368f2eea3e9634aebcc2f6b","636b6fc429f577385d2632a4","125.5","","","","77","","","","key","16.740833333324797","853.5","401","","","","","","","","","","","","","","","","","","","",""
"psychophysics","299","526506","0.0-18.0-0.18","5eb33bad3ce6e6129e9f9f5b","6368f2eea3e9634aebcc2f6b","636b6fc429f577385d2632a4","null","","","","null","","","","key","16.665850000000017","853.5","401","","","","","","","","","","","","","","","","","","","",""
"psychophysics","300","527017","0.0-18.0-1.18","5eb33bad3ce6e6129e9f9f5b","6368f2eea3e9634aebcc2f6b","636b6fc429f577385d2632a4","null","","","","null","","","","key","16.679344827586238","853.5","401","","","","","","","","","","","","","140","-1","3","true","","","",""
"psychophysics","301","527326","0.0-18.0-2.18","5eb33bad3ce6e6129e9f9f5b","6368f2eea3e9634aebcc2f6b","636b6fc429f577385d2632a4","307.40000009536743","","","","77","","","","key","16.661388888890443","853.5","401","","","","","","","","","","","","","","","","","","","",""
"psychophysics","302","528331","0.0-18.0-0.19","5eb33bad3ce6e6129e9f9f5b","6368f2eea3e9634aebcc2f6b","636b6fc429f577385d2632a4","null","","","","null","","","","key","16.660983050845847","853.5","401","","","","","","","","","","","","","","","","","","","",""
"psychophysics","303","528834","0.0-18.0-1.19","5eb33bad3ce6e6129e9f9f5b","6368f2eea3e9634aebcc2f6b","636b6fc429f577385d2632a4","null","","","","null","","","","key","16.664689655174854","853.5","401","","","","","","","","","","","","","140","1","5","true","","","",""
"psychophysics","304","528918","0.0-18.0-2.19","5eb33bad3ce6e6129e9f9f5b","6368f2eea3e9634aebcc2f6b","636b6fc429f577385d2632a4","83","","","","77","","","","key","16.672749999997905","853.5","401","","","","","","","","","","","","","","","","","","","",""
"psychophysics","305","529921","0.0-18.0-0.20","5eb33bad3ce6e6129e9f9f5b","6368f2eea3e9634aebcc2f6b","636b6fc429f577385d2632a4","null","","","","null","","","","key","16.663149999999828","853.5","401","","","","","","","","","","","","","","","","","","","",""
"psychophysics","306","530437","0.0-18.0-1.20","5eb33bad3ce6e6129e9f9f5b","6368f2eea3e9634aebcc2f6b","636b6fc429f577385d2632a4","null","","","","null","","","","key","16.659137931034163","853.5","401","","","","","","","","","","","","","140","1","4","true","","","",""
"psychophysics","307","530647","0.0-18.0-2.20","5eb33bad3ce6e6129e9f9f5b","6368f2eea3e9634aebcc2f6b","636b6fc429f577385d2632a4","206.69999980926514","","","","77","","","","key","16.66341666666752","853.5","401","","","","","","","","","","","","","","","","","","","",""
"psychophysics","308","531654","0.0-18.0-0.21","5eb33bad3ce6e6129e9f9f5b","6368f2eea3e9634aebcc2f6b","636b6fc429f577385d2632a4","null","","","","null","","","","key","16.654100000000714","853.5","401","","","","","","","","","","","","","","","","","","","",""
"psychophysics","309","532162","0.0-18.0-1.21","5eb33bad3ce6e6129e9f9f5b","6368f2eea3e9634aebcc2f6b","636b6fc429f577385d2632a4","null","","","","null","","","","key","16.660827586206544","853.5","401","","","","","","","","","","","","","140","-1","0","true","","","",""
"psychophysics","310","532294","0.0-18.0-2.21","5eb33bad3ce6e6129e9f9f5b","6368f2eea3e9634aebcc2f6b","636b6fc429f577385d2632a4","131.2999997138977","","","","90","","","","key","16.661142857146583","853.5","401","","","","","","","","","","","","","","","","","","","",""
"psychophysics","311","533302","0.0-18.0-0.22","5eb33bad3ce6e6129e9f9f5b","6368f2eea3e9634aebcc2f6b","636b6fc429f577385d2632a4","null","","","","null","","","","key","16.662152542373544","853.5","401","","","","","","","","","","","","","","","","","","","",""
"psychophysics","312","533804","0.0-18.0-1.22","5eb33bad3ce6e6129e9f9f5b","6368f2eea3e9634aebcc2f6b","636b6fc429f577385d2632a4","null","","","","null","","","","key","16.65909999999761","853.5","401","","","","","","","","","","","","","140","-1","4","true","","","",""
"psychophysics","313","534454","0.0-18.0-2.22","5eb33bad3ce6e6129e9f9f5b","6368f2eea3e9634aebcc2f6b","636b6fc429f577385d2632a4","649.1999998092651","","","","90","","","","key","16.6554210526305","853.5","401","","","","","","","","","","","","","","","","","","","",""
"psychophysics","314","535460","0.0-18.0-0.23","5eb33bad3ce6e6129e9f9f5b","6368f2eea3e9634aebcc2f6b","636b6fc429f577385d2632a4","null","","","","null","","","","key","16.6623389830505","853.5","401","","","","","","","","","","","","","","","","","","","",""
"psychophysics","315","535966","0.0-18.0-1.23","5eb33bad3ce6e6129e9f9f5b","6368f2eea3e9634aebcc2f6b","636b6fc429f577385d2632a4","null","","","","null","","","","key","16.67817241379365","853.5","401","","","","","","","","","","","","","140","1","3","true","","","",""
"psychophysics","316","536068","0.0-18.0-2.23","5eb33bad3ce6e6129e9f9f5b","6368f2eea3e9634aebcc2f6b","636b6fc429f577385d2632a4","100.80000019073486","","","","77","","","","key","16.699399999994785","853.5","401","","","","","","","","","","","","","","","","","","","",""
"psychophysics","317","537069","0.0-18.0-0.24","5eb33bad3ce6e6129e9f9f5b","6368f2eea3e9634aebcc2f6b","636b6fc429f577385d2632a4","null","","","","null","","","","key","16.664399999999052","853.5","401","","","","","","","","","","","","","","","","","","","",""
"psychophysics","318","537582","0.0-18.0-1.24","5eb33bad3ce6e6129e9f9f5b","6368f2eea3e9634aebcc2f6b","636b6fc429f577385d2632a4","null","","","","null","","","","key","16.659724137930457","853.5","401","","","","","","","","","","","","","140","-1","4","true","","","",""
"psychophysics","319","537831","0.0-18.0-2.24","5eb33bad3ce6e6129e9f9f5b","6368f2eea3e9634aebcc2f6b","636b6fc429f577385d2632a4","246","","","","90","","","","key","16.692428571429836","853.5","401","","","","","","","","","","","","","","","","","","","",""
"psychophysics","320","538835","0.0-18.0-0.25","5eb33bad3ce6e6129e9f9f5b","6368f2eea3e9634aebcc2f6b","636b6fc429f577385d2632a4","null","","","","null","","","","key","16.664576271187784","853.5","401","","","","","","","","","","","","","","","","","","","",""
"psychophysics","321","539338","0.0-18.0-1.25","5eb33bad3ce6e6129e9f9f5b","6368f2eea3e9634aebcc2f6b","636b6fc429f577385d2632a4","null","","","","null","","","","key","16.671100000001026","853.5","401","","","","","","","","","","","","","140","-1","0","true","","","",""
"psychophysics","322","539588","0.0-18.0-2.25","5eb33bad3ce6e6129e9f9f5b","6368f2eea3e9634aebcc2f6b","636b6fc429f577385d2632a4","249.19999980926514","","","","90","","","","key","16.663428571432764","853.5","401","","","","","","","","","","","","","","","","","","","",""
"psychophysics","323","540599","0.0-18.0-0.26","5eb33bad3ce6e6129e9f9f5b","6368f2eea3e9634aebcc2f6b","636b6fc429f577385d2632a4","null","","","","null","","","","key","16.664559322032463","853.5","401","","","","","","","","","","","","","","","","","","","",""
"psychophysics","324","541101","0.0-18.0-1.26","5eb33bad3ce6e6129e9f9f5b","6368f2eea3e9634aebcc2f6b","636b6fc429f577385d2632a4","null","","","","null","","","","key","16.672344827586947","853.5","401","","","","","","","","","","","","","140","-1","3","true","","","",""
"psychophysics","325","541401","0.0-18.0-2.26","5eb33bad3ce6e6129e9f9f5b","6368f2eea3e9634aebcc2f6b","636b6fc429f577385d2632a4","294.5","","","","90","","","","key","16.634944444444653","853.5","401","","","","","","","","","","","","","","","","","","","",""
"psychophysics","326","542415","0.0-18.0-0.27","5eb33bad3ce6e6129e9f9f5b","6368f2eea3e9634aebcc2f6b","636b6fc429f577385d2632a4","null","","","","null","","","","key","16.652576271186078","853.5","401","","","","","","","","","","","","","","","","","","","",""
"psychophysics","327","542923","0.0-18.0-1.27","5eb33bad3ce6e6129e9f9f5b","6368f2eea3e9634aebcc2f6b","636b6fc429f577385d2632a4","null","","","","null","","","","key","16.674233333331845","853.5","401","","","","","","","","","","","","","140","1","0","true","","","",""
"psychophysics","328","543211","0.0-18.0-2.27","5eb33bad3ce6e6129e9f9f5b","6368f2eea3e9634aebcc2f6b","636b6fc429f577385d2632a4","287","","","","90","","","","key","16.65887500000099","853.5","401","","","","","","","","","","","","","","","","","","","",""
