"trial_type","trial_index","time_elapsed","internal_node_id","PROLIFIC_PID","STUDY_ID","SESSION_ID","rt","stimulus","button_pressed","success","key_press","responses","isData","view_history","response_type","avg_frame_time","center_x","center_y","isSC","stim_side","trial_luminance","step_size","nReversal","correct","prev_ans","isThreshold","SC_threshold","final_threshold","isLuminance","FF_luminance","luminance","stimSide","ISInt","isFF","question_order","isSPQ","isCAPS","isAQ"
"pavlovia","0","14","0.0-0.0","61096a6ab244ccee2220a180","6368f2eea3e9634aebcc2f6b","636b6fbd9857856b67122c68","","","","","","","","","","","","","","","","","","","","","","","","","","","","","","","",""
"html-button-response","1","95461","0.0-1.0","61096a6ab244ccee2220a180","6368f2eea3e9634aebcc2f6b","636b6fbd9857856b67122c68","95444.19999992847","<div style='background-color: white; width:60%; margin: auto; padding: 50px; text-align: justify; text-justify: inter-word; margin-bottom: 20px;'><h1 style='text-align: center;'>Consent Form</h1><p>Please read this consent form carefully before deciding whether you would like to participate in this study. You have to be 18 years old or older to participate to this study.</p><p style='text-decoration: underline;'>Participation is voluntary:</p><p>It is your choice whether or not to participate in this research. If you choose to participate, you may change your mind and leave the study at any time. Refusal to participate or stopping your participation will involve no penalty or loss of benefits to which you are otherwise entitled.</p><p style='text-decoration: underline;'>Purpose of the Study:</p><p>To understand the mechanisms underlying human perception.</p><p style='text-decoration: underline;'>What you will do in this study:</p><p>You will be presented with a series of visual images and then you will press buttons on the keyboard of your computer to respond to simple questions about the images (e.g. Were one or two images presented?). In addition, you will be asked to complete a questionnaire concerning your beliefs and everyday mental and perceptual experiences.'</p><p style='text-decoration: underline;'> Time Required:</p><p>The study will take 40 minutes to complete. </p><p style='text-decoration: underline;'>Risks:</p><p>There are no anticipated risks associated with participating in this study that are beyond those experienced in everyday life. </p><p style='text-decoration: underline;'>Benefits:</p><p>There are no benefits to you in participating in the study. However, this study may lead to a better understanding of how different kinds of visual information are used.</p><p style='text-decoration: underline;'>Compensation:</p><p>You will be paid US$6.6/hour. </p><p style='text-decoration: underline;'>Privacy and Confidentiality:</p><p>Your participation in this study will be anonymous. No personal information about your name or identity will be asked or recorded. This anonymous data will be stored for several years and may be used for a variety of research purposes. The overall results of the study may be published, or the data files may be shared with other researchers, but your identity will not be revealed in any way. The online services we are using for this study may temporarily store your data, but this data will be downloaded and then promptly deleted from those services.Your data will not be permanently associated with your name, IP address, or any other identifiable information (e.g., your information will only be connected to your payment, not to any of your responses), though they may be temporarily stored together before we download and separate them. Even so, no guarantee of internet survey security can be given because, although unlikely, transmissions can be intercepted and IP addresses can be identified. The anonymous data may be shared publicly (for example, in conjunction with a resulting academic publication).</p><p style='text-decoration: underline;'>Participation and Withdrawal:</p><p>Your participation in this study is completely voluntary. You may stop responding to the stimuli or stop answering questions if you so choose and without penalty by exiting the full screen mode, closing this tab of your browser or redirecting it to a different website.</p><p style='text-decoration: underline;'>Contact Info of the Researcher: </p><p>If you have questions about this study, or if you would like to talk to the research team, please contact David Melcher (david.melcher@nyu.edu, md5050@nyu.edu) at the Perception and Active Cognition Laboratory, New York University Abu Dhabi, Computational Research Building, Saadiyat Island, Abu Dhabi, UAE.This research has been reviewed by the New York University Abu Dhabi Institutional Review Board (NYUAD IRB). To contact about your rights in this research, for questions, suggestions, or complaints that are not addressed by the researchers, please email IRBnyuad@nyu.edu, or call the NYUAD IRB at +971 2 628 4313. </p></div>","0","","","","","","","","","","","","","","","","","","","","","","","","","","","","",""
"fullscreen","2","98923","0.0-2.0","61096a6ab244ccee2220a180","6368f2eea3e9634aebcc2f6b","636b6fbd9857856b67122c68","","","","true","","","","","","","","","","","","","","","","","","","","","","","","","","","",""
"html-keyboard-response","3","117829","0.0-3.0","61096a6ab244ccee2220a180","6368f2eea3e9634aebcc2f6b","636b6fbd9857856b67122c68","18904.400000095367","<p>Welcome !</p><p>READ CAREFULLY THE FOLLOWING INDICATIONS:</p><p>From this moment you have ~40 minutes to complete the experiment.</p><p>During the experiment you will be prompted to take several breaks. Each break should not last longer than 2-3 minutes.</p><p>Make sure that your computer is plugged in and it's not running on battery power, even if the battery is already fully charged.</p><p>Turn off your phone and music, make sure that you are in a quiet room and that you will not be distracted for the next hour.</p><p>Failure to comply with the instructions and indications provided during the experiment will most likely result in the rejection of your data.<p>Press the spacebar to start.</p>","","","32","","","","","","","","","","","","","","","","","","","","","","","","","","",""
"survey-html-form","4","129468","0.0-4.0","61096a6ab244ccee2220a180","6368f2eea3e9634aebcc2f6b","636b6fbd9857856b67122c68","11638","","","","","{""age"":""54"",""sex"":""f""}","true","","","","","","","","","","","","","","","","","","","","","","","","",""
"instructions","5","189687","0.0-5.0","61096a6ab244ccee2220a180","6368f2eea3e9634aebcc2f6b","636b6fbd9857856b67122c68","60218.800000071526","","","","","","","[{""page_index"":0,""viewing_time"":40836.5},{""page_index"":1,""viewing_time"":13919.800000071526},{""page_index"":2,""viewing_time"":5462}]","","","","","","","","","","","","","","","","","","","","","","","",""
"psychophysics","6","199187","0.0-6.0-0.0","61096a6ab244ccee2220a180","6368f2eea3e9634aebcc2f6b","636b6fbd9857856b67122c68","8488.899999976158","","","","37","","","","key","16.66670877192978","683","312.5","true","-1","180","30","0","-1","","","","","","","","","","","","","",""
"psychophysics","7","201431","0.0-6.0-0.1","61096a6ab244ccee2220a180","6368f2eea3e9634aebcc2f6b","636b6fbd9857856b67122c68","1232.1000000238419","","","","37","","","","key","16.66696992481221","683","312.5","true","-1","180","30","0","-1","-1","","","","","","","","","","","","",""
"psychophysics","8","203098","0.0-6.0-0.2","61096a6ab244ccee2220a180","6368f2eea3e9634aebcc2f6b","636b6fbd9857856b67122c68","661.7999999523163","","","","39","","","","key","16.655393939393846","683","312.5","true","1","150","30","0","-1","-1","","","","","","","","","","","","",""
"psychophysics","9","204233","0.0-6.0-0.3","61096a6ab244ccee2220a180","6368f2eea3e9634aebcc2f6b","636b6fbd9857856b67122c68","124.09999990463257","","","","39","","","","key","16.65422058823563","683","312.5","true","1","150","30","0","-1","-1","","","","","","","","","","","","",""
"psychophysics","10","209215","0.0-6.0-0.4","61096a6ab244ccee2220a180","6368f2eea3e9634aebcc2f6b","636b6fbd9857856b67122c68","3969.8000000715256","","","","39","","","","key","16.666585858585844","683","312.5","true","1","129","30","0","-1","-1","","","","","","","","","","","","",""
"psychophysics","11","212462","0.0-6.0-0.5","61096a6ab244ccee2220a180","6368f2eea3e9634aebcc2f6b","636b6fbd9857856b67122c68","2241.2000000476837","","","","39","","","","key","16.66511340206174","683","312.5","true","-1","129","24","1","1","-1","","","","","","","","","","","","",""
"psychophysics","12","213500","0.0-6.0-0.6","61096a6ab244ccee2220a180","6368f2eea3e9634aebcc2f6b","636b6fbd9857856b67122c68","32.799999952316284","","","","37","","","","key","16.666661290322324","683","312.5","true","-1","153","24","1","-1","1","","","","","","","","","","","","",""
"psychophysics","13","214639","0.0-6.0-0.7","61096a6ab244ccee2220a180","6368f2eea3e9634aebcc2f6b","636b6fbd9857856b67122c68","131.5","","","","39","","","","key","16.66540298507455","683","312.5","true","1","153","19.2","2","-1","-1","","","","","","","","","","","","",""
"psychophysics","14","216273","0.0-6.0-0.8","61096a6ab244ccee2220a180","6368f2eea3e9634aebcc2f6b","636b6fbd9857856b67122c68","621.8999999761581","","","","39","","","","key","16.667340206185454","683","312.5","true","1","133.8","19.2","2","-1","-1","","","","","","","","","","","","",""
"psychophysics","15","217850","0.0-6.0-0.9","61096a6ab244ccee2220a180","6368f2eea3e9634aebcc2f6b","636b6fbd9857856b67122c68","575.2999999523163","","","","37","","","","key","16.664223404255377","683","312.5","true","-1","133.8","19.2","2","-1","-1","","","","","","","","","","","","",""
"psychophysics","16","219641","0.0-6.0-0.10","61096a6ab244ccee2220a180","6368f2eea3e9634aebcc2f6b","636b6fbd9857856b67122c68","781.7999999523163","","","","39","","","","key","16.666084905660476","683","312.5","true","-1","129","15.36","3","1","-1","","","","","","","","","","","","",""
"psychophysics","17","220986","0.0-6.0-0.11","61096a6ab244ccee2220a180","6368f2eea3e9634aebcc2f6b","636b6fbd9857856b67122c68","343.60000002384186","","","","37","","","","key","16.667862500000048","683","312.5","true","-1","144.36","15.36","3","-1","1","","","","","","","","","","","","",""
"psychophysics","18","222170","0.0-6.0-0.12","61096a6ab244ccee2220a180","6368f2eea3e9634aebcc2f6b","636b6fbd9857856b67122c68","175","","","","37","","","","key","16.66744285714272","683","312.5","true","-1","144.36","12.287999999999998","4","-1","-1","","","","","","","","","","","","",""
"psychophysics","19","223698","0.0-6.0-0.13","61096a6ab244ccee2220a180","6368f2eea3e9634aebcc2f6b","636b6fbd9857856b67122c68","519","","","","39","","","","key","16.665945054945002","683","312.5","true","-1","132.072","9.8304","5","1","-1","","","","","","","","","","","","",""
"psychophysics","20","224866","0.0-6.0-0.14","61096a6ab244ccee2220a180","6368f2eea3e9634aebcc2f6b","636b6fbd9857856b67122c68","159.29999995231628","","","","37","","","","key","16.66733333333294","683","312.5","true","-1","141.9024","9.8304","5","-1","1","","","","","","","","","","","","",""
"psychophysics","21","226001","0.0-6.0-0.15","61096a6ab244ccee2220a180","6368f2eea3e9634aebcc2f6b","636b6fbd9857856b67122c68","126.39999997615814","","","","39","","","","key","16.666462686567034","683","312.5","true","1","141.9024","7.864319999999999","6","-1","-1","","","","","","","","","","","","",""
"psychophysics","22","227599","0.0-6.0-0.16","61096a6ab244ccee2220a180","6368f2eea3e9634aebcc2f6b","636b6fbd9857856b67122c68","586.8000000715256","","","","37","","","","key","16.665736842105215","683","312.5","true","1","134.03808","6.291456","7","1","-1","","","","","","","","","","","","",""
"psychophysics","23","228642","0.0-6.0-0.17","61096a6ab244ccee2220a180","6368f2eea3e9634aebcc2f6b","636b6fbd9857856b67122c68","38.799999952316284","","","","39","","","","key","16.66744262295046","683","312.5","true","1","140.32953600000002","6.291456","7","-1","1","","","","","","","","","","","","",""
"psychophysics","24","231746","0.0-6.0-0.18","61096a6ab244ccee2220a180","6368f2eea3e9634aebcc2f6b","636b6fbd9857856b67122c68","2093.5","","","","39","","","","key","16.666805405405388","683","312.5","true","-1","140.32953600000002","5.033164800000001","8","1","-1","","","","","","","","","","","","",""
"psychophysics","25","235008","0.0-6.0-0.19","61096a6ab244ccee2220a180","6368f2eea3e9634aebcc2f6b","636b6fbd9857856b67122c68","2253","","","","39","","","","key","16.663558974358974","683","312.5","true","1","145.36270080000003","5.033164800000001","8","-1","1","","","","","","","","","","","","",""
"psychophysics","26","237925","0.0-6.0-0.20","61096a6ab244ccee2220a180","6368f2eea3e9634aebcc2f6b","636b6fbd9857856b67122c68","1909.8999999761581","","","","39","","","","key","16.666580459770035","683","312.5","true","-1","145.36270080000003","4.0265318400000005","9","1","-1","","","","","","","","","","","","",""
"psychophysics","27","239166","0.0-6.0-0.21","61096a6ab244ccee2220a180","6368f2eea3e9634aebcc2f6b","636b6fbd9857856b67122c68","227","","","","39","","","","key","16.66745945945936","683","312.5","true","1","149.38923264000002","4.0265318400000005","9","-1","1","","","","","","","","","","","","",""
"psychophysics","28","242273","0.0-6.0-0.22","61096a6ab244ccee2220a180","6368f2eea3e9634aebcc2f6b","636b6fbd9857856b67122c68","2102.100000023842","","","","37","","","","key","16.66650810810813","683","312.5","true","1","149.38923264000002","3.2212254720000004","10","1","-1","","","","","","","","","","","","",""
"psychophysics","29","243466","0.0-6.0-0.23","61096a6ab244ccee2220a180","6368f2eea3e9634aebcc2f6b","636b6fbd9857856b67122c68","187","","","","37","","","","key","16.662859154929503","683","312.5","true","-1","152.610458112","3.2212254720000004","10","-1","1","","","","","","","","","","","","",""
"psychophysics","30","246793","0.0-6.0-0.24","61096a6ab244ccee2220a180","6368f2eea3e9634aebcc2f6b","636b6fbd9857856b67122c68","2318.5","","","","39","","","","key","16.66687878787872","683","312.5","true","-1","152.610458112","2.5769803776000004","11","1","-1","","","","","","","","","","","","",""
"psychophysics","31","250483","0.0-6.0-0.25","61096a6ab244ccee2220a180","6368f2eea3e9634aebcc2f6b","636b6fbd9857856b67122c68","2684.7999999523163","","","","37","","","","key","16.66695927601817","683","312.5","true","1","155.1874384896","2.5769803776000004","11","1","1","","","","","","","","","","","","",""
"psychophysics","32","254933","0.0-6.0-0.26","61096a6ab244ccee2220a180","6368f2eea3e9634aebcc2f6b","636b6fbd9857856b67122c68","3441.7000000476837","","","","39","","","","key","16.666823308270676","683","312.5","true","1","157.7644188672","2.5769803776000004","11","-1","1","","","","","","","","","","","","",""
"psychophysics","33","256069","0.0-6.0-0.27","61096a6ab244ccee2220a180","6368f2eea3e9634aebcc2f6b","636b6fbd9857856b67122c68","130","","","","39","","","","key","16.66608955223876","683","312.5","true","1","157.7644188672","2.0615843020800004","12","-1","-1","","","","","","","","","","","","",""
"psychophysics","34","258156","0.0-6.0-0.28","61096a6ab244ccee2220a180","6368f2eea3e9634aebcc2f6b","636b6fbd9857856b67122c68","1081.7000000476837","","","","39","","","","key","16.666467741935424","683","312.5","true","-1","155.70283456511999","1.6492674416640005","13","1","-1","","","","","","","","","","","","",""
"psychophysics","35","260350","0.0-6.0-0.29","61096a6ab244ccee2220a180","6368f2eea3e9634aebcc2f6b","636b6fbd9857856b67122c68","1184.0999999046326","","","","39","","","","key","16.66655725190831","683","312.5","true","1","157.35210200678398","1.6492674416640005","13","-1","1","","","","","","","","","","","","",""
"psychophysics","36","262501","0.0-6.0-0.30","61096a6ab244ccee2220a180","6368f2eea3e9634aebcc2f6b","636b6fbd9857856b67122c68","1146.1000000238419","","","","39","","","","key","16.666242187500302","683","312.5","true","-1","157.35210200678398","1.3194139533312006","14","1","-1","","","","","","","","","","","","",""
"psychophysics","37","263533","0.0-6.0-0.31","61096a6ab244ccee2220a180","6368f2eea3e9634aebcc2f6b","636b6fbd9857856b67122c68","26","","","","39","","","","key","16.667409836065566","683","312.5","true","1","158.6715159601152","1.3194139533312006","14","-1","1","","","","","","","","","","","","",""
"psychophysics","38","265797","0.0-6.0-0.32","61096a6ab244ccee2220a180","6368f2eea3e9634aebcc2f6b","636b6fbd9857856b67122c68","1258.1999999284744","","","","39","","","","key","16.66613333333344","683","312.5","true","1","158.6715159601152","1.0555311626649604","15","-1","-1","","","","","","","","","","","","",""
"psychophysics","39","268039","0.0-6.0-0.33","61096a6ab244ccee2220a180","6368f2eea3e9634aebcc2f6b","636b6fbd9857856b67122c68","1236.3999999761581","","","","39","","","","key","16.667060150376248","683","312.5","true","-1","157.61598479745024","1","16","1","-1","","","","","","","","","","","","",""
"psychophysics","40","270300","0.0-6.0-0.34","61096a6ab244ccee2220a180","6368f2eea3e9634aebcc2f6b","636b6fbd9857856b67122c68","1253.9000000953674","","","","39","","","","key","16.666577777777867","683","312.5","true","-1","158.61598479745024","1","16","1","1","","","","","","","","","","","","",""
"psychophysics","41","273070","0.0-6.0-0.35","61096a6ab244ccee2220a180","6368f2eea3e9634aebcc2f6b","636b6fbd9857856b67122c68","1763.2999999523163","","","","39","","","","key","16.666733333333326","683","312.5","true","1","159.61598479745024","1","16","-1","1","","","","","","","","","","","","",""
"psychophysics","42","275892","0.0-6.0-0.36","61096a6ab244ccee2220a180","6368f2eea3e9634aebcc2f6b","636b6fbd9857856b67122c68","1817.7000000476837","","","","39","","","","key","16.66654761904751","683","312.5","true","-1","159.61598479745024","1","17","1","-1","","","","","","","","","","","","",""
"psychophysics","43","278632","0.0-6.0-0.37","61096a6ab244ccee2220a180","6368f2eea3e9634aebcc2f6b","636b6fbd9857856b67122c68","1733","","","","39","","","","key","16.6667499999997","683","312.5","true","-1","160.61598479745024","1","17","1","1","","","","","","","","","","","","",""
"psychophysics","44","282047","0.0-6.0-0.38","61096a6ab244ccee2220a180","6368f2eea3e9634aebcc2f6b","636b6fbd9857856b67122c68","2403","","","","37","","","","key","16.666650246305498","683","312.5","true","1","161.61598479745024","1","17","1","1","","","","","","","","","","","","",""
"psychophysics","45","283100","0.0-6.0-0.39","61096a6ab244ccee2220a180","6368f2eea3e9634aebcc2f6b","636b6fbd9857856b67122c68","41","","","","39","","","","key","16.66734920634929","683","312.5","true","1","162.61598479745024","1","17","-1","1","","","","","","","","","","","","",""
"html-keyboard-response","46","288561","0.0-7.0","61096a6ab244ccee2220a180","6368f2eea3e9634aebcc2f6b","636b6fbd9857856b67122c68","5459.5","<p>Well Done !</p><p>Prepare for a new block.</p><p>DON'T EXIT THE FULL SCREEN MODE</p><p>Press the Spacebar to start.</p>","","","32","","","","","","","","","","","","","","","true","158.585216020338","","","","","","","","","","",""
"psychophysics","47","290490","0.0-8.0-0.0","61096a6ab244ccee2220a180","6368f2eea3e9634aebcc2f6b","636b6fbd9857856b67122c68","919.2000000476837","","","","39","","","","key","16.668652173913205","683","312.5","true","1","180","30","0","-1","","","","","","","","","","","","","",""
"psychophysics","48","293537","0.0-8.0-0.1","61096a6ab244ccee2220a180","6368f2eea3e9634aebcc2f6b","636b6fbd9857856b67122c68","2042.2000000476837","","","","37","","","","key","16.666785714285933","683","312.5","true","1","180","30","0","1","-1","","","","","","","","","","","","",""
"psychophysics","49","296056","0.0-8.0-0.2","61096a6ab244ccee2220a180","6368f2eea3e9634aebcc2f6b","636b6fbd9857856b67122c68","1511.3999999761581","","","","39","","","","key","16.666933333333194","683","312.5","true","-1","210","30","0","1","1","","","","","","","","","","","","",""
"psychophysics","50","298382","0.0-8.0-0.3","61096a6ab244ccee2220a180","6368f2eea3e9634aebcc2f6b","636b6fbd9857856b67122c68","1322.7000000476837","","","","39","","","","key","16.668302158273175","683","312.5","true","1","240","30","0","-1","1","","","","","","","","","","","","",""
"psychophysics","51","301204","0.0-8.0-0.4","61096a6ab244ccee2220a180","6368f2eea3e9634aebcc2f6b","636b6fbd9857856b67122c68","1816.5","","","","37","","","","key","16.66614880952381","683","312.5","true","1","240","24","1","1","-1","","","","","","","","","","","","",""
"psychophysics","52","303728","0.0-8.0-0.5","61096a6ab244ccee2220a180","6368f2eea3e9634aebcc2f6b","636b6fbd9857856b67122c68","1515.3000000715256","","","","39","","","","key","16.66714666666696","683","312.5","true","-1","255","24","1","1","1","","","","","","","","","","","","",""
"psychophysics","53","306138","0.0-8.0-0.6","61096a6ab244ccee2220a180","6368f2eea3e9634aebcc2f6b","636b6fbd9857856b67122c68","1399","","","","37","","","","key","16.66454166666679","683","312.5","true","1","255","24","1","1","1","","","","","","","","","","","","",""
"psychophysics","54","307236","0.0-8.0-0.7","61096a6ab244ccee2220a180","6368f2eea3e9634aebcc2f6b","636b6fbd9857856b67122c68","91","","","","39","","","","key","16.664969230769202","683","312.5","true","1","255","24","1","-1","1","","","","","","","","","","","","",""
"psychophysics","55","309819","0.0-8.0-0.8","61096a6ab244ccee2220a180","6368f2eea3e9634aebcc2f6b","636b6fbd9857856b67122c68","1575.5","","","","39","","","","key","16.66737012987028","683","312.5","true","1","231","19.2","2","-1","-1","","","","","","","","","","","","",""
"psychophysics","56","312663","0.0-8.0-0.9","61096a6ab244ccee2220a180","6368f2eea3e9634aebcc2f6b","636b6fbd9857856b67122c68","1834.3999999761581","","","","37","","","","key","16.666467455621483","683","312.5","true","1","231","15.36","3","1","-1","","","","","","","","","","","","",""
"psychophysics","57","315884","0.0-8.0-0.10","61096a6ab244ccee2220a180","6368f2eea3e9634aebcc2f6b","636b6fbd9857856b67122c68","2215.899999976158","","","","39","","","","key","16.667108808290347","683","312.5","true","1","246.36","15.36","3","-1","1","","","","","","","","","","","","",""
"psychophysics","58","319033","0.0-8.0-0.11","61096a6ab244ccee2220a180","6368f2eea3e9634aebcc2f6b","636b6fbd9857856b67122c68","2141.7999999523163","","","","39","","","","key","16.66627127659585","683","312.5","true","-1","246.36","12.287999999999998","4","1","-1","","","","","","","","","","","","",""
"psychophysics","59","321545","0.0-8.0-0.12","61096a6ab244ccee2220a180","6368f2eea3e9634aebcc2f6b","636b6fbd9857856b67122c68","1506.6000000238419","","","","39","","","","key","16.666221476510017","683","312.5","true","-1","255","12.287999999999998","4","1","1","","","","","","","","","","","","",""
"psychophysics","60","324302","0.0-8.0-0.13","61096a6ab244ccee2220a180","6368f2eea3e9634aebcc2f6b","636b6fbd9857856b67122c68","1747.5","","","","39","","","","key","16.66513333333353","683","312.5","true","-1","255","12.287999999999998","4","1","1","","","","","","","","","","","","",""
"psychophysics","61","327176","0.0-8.0-0.14","61096a6ab244ccee2220a180","6368f2eea3e9634aebcc2f6b","636b6fbd9857856b67122c68","1868.8999999761581","","","","39","","","","key","16.666374269005917","683","312.5","true","-1","255","12.287999999999998","4","1","1","","","","","","","","","","","","",""
"psychophysics","62","330832","0.0-8.0-0.15","61096a6ab244ccee2220a180","6368f2eea3e9634aebcc2f6b","636b6fbd9857856b67122c68","2650.899999976158","","","","39","","","","key","16.666922374429408","683","312.5","true","1","255","12.287999999999998","4","-1","1","","","","","","","","","","","","",""
"psychophysics","63","334282","0.0-8.0-0.16","61096a6ab244ccee2220a180","6368f2eea3e9634aebcc2f6b","636b6fbd9857856b67122c68","2437.600000023842","","","","39","","","","key","16.666252427184286","683","312.5","true","1","242.712","9.8304","5","-1","-1","","","","","","","","","","","","",""
"psychophysics","64","338525","0.0-8.0-0.17","61096a6ab244ccee2220a180","6368f2eea3e9634aebcc2f6b","636b6fbd9857856b67122c68","3233.399999976158","","","","39","","","","key","16.66664426877479","683","312.5","true","1","242.712","9.8304","5","-1","-1","","","","","","","","","","","","",""
"psychophysics","65","343508","0.0-8.0-0.18","61096a6ab244ccee2220a180","6368f2eea3e9634aebcc2f6b","636b6fbd9857856b67122c68","3976.600000023842","","","","39","","","","key","16.66699328859049","683","312.5","true","-1","232.8816","7.864319999999999","6","1","-1","","","","","","","","","","","","",""
"psychophysics","66","347494","0.0-8.0-0.19","61096a6ab244ccee2220a180","6368f2eea3e9634aebcc2f6b","636b6fbd9857856b67122c68","2981.2999999523163","","","","39","","","","key","16.666899159663657","683","312.5","true","-1","240.74591999999998","7.864319999999999","6","1","1","","","","","","","","","","","","",""
"psychophysics","67","349759","0.0-8.0-0.20","61096a6ab244ccee2220a180","6368f2eea3e9634aebcc2f6b","636b6fbd9857856b67122c68","1260","","","","39","","","","key","16.667207407407222","683","312.5","true","-1","248.61023999999998","7.864319999999999","6","1","1","","","","","","","","","","","","",""
"psychophysics","68","352455","0.0-8.0-0.21","61096a6ab244ccee2220a180","6368f2eea3e9634aebcc2f6b","636b6fbd9857856b67122c68","1691.8000000715256","","","","39","","","","key","16.666838509316616","683","312.5","true","1","255","7.864319999999999","6","-1","1","","","","","","","","","","","","",""
"psychophysics","69","358010","0.0-8.0-0.22","61096a6ab244ccee2220a180","6368f2eea3e9634aebcc2f6b","636b6fbd9857856b67122c68","4550.5","","","","39","","","","key","16.66691867469884","683","312.5","true","-1","255","6.291456","7","1","-1","","","","","","","","","","","","",""
"psychophysics","70","361119","0.0-8.0-0.23","61096a6ab244ccee2220a180","6368f2eea3e9634aebcc2f6b","636b6fbd9857856b67122c68","2103","","","","39","","","","key","16.667021505376297","683","312.5","true","1","255","6.291456","7","-1","1","","","","","","","","","","","","",""
"psychophysics","71","362126","0.0-8.0-0.24","61096a6ab244ccee2220a180","6368f2eea3e9634aebcc2f6b","636b6fbd9857856b67122c68","2.8000000715255737","","","","37","","","","key","16.669898305084335","683","312.5","true","-1","248.708544","5.033164800000001","8","-1","-1","","","","","","","","","","","","",""
"psychophysics","72","365941","0.0-8.0-0.25","61096a6ab244ccee2220a180","6368f2eea3e9634aebcc2f6b","636b6fbd9857856b67122c68","2809.399999976158","","","","39","","","","key","16.666789473684172","683","312.5","true","1","248.708544","5.033164800000001","8","-1","-1","","","","","","","","","","","","",""
"psychophysics","73","367087","0.0-8.0-0.26","61096a6ab244ccee2220a180","6368f2eea3e9634aebcc2f6b","636b6fbd9857856b67122c68","141.29999995231628","","","","37","","","","key","16.666838235294563","683","312.5","true","-1","243.67537919999998","5.033164800000001","8","-1","-1","","","","","","","","","","","","",""
"psychophysics","74","369335","0.0-8.0-0.27","61096a6ab244ccee2220a180","6368f2eea3e9634aebcc2f6b","636b6fbd9857856b67122c68","1243.7000000476837","","","","39","","","","key","16.66658955223862","683","312.5","true","-1","243.67537919999998","4.0265318400000005","9","1","-1","","","","","","","","","","","","",""
"psychophysics","75","370563","0.0-8.0-0.28","61096a6ab244ccee2220a180","6368f2eea3e9634aebcc2f6b","636b6fbd9857856b67122c68","223.89999997615814","","","","37","","","","key","16.666916666666413","683","312.5","true","-1","247.70191103999997","4.0265318400000005","9","-1","1","","","","","","","","","","","","",""
"psychophysics","76","372482","0.0-8.0-0.29","61096a6ab244ccee2220a180","6368f2eea3e9634aebcc2f6b","636b6fbd9857856b67122c68","916.3999999761581","","","","39","","","","key","16.667060869565212","683","312.5","true","-1","247.70191103999997","3.2212254720000004","10","1","-1","","","","","","","","","","","","",""
"psychophysics","77","377513","0.0-8.0-0.30","61096a6ab244ccee2220a180","6368f2eea3e9634aebcc2f6b","636b6fbd9857856b67122c68","4021.7000000476837","","","","39","","","","key","16.666926666666598","683","312.5","true","1","250.92313651199999","3.2212254720000004","10","-1","1","","","","","","","","","","","","",""
"psychophysics","78","378549","0.0-8.0-0.31","61096a6ab244ccee2220a180","6368f2eea3e9634aebcc2f6b","636b6fbd9857856b67122c68","25.200000047683716","","","","37","","","","key","16.66719354838771","683","312.5","true","-1","250.92313651199999","2.5769803776000004","11","-1","-1","","","","","","","","","","","","",""
"psychophysics","79","384308","0.0-8.0-0.32","61096a6ab244ccee2220a180","6368f2eea3e9634aebcc2f6b","636b6fbd9857856b67122c68","4752.799999952316","","","","37","","","","key","16.66657558139542","683","312.5","true","-1","248.3461561344","2.5769803776000004","11","-1","-1","","","","","","","","","","","","",""
"psychophysics","80","386614","0.0-8.0-0.33","61096a6ab244ccee2220a180","6368f2eea3e9634aebcc2f6b","636b6fbd9857856b67122c68","1301.2999999523163","","","","37","","","","key","16.66678102189772","683","312.5","true","1","248.3461561344","2.0615843020800004","12","1","-1","","","","","","","","","","","","",""
"psychophysics","81","388952","0.0-8.0-0.34","61096a6ab244ccee2220a180","6368f2eea3e9634aebcc2f6b","636b6fbd9857856b67122c68","1332.2000000476837","","","","39","","","","key","16.66094999999997","683","312.5","true","1","250.40774043648","2.0615843020800004","12","-1","1","","","","","","","","","","","","",""
"psychophysics","82","391636","0.0-8.0-0.35","61096a6ab244ccee2220a180","6368f2eea3e9634aebcc2f6b","636b6fbd9857856b67122c68","1680.6000000238419","","","","39","","","","key","16.666112500000235","683","312.5","true","-1","250.40774043648","1.6492674416640005","13","1","-1","","","","","","","","","","","","",""
"psychophysics","83","394285","0.0-8.0-0.36","61096a6ab244ccee2220a180","6368f2eea3e9634aebcc2f6b","636b6fbd9857856b67122c68","1641.7000000476837","","","","39","","","","key","16.666778481012813","683","312.5","true","-1","252.057007878144","1.6492674416640005","13","1","1","","","","","","","","","","","","",""
"psychophysics","84","397120","0.0-8.0-0.37","61096a6ab244ccee2220a180","6368f2eea3e9634aebcc2f6b","636b6fbd9857856b67122c68","1828.3999999761581","","","","37","","","","key","16.666047337277966","683","312.5","true","1","253.706275319808","1.6492674416640005","13","1","1","","","","","","","","","","","","",""
"psychophysics","85","399757","0.0-8.0-0.38","61096a6ab244ccee2220a180","6368f2eea3e9634aebcc2f6b","636b6fbd9857856b67122c68","1632.1000000238419","","","","39","","","","key","16.666560509554287","683","312.5","true","-1","255","1.6492674416640005","13","1","1","","","","","","","","","","","","",""
"psychophysics","86","403740","0.0-8.0-0.39","61096a6ab244ccee2220a180","6368f2eea3e9634aebcc2f6b","636b6fbd9857856b67122c68","2977","","","","37","","","","key","16.666953781512547","683","312.5","true","1","255","1.6492674416640005","13","1","1","","","","","","","","","","","","",""
"html-keyboard-response","87","406368","0.0-9.0","61096a6ab244ccee2220a180","6368f2eea3e9634aebcc2f6b","636b6fbd9857856b67122c68","2626.100000023842","<p>Well Done !</p><p>Prepare for a new block.</p><p>DON'T EXIT THE FULL SCREEN MODE</p><p>Press the Spacebar to start.</p>","","","32","","","","","","","","","","","","","","","true","249.77203158958073","","","","","","","","","","",""
"psychophysics","88","412077","0.0-10.0-0.0","61096a6ab244ccee2220a180","6368f2eea3e9634aebcc2f6b","636b6fbd9857856b67122c68","4697.5","","","","39","","","","key","16.66709649122806","683","312.5","true","1","180","30","0","-1","","","","","","","","","","","","","",""
"psychophysics","89","413808","0.0-10.0-0.1","61096a6ab244ccee2220a180","6368f2eea3e9634aebcc2f6b","636b6fbd9857856b67122c68","725.8999999761581","","","","39","","","","key","16.66738834951437","683","312.5","true","-1","180","30","0","1","-1","","","","","","","","","","","","",""
"psychophysics","90","414813","0.0-10.0-0.2","61096a6ab244ccee2220a180","6368f2eea3e9634aebcc2f6b","636b6fbd9857856b67122c68","0.30000007152557373","","","","37","","","","key","16.666389830509136","683","312.5","true","-1","210","30","0","-1","1","","","","","","","","","","","","",""
"psychophysics","91","415983","0.0-10.0-0.3","61096a6ab244ccee2220a180","6368f2eea3e9634aebcc2f6b","636b6fbd9857856b67122c68","167.5","","","","37","","","","key","16.65939999999994","683","312.5","true","-1","210","24","1","-1","-1","","","","","","","","","","","","",""
"psychophysics","92","416992","0.0-10.0-0.4","61096a6ab244ccee2220a180","6368f2eea3e9634aebcc2f6b","636b6fbd9857856b67122c68","4.700000047683716","","","","37","","","","key","16.66625423728828","683","312.5","true","-1","186","24","1","-1","-1","","","","","","","","","","","","",""
"psychophysics","93","421467","0.0-10.0-0.5","61096a6ab244ccee2220a180","6368f2eea3e9634aebcc2f6b","636b6fbd9857856b67122c68","3467.399999976158","","","","39","","","","key","16.66727985074629","683","312.5","true","1","186","24","1","-1","-1","","","","","","","","","","","","",""
"psychophysics","94","427990","0.0-10.0-0.6","61096a6ab244ccee2220a180","6368f2eea3e9634aebcc2f6b","636b6fbd9857856b67122c68","5514","","","","39","","","","key","16.666720512820532","683","312.5","true","-1","162","19.2","2","1","-1","","","","","","","","","","","","",""
"psychophysics","95","429084","0.0-10.0-0.7","61096a6ab244ccee2220a180","6368f2eea3e9634aebcc2f6b","636b6fbd9857856b67122c68","88.5","","","","37","","","","key","16.66766153846133","683","312.5","true","-1","181.2","19.2","2","-1","1","","","","","","","","","","","","",""
"psychophysics","96","430979","0.0-10.0-0.8","61096a6ab244ccee2220a180","6368f2eea3e9634aebcc2f6b","636b6fbd9857856b67122c68","888","","","","39","","","","key","16.666446428571362","683","312.5","true","1","181.2","15.36","3","-1","-1","","","","","","","","","","","","",""
"psychophysics","97","432000","0.0-10.0-0.9","61096a6ab244ccee2220a180","6368f2eea3e9634aebcc2f6b","636b6fbd9857856b67122c68","17.899999976158142","","","","39","","","","key","16.667049180327908","683","312.5","true","1","165.83999999999997","15.36","3","-1","-1","","","","","","","","","","","","",""
"psychophysics","98","434427","0.0-10.0-0.10","61096a6ab244ccee2220a180","6368f2eea3e9634aebcc2f6b","636b6fbd9857856b67122c68","1424","","","","37","","","","key","16.666576388889048","683","312.5","true","1","165.83999999999997","12.287999999999998","4","1","-1","","","","","","","","","","","","",""
"psychophysics","99","436483","0.0-10.0-0.11","61096a6ab244ccee2220a180","6368f2eea3e9634aebcc2f6b","636b6fbd9857856b67122c68","1046.7000000476837","","","","39","","","","key","16.66723577235778","683","312.5","true","1","178.128","12.287999999999998","4","-1","1","","","","","","","","","","","","",""
"psychophysics","100","438303","0.0-10.0-0.12","61096a6ab244ccee2220a180","6368f2eea3e9634aebcc2f6b","636b6fbd9857856b67122c68","811","","","","39","","","","key","16.666444444444128","683","312.5","true","-1","178.128","9.8304","5","1","-1","","","","","","","","","","","","",""
"psychophysics","101","439542","0.0-10.0-0.13","61096a6ab244ccee2220a180","6368f2eea3e9634aebcc2f6b","636b6fbd9857856b67122c68","234.10000002384186","","","","37","","","","key","16.667027397259865","683","312.5","true","-1","187.95839999999998","9.8304","5","-1","1","","","","","","","","","","","","",""
"psychophysics","102","444351","0.0-10.0-0.14","61096a6ab244ccee2220a180","6368f2eea3e9634aebcc2f6b","636b6fbd9857856b67122c68","3805.399999976158","","","","39","","","","key","16.66670833333329","683","312.5","true","1","187.95839999999998","7.864319999999999","6","-1","-1","","","","","","","","","","","","",""
"psychophysics","103","446905","0.0-10.0-0.15","61096a6ab244ccee2220a180","6368f2eea3e9634aebcc2f6b","636b6fbd9857856b67122c68","1548.6999999284744","","","","39","","","","key","16.66651973684202","683","312.5","true","1","180.09408","7.864319999999999","6","-1","-1","","","","","","","","","","","","",""
"psychophysics","104","450839","0.0-10.0-0.16","61096a6ab244ccee2220a180","6368f2eea3e9634aebcc2f6b","636b6fbd9857856b67122c68","2932.4000000953674","","","","39","","","","key","16.664923404255248","683","312.5","true","1","180.09408","7.864319999999999","6","-1","-1","","","","","","","","","","","","",""
"psychophysics","105","456286","0.0-10.0-0.17","61096a6ab244ccee2220a180","6368f2eea3e9634aebcc2f6b","636b6fbd9857856b67122c68","4442.5","","","","39","","","","key","16.666806748466303","683","312.5","true","1","172.22976","7.864319999999999","6","-1","-1","","","","","","","","","","","","",""
"psychophysics","106","457308","0.0-10.0-0.18","61096a6ab244ccee2220a180","6368f2eea3e9634aebcc2f6b","636b6fbd9857856b67122c68","17.200000047683716","","","","39","","","","key","16.66728333333352","683","312.5","true","1","172.22976","7.864319999999999","6","-1","-1","","","","","","","","","","","","",""
"psychophysics","107","461821","0.0-10.0-0.19","61096a6ab244ccee2220a180","6368f2eea3e9634aebcc2f6b","636b6fbd9857856b67122c68","3508.8000000715256","","","","37","","","","key","16.666725925925938","683","312.5","true","1","164.36544","6.291456","7","1","-1","","","","","","","","","","","","",""
"psychophysics","108","462919","0.0-10.0-0.20","61096a6ab244ccee2220a180","6368f2eea3e9634aebcc2f6b","636b6fbd9857856b67122c68","89.89999997615814","","","","39","","","","key","16.667384615384687","683","312.5","true","1","170.65689600000002","6.291456","7","-1","1","","","","","","","","","","","","",""
"psychophysics","109","466713","0.0-10.0-0.21","61096a6ab244ccee2220a180","6368f2eea3e9634aebcc2f6b","636b6fbd9857856b67122c68","2789.8000000715256","","","","39","","","","key","16.66640707964605","683","312.5","true","1","170.65689600000002","5.033164800000001","8","-1","-1","","","","","","","","","","","","",""
"psychophysics","110","473101","0.0-10.0-0.22","61096a6ab244ccee2220a180","6368f2eea3e9634aebcc2f6b","636b6fbd9857856b67122c68","5377.900000095367","","","","39","","","","key","16.666801566579657","683","312.5","true","-1","165.6237312","4.0265318400000005","9","1","-1","","","","","","","","","","","","",""
"psychophysics","111","474117","0.0-10.0-0.23","61096a6ab244ccee2220a180","6368f2eea3e9634aebcc2f6b","636b6fbd9857856b67122c68","4.5","","","","39","","","","key","16.667149999999673","683","312.5","true","1","169.65026304","4.0265318400000005","9","-1","1","","","","","","","","","","","","",""
"psychophysics","112","479900","0.0-10.0-0.24","61096a6ab244ccee2220a180","6368f2eea3e9634aebcc2f6b","636b6fbd9857856b67122c68","4771.200000047684","","","","39","","","","key","16.66673410404625","683","312.5","true","-1","169.65026304","3.2212254720000004","10","1","-1","","","","","","","","","","","","",""
"psychophysics","113","483592","0.0-10.0-0.25","61096a6ab244ccee2220a180","6368f2eea3e9634aebcc2f6b","636b6fbd9857856b67122c68","2684.1999999284744","","","","37","","","","key","16.666609090909265","683","312.5","true","1","172.87148851199998","3.2212254720000004","10","1","1","","","","","","","","","","","","",""
"psychophysics","114","489406","0.0-10.0-0.26","61096a6ab244ccee2220a180","6368f2eea3e9634aebcc2f6b","636b6fbd9857856b67122c68","4808.700000047684","","","","39","","","","key","16.666603448275872","683","312.5","true","1","176.092713984","3.2212254720000004","10","-1","1","","","","","","","","","","","","",""
"psychophysics","115","494975","0.0-10.0-0.27","61096a6ab244ccee2220a180","6368f2eea3e9634aebcc2f6b","636b6fbd9857856b67122c68","4562.299999952316","","","","39","","","","key","16.66585885885877","683","312.5","true","-1","176.092713984","2.5769803776000004","11","1","-1","","","","","","","","","","","","",""
"psychophysics","116","496000","0.0-10.0-0.28","61096a6ab244ccee2220a180","6368f2eea3e9634aebcc2f6b","636b6fbd9857856b67122c68","19.300000071525574","","","","37","","","","key","16.66650819672142","683","312.5","true","-1","178.6696943616","2.5769803776000004","11","-1","1","","","","","","","","","","","","",""
"psychophysics","117","498825","0.0-10.0-0.29","61096a6ab244ccee2220a180","6368f2eea3e9634aebcc2f6b","636b6fbd9857856b67122c68","1813.4000000953674","","","","39","","","","key","16.66654761904751","683","312.5","true","-1","178.6696943616","2.0615843020800004","12","1","-1","","","","","","","","","","","","",""
"psychophysics","118","501543","0.0-10.0-0.30","61096a6ab244ccee2220a180","6368f2eea3e9634aebcc2f6b","636b6fbd9857856b67122c68","1697.7000000476837","","","","39","","","","key","16.666938271604902","683","312.5","true","-1","180.73127866368","2.0615843020800004","12","1","1","","","","","","","","","","","","",""
"psychophysics","119","502567","0.0-10.0-0.31","61096a6ab244ccee2220a180","6368f2eea3e9634aebcc2f6b","636b6fbd9857856b67122c68","4.100000023841858","","","","37","","","","key","16.66781967213152","683","312.5","true","-1","182.79286296576","2.0615843020800004","12","-1","1","","","","","","","","","","","","",""
"psychophysics","120","504557","0.0-10.0-0.32","61096a6ab244ccee2220a180","6368f2eea3e9634aebcc2f6b","636b6fbd9857856b67122c68","978.3999999761581","","","","39","","","","key","16.66661864406798","683","312.5","true","-1","182.79286296576","1.6492674416640005","13","1","-1","","","","","","","","","","","","",""
"psychophysics","121","509263","0.0-10.0-0.33","61096a6ab244ccee2220a180","6368f2eea3e9634aebcc2f6b","636b6fbd9857856b67122c68","3700.8000000715256","","","","39","","","","key","16.666530249110263","683","312.5","true","-1","184.442130407424","1.6492674416640005","13","1","1","","","","","","","","","","","","",""
"psychophysics","122","513901","0.0-10.0-0.34","61096a6ab244ccee2220a180","6368f2eea3e9634aebcc2f6b","636b6fbd9857856b67122c68","3621.6999999284744","","","","39","","","","key","16.666741007194215","683","312.5","true","-1","186.091397849088","1.6492674416640005","13","1","1","","","","","","","","","","","","",""
"psychophysics","123","519127","0.0-10.0-0.35","61096a6ab244ccee2220a180","6368f2eea3e9634aebcc2f6b","636b6fbd9857856b67122c68","4220.399999976158","","","","39","","","","key","16.666467948717838","683","312.5","true","-1","187.740665290752","1.6492674416640005","13","1","1","","","","","","","","","","","","",""
"psychophysics","124","521770","0.0-10.0-0.36","61096a6ab244ccee2220a180","6368f2eea3e9634aebcc2f6b","636b6fbd9857856b67122c68","1628","","","","39","","","","key","16.667183544304034","683","312.5","true","-1","189.38993273241599","1.6492674416640005","13","1","1","","","","","","","","","","","","",""
"psychophysics","125","524366","0.0-10.0-0.37","61096a6ab244ccee2220a180","6368f2eea3e9634aebcc2f6b","636b6fbd9857856b67122c68","1585.6999999284744","","","","39","","","","key","16.666496774193742","683","312.5","true","1","191.03920017407998","1.6492674416640005","13","-1","1","","","","","","","","","","","","",""
"psychophysics","126","526802","0.0-10.0-0.38","61096a6ab244ccee2220a180","6368f2eea3e9634aebcc2f6b","636b6fbd9857856b67122c68","1422.6000000238419","","","","39","","","","key","16.6666482758628","683","312.5","true","1","191.03920017407998","1.3194139533312006","14","-1","-1","","","","","","","","","","","","",""
"psychophysics","127","529618","0.0-10.0-0.39","61096a6ab244ccee2220a180","6368f2eea3e9634aebcc2f6b","636b6fbd9857856b67122c68","1804.5","","","","39","","","","key","16.666083333333344","683","312.5","true","1","189.71978622074877","1.3194139533312006","14","-1","-1","","","","","","","","","","","","",""
"html-keyboard-response","128","532096","0.0-11.0","61096a6ab244ccee2220a180","6368f2eea3e9634aebcc2f6b","636b6fbd9857856b67122c68","2476.6999999284744","<p>Well Done !</p><p>Prepare for a new block.</p><p>DON'T EXIT THE FULL SCREEN MODE</p><p>Press the Spacebar to start.</p>","","","32","","","","","","","","","","","","","","","true","183.21170817646592","","","","","","","","","","",""
"psychophysics","129","536435","0.0-12.0-0.0","61096a6ab244ccee2220a180","6368f2eea3e9634aebcc2f6b","636b6fbd9857856b67122c68","3326.4000000953674","","","","39","","","","key","16.66734230769216","683","312.5","true","-1","180","30","0","1","","","","","","","","","","","","","",""
"psychophysics","130","538849","0.0-12.0-0.1","61096a6ab244ccee2220a180","6368f2eea3e9634aebcc2f6b","636b6fbd9857856b67122c68","1405.7000000476837","","","","39","","","","key","16.666680555555406","683","312.5","true","1","210","30","0","-1","1","","","","","","","","","","","","",""
"psychophysics","131","539891","0.0-12.0-0.2","61096a6ab244ccee2220a180","6368f2eea3e9634aebcc2f6b","636b6fbd9857856b67122c68","31.600000023841858","","","","39","","","","key","16.666032786883765","683","312.5","true","1","210","24","1","-1","-1","","","","","","","","","","","","",""
"psychophysics","132","549373","0.0-12.0-0.3","61096a6ab244ccee2220a180","6368f2eea3e9634aebcc2f6b","636b6fbd9857856b67122c68","8477.399999976158","","","","39","","","","key","16.666783450704237","683","312.5","true","-1","186","19.2","2","1","-1","","","","","","","","","","","","",""
"psychophysics","133","551136","0.0-12.0-0.4","61096a6ab244ccee2220a180","6368f2eea3e9634aebcc2f6b","636b6fbd9857856b67122c68","756.5","","","","37","","","","key","16.666942857142672","683","312.5","true","-1","205.2","19.2","2","-1","1","","","","","","","","","","","","",""
"psychophysics","134","554483","0.0-12.0-0.5","61096a6ab244ccee2220a180","6368f2eea3e9634aebcc2f6b","636b6fbd9857856b67122c68","2343.100000023842","","","","39","","","","key","16.66664999999979","683","312.5","true","1","205.2","15.36","3","-1","-1","","","","","","","","","","","","",""
"psychophysics","135","555603","0.0-12.0-0.6","61096a6ab244ccee2220a180","6368f2eea3e9634aebcc2f6b","636b6fbd9857856b67122c68","112.39999997615814","","","","39","","","","key","16.666303030303396","683","312.5","true","1","189.83999999999997","15.36","3","-1","-1","","","","","","","","","","","","",""
"psychophysics","136","558055","0.0-12.0-0.7","61096a6ab244ccee2220a180","6368f2eea3e9634aebcc2f6b","636b6fbd9857856b67122c68","1442.8999999761581","","","","37","","","","key","16.66660273972618","683","312.5","true","-1","189.83999999999997","15.36","3","-1","-1","","","","","","","","","","","","",""
"psychophysics","137","559332","0.0-12.0-0.8","61096a6ab244ccee2220a180","6368f2eea3e9634aebcc2f6b","636b6fbd9857856b67122c68","270.7000000476837","","","","39","","","","key","16.66598684210514","683","312.5","true","1","174.47999999999996","15.36","3","-1","-1","","","","","","","","","","","","",""
"psychophysics","138","565347","0.0-12.0-0.9","61096a6ab244ccee2220a180","6368f2eea3e9634aebcc2f6b","636b6fbd9857856b67122c68","5007.299999952316","","","","39","","","","key","16.666392757660127","683","312.5","true","-1","174.47999999999996","12.287999999999998","4","1","-1","","","","","","","","","","","","",""
"psychophysics","139","568675","0.0-12.0-0.10","61096a6ab244ccee2220a180","6368f2eea3e9634aebcc2f6b","636b6fbd9857856b67122c68","2326.100000023842","","","","39","","","","key","16.663407035175496","683","312.5","true","-1","186.76799999999997","12.287999999999998","4","1","1","","","","","","","","","","","","",""
"psychophysics","140","571366","0.0-12.0-0.11","61096a6ab244ccee2220a180","6368f2eea3e9634aebcc2f6b","636b6fbd9857856b67122c68","1684.8999999761581","","","","39","","","","key","16.669621118012476","683","312.5","true","1","199.05599999999998","12.287999999999998","4","-1","1","","","","","","","","","","","","",""
"psychophysics","141","574803","0.0-12.0-0.12","61096a6ab244ccee2220a180","6368f2eea3e9634aebcc2f6b","636b6fbd9857856b67122c68","2431.899999976158","","","","39","","","","key","16.667048780487782","683","312.5","true","-1","199.05599999999998","9.8304","5","1","-1","","","","","","","","","","","","",""
"psychophysics","142","578185","0.0-12.0-0.13","61096a6ab244ccee2220a180","6368f2eea3e9634aebcc2f6b","636b6fbd9857856b67122c68","2373.7999999523163","","","","39","","","","key","16.666935643564454","683","312.5","true","-1","208.88639999999998","9.8304","5","1","1","","","","","","","","","","","","",""
"psychophysics","143","580482","0.0-12.0-0.14","61096a6ab244ccee2220a180","6368f2eea3e9634aebcc2f6b","636b6fbd9857856b67122c68","1286.7999999523163","","","","39","","","","key","16.665671532847036","683","312.5","true","-1","218.71679999999998","9.8304","5","1","1","","","","","","","","","","","","",""
"psychophysics","144","583108","0.0-12.0-0.15","61096a6ab244ccee2220a180","6368f2eea3e9634aebcc2f6b","636b6fbd9857856b67122c68","1615.7999999523163","","","","39","","","","key","16.666724358974115","683","312.5","true","-1","228.54719999999998","9.8304","5","1","1","","","","","","","","","","","","",""
"psychophysics","145","585232","0.0-12.0-0.16","61096a6ab244ccee2220a180","6368f2eea3e9634aebcc2f6b","636b6fbd9857856b67122c68","1120","","","","39","","","","key","16.66385826771606","683","312.5","true","-1","238.37759999999997","9.8304","5","1","1","","","","","","","","","","","","",""
"psychophysics","146","588839","0.0-12.0-0.17","61096a6ab244ccee2220a180","6368f2eea3e9634aebcc2f6b","636b6fbd9857856b67122c68","2596.1999999284744","","","","39","","","","key","16.66700930232561","683","312.5","true","-1","248.20799999999997","9.8304","5","1","1","","","","","","","","","","","","",""
"psychophysics","147","590899","0.0-12.0-0.18","61096a6ab244ccee2220a180","6368f2eea3e9634aebcc2f6b","636b6fbd9857856b67122c68","1056.1999999284744","","","","39","","","","key","16.666512195122184","683","312.5","true","-1","255","9.8304","5","1","1","","","","","","","","","","","","",""
"psychophysics","148","593441","0.0-12.0-0.19","61096a6ab244ccee2220a180","6368f2eea3e9634aebcc2f6b","636b6fbd9857856b67122c68","1533.2000000476837","","","","39","","","","key","16.66680132450354","683","312.5","true","-1","255","9.8304","5","1","1","","","","","","","","","","","","",""
"psychophysics","149","595735","0.0-12.0-0.20","61096a6ab244ccee2220a180","6368f2eea3e9634aebcc2f6b","636b6fbd9857856b67122c68","1289.5","","","","39","","","","key","16.666839416058103","683","312.5","true","1","255","9.8304","5","-1","1","","","","","","","","","","","","",""
"psychophysics","150","597765","0.0-12.0-0.21","61096a6ab244ccee2220a180","6368f2eea3e9634aebcc2f6b","636b6fbd9857856b67122c68","1025.2999999523163","","","","39","","","","key","16.67171900826391","683","312.5","true","-1","245.1696","7.864319999999999","6","1","-1","","","","","","","","","","","","",""
"psychophysics","151","599755","0.0-12.0-0.22","61096a6ab244ccee2220a180","6368f2eea3e9634aebcc2f6b","636b6fbd9857856b67122c68","983.6999999284744","","","","39","","","","key","16.666559322033734","683","312.5","true","-1","253.03392","7.864319999999999","6","1","1","","","","","","","","","","","","",""
"psychophysics","152","602655","0.0-12.0-0.23","61096a6ab244ccee2220a180","6368f2eea3e9634aebcc2f6b","636b6fbd9857856b67122c68","1892.5","","","","39","","","","key","16.666606936416038","683","312.5","true","1","255","7.864319999999999","6","-1","1","","","","","","","","","","","","",""
"psychophysics","153","606468","0.0-12.0-0.24","61096a6ab244ccee2220a180","6368f2eea3e9634aebcc2f6b","636b6fbd9857856b67122c68","2809.100000023842","","","","39","","","","key","16.666657894736936","683","312.5","true","1","255","6.291456","7","-1","-1","","","","","","","","","","","","",""
"psychophysics","154","609918","0.0-12.0-0.25","61096a6ab244ccee2220a180","6368f2eea3e9634aebcc2f6b","636b6fbd9857856b67122c68","2443.7000000476837","","","","39","","","","key","16.662825242718522","683","312.5","true","1","248.708544","6.291456","7","-1","-1","","","","","","","","","","","","",""
"psychophysics","155","614332","0.0-12.0-0.26","61096a6ab244ccee2220a180","6368f2eea3e9634aebcc2f6b","636b6fbd9857856b67122c68","3409.5","","","","39","","","","key","16.666553030302925","683","312.5","true","1","248.708544","6.291456","7","-1","-1","","","","","","","","","","","","",""
"psychophysics","156","618465","0.0-12.0-0.27","61096a6ab244ccee2220a180","6368f2eea3e9634aebcc2f6b","636b6fbd9857856b67122c68","3125.100000023842","","","","39","","","","key","16.666437246963508","683","312.5","true","1","242.41708799999998","6.291456","7","-1","-1","","","","","","","","","","","","",""
"psychophysics","157","620871","0.0-12.0-0.28","61096a6ab244ccee2220a180","6368f2eea3e9634aebcc2f6b","636b6fbd9857856b67122c68","1395.3999999761581","","","","39","","","","key","16.666867132866887","683","312.5","true","-1","242.41708799999998","5.033164800000001","8","1","-1","","","","","","","","","","","","",""
"psychophysics","158","625552","0.0-12.0-0.29","61096a6ab244ccee2220a180","6368f2eea3e9634aebcc2f6b","636b6fbd9857856b67122c68","3677.600000023842","","","","39","","","","key","16.666803571428837","683","312.5","true","1","247.4502528","5.033164800000001","8","-1","1","","","","","","","","","","","","",""
"psychophysics","159","632918","0.0-12.0-0.30","61096a6ab244ccee2220a180","6368f2eea3e9634aebcc2f6b","636b6fbd9857856b67122c68","6355.600000023842","","","","37","","","","key","16.66663945578234","683","312.5","true","1","247.4502528","4.0265318400000005","9","1","-1","","","","","","","","","","","","",""
"psychophysics","160","634816","0.0-12.0-0.31","61096a6ab244ccee2220a180","6368f2eea3e9634aebcc2f6b","636b6fbd9857856b67122c68","893.2999999523163","","","","39","","","","key","16.66738053097336","683","312.5","true","1","251.47678463999998","4.0265318400000005","9","-1","1","","","","","","","","","","","","",""
"psychophysics","161","636656","0.0-12.0-0.32","61096a6ab244ccee2220a180","6368f2eea3e9634aebcc2f6b","636b6fbd9857856b67122c68","828.6000000238419","","","","37","","","","key","16.666917431191756","683","312.5","true","-1","251.47678463999998","3.2212254720000004","10","-1","-1","","","","","","","","","","","","",""
"psychophysics","162","640610","0.0-12.0-0.33","61096a6ab244ccee2220a180","6368f2eea3e9634aebcc2f6b","636b6fbd9857856b67122c68","2951.2000000476837","","","","39","","","","key","16.666491525423304","683","312.5","true","1","248.255559168","3.2212254720000004","10","-1","-1","","","","","","","","","","","","",""
"psychophysics","163","645254","0.0-12.0-0.34","61096a6ab244ccee2220a180","6368f2eea3e9634aebcc2f6b","636b6fbd9857856b67122c68","3639.0999999046326","","","","39","","","","key","16.66715467625914","683","312.5","true","1","248.255559168","3.2212254720000004","10","-1","-1","","","","","","","","","","","","",""
"psychophysics","164","647966","0.0-12.0-0.35","61096a6ab244ccee2220a180","6368f2eea3e9634aebcc2f6b","636b6fbd9857856b67122c68","1707.2999999523163","","","","39","","","","key","16.66627777777727","683","312.5","true","1","245.03433369599998","3.2212254720000004","10","-1","-1","","","","","","","","","","","","",""
"psychophysics","165","650204","0.0-12.0-0.36","61096a6ab244ccee2220a180","6368f2eea3e9634aebcc2f6b","636b6fbd9857856b67122c68","1232.8000000715256","","","","39","","","","key","16.666481203007464","683","312.5","true","1","245.03433369599998","3.2212254720000004","10","-1","-1","","","","","","","","","","","","",""
"psychophysics","166","653359","0.0-12.0-0.37","61096a6ab244ccee2220a180","6368f2eea3e9634aebcc2f6b","636b6fbd9857856b67122c68","2146.8000000715256","","","","39","","","","key","16.666297872340248","683","312.5","true","1","241.81310822399996","3.2212254720000004","10","-1","-1","","","","","","","","","","","","",""
"psychophysics","167","655534","0.0-12.0-0.38","61096a6ab244ccee2220a180","6368f2eea3e9634aebcc2f6b","636b6fbd9857856b67122c68","1171.6000000238419","","","","39","","","","key","16.663069230769402","683","312.5","true","-1","241.81310822399996","2.5769803776000004","11","1","-1","","","","","","","","","","","","",""
"psychophysics","168","658468","0.0-12.0-0.39","61096a6ab244ccee2220a180","6368f2eea3e9634aebcc2f6b","636b6fbd9857856b67122c68","1928.6000000238419","","","","39","","","","key","16.666919999999394","683","312.5","true","-1","244.39008860159996","2.5769803776000004","11","1","1","","","","","","","","","","","","",""
"html-keyboard-response","169","660010","0.0-13.0","61096a6ab244ccee2220a180","6368f2eea3e9634aebcc2f6b","636b6fbd9857856b67122c68","1539.7000000476837","<p>Well Done !</p><p>Prepare for a new block.</p><p>DON'T EXIT THE FULL SCREEN MODE</p><p>Press the Spacebar to start.</p>","","","32","","","","","","","","","","","","","","","true","246.31342864383998","","","","","","","","","","",""
"html-keyboard-response","170","660124","0.0-14.0","61096a6ab244ccee2220a180","6368f2eea3e9634aebcc2f6b","636b6fbd9857856b67122c68","null","","","","null","","","","","","","","","","","","","","","","","209.47059610755616","true","290.9411922151123","","","","","","","",""
"instructions","171","717343","0.0-15.0","61096a6ab244ccee2220a180","6368f2eea3e9634aebcc2f6b","636b6fbd9857856b67122c68","57217.699999928474","","","","","","","[{""page_index"":0,""viewing_time"":46857.699999928474},{""page_index"":1,""viewing_time"":4720.700000047684},{""page_index"":2,""viewing_time"":5638.600000023842}]","","","","","","","","","","","","","","","","","","","","","","","",""
"psychophysics","172","720372","0.0-16.0-0.0","61096a6ab244ccee2220a180","6368f2eea3e9634aebcc2f6b","636b6fbd9857856b67122c68","null","","","","null","","","","key","16.666416666666432","683","312.5","","","","","","","","","","","","","","","","","","","",""
"psychophysics","173","720875","0.0-16.0-1.0","61096a6ab244ccee2220a180","6368f2eea3e9634aebcc2f6b","636b6fbd9857856b67122c68","null","","","","null","","","","key","16.66931034482871","683","312.5","","","","","","","","","","","","","291","1","4","false","","","",""
"psychophysics","174","721726","0.0-16.0-2.0","61096a6ab244ccee2220a180","6368f2eea3e9634aebcc2f6b","636b6fbd9857856b67122c68","849","","","","77","","","","key","16.664960000000427","683","312.5","","","","","","","","","","","","","","","","","","","",""
"psychophysics","175","722729","0.0-16.0-0.1","61096a6ab244ccee2220a180","6368f2eea3e9634aebcc2f6b","636b6fbd9857856b67122c68","null","","","","null","","","","key","16.66737288135593","683","312.5","","","","","","","","","","","","","","","","","","","",""
"psychophysics","176","723231","0.0-16.0-1.1","61096a6ab244ccee2220a180","6368f2eea3e9634aebcc2f6b","636b6fbd9857856b67122c68","null","","","","null","","","","key","16.669599999999626","683","312.5","","","","","","","","","","","","","291","-1","3","false","","","",""
"psychophysics","177","723965","0.0-16.0-2.1","61096a6ab244ccee2220a180","6368f2eea3e9634aebcc2f6b","636b6fbd9857856b67122c68","730.0999999046326","","","","77","","","","key","16.668023255813413","683","312.5","","","","","","","","","","","","","","","","","","","",""
"psychophysics","178","724971","0.0-16.0-0.2","61096a6ab244ccee2220a180","6368f2eea3e9634aebcc2f6b","636b6fbd9857856b67122c68","null","","","","null","","","","key","16.66720338983035","683","312.5","","","","","","","","","","","","","","","","","","","",""
"psychophysics","179","725475","0.0-16.0-1.2","61096a6ab244ccee2220a180","6368f2eea3e9634aebcc2f6b","636b6fbd9857856b67122c68","null","","","","null","","","","key","16.6679999999991","683","312.5","","","","","","","","","","","","","291","-1","6","false","","","",""
"psychophysics","180","725692","0.0-16.0-2.2","61096a6ab244ccee2220a180","6368f2eea3e9634aebcc2f6b","636b6fbd9857856b67122c68","213.89999997615814","","","","77","","","","key","16.667916666667832","683","312.5","","","","","","","","","","","","","","","","","","","",""
"psychophysics","181","726696","0.0-16.0-0.3","61096a6ab244ccee2220a180","6368f2eea3e9634aebcc2f6b","636b6fbd9857856b67122c68","null","","","","null","","","","key","16.6681186440677","683","312.5","","","","","","","","","","","","","","","","","","","",""
"psychophysics","182","727198","0.0-16.0-1.3","61096a6ab244ccee2220a180","6368f2eea3e9634aebcc2f6b","636b6fbd9857856b67122c68","null","","","","null","","","","key","16.66820000000298","683","312.5","","","","","","","","","","","","","291","-1","0","false","","","",""
"psychophysics","183","727434","0.0-16.0-2.3","61096a6ab244ccee2220a180","6368f2eea3e9634aebcc2f6b","636b6fbd9857856b67122c68","232.90000009536743","","","","90","","","","key","16.667384615382897","683","312.5","","","","","","","","","","","","","","","","","","","",""
"psychophysics","184","728443","0.0-16.0-0.4","61096a6ab244ccee2220a180","6368f2eea3e9634aebcc2f6b","636b6fbd9857856b67122c68","null","","","","null","","","","key","16.666271186441627","683","312.5","","","","","","","","","","","","","","","","","","","",""
"psychophysics","185","728946","0.0-16.0-1.4","61096a6ab244ccee2220a180","6368f2eea3e9634aebcc2f6b","636b6fbd9857856b67122c68","null","","","","null","","","","key","16.667655172412573","683","312.5","","","","","","","","","","","","","291","1","3","false","","","",""
"psychophysics","186","729294","0.0-16.0-2.4","61096a6ab244ccee2220a180","6368f2eea3e9634aebcc2f6b","636b6fbd9857856b67122c68","343.5","","","","77","","","","key","16.669250000000467","683","312.5","","","","","","","","","","","","","","","","","","","",""
"psychophysics","187","730297","0.0-16.0-0.5","61096a6ab244ccee2220a180","6368f2eea3e9634aebcc2f6b","636b6fbd9857856b67122c68","null","","","","null","","","","key","16.667316666666498","683","312.5","","","","","","","","","","","","","","","","","","","",""
"psychophysics","188","730803","0.0-16.0-1.5","61096a6ab244ccee2220a180","6368f2eea3e9634aebcc2f6b","636b6fbd9857856b67122c68","null","","","","null","","","","key","16.668241379308867","683","312.5","","","","","","","","","","","","","291","1","2","false","","","",""
"psychophysics","189","731007","0.0-16.0-2.5","61096a6ab244ccee2220a180","6368f2eea3e9634aebcc2f6b","636b6fbd9857856b67122c68","201.69999992847443","","","","90","","","","key","16.669545454544608","683","312.5","","","","","","","","","","","","","","","","","","","",""
"psychophysics","190","732013","0.0-16.0-0.6","61096a6ab244ccee2220a180","6368f2eea3e9634aebcc2f6b","636b6fbd9857856b67122c68","null","","","","null","","","","key","16.666610169492788","683","312.5","","","","","","","","","","","","","","","","","","","",""
"psychophysics","191","732515","0.0-16.0-1.6","61096a6ab244ccee2220a180","6368f2eea3e9634aebcc2f6b","636b6fbd9857856b67122c68","null","","","","null","","","","key","16.665499999998914","683","312.5","","","","","","","","","","","","","291","-1","2","false","","","",""
"psychophysics","192","733432","0.0-16.0-2.6","61096a6ab244ccee2220a180","6368f2eea3e9634aebcc2f6b","636b6fbd9857856b67122c68","913.1000000238419","","","","90","","","","key","16.674129629630542","683","312.5","","","","","","","","","","","","","","","","","","","",""
"psychophysics","193","734436","0.0-16.0-0.7","61096a6ab244ccee2220a180","6368f2eea3e9634aebcc2f6b","636b6fbd9857856b67122c68","null","","","","null","","","","key","16.666220338983557","683","312.5","","","","","","","","","","","","","","","","","","","",""
"psychophysics","194","734939","0.0-16.0-1.7","61096a6ab244ccee2220a180","6368f2eea3e9634aebcc2f6b","636b6fbd9857856b67122c68","null","","","","null","","","","key","16.665413793104154","683","312.5","","","","","","","","","","","","","291","-1","5","false","","","",""
"psychophysics","195","735433","0.0-16.0-2.7","61096a6ab244ccee2220a180","6368f2eea3e9634aebcc2f6b","636b6fbd9857856b67122c68","490.89999997615814","","","","77","","","","key","16.667310344826046","683","312.5","","","","","","","","","","","","","","","","","","","",""
"psychophysics","196","736443","0.0-16.0-0.8","61096a6ab244ccee2220a180","6368f2eea3e9634aebcc2f6b","636b6fbd9857856b67122c68","null","","","","null","","","","key","16.668033898304913","683","312.5","","","","","","","","","","","","","","","","","","","",""
"psychophysics","197","736947","0.0-16.0-1.8","61096a6ab244ccee2220a180","6368f2eea3e9634aebcc2f6b","636b6fbd9857856b67122c68","null","","","","null","","","","key","16.66809999999823","683","312.5","","","","","","","","","","","","","291","1","5","false","","","",""
"psychophysics","198","737097","0.0-16.0-2.8","61096a6ab244ccee2220a180","6368f2eea3e9634aebcc2f6b","636b6fbd9857856b67122c68","145.90000009536743","","","","77","","","","key","16.66485714287098","683","312.5","","","","","","","","","","","","","","","","","","","",""
"psychophysics","199","738098","0.0-16.0-0.9","61096a6ab244ccee2220a180","6368f2eea3e9634aebcc2f6b","636b6fbd9857856b67122c68","null","","","","null","","","","key","16.667999999999303","683","312.5","","","","","","","","","","","","","","","","","","","",""
"psychophysics","200","738603","0.0-16.0-1.9","61096a6ab244ccee2220a180","6368f2eea3e9634aebcc2f6b","636b6fbd9857856b67122c68","null","","","","null","","","","key","16.667620689656328","683","312.5","","","","","","","","","","","","","291","1","6","false","","","",""
"psychophysics","201","738709","0.0-16.0-2.9","61096a6ab244ccee2220a180","6368f2eea3e9634aebcc2f6b","636b6fbd9857856b67122c68","103.29999995231628","","","","77","","","","key","16.659799999999812","683","312.5","","","","","","","","","","","","","","","","","","","",""
"psychophysics","202","739713","0.0-16.0-0.10","61096a6ab244ccee2220a180","6368f2eea3e9634aebcc2f6b","636b6fbd9857856b67122c68","null","","","","null","","","","key","16.667898305086023","683","312.5","","","","","","","","","","","","","","","","","","","",""
"psychophysics","203","740215","0.0-16.0-1.10","61096a6ab244ccee2220a180","6368f2eea3e9634aebcc2f6b","636b6fbd9857856b67122c68","null","","","","null","","","","key","16.675200000001738","683","312.5","","","","","","","","","","","","","291","1","0","false","","","",""
"psychophysics","204","740709","0.0-16.0-2.10","61096a6ab244ccee2220a180","6368f2eea3e9634aebcc2f6b","636b6fbd9857856b67122c68","490.89999997615814","","","","90","","","","key","16.667571428572824","683","312.5","","","","","","","","","","","","","","","","","","","",""
"psychophysics","205","741713","0.0-16.0-0.11","61096a6ab244ccee2220a180","6368f2eea3e9634aebcc2f6b","636b6fbd9857856b67122c68","null","","","","null","","","","key","16.66789830508405","683","312.5","","","","","","","","","","","","","","","","","","","",""
"psychophysics","206","742215","0.0-16.0-1.11","61096a6ab244ccee2220a180","6368f2eea3e9634aebcc2f6b","636b6fbd9857856b67122c68","null","","","","null","","","","key","16.665766666666606","683","312.5","","","","","","","","","","","","","291","-1","4","false","","","",""
"psychophysics","207","742420","0.0-16.0-2.11","61096a6ab244ccee2220a180","6368f2eea3e9634aebcc2f6b","636b6fbd9857856b67122c68","202.20000004768372","","","","77","","","","key","16.667272727269765","683","312.5","","","","","","","","","","","","","","","","","","","",""
"psychophysics","208","743427","0.0-16.0-0.12","61096a6ab244ccee2220a180","6368f2eea3e9634aebcc2f6b","636b6fbd9857856b67122c68","null","","","","null","","","","key","16.666661016948883","683","312.5","","","","","","","","","","","","","","","","","","","",""
"psychophysics","209","743931","0.0-16.0-1.12","61096a6ab244ccee2220a180","6368f2eea3e9634aebcc2f6b","636b6fbd9857856b67122c68","null","","","","null","","","","key","16.670166666666045","683","312.5","","","","","","","","","","","","","291","-1","3","false","","","",""
"psychophysics","210","744763","0.0-16.0-2.12","61096a6ab244ccee2220a180","6368f2eea3e9634aebcc2f6b","636b6fbd9857856b67122c68","828.8999999761581","","","","90","","","","key","16.665999999999865","683","312.5","","","","","","","","","","","","","","","","","","","",""
"psychophysics","211","745771","0.0-16.0-0.13","61096a6ab244ccee2220a180","6368f2eea3e9634aebcc2f6b","636b6fbd9857856b67122c68","null","","","","null","","","","key","16.66856666666766","683","312.5","","","","","","","","","","","","","","","","","","","",""
"psychophysics","212","746275","0.0-16.0-1.13","61096a6ab244ccee2220a180","6368f2eea3e9634aebcc2f6b","636b6fbd9857856b67122c68","null","","","","null","","","","key","16.665862068967446","683","312.5","","","","","","","","","","","","","291","1","4","false","","","",""
"psychophysics","213","746509","0.0-16.0-2.13","61096a6ab244ccee2220a180","6368f2eea3e9634aebcc2f6b","636b6fbd9857856b67122c68","232","","","","77","","","","key","16.65776923076751","683","312.5","","","","","","","","","","","","","","","","","","","",""
"psychophysics","214","747512","0.0-16.0-0.14","61096a6ab244ccee2220a180","6368f2eea3e9634aebcc2f6b","636b6fbd9857856b67122c68","null","","","","null","","","","key","16.66820338983049","683","312.5","","","","","","","","","","","","","","","","","","","",""
"psychophysics","215","748020","0.0-16.0-1.14","61096a6ab244ccee2220a180","6368f2eea3e9634aebcc2f6b","636b6fbd9857856b67122c68","null","","","","null","","","","key","16.667266666664123","683","312.5","","","","","","","","","","","","","291","1","3","false","","","",""
"psychophysics","216","748109","0.0-16.0-2.14","61096a6ab244ccee2220a180","6368f2eea3e9634aebcc2f6b","636b6fbd9857856b67122c68","87.69999992847443","","","","77","","","","key","16.67974999998114","683","312.5","","","","","","","","","","","","","","","","","","","",""
"psychophysics","217","749112","0.0-16.0-0.15","61096a6ab244ccee2220a180","6368f2eea3e9634aebcc2f6b","636b6fbd9857856b67122c68","null","","","","null","","","","key","16.668237288135213","683","312.5","","","","","","","","","","","","","","","","","","","",""
"psychophysics","218","749619","0.0-16.0-1.15","61096a6ab244ccee2220a180","6368f2eea3e9634aebcc2f6b","636b6fbd9857856b67122c68","null","","","","null","","","","key","16.665133333334232","683","312.5","","","","","","","","","","","","","291","1","0","false","","","",""
"psychophysics","219","749887","0.0-16.0-2.15","61096a6ab244ccee2220a180","6368f2eea3e9634aebcc2f6b","636b6fbd9857856b67122c68","265.2000000476837","","","","90","","","","key","16.662733333332774","683","312.5","","","","","","","","","","","","","","","","","","","",""
"psychophysics","220","750892","0.0-16.0-0.16","61096a6ab244ccee2220a180","6368f2eea3e9634aebcc2f6b","636b6fbd9857856b67122c68","null","","","","null","","","","key","16.667661016949026","683","312.5","","","","","","","","","","","","","","","","","","","",""
"psychophysics","221","751395","0.0-16.0-1.16","61096a6ab244ccee2220a180","6368f2eea3e9634aebcc2f6b","636b6fbd9857856b67122c68","null","","","","null","","","","key","16.665206896550632","683","312.5","","","","","","","","","","","","","291","-1","4","false","","","",""
"psychophysics","222","751796","0.0-16.0-2.16","61096a6ab244ccee2220a180","6368f2eea3e9634aebcc2f6b","636b6fbd9857856b67122c68","394.8000000715256","","","","77","","","","key","16.666565217391547","683","312.5","","","","","","","","","","","","","","","","","","","",""
"psychophysics","223","752799","0.0-16.0-0.17","61096a6ab244ccee2220a180","6368f2eea3e9634aebcc2f6b","636b6fbd9857856b67122c68","null","","","","null","","","","key","16.66553333333383","683","312.5","","","","","","","","","","","","","","","","","","","",""
"psychophysics","224","753308","0.0-16.0-1.17","61096a6ab244ccee2220a180","6368f2eea3e9634aebcc2f6b","636b6fbd9857856b67122c68","null","","","","null","","","","key","16.666241379310215","683","312.5","","","","","","","","","","","","","291","-1","6","false","","","",""
"psychophysics","225","753520","0.0-16.0-2.17","61096a6ab244ccee2220a180","6368f2eea3e9634aebcc2f6b","636b6fbd9857856b67122c68","210.09999990463257","","","","77","","","","key","16.66549999999309","683","312.5","","","","","","","","","","","","","","","","","","","",""
"psychophysics","226","754523","0.0-16.0-0.18","61096a6ab244ccee2220a180","6368f2eea3e9634aebcc2f6b","636b6fbd9857856b67122c68","null","","","","null","","","","key","16.66825423728856","683","312.5","","","","","","","","","","","","","","","","","","","",""
"psychophysics","227","755028","0.0-16.0-1.18","61096a6ab244ccee2220a180","6368f2eea3e9634aebcc2f6b","636b6fbd9857856b67122c68","null","","","","null","","","","key","16.665310344831408","683","312.5","","","","","","","","","","","","","291","-1","5","false","","","",""
"psychophysics","228","755213","0.0-16.0-2.18","61096a6ab244ccee2220a180","6368f2eea3e9634aebcc2f6b","636b6fbd9857856b67122c68","178.89999997615814","","","","77","","","","key","16.671000000007915","683","312.5","","","","","","","","","","","","","","","","","","","",""
"psychophysics","229","756220","0.0-16.0-0.19","61096a6ab244ccee2220a180","6368f2eea3e9634aebcc2f6b","636b6fbd9857856b67122c68","null","","","","null","","","","key","16.667250000000543","683","312.5","","","","","","","","","","","","","","","","","","","",""
"psychophysics","230","756723","0.0-16.0-1.19","61096a6ab244ccee2220a180","6368f2eea3e9634aebcc2f6b","636b6fbd9857856b67122c68","null","","","","null","","","","key","16.666482758619985","683","312.5","","","","","","","","","","","","","291","1","6","false","","","",""
"psychophysics","231","756800","0.0-16.0-2.19","61096a6ab244ccee2220a180","6368f2eea3e9634aebcc2f6b","636b6fbd9857856b67122c68","74.89999997615814","","","","77","","","","key","16.67324999999255","683","312.5","","","","","","","","","","","","","","","","","","","",""
"psychophysics","232","757803","0.0-16.0-0.20","61096a6ab244ccee2220a180","6368f2eea3e9634aebcc2f6b","636b6fbd9857856b67122c68","null","","","","null","","","","key","16.667152542374254","683","312.5","","","","","","","","","","","","","","","","","","","",""
"psychophysics","233","758307","0.0-16.0-1.20","61096a6ab244ccee2220a180","6368f2eea3e9634aebcc2f6b","636b6fbd9857856b67122c68","null","","","","null","","","","key","16.665862068967446","683","312.5","","","","","","","","","","","","","291","1","5","false","","","",""
"psychophysics","234","758455","0.0-16.0-2.20","61096a6ab244ccee2220a180","6368f2eea3e9634aebcc2f6b","636b6fbd9857856b67122c68","146.29999995231628","","","","77","","","","key","16.66599999999744","683","312.5","","","","","","","","","","","","","","","","","","","",""
"psychophysics","235","759459","0.0-16.0-0.21","61096a6ab244ccee2220a180","6368f2eea3e9634aebcc2f6b","636b6fbd9857856b67122c68","null","","","","null","","","","key","16.66711864406756","683","312.5","","","","","","","","","","","","","","","","","","","",""
"psychophysics","236","759963","0.0-16.0-1.21","61096a6ab244ccee2220a180","6368f2eea3e9634aebcc2f6b","636b6fbd9857856b67122c68","null","","","","null","","","","key","16.66844827586239","683","312.5","","","","","","","","","","","","","291","-1","0","false","","","",""
"psychophysics","237","760458","0.0-16.0-2.21","61096a6ab244ccee2220a180","6368f2eea3e9634aebcc2f6b","636b6fbd9857856b67122c68","480.2999999523163","","","","90","","","","key","16.66789655172234","683","312.5","","","","","","","","","","","","","","","","","","","",""
"psychophysics","238","761463","0.0-16.0-0.22","61096a6ab244ccee2220a180","6368f2eea3e9634aebcc2f6b","636b6fbd9857856b67122c68","null","","","","null","","","","key","16.666067796611323","683","312.5","","","","","","","","","","","","","","","","","","","",""
"psychophysics","239","761971","0.0-16.0-1.22","61096a6ab244ccee2220a180","6368f2eea3e9634aebcc2f6b","636b6fbd9857856b67122c68","null","","","","null","","","","key","16.666133333335164","683","312.5","","","","","","","","","","","","","291","1","2","false","","","",""
"psychophysics","240","762552","0.0-16.0-2.22","61096a6ab244ccee2220a180","6368f2eea3e9634aebcc2f6b","636b6fbd9857856b67122c68","577.7000000476837","","","","90","","","","key","16.66455882352859","683","312.5","","","","","","","","","","","","","","","","","","","",""
"psychophysics","241","763555","0.0-16.0-0.23","61096a6ab244ccee2220a180","6368f2eea3e9634aebcc2f6b","636b6fbd9857856b67122c68","null","","","","null","","","","key","16.666966101695326","683","312.5","","","","","","","","","","","","","","","","","","","",""
"psychophysics","242","764059","0.0-16.0-1.23","61096a6ab244ccee2220a180","6368f2eea3e9634aebcc2f6b","636b6fbd9857856b67122c68","null","","","","null","","","","key","16.665241379310892","683","312.5","","","","","","","","","","","","","291","-1","2","false","","","",""
"psychophysics","243","764802","0.0-16.0-2.23","61096a6ab244ccee2220a180","6368f2eea3e9634aebcc2f6b","636b6fbd9857856b67122c68","740.5999999046326","","","","90","","","","key","16.667318181820022","683","312.5","","","","","","","","","","","","","","","","","","","",""
"html-keyboard-response","244","778260","0.0-17.0","61096a6ab244ccee2220a180","6368f2eea3e9634aebcc2f6b","636b6fbd9857856b67122c68","13456.5","<p>Well Done !</p><p>Training Complete. Press the spacebar to start.</p><p>DON'T EXIT THE FULL SCREEN MODE</p>","","","32","","","","","","","","","","","","","","","","","","","","","","","","","","",""
"psychophysics","245","781275","0.0-18.0-0.0","61096a6ab244ccee2220a180","6368f2eea3e9634aebcc2f6b","636b6fbd9857856b67122c68","null","","","","null","","","","key","16.668083333332714","683","312.5","","","","","","","","","","","","","","","","","","","",""
"psychophysics","246","781782","0.0-18.0-1.0","61096a6ab244ccee2220a180","6368f2eea3e9634aebcc2f6b","636b6fbd9857856b67122c68","null","","","","null","","","","key","16.671399999999753","683","312.5","","","","","","","","","","","","","291","-1","0","true","","","",""
"psychophysics","247","782458","0.0-18.0-2.0","61096a6ab244ccee2220a180","6368f2eea3e9634aebcc2f6b","636b6fbd9857856b67122c68","673.1000000238419","","","","90","","","","key","16.66535897435955","683","312.5","","","","","","","","","","","","","","","","","","","",""
"psychophysics","248","783462","0.0-18.0-0.1","61096a6ab244ccee2220a180","6368f2eea3e9634aebcc2f6b","636b6fbd9857856b67122c68","null","","","","null","","","","key","16.66659322033944","683","312.5","","","","","","","","","","","","","","","","","","","",""
"psychophysics","249","783966","0.0-18.0-1.1","61096a6ab244ccee2220a180","6368f2eea3e9634aebcc2f6b","636b6fbd9857856b67122c68","null","","","","null","","","","key","16.666600000000713","683","312.5","","","","","","","","","","","","","291","-1","3","true","","","",""
"psychophysics","250","784072","0.0-18.0-2.1","61096a6ab244ccee2220a180","6368f2eea3e9634aebcc2f6b","636b6fbd9857856b67122c68","104","","","","77","","","","key","16.676000000000933","683","312.5","","","","","","","","","","","","","","","","","","","",""
"psychophysics","251","785075","0.0-18.0-0.2","61096a6ab244ccee2220a180","6368f2eea3e9634aebcc2f6b","636b6fbd9857856b67122c68","null","","","","null","","","","key","16.667355932202586","683","312.5","","","","","","","","","","","","","","","","","","","",""
"psychophysics","252","785579","0.0-18.0-1.2","61096a6ab244ccee2220a180","6368f2eea3e9634aebcc2f6b","636b6fbd9857856b67122c68","null","","","","null","","","","key","16.667551724139827","683","312.5","","","","","","","","","","","","","291","-1","2","true","","","",""
"psychophysics","253","786011","0.0-18.0-2.2","61096a6ab244ccee2220a180","6368f2eea3e9634aebcc2f6b","636b6fbd9857856b67122c68","426.6999999284744","","","","90","","","","key","16.667360000000336","683","312.5","","","","","","","","","","","","","","","","","","","",""
"psychophysics","254","787016","0.0-18.0-0.3","61096a6ab244ccee2220a180","6368f2eea3e9634aebcc2f6b","636b6fbd9857856b67122c68","null","","","","null","","","","key","16.666716666667103","683","312.5","","","","","","","","","","","","","","","","","","","",""
"psychophysics","255","787523","0.0-18.0-1.3","61096a6ab244ccee2220a180","6368f2eea3e9634aebcc2f6b","636b6fbd9857856b67122c68","null","","","","null","","","","key","16.667620689652313","683","312.5","","","","","","","","","","","","","291","1","4","true","","","",""
"psychophysics","256","787555","0.0-18.0-2.3","61096a6ab244ccee2220a180","6368f2eea3e9634aebcc2f6b","636b6fbd9857856b67122c68","29.300000071525574","","","","77","","","","key","16.72900000005029","683","312.5","","","","","","","","","","","","","","","","","","","",""
"psychophysics","257","788563","0.0-18.0-0.4","61096a6ab244ccee2220a180","6368f2eea3e9634aebcc2f6b","636b6fbd9857856b67122c68","null","","","","null","","","","key","16.666067796611323","683","312.5","","","","","","","","","","","","","","","","","","","",""
"psychophysics","258","789069","0.0-18.0-1.4","61096a6ab244ccee2220a180","6368f2eea3e9634aebcc2f6b","636b6fbd9857856b67122c68","null","","","","null","","","","key","16.667600000001645","683","312.5","","","","","","","","","","","","","291","-1","4","true","","","",""
"psychophysics","259","789175","0.0-18.0-2.4","61096a6ab244ccee2220a180","6368f2eea3e9634aebcc2f6b","636b6fbd9857856b67122c68","104","","","","77","","","","key","16.66679999998305","683","312.5","","","","","","","","","","","","","","","","","","","",""
"psychophysics","260","790179","0.0-18.0-0.5","61096a6ab244ccee2220a180","6368f2eea3e9634aebcc2f6b","636b6fbd9857856b67122c68","null","","","","null","","","","key","16.66625423728828","683","312.5","","","","","","","","","","","","","","","","","","","",""
"psychophysics","261","790683","0.0-18.0-1.5","61096a6ab244ccee2220a180","6368f2eea3e9634aebcc2f6b","636b6fbd9857856b67122c68","null","","","","null","","","","key","16.663799999999657","683","312.5","","","","","","","","","","","","","291","-1","5","true","","","",""
"psychophysics","262","790823","0.0-18.0-2.5","61096a6ab244ccee2220a180","6368f2eea3e9634aebcc2f6b","636b6fbd9857856b67122c68","138.5","","","","77","","","","key","16.672285714286513","683","312.5","","","","","","","","","","","","","","","","","","","",""
"psychophysics","263","791827","0.0-18.0-0.6","61096a6ab244ccee2220a180","6368f2eea3e9634aebcc2f6b","636b6fbd9857856b67122c68","null","","","","null","","","","key","16.667186440678975","683","312.5","","","","","","","","","","","","","","","","","","","",""
"psychophysics","264","792332","0.0-18.0-1.6","61096a6ab244ccee2220a180","6368f2eea3e9634aebcc2f6b","636b6fbd9857856b67122c68","null","","","","null","","","","key","16.6683666666698","683","312.5","","","","","","","","","","","","","291","1","5","true","","","",""
"psychophysics","265","792408","0.0-18.0-2.6","61096a6ab244ccee2220a180","6368f2eea3e9634aebcc2f6b","636b6fbd9857856b67122c68","73.60000002384186","","","","77","","","","key","16.649333333363757","683","312.5","","","","","","","","","","","","","","","","","","","",""
"psychophysics","266","793411","0.0-18.0-0.7","61096a6ab244ccee2220a180","6368f2eea3e9634aebcc2f6b","636b6fbd9857856b67122c68","null","","","","null","","","","key","16.668728813558612","683","312.5","","","","","","","","","","","","","","","","","","","",""
"psychophysics","267","793916","0.0-18.0-1.7","61096a6ab244ccee2220a180","6368f2eea3e9634aebcc2f6b","636b6fbd9857856b67122c68","null","","","","null","","","","key","16.667933333335288","683","312.5","","","","","","","","","","","","","291","1","2","true","","","",""
"psychophysics","268","794074","0.0-18.0-2.7","61096a6ab244ccee2220a180","6368f2eea3e9634aebcc2f6b","636b6fbd9857856b67122c68","156.20000004768372","","","","90","","","","key","16.66662499999802","683","312.5","","","","","","","","","","","","","","","","","","","",""
"psychophysics","269","795079","0.0-18.0-0.8","61096a6ab244ccee2220a180","6368f2eea3e9634aebcc2f6b","636b6fbd9857856b67122c68","null","","","","null","","","","key","16.666949152541978","683","312.5","","","","","","","","","","","","","","","","","","","",""
"psychophysics","270","795588","0.0-18.0-1.8","61096a6ab244ccee2220a180","6368f2eea3e9634aebcc2f6b","636b6fbd9857856b67122c68","null","","","","null","","","","key","16.662899999999595","683","312.5","","","","","","","","","","","","","291","1","0","true","","","",""
"psychophysics","271","796250","0.0-18.0-2.8","61096a6ab244ccee2220a180","6368f2eea3e9634aebcc2f6b","636b6fbd9857856b67122c68","661.1000000238419","","","","90","","","","key","16.66897435897651","683","312.5","","","","","","","","","","","","","","","","","","","",""
"psychophysics","272","797259","0.0-18.0-0.9","61096a6ab244ccee2220a180","6368f2eea3e9634aebcc2f6b","636b6fbd9857856b67122c68","null","","","","null","","","","key","16.666813559321117","683","312.5","","","","","","","","","","","","","","","","","","","",""
"psychophysics","273","797763","0.0-18.0-1.9","61096a6ab244ccee2220a180","6368f2eea3e9634aebcc2f6b","636b6fbd9857856b67122c68","null","","","","null","","","","key","16.669172413791692","683","312.5","","","","","","","","","","","","","291","-1","6","true","","","",""
"psychophysics","274","797962","0.0-18.0-2.9","61096a6ab244ccee2220a180","6368f2eea3e9634aebcc2f6b","636b6fbd9857856b67122c68","194.19999992847443","","","","77","","","","key","16.666727272730153","683","312.5","","","","","","","","","","","","","","","","","","","",""
"psychophysics","275","798966","0.0-18.0-0.10","61096a6ab244ccee2220a180","6368f2eea3e9634aebcc2f6b","636b6fbd9857856b67122c68","null","","","","null","","","","key","16.668433333333816","683","312.5","","","","","","","","","","","","","","","","","","","",""
"psychophysics","276","799475","0.0-18.0-1.10","61096a6ab244ccee2220a180","6368f2eea3e9634aebcc2f6b","636b6fbd9857856b67122c68","null","","","","null","","","","key","16.666689655169492","683","312.5","","","","","","","","","","","","","291","1","6","true","","","",""
"psychophysics","277","799690","0.0-18.0-2.10","61096a6ab244ccee2220a180","6368f2eea3e9634aebcc2f6b","636b6fbd9857856b67122c68","212.5","","","","77","","","","key","16.66608333333473","683","312.5","","","","","","","","","","","","","","","","","","","",""
"psychophysics","278","800696","0.0-18.0-0.11","61096a6ab244ccee2220a180","6368f2eea3e9634aebcc2f6b","636b6fbd9857856b67122c68","null","","","","null","","","","key","16.667101694916184","683","312.5","","","","","","","","","","","","","","","","","","","",""
"psychophysics","279","801204","0.0-18.0-1.11","61096a6ab244ccee2220a180","6368f2eea3e9634aebcc2f6b","636b6fbd9857856b67122c68","null","","","","null","","","","key","16.6661666666662","683","312.5","","","","","","","","","","","","","291","1","3","true","","","",""
"psychophysics","280","804488","0.0-18.0-2.11","61096a6ab244ccee2220a180","6368f2eea3e9634aebcc2f6b","636b6fbd9857856b67122c68","3281.7000000476837","","","","77","","","","key","16.666658163264902","683","312.5","","","","","","","","","","","","","","","","","","","",""
"psychophysics","281","805496","0.0-18.0-0.12","61096a6ab244ccee2220a180","6368f2eea3e9634aebcc2f6b","636b6fbd9857856b67122c68","null","","","","null","","","","key","16.666881355930563","683","312.5","","","","","","","","","","","","","","","","","","","",""
"psychophysics","282","806003","0.0-18.0-1.12","61096a6ab244ccee2220a180","6368f2eea3e9634aebcc2f6b","636b6fbd9857856b67122c68","null","","","","null","","","","key","16.664999999998447","683","312.5","","","","","","","","","","","","","291","1","4","true","","","",""
"psychophysics","283","806467","0.0-18.0-2.12","61096a6ab244ccee2220a180","6368f2eea3e9634aebcc2f6b","636b6fbd9857856b67122c68","462.5","","","","77","","","","key","16.66681481481323","683","312.5","","","","","","","","","","","","","","","","","","","",""
"psychophysics","284","807475","0.0-18.0-0.13","61096a6ab244ccee2220a180","6368f2eea3e9634aebcc2f6b","636b6fbd9857856b67122c68","null","","","","null","","","","key","16.666474576271927","683","312.5","","","","","","","","","","","","","","","","","","","",""
"psychophysics","285","807979","0.0-18.0-1.13","61096a6ab244ccee2220a180","6368f2eea3e9634aebcc2f6b","636b6fbd9857856b67122c68","null","","","","null","","","","key","16.668206896552622","683","312.5","","","","","","","","","","","","","291","-1","5","true","","","",""
"psychophysics","286","808084","0.0-18.0-2.13","61096a6ab244ccee2220a180","6368f2eea3e9634aebcc2f6b","636b6fbd9857856b67122c68","90.10000002384186","","","","77","","","","key","16.673833333324485","683","312.5","","","","","","","","","","","","","","","","","","","",""
"psychophysics","287","809093","0.0-18.0-0.14","61096a6ab244ccee2220a180","6368f2eea3e9634aebcc2f6b","636b6fbd9857856b67122c68","null","","","","null","","","","key","16.666118644069392","683","312.5","","","","","","","","","","","","","","","","","","","",""
"psychophysics","288","809596","0.0-18.0-1.14","61096a6ab244ccee2220a180","6368f2eea3e9634aebcc2f6b","636b6fbd9857856b67122c68","null","","","","null","","","","key","16.668413793106147","683","312.5","","","","","","","","","","","","","291","1","6","true","","","",""
"psychophysics","289","809706","0.0-18.0-2.14","61096a6ab244ccee2220a180","6368f2eea3e9634aebcc2f6b","636b6fbd9857856b67122c68","104.5","","","","77","","","","key","16.666500000011485","683","312.5","","","","","","","","","","","","","","","","","","","",""
"psychophysics","290","810713","0.0-18.0-0.15","61096a6ab244ccee2220a180","6368f2eea3e9634aebcc2f6b","636b6fbd9857856b67122c68","null","","","","null","","","","key","16.665677966100116","683","312.5","","","","","","","","","","","","","","","","","","","",""
"psychophysics","291","811219","0.0-18.0-1.15","61096a6ab244ccee2220a180","6368f2eea3e9634aebcc2f6b","636b6fbd9857856b67122c68","null","","","","null","","","","key","16.665866666667473","683","312.5","","","","","","","","","","","","","291","-1","6","true","","","",""
"psychophysics","292","811293","0.0-18.0-2.15","61096a6ab244ccee2220a180","6368f2eea3e9634aebcc2f6b","636b6fbd9857856b67122c68","71.29999995231628","","","","77","","","","key","16.69000000002173","683","312.5","","","","","","","","","","","","","","","","","","","",""
"psychophysics","293","812296","0.0-18.0-0.16","61096a6ab244ccee2220a180","6368f2eea3e9634aebcc2f6b","636b6fbd9857856b67122c68","null","","","","null","","","","key","16.667796610169887","683","312.5","","","","","","","","","","","","","","","","","","","",""
"psychophysics","294","812804","0.0-18.0-1.16","61096a6ab244ccee2220a180","6368f2eea3e9634aebcc2f6b","636b6fbd9857856b67122c68","null","","","","null","","","","key","16.667699999998636","683","312.5","","","","","","","","","","","","","291","-1","0","true","","","",""
"psychophysics","295","813198","0.0-18.0-2.16","61096a6ab244ccee2220a180","6368f2eea3e9634aebcc2f6b","636b6fbd9857856b67122c68","391.1999999284744","","","","90","","","","key","16.66668181818254","683","312.5","","","","","","","","","","","","","","","","","","","",""
"psychophysics","296","814203","0.0-18.0-0.17","61096a6ab244ccee2220a180","6368f2eea3e9634aebcc2f6b","636b6fbd9857856b67122c68","null","","","","null","","","","key","16.667116666666697","683","312.5","","","","","","","","","","","","","","","","","","","",""
"psychophysics","297","814708","0.0-18.0-1.17","61096a6ab244ccee2220a180","6368f2eea3e9634aebcc2f6b","636b6fbd9857856b67122c68","null","","","","null","","","","key","16.667206896549285","683","312.5","","","","","","","","","","","","","291","1","0","true","","","",""
"psychophysics","298","815644","0.0-18.0-2.17","61096a6ab244ccee2220a180","6368f2eea3e9634aebcc2f6b","636b6fbd9857856b67122c68","934.7000000476837","","","","90","","","","key","16.66620000000112","683","312.5","","","","","","","","","","","","","","","","","","","",""
"psychophysics","299","816649","0.0-18.0-0.18","61096a6ab244ccee2220a180","6368f2eea3e9634aebcc2f6b","636b6fbd9857856b67122c68","null","","","","null","","","","key","16.667583333334186","683","312.5","","","","","","","","","","","","","","","","","","","",""
"psychophysics","300","817155","0.0-18.0-1.18","61096a6ab244ccee2220a180","6368f2eea3e9634aebcc2f6b","636b6fbd9857856b67122c68","null","","","","null","","","","key","16.663172413791724","683","312.5","","","","","","","","","","","","","291","-1","4","true","","","",""
"psychophysics","301","817330","0.0-18.0-2.18","61096a6ab244ccee2220a180","6368f2eea3e9634aebcc2f6b","636b6fbd9857856b67122c68","172.5","","","","77","","","","key","16.66544444445107","683","312.5","","","","","","","","","","","","","","","","","","","",""
"psychophysics","302","818339","0.0-18.0-0.19","61096a6ab244ccee2220a180","6368f2eea3e9634aebcc2f6b","636b6fbd9857856b67122c68","null","","","","null","","","","key","16.667216666665627","683","312.5","","","","","","","","","","","","","","","","","","","",""
"psychophysics","303","818843","0.0-18.0-1.19","61096a6ab244ccee2220a180","6368f2eea3e9634aebcc2f6b","636b6fbd9857856b67122c68","null","","","","null","","","","key","16.6665517241405","683","312.5","","","","","","","","","","","","","291","-1","2","true","","","",""
"psychophysics","304","819309","0.0-18.0-2.19","61096a6ab244ccee2220a180","6368f2eea3e9634aebcc2f6b","636b6fbd9857856b67122c68","463.5","","","","90","","","","key","16.668629629628008","683","312.5","","","","","","","","","","","","","","","","","","","",""
"psychophysics","305","820312","0.0-18.0-0.20","61096a6ab244ccee2220a180","6368f2eea3e9634aebcc2f6b","636b6fbd9857856b67122c68","null","","","","null","","","","key","16.666983050848675","683","312.5","","","","","","","","","","","","","","","","","","","",""
"psychophysics","306","820819","0.0-18.0-1.20","61096a6ab244ccee2220a180","6368f2eea3e9634aebcc2f6b","636b6fbd9857856b67122c68","null","","","","null","","","","key","16.66763333333268","683","312.5","","","","","","","","","","","","","291","1","3","true","","","",""
"psychophysics","307","820841","0.0-18.0-2.20","61096a6ab244ccee2220a180","6368f2eea3e9634aebcc2f6b","636b6fbd9857856b67122c68","19.899999976158142","","","","77","","","","key","NaN","683","312.5","","","","","","","","","","","","","","","","","","","",""
"psychophysics","308","821845","0.0-18.0-0.21","61096a6ab244ccee2220a180","6368f2eea3e9634aebcc2f6b","636b6fbd9857856b67122c68","null","","","","null","","","","key","16.66642372881386","683","312.5","","","","","","","","","","","","","","","","","","","",""
"psychophysics","309","822349","0.0-18.0-1.21","61096a6ab244ccee2220a180","6368f2eea3e9634aebcc2f6b","636b6fbd9857856b67122c68","null","","","","null","","","","key","16.66679999999857","683","312.5","","","","","","","","","","","","","291","1","5","true","","","",""
"psychophysics","310","822847","0.0-18.0-2.21","61096a6ab244ccee2220a180","6368f2eea3e9634aebcc2f6b","636b6fbd9857856b67122c68","495.3000000715256","","","","77","","","","key","16.666642857141728","683","312.5","","","","","","","","","","","","","","","","","","","",""
"psychophysics","311","823862","0.0-18.0-0.22","61096a6ab244ccee2220a180","6368f2eea3e9634aebcc2f6b","636b6fbd9857856b67122c68","null","","","","null","","","","key","16.668533333332743","683","312.5","","","","","","","","","","","","","","","","","","","",""
"psychophysics","312","824378","0.0-18.0-1.22","61096a6ab244ccee2220a180","6368f2eea3e9634aebcc2f6b","636b6fbd9857856b67122c68","null","","","","null","","","","key","16.667299999999038","683","312.5","","","","","","","","","","","","","291","-1","3","true","","","",""
"psychophysics","313","824634","0.0-18.0-2.22","61096a6ab244ccee2220a180","6368f2eea3e9634aebcc2f6b","636b6fbd9857856b67122c68","249.59999990463257","","","","77","","","","key","16.66599999999938","683","312.5","","","","","","","","","","","","","","","","","","","",""
"psychophysics","314","825645","0.0-18.0-0.23","61096a6ab244ccee2220a180","6368f2eea3e9634aebcc2f6b","636b6fbd9857856b67122c68","null","","","","null","","","","key","16.66598305084853","683","312.5","","","","","","","","","","","","","","","","","","","",""
"psychophysics","315","826159","0.0-18.0-1.23","61096a6ab244ccee2220a180","6368f2eea3e9634aebcc2f6b","636b6fbd9857856b67122c68","null","","","","null","","","","key","16.66506666666828","683","312.5","","","","","","","","","","","","","291","1","2","true","","","",""
"psychophysics","316","826588","0.0-18.0-2.23","61096a6ab244ccee2220a180","6368f2eea3e9634aebcc2f6b","636b6fbd9857856b67122c68","426.60000002384186","","","","90","","","","key","16.668080000001936","683","312.5","","","","","","","","","","","","","","","","","","","",""
"psychophysics","317","827595","0.0-18.0-0.24","61096a6ab244ccee2220a180","6368f2eea3e9634aebcc2f6b","636b6fbd9857856b67122c68","null","","","","null","","","","key","16.667288135593143","683","312.5","","","","","","","","","","","","","","","","","","","",""
"psychophysics","318","828112","0.0-18.0-1.24","61096a6ab244ccee2220a180","6368f2eea3e9634aebcc2f6b","636b6fbd9857856b67122c68","null","","","","null","","","","key","16.666600000000713","683","312.5","","","","","","","","","","","","","291","-1","4","true","","","",""
"psychophysics","319","828232","0.0-18.0-2.24","61096a6ab244ccee2220a180","6368f2eea3e9634aebcc2f6b","636b6fbd9857856b67122c68","112.90000009536743","","","","77","","","","key","16.663142857141793","683","312.5","","","","","","","","","","","","","","","","","","","",""
"psychophysics","320","829245","0.0-18.0-0.25","61096a6ab244ccee2220a180","6368f2eea3e9634aebcc2f6b","636b6fbd9857856b67122c68","null","","","","null","","","","key","16.665305084744233","683","312.5","","","","","","","","","","","","","","","","","","","",""
"psychophysics","321","829760","0.0-18.0-1.25","61096a6ab244ccee2220a180","6368f2eea3e9634aebcc2f6b","636b6fbd9857856b67122c68","null","","","","null","","","","key","16.67103333333507","683","312.5","","","","","","","","","","","","","291","1","6","true","","","",""
"psychophysics","322","829909","0.0-18.0-2.25","61096a6ab244ccee2220a180","6368f2eea3e9634aebcc2f6b","636b6fbd9857856b67122c68","146.20000004768372","","","","77","","","","key","16.675625000003492","683","312.5","","","","","","","","","","","","","","","","","","","",""
"psychophysics","323","830912","0.0-18.0-0.26","61096a6ab244ccee2220a180","6368f2eea3e9634aebcc2f6b","636b6fbd9857856b67122c68","null","","","","null","","","","key","16.666084745762696","683","312.5","","","","","","","","","","","","","","","","","","","",""
"psychophysics","324","831428","0.0-18.0-1.26","61096a6ab244ccee2220a180","6368f2eea3e9634aebcc2f6b","636b6fbd9857856b67122c68","null","","","","null","","","","key","16.66689999999944","683","312.5","","","","","","","","","","","","","291","1","0","true","","","",""
"psychophysics","325","831766","0.0-18.0-2.26","61096a6ab244ccee2220a180","6368f2eea3e9634aebcc2f6b","636b6fbd9857856b67122c68","331.8000000715256","","","","90","","","","key","16.66984999999986","683","312.5","","","","","","","","","","","","","","","","","","","",""
"psychophysics","326","832773","0.0-18.0-0.27","61096a6ab244ccee2220a180","6368f2eea3e9634aebcc2f6b","636b6fbd9857856b67122c68","null","","","","null","","","","key","16.6655932203393","683","312.5","","","","","","","","","","","","","","","","","","","",""
"psychophysics","327","833278","0.0-18.0-1.27","61096a6ab244ccee2220a180","6368f2eea3e9634aebcc2f6b","636b6fbd9857856b67122c68","null","","","","null","","","","key","16.66575862069068","683","312.5","","","","","","","","","","","","","291","-1","2","true","","","",""
"psychophysics","328","834026","0.0-18.0-2.27","61096a6ab244ccee2220a180","6368f2eea3e9634aebcc2f6b","636b6fbd9857856b67122c68","741.6000000238419","","","","90","","","","key","16.66690909091002","683","312.5","","","","","","","","","","","","","","","","","","","",""
"psychophysics","329","835028","0.0-18.0-0.28","61096a6ab244ccee2220a180","6368f2eea3e9634aebcc2f6b","636b6fbd9857856b67122c68","null","","","","null","","","","key","16.66808474576298","683","312.5","","","","","","","","","","","","","","","","","","","",""
"psychophysics","330","835545","0.0-18.0-1.28","61096a6ab244ccee2220a180","6368f2eea3e9634aebcc2f6b","636b6fbd9857856b67122c68","null","","","","null","","","","key","16.667966666666324","683","312.5","","","","","","","","","","","","","291","-1","0","true","","","",""
