"trial_type","trial_index","time_elapsed","internal_node_id","PROLIFIC_PID","STUDY_ID","SESSION_ID","rt","stimulus","button_pressed","success","key_press","responses","isData","view_history","response_type","avg_frame_time","center_x","center_y","isSC","stim_side","trial_luminance","step_size","nReversal","correct","prev_ans","isThreshold","SC_threshold","final_threshold","isLuminance","FF_luminance","luminance","stimSide","ISInt","isFF","question_order","isSPQ","isCAPS","isAQ"
"pavlovia","0","7","0.0-0.0","57ab1dd9082d1f00013d5c3f","6368f2eea3e9634aebcc2f6b","636b6fde741110ae8d95e39c","","","","","","","","","","","","","","","","","","","","","","","","","","","","","","","",""
"html-button-response","1","27475","0.0-1.0","57ab1dd9082d1f00013d5c3f","6368f2eea3e9634aebcc2f6b","636b6fde741110ae8d95e39c","27467","<div style='background-color: white; width:60%; margin: auto; padding: 50px; text-align: justify; text-justify: inter-word; margin-bottom: 20px;'><h1 style='text-align: center;'>Consent Form</h1><p>Please read this consent form carefully before deciding whether you would like to participate in this study. You have to be 18 years old or older to participate to this study.</p><p style='text-decoration: underline;'>Participation is voluntary:</p><p>It is your choice whether or not to participate in this research. If you choose to participate, you may change your mind and leave the study at any time. Refusal to participate or stopping your participation will involve no penalty or loss of benefits to which you are otherwise entitled.</p><p style='text-decoration: underline;'>Purpose of the Study:</p><p>To understand the mechanisms underlying human perception.</p><p style='text-decoration: underline;'>What you will do in this study:</p><p>You will be presented with a series of visual images and then you will press buttons on the keyboard of your computer to respond to simple questions about the images (e.g. Were one or two images presented?). In addition, you will be asked to complete a questionnaire concerning your beliefs and everyday mental and perceptual experiences.'</p><p style='text-decoration: underline;'> Time Required:</p><p>The study will take 40 minutes to complete. </p><p style='text-decoration: underline;'>Risks:</p><p>There are no anticipated risks associated with participating in this study that are beyond those experienced in everyday life. </p><p style='text-decoration: underline;'>Benefits:</p><p>There are no benefits to you in participating in the study. However, this study may lead to a better understanding of how different kinds of visual information are used.</p><p style='text-decoration: underline;'>Compensation:</p><p>You will be paid US$6.6/hour. </p><p style='text-decoration: underline;'>Privacy and Confidentiality:</p><p>Your participation in this study will be anonymous. No personal information about your name or identity will be asked or recorded. This anonymous data will be stored for several years and may be used for a variety of research purposes. The overall results of the study may be published, or the data files may be shared with other researchers, but your identity will not be revealed in any way. The online services we are using for this study may temporarily store your data, but this data will be downloaded and then promptly deleted from those services.Your data will not be permanently associated with your name, IP address, or any other identifiable information (e.g., your information will only be connected to your payment, not to any of your responses), though they may be temporarily stored together before we download and separate them. Even so, no guarantee of internet survey security can be given because, although unlikely, transmissions can be intercepted and IP addresses can be identified. The anonymous data may be shared publicly (for example, in conjunction with a resulting academic publication).</p><p style='text-decoration: underline;'>Participation and Withdrawal:</p><p>Your participation in this study is completely voluntary. You may stop responding to the stimuli or stop answering questions if you so choose and without penalty by exiting the full screen mode, closing this tab of your browser or redirecting it to a different website.</p><p style='text-decoration: underline;'>Contact Info of the Researcher: </p><p>If you have questions about this study, or if you would like to talk to the research team, please contact David Melcher (david.melcher@nyu.edu, md5050@nyu.edu) at the Perception and Active Cognition Laboratory, New York University Abu Dhabi, Computational Research Building, Saadiyat Island, Abu Dhabi, UAE.This research has been reviewed by the New York University Abu Dhabi Institutional Review Board (NYUAD IRB). To contact about your rights in this research, for questions, suggestions, or complaints that are not addressed by the researchers, please email IRBnyuad@nyu.edu, or call the NYUAD IRB at +971 2 628 4313. </p></div>","0","","","","","","","","","","","","","","","","","","","","","","","","","","","","",""
"fullscreen","2","37838","0.0-2.0","57ab1dd9082d1f00013d5c3f","6368f2eea3e9634aebcc2f6b","636b6fde741110ae8d95e39c","","","","true","","","","","","","","","","","","","","","","","","","","","","","","","","","",""
"html-keyboard-response","3","86157","0.0-3.0","57ab1dd9082d1f00013d5c3f","6368f2eea3e9634aebcc2f6b","636b6fde741110ae8d95e39c","48318","<p>Welcome !</p><p>READ CAREFULLY THE FOLLOWING INDICATIONS:</p><p>From this moment you have ~40 minutes to complete the experiment.</p><p>During the experiment you will be prompted to take several breaks. Each break should not last longer than 2-3 minutes.</p><p>Make sure that your computer is plugged in and it's not running on battery power, even if the battery is already fully charged.</p><p>Turn off your phone and music, make sure that you are in a quiet room and that you will not be distracted for the next hour.</p><p>Failure to comply with the instructions and indications provided during the experiment will most likely result in the rejection of your data.<p>Press the spacebar to start.</p>","","","32","","","","","","","","","","","","","","","","","","","","","","","","","","",""
"survey-html-form","4","95278","0.0-4.0","57ab1dd9082d1f00013d5c3f","6368f2eea3e9634aebcc2f6b","636b6fde741110ae8d95e39c","9119.5","","","","","{""age"":""51"",""sex"":""f""}","true","","","","","","","","","","","","","","","","","","","","","","","","",""
"instructions","5","149083","0.0-5.0","57ab1dd9082d1f00013d5c3f","6368f2eea3e9634aebcc2f6b","636b6fde741110ae8d95e39c","53804","","","","","","","[{""page_index"":0,""viewing_time"":37034.200000000186},{""page_index"":1,""viewing_time"":8836.700000000186},{""page_index"":2,""viewing_time"":7932.5}]","","","","","","","","","","","","","","","","","","","","","","","",""
"psychophysics","6","151330","0.0-6.0-0.0","57ab1dd9082d1f00013d5c3f","6368f2eea3e9634aebcc2f6b","636b6fde741110ae8d95e39c","1240.4000000003725","","","","39","","","","key","16.665696296296343","768","357","true","-1","180","30","0","1","","","","","","","","","","","","","",""
"psychophysics","7","152374","0.0-6.0-0.1","57ab1dd9082d1f00013d5c3f","6368f2eea3e9634aebcc2f6b","636b6fde741110ae8d95e39c","36.09999999962747","","","","37","","","","key","16.671934426229228","768","357","true","-1","210","30","0","-1","1","","","","","","","","","","","","",""
"psychophysics","8","153383","0.0-6.0-0.2","57ab1dd9082d1f00013d5c3f","6368f2eea3e9634aebcc2f6b","636b6fde741110ae8d95e39c","4.7999999998137355","","","","39","","","","key","16.671683333333444","768","357","true","1","210","24","1","-1","-1","","","","","","","","","","","","",""
"psychophysics","9","156530","0.0-6.0-0.3","57ab1dd9082d1f00013d5c3f","6368f2eea3e9634aebcc2f6b","636b6fde741110ae8d95e39c","2138.5","","","","39","","","","key","16.66848404255313","768","357","true","1","186","24","1","-1","-1","","","","","","","","","","","","",""
"psychophysics","10","158289","0.0-6.0-0.4","57ab1dd9082d1f00013d5c3f","6368f2eea3e9634aebcc2f6b","636b6fde741110ae8d95e39c","749.7999999998137","","","","39","","","","key","16.66777884615378","768","357","true","1","186","24","1","-1","-1","","","","","","","","","","","","",""
"psychophysics","11","159920","0.0-6.0-0.5","57ab1dd9082d1f00013d5c3f","6368f2eea3e9634aebcc2f6b","636b6fde741110ae8d95e39c","621","","","","39","","","","key","16.667979381443242","768","357","true","1","162","24","1","-1","-1","","","","","","","","","","","","",""
"psychophysics","12","161441","0.0-6.0-0.6","57ab1dd9082d1f00013d5c3f","6368f2eea3e9634aebcc2f6b","636b6fde741110ae8d95e39c","518.6000000005588","","","","37","","","","key","16.671788888888678","768","357","true","-1","162","24","1","-1","-1","","","","","","","","","","","","",""
"psychophysics","13","163170","0.0-6.0-0.7","57ab1dd9082d1f00013d5c3f","6368f2eea3e9634aebcc2f6b","636b6fde741110ae8d95e39c","719.5999999996275","","","","37","","","","key","16.670883495145585","768","357","true","-1","138","24","1","-1","-1","","","","","","","","","","","","",""
"psychophysics","14","164817","0.0-6.0-0.8","57ab1dd9082d1f00013d5c3f","6368f2eea3e9634aebcc2f6b","636b6fde741110ae8d95e39c","645.0999999996275","","","","37","","","","key","16.67027551020384","768","357","true","-1","138","24","1","-1","-1","","","","","","","","","","","","",""
"psychophysics","15","166915","0.0-6.0-0.9","57ab1dd9082d1f00013d5c3f","6368f2eea3e9634aebcc2f6b","636b6fde741110ae8d95e39c","1093","","","","39","","","","key","16.6710560000001","768","357","true","-1","129","19.2","2","1","-1","","","","","","","","","","","","",""
"psychophysics","16","168620","0.0-6.0-0.10","57ab1dd9082d1f00013d5c3f","6368f2eea3e9634aebcc2f6b","636b6fde741110ae8d95e39c","697","","","","39","","","","key","16.6695841584161","768","357","true","1","148.2","19.2","2","-1","1","","","","","","","","","","","","",""
"psychophysics","17","170312","0.0-6.0-0.11","57ab1dd9082d1f00013d5c3f","6368f2eea3e9634aebcc2f6b","636b6fde741110ae8d95e39c","690","","","","37","","","","key","16.66798019801995","768","357","true","-1","148.2","15.36","3","-1","-1","","","","","","","","","","","","",""
"psychophysics","18","172501","0.0-6.0-0.12","57ab1dd9082d1f00013d5c3f","6368f2eea3e9634aebcc2f6b","636b6fde741110ae8d95e39c","1185.2000000001863","","","","37","","","","key","16.667723076923107","768","357","true","-1","132.83999999999997","15.36","3","-1","-1","","","","","","","","","","","","",""
"psychophysics","19","174422","0.0-6.0-0.13","57ab1dd9082d1f00013d5c3f","6368f2eea3e9634aebcc2f6b","636b6fde741110ae8d95e39c","915.7999999998137","","","","37","","","","key","16.666482456140283","768","357","true","-1","132.83999999999997","15.36","3","-1","-1","","","","","","","","","","","","",""
"psychophysics","20","176666","0.0-6.0-0.14","57ab1dd9082d1f00013d5c3f","6368f2eea3e9634aebcc2f6b","636b6fde741110ae8d95e39c","1241","","","","39","","","","key","16.670425373134325","768","357","true","-1","129","12.287999999999998","4","1","-1","","","","","","","","","","","","",""
"psychophysics","21","178542","0.0-6.0-0.15","57ab1dd9082d1f00013d5c3f","6368f2eea3e9634aebcc2f6b","636b6fde741110ae8d95e39c","868.9000000003725","","","","39","","","","key","16.671396396396606","768","357","true","1","141.288","12.287999999999998","4","-1","1","","","","","","","","","","","","",""
"psychophysics","22","180658","0.0-6.0-0.16","57ab1dd9082d1f00013d5c3f","6368f2eea3e9634aebcc2f6b","636b6fde741110ae8d95e39c","1111.2000000001863","","","","39","","","","key","16.66753174603172","768","357","true","1","141.288","9.8304","5","-1","-1","","","","","","","","","","","","",""
"psychophysics","23","182773","0.0-6.0-0.17","57ab1dd9082d1f00013d5c3f","6368f2eea3e9634aebcc2f6b","636b6fde741110ae8d95e39c","1114.3999999994412","","","","37","","","","key","16.6680714285714","768","357","true","-1","131.4576","9.8304","5","-1","-1","","","","","","","","","","","","",""
"psychophysics","24","185606","0.0-6.0-0.18","57ab1dd9082d1f00013d5c3f","6368f2eea3e9634aebcc2f6b","636b6fde741110ae8d95e39c","1830.8999999994412","","","","39","","","","key","16.669331360946735","768","357","true","1","131.4576","9.8304","5","-1","-1","","","","","","","","","","","","",""
"psychophysics","25","187946","0.0-6.0-0.19","57ab1dd9082d1f00013d5c3f","6368f2eea3e9634aebcc2f6b","636b6fde741110ae8d95e39c","1337.8999999994412","","","","39","","","","key","16.66813571428564","768","357","true","-1","129","7.864319999999999","6","1","-1","","","","","","","","","","","","",""
"psychophysics","26","189939","0.0-6.0-0.20","57ab1dd9082d1f00013d5c3f","6368f2eea3e9634aebcc2f6b","636b6fde741110ae8d95e39c","983.7000000001863","","","","39","","","","key","16.66977966101707","768","357","true","1","136.86432","7.864319999999999","6","-1","1","","","","","","","","","","","","",""
"psychophysics","27","192166","0.0-6.0-0.21","57ab1dd9082d1f00013d5c3f","6368f2eea3e9634aebcc2f6b","636b6fde741110ae8d95e39c","1225","","","","39","","","","key","16.667488721804386","768","357","true","1","136.86432","6.291456","7","-1","-1","","","","","","","","","","","","",""
"psychophysics","28","194282","0.0-6.0-0.22","57ab1dd9082d1f00013d5c3f","6368f2eea3e9634aebcc2f6b","636b6fde741110ae8d95e39c","1110.7999999998137","","","","37","","","","key","16.667500000000082","768","357","true","-1","130.57286399999998","6.291456","7","-1","-1","","","","","","","","","","","","",""
"psychophysics","29","197108","0.0-6.0-0.23","57ab1dd9082d1f00013d5c3f","6368f2eea3e9634aebcc2f6b","636b6fde741110ae8d95e39c","1816.5999999996275","","","","37","","","","key","16.666339285714326","768","357","true","-1","130.57286399999998","6.291456","7","-1","-1","","","","","","","","","","","","",""
"psychophysics","30","198848","0.0-6.0-0.24","57ab1dd9082d1f00013d5c3f","6368f2eea3e9634aebcc2f6b","636b6fde741110ae8d95e39c","736.9000000003725","","","","39","","","","key","16.66921153846152","768","357","true","1","129","6.291456","7","-1","-1","","","","","","","","","","","","",""
"psychophysics","31","201196","0.0-6.0-0.25","57ab1dd9082d1f00013d5c3f","6368f2eea3e9634aebcc2f6b","636b6fde741110ae8d95e39c","1345.5","","","","37","","","","key","16.667299999999937","768","357","true","1","129","5.033164800000001","8","1","-1","","","","","","","","","","","","",""
"psychophysics","32","203764","0.0-6.0-0.26","57ab1dd9082d1f00013d5c3f","6368f2eea3e9634aebcc2f6b","636b6fde741110ae8d95e39c","1561","","","","37","","","","key","16.665869281045733","768","357","true","1","134.0331648","5.033164800000001","8","1","1","","","","","","","","","","","","",""
"psychophysics","33","205481","0.0-6.0-0.27","57ab1dd9082d1f00013d5c3f","6368f2eea3e9634aebcc2f6b","636b6fde741110ae8d95e39c","710.5999999996275","","","","37","","","","key","16.670421568627468","768","357","true","-1","139.06632960000002","5.033164800000001","8","-1","1","","","","","","","","","","","","",""
"psychophysics","34","207576","0.0-6.0-0.28","57ab1dd9082d1f00013d5c3f","6368f2eea3e9634aebcc2f6b","636b6fde741110ae8d95e39c","1084.4000000003725","","","","39","","","","key","16.667693548387053","768","357","true","1","139.06632960000002","4.0265318400000005","9","-1","-1","","","","","","","","","","","","",""
"psychophysics","35","209700","0.0-6.0-0.29","57ab1dd9082d1f00013d5c3f","6368f2eea3e9634aebcc2f6b","636b6fde741110ae8d95e39c","1120","","","","39","","","","key","16.66902362204713","768","357","true","1","135.03979776000003","4.0265318400000005","9","-1","-1","","","","","","","","","","","","",""
"psychophysics","36","211626","0.0-6.0-0.30","57ab1dd9082d1f00013d5c3f","6368f2eea3e9634aebcc2f6b","636b6fde741110ae8d95e39c","919.5","","","","37","","","","key","16.667964912280837","768","357","true","-1","135.03979776000003","4.0265318400000005","9","-1","-1","","","","","","","","","","","","",""
"psychophysics","37","213916","0.0-6.0-0.31","57ab1dd9082d1f00013d5c3f","6368f2eea3e9634aebcc2f6b","636b6fde741110ae8d95e39c","1281.1000000005588","","","","39","","","","key","16.67105839416078","768","357","true","1","131.01326592000004","4.0265318400000005","9","-1","-1","","","","","","","","","","","","",""
"psychophysics","38","216243","0.0-6.0-0.32","57ab1dd9082d1f00013d5c3f","6368f2eea3e9634aebcc2f6b","636b6fde741110ae8d95e39c","1319.7000000001863","","","","37","","","","key","16.667408759124072","768","357","true","-1","131.01326592000004","4.0265318400000005","9","-1","-1","","","","","","","","","","","","",""
"psychophysics","39","218154","0.0-6.0-0.33","57ab1dd9082d1f00013d5c3f","6368f2eea3e9634aebcc2f6b","636b6fde741110ae8d95e39c","902.8999999994412","","","","37","","","","key","16.670600000000054","768","357","true","1","129","3.2212254720000004","10","1","-1","","","","","","","","","","","","",""
"psychophysics","40","220509","0.0-6.0-0.34","57ab1dd9082d1f00013d5c3f","6368f2eea3e9634aebcc2f6b","636b6fde741110ae8d95e39c","1349.800000000745","","","","39","","","","key","16.668978571428617","768","357","true","1","132.22122547200001","3.2212254720000004","10","-1","1","","","","","","","","","","","","",""
"psychophysics","41","222442","0.0-6.0-0.35","57ab1dd9082d1f00013d5c3f","6368f2eea3e9634aebcc2f6b","636b6fde741110ae8d95e39c","931.4000000003725","","","","39","","","","key","16.671208695652034","768","357","true","-1","132.22122547200001","2.5769803776000004","11","1","-1","","","","","","","","","","","","",""
"psychophysics","42","224555","0.0-6.0-0.36","57ab1dd9082d1f00013d5c3f","6368f2eea3e9634aebcc2f6b","636b6fde741110ae8d95e39c","1104.7999999998137","","","","37","","","","key","16.67114285714296","768","357","true","1","134.7982058496","2.5769803776000004","11","1","1","","","","","","","","","","","","",""
"psychophysics","43","226416","0.0-6.0-0.37","57ab1dd9082d1f00013d5c3f","6368f2eea3e9634aebcc2f6b","636b6fde741110ae8d95e39c","856.9000000003725","","","","39","","","","key","16.66806306306305","768","357","true","1","137.3751862272","2.5769803776000004","11","-1","1","","","","","","","","","","","","",""
"psychophysics","44","228368","0.0-6.0-0.38","57ab1dd9082d1f00013d5c3f","6368f2eea3e9634aebcc2f6b","636b6fde741110ae8d95e39c","951.2999999998137","","","","37","","","","key","16.6684224137932","768","357","true","-1","137.3751862272","2.0615843020800004","12","-1","-1","","","","","","","","","","","","",""
"psychophysics","45","230382","0.0-6.0-0.39","57ab1dd9082d1f00013d5c3f","6368f2eea3e9634aebcc2f6b","636b6fde741110ae8d95e39c","1009","","","","37","","","","key","16.66836666666665","768","357","true","-1","135.31360192512","2.0615843020800004","12","-1","-1","","","","","","","","","","","","",""
"html-keyboard-response","46","236763","0.0-7.0","57ab1dd9082d1f00013d5c3f","6368f2eea3e9634aebcc2f6b","636b6fde741110ae8d95e39c","6378.399999999441","<p>Well Done !</p><p>Prepare for a new block.</p><p>DON'T EXIT THE FULL SCREEN MODE</p><p>Press the Spacebar to start.</p>","","","32","","","","","","","","","","","","","","","true","134.105105502208","","","","","","","","","","",""
"psychophysics","47","241114","0.0-8.0-0.0","57ab1dd9082d1f00013d5c3f","6368f2eea3e9634aebcc2f6b","636b6fde741110ae8d95e39c","3345.5","","","","39","","","","key","16.661735632183866","768","357","true","1","180","30","0","-1","","","","","","","","","","","","","",""
"psychophysics","48","242557","0.0-8.0-0.1","57ab1dd9082d1f00013d5c3f","6368f2eea3e9634aebcc2f6b","636b6fde741110ae8d95e39c","436.79999999981374","","","","39","","","","key","16.66763529411743","768","357","true","1","180","30","0","-1","-1","","","","","","","","","","","","",""
"psychophysics","49","244400","0.0-8.0-0.2","57ab1dd9082d1f00013d5c3f","6368f2eea3e9634aebcc2f6b","636b6fde741110ae8d95e39c","840.8999999994412","","","","39","","","","key","16.66735454545441","768","357","true","1","150","30","0","-1","-1","","","","","","","","","","","","",""
"psychophysics","50","246294","0.0-8.0-0.3","57ab1dd9082d1f00013d5c3f","6368f2eea3e9634aebcc2f6b","636b6fde741110ae8d95e39c","885.1000000005588","","","","39","","","","key","16.66814285714307","768","357","true","1","150","30","0","-1","-1","","","","","","","","","","","","",""
"psychophysics","51","247958","0.0-8.0-0.4","57ab1dd9082d1f00013d5c3f","6368f2eea3e9634aebcc2f6b","636b6fde741110ae8d95e39c","661.6999999992549","","","","37","","","","key","16.67042424242427","768","357","true","-1","129","30","0","-1","-1","","","","","","","","","","","","",""
"psychophysics","52","250122","0.0-8.0-0.5","57ab1dd9082d1f00013d5c3f","6368f2eea3e9634aebcc2f6b","636b6fde741110ae8d95e39c","1162.5","","","","39","","","","key","16.669643410852643","768","357","true","1","129","30","0","-1","-1","","","","","","","","","","","","",""
"psychophysics","53","251767","0.0-8.0-0.6","57ab1dd9082d1f00013d5c3f","6368f2eea3e9634aebcc2f6b","636b6fde741110ae8d95e39c","640.7999999998137","","","","37","","","","key","16.671959183673607","768","357","true","1","129","24","1","1","-1","","","","","","","","","","","","",""
"psychophysics","54","253751","0.0-8.0-0.7","57ab1dd9082d1f00013d5c3f","6368f2eea3e9634aebcc2f6b","636b6fde741110ae8d95e39c","974.8000000007451","","","","39","","","","key","16.66811864406795","768","357","true","1","153","24","1","-1","1","","","","","","","","","","","","",""
"psychophysics","55","255520","0.0-8.0-0.8","57ab1dd9082d1f00013d5c3f","6368f2eea3e9634aebcc2f6b","636b6fde741110ae8d95e39c","760","","","","39","","","","key","16.670876190476285","768","357","true","1","153","19.2","2","-1","-1","","","","","","","","","","","","",""
"psychophysics","56","257454","0.0-8.0-0.9","57ab1dd9082d1f00013d5c3f","6368f2eea3e9634aebcc2f6b","636b6fde741110ae8d95e39c","927.5","","","","37","","","","key","16.66731304347834","768","357","true","1","133.8","15.36","3","1","-1","","","","","","","","","","","","",""
"psychophysics","57","259498","0.0-8.0-0.10","57ab1dd9082d1f00013d5c3f","6368f2eea3e9634aebcc2f6b","636b6fde741110ae8d95e39c","1041.5999999996275","","","","37","","","","key","16.671557377049123","768","357","true","-1","149.16000000000003","15.36","3","-1","1","","","","","","","","","","","","",""
"psychophysics","58","261545","0.0-8.0-0.11","57ab1dd9082d1f00013d5c3f","6368f2eea3e9634aebcc2f6b","636b6fde741110ae8d95e39c","1039.6000000005588","","","","39","","","","key","16.669719008264405","768","357","true","1","149.16000000000003","12.287999999999998","4","-1","-1","","","","","","","","","","","","",""
"psychophysics","59","263568","0.0-8.0-0.12","57ab1dd9082d1f00013d5c3f","6368f2eea3e9634aebcc2f6b","636b6fde741110ae8d95e39c","1015.7000000001863","","","","37","","","","key","16.67084297520654","768","357","true","-1","136.872","12.287999999999998","4","-1","-1","","","","","","","","","","","","",""
"psychophysics","60","265651","0.0-8.0-0.13","57ab1dd9082d1f00013d5c3f","6368f2eea3e9634aebcc2f6b","636b6fde741110ae8d95e39c","1069.7000000001863","","","","39","","","","key","16.666249999999923","768","357","true","1","136.872","12.287999999999998","4","-1","-1","","","","","","","","","","","","",""
"psychophysics","61","267989","0.0-8.0-0.14","57ab1dd9082d1f00013d5c3f","6368f2eea3e9634aebcc2f6b","636b6fde741110ae8d95e39c","1332.0999999996275","","","","37","","","","key","16.669381294964406","768","357","true","-1","129","12.287999999999998","4","-1","-1","","","","","","","","","","","","",""
"psychophysics","62","270342","0.0-8.0-0.15","57ab1dd9082d1f00013d5c3f","6368f2eea3e9634aebcc2f6b","636b6fde741110ae8d95e39c","1349.5","","","","37","","","","key","16.66880714285736","768","357","true","-1","129","12.287999999999998","4","-1","-1","","","","","","","","","","","","",""
"psychophysics","63","272395","0.0-8.0-0.16","57ab1dd9082d1f00013d5c3f","6368f2eea3e9634aebcc2f6b","636b6fde741110ae8d95e39c","1052.0999999996275","","","","39","","","","key","16.670598360655454","768","357","true","1","129","12.287999999999998","4","-1","-1","","","","","","","","","","","","",""
"psychophysics","64","274807","0.0-8.0-0.17","57ab1dd9082d1f00013d5c3f","6368f2eea3e9634aebcc2f6b","636b6fde741110ae8d95e39c","1407.2999999998137","","","","39","","","","key","16.670930555555564","768","357","true","1","129","12.287999999999998","4","-1","-1","","","","","","","","","","","","",""
"psychophysics","65","277215","0.0-8.0-0.18","57ab1dd9082d1f00013d5c3f","6368f2eea3e9634aebcc2f6b","636b6fde741110ae8d95e39c","1405.8999999994412","","","","39","","","","key","16.670520833333285","768","357","true","-1","129","9.8304","5","1","-1","","","","","","","","","","","","",""
"psychophysics","66","279731","0.0-8.0-0.19","57ab1dd9082d1f00013d5c3f","6368f2eea3e9634aebcc2f6b","636b6fde741110ae8d95e39c","1506.6000000005588","","","","39","","","","key","16.66570666666686","768","357","true","1","138.8304","9.8304","5","-1","1","","","","","","","","","","","","",""
"psychophysics","67","282159","0.0-8.0-0.20","57ab1dd9082d1f00013d5c3f","6368f2eea3e9634aebcc2f6b","636b6fde741110ae8d95e39c","1423.2999999998137","","","","39","","","","key","16.66755555555533","768","357","true","1","138.8304","7.864319999999999","6","-1","-1","","","","","","","","","","","","",""
"psychophysics","68","285485","0.0-8.0-0.21","57ab1dd9082d1f00013d5c3f","6368f2eea3e9634aebcc2f6b","636b6fde741110ae8d95e39c","2323.800000000745","","","","37","","","","key","16.667587939698375","768","357","true","-1","130.96608","7.864319999999999","6","-1","-1","","","","","","","","","","","","",""
"psychophysics","69","288092","0.0-8.0-0.22","57ab1dd9082d1f00013d5c3f","6368f2eea3e9634aebcc2f6b","636b6fde741110ae8d95e39c","1601.199999999255","","","","39","","","","key","16.667806451612964","768","357","true","-1","130.96608","6.291456","7","1","-1","","","","","","","","","","","","",""
"psychophysics","70","290370","0.0-8.0-0.23","57ab1dd9082d1f00013d5c3f","6368f2eea3e9634aebcc2f6b","636b6fde741110ae8d95e39c","1272","","","","39","","","","key","16.67049999999975","768","357","true","1","137.25753600000002","6.291456","7","-1","1","","","","","","","","","","","","",""
"psychophysics","71","292689","0.0-8.0-0.24","57ab1dd9082d1f00013d5c3f","6368f2eea3e9634aebcc2f6b","636b6fde741110ae8d95e39c","1310.199999999255","","","","37","","","","key","16.668760869565563","768","357","true","-1","137.25753600000002","5.033164800000001","8","-1","-1","","","","","","","","","","","","",""
"psychophysics","72","294858","0.0-8.0-0.25","57ab1dd9082d1f00013d5c3f","6368f2eea3e9634aebcc2f6b","636b6fde741110ae8d95e39c","1167.4000000003725","","","","37","","","","key","16.667844961240323","768","357","true","1","132.2243712","4.0265318400000005","9","1","-1","","","","","","","","","","","","",""
"psychophysics","73","297425","0.0-8.0-0.26","57ab1dd9082d1f00013d5c3f","6368f2eea3e9634aebcc2f6b","636b6fde741110ae8d95e39c","1562.0999999996275","","","","39","","","","key","16.66965359477121","768","357","true","-1","136.25090304","4.0265318400000005","9","1","1","","","","","","","","","","","","",""
"psychophysics","74","299875","0.0-8.0-0.27","57ab1dd9082d1f00013d5c3f","6368f2eea3e9634aebcc2f6b","636b6fde741110ae8d95e39c","1447.5999999996275","","","","37","","","","key","16.665630136986106","768","357","true","-1","140.27743488","4.0265318400000005","9","-1","1","","","","","","","","","","","","",""
"psychophysics","75","302426","0.0-8.0-0.28","57ab1dd9082d1f00013d5c3f","6368f2eea3e9634aebcc2f6b","636b6fde741110ae8d95e39c","1545.2999999998137","","","","37","","","","key","16.669967105263297","768","357","true","-1","140.27743488","3.2212254720000004","10","-1","-1","","","","","","","","","","","","",""
"psychophysics","76","304957","0.0-8.0-0.29","57ab1dd9082d1f00013d5c3f","6368f2eea3e9634aebcc2f6b","636b6fde741110ae8d95e39c","1526.0999999996275","","","","37","","","","key","16.66761589403972","768","357","true","-1","137.05620940799997","3.2212254720000004","10","-1","-1","","","","","","","","","","","","",""
"psychophysics","77","307434","0.0-8.0-0.30","57ab1dd9082d1f00013d5c3f","6368f2eea3e9634aebcc2f6b","636b6fde741110ae8d95e39c","1471.300000000745","","","","37","","","","key","16.66801351351377","768","357","true","-1","137.05620940799997","3.2212254720000004","10","-1","-1","","","","","","","","","","","","",""
"psychophysics","78","309880","0.0-8.0-0.31","57ab1dd9082d1f00013d5c3f","6368f2eea3e9634aebcc2f6b","636b6fde741110ae8d95e39c","1436.6000000005588","","","","37","","","","key","16.668779310344814","768","357","true","-1","133.83498393599996","3.2212254720000004","10","-1","-1","","","","","","","","","","","","",""
"psychophysics","79","312034","0.0-8.0-0.32","57ab1dd9082d1f00013d5c3f","6368f2eea3e9634aebcc2f6b","636b6fde741110ae8d95e39c","1152.0999999996275","","","","39","","","","key","16.670078125000146","768","357","true","-1","133.83498393599996","2.5769803776000004","11","1","-1","","","","","","","","","","","","",""
"psychophysics","80","314550","0.0-8.0-0.33","57ab1dd9082d1f00013d5c3f","6368f2eea3e9634aebcc2f6b","636b6fde741110ae8d95e39c","1506.9000000003725","","","","39","","","","key","16.669366666666466","768","357","true","1","136.41196431359995","2.5769803776000004","11","-1","1","","","","","","","","","","","","",""
"psychophysics","81","317153","0.0-8.0-0.34","57ab1dd9082d1f00013d5c3f","6368f2eea3e9634aebcc2f6b","636b6fde741110ae8d95e39c","1598.7999999998137","","","","37","","","","key","16.66815384615359","768","357","true","-1","136.41196431359995","2.0615843020800004","12","-1","-1","","","","","","","","","","","","",""
"psychophysics","82","319964","0.0-8.0-0.35","57ab1dd9082d1f00013d5c3f","6368f2eea3e9634aebcc2f6b","636b6fde741110ae8d95e39c","1809.5999999996275","","","","37","","","","key","16.668413173652695","768","357","true","1","134.35038001151995","1.6492674416640005","13","1","-1","","","","","","","","","","","","",""
"psychophysics","83","322396","0.0-8.0-0.36","57ab1dd9082d1f00013d5c3f","6368f2eea3e9634aebcc2f6b","636b6fde741110ae8d95e39c","1429.7000000001863","","","","39","","","","key","16.67009655172407","768","357","true","1","135.99964745318394","1.6492674416640005","13","-1","1","","","","","","","","","","","","",""
"psychophysics","84","324881","0.0-8.0-0.37","57ab1dd9082d1f00013d5c3f","6368f2eea3e9634aebcc2f6b","636b6fde741110ae8d95e39c","1481.5","","","","37","","","","key","16.66858108108116","768","357","true","-1","135.99964745318394","1.3194139533312006","14","-1","-1","","","","","","","","","","","","",""
"psychophysics","85","327598","0.0-8.0-0.38","57ab1dd9082d1f00013d5c3f","6368f2eea3e9634aebcc2f6b","636b6fde741110ae8d95e39c","1714.699999999255","","","","37","","","","key","16.668006172839533","768","357","true","-1","134.68023349985273","1.3194139533312006","14","-1","-1","","","","","","","","","","","","",""
"psychophysics","86","329986","0.0-8.0-0.39","57ab1dd9082d1f00013d5c3f","6368f2eea3e9634aebcc2f6b","636b6fde741110ae8d95e39c","1386.4000000003725","","","","39","","","","key","16.667986013985995","768","357","true","-1","134.68023349985273","1.0555311626649604","15","1","-1","","","","","","","","","","","","",""
"html-keyboard-response","87","335438","0.0-9.0","57ab1dd9082d1f00013d5c3f","6368f2eea3e9634aebcc2f6b","636b6fde741110ae8d95e39c","5449.899999999441","<p>Well Done !</p><p>Prepare for a new block.</p><p>DON'T EXIT THE FULL SCREEN MODE</p><p>Press the Spacebar to start.</p>","","","32","","","","","","","","","","","","","","","true","135.95644008218622","","","","","","","","","","",""
"psychophysics","88","337179","0.0-10.0-0.0","57ab1dd9082d1f00013d5c3f","6368f2eea3e9634aebcc2f6b","636b6fde741110ae8d95e39c","735.8999999994412","","","","37","","","","key","16.657067307692508","768","357","true","-1","180","30","0","-1","","","","","","","","","","","","","",""
"psychophysics","89","339372","0.0-10.0-0.1","57ab1dd9082d1f00013d5c3f","6368f2eea3e9634aebcc2f6b","636b6fde741110ae8d95e39c","1188.9000000003725","","","","37","","","","key","16.670053435114518","768","357","true","-1","180","30","0","-1","-1","","","","","","","","","","","","",""
"psychophysics","90","341946","0.0-10.0-0.2","57ab1dd9082d1f00013d5c3f","6368f2eea3e9634aebcc2f6b","636b6fde741110ae8d95e39c","1567.2000000001863","","","","37","","","","key","16.668496732026327","768","357","true","-1","150","30","0","-1","-1","","","","","","","","","","","","",""
"psychophysics","91","344356","0.0-10.0-0.3","57ab1dd9082d1f00013d5c3f","6368f2eea3e9634aebcc2f6b","636b6fde741110ae8d95e39c","1408.4000000003725","","","","39","","","","key","16.665145833333455","768","357","true","1","150","30","0","-1","-1","","","","","","","","","","","","",""
"psychophysics","92","346587","0.0-10.0-0.4","57ab1dd9082d1f00013d5c3f","6368f2eea3e9634aebcc2f6b","636b6fde741110ae8d95e39c","1223.2999999998137","","","","39","","","","key","16.670045454545427","768","357","true","1","129","30","0","-1","-1","","","","","","","","","","","","",""
"psychophysics","93","348619","0.0-10.0-0.5","57ab1dd9082d1f00013d5c3f","6368f2eea3e9634aebcc2f6b","636b6fde741110ae8d95e39c","1025.2000000001863","","","","37","","","","key","16.669115702479246","768","357","true","-1","129","30","0","-1","-1","","","","","","","","","","","","",""
"psychophysics","94","350996","0.0-10.0-0.6","57ab1dd9082d1f00013d5c3f","6368f2eea3e9634aebcc2f6b","636b6fde741110ae8d95e39c","1369.2000000001863","","","","37","","","","key","16.667894366197288","768","357","true","-1","129","30","0","-1","-1","","","","","","","","","","","","",""
"psychophysics","95","352856","0.0-10.0-0.7","57ab1dd9082d1f00013d5c3f","6368f2eea3e9634aebcc2f6b","636b6fde741110ae8d95e39c","855.7999999998137","","","","39","","","","key","16.667099099099186","768","357","true","-1","129","24","1","1","-1","","","","","","","","","","","","",""
"psychophysics","96","355060","0.0-10.0-0.8","57ab1dd9082d1f00013d5c3f","6368f2eea3e9634aebcc2f6b","636b6fde741110ae8d95e39c","1201.0999999996275","","","","39","","","","key","16.66599236641218","768","357","true","1","153","24","1","-1","1","","","","","","","","","","","","",""
"psychophysics","97","357491","0.0-10.0-0.9","57ab1dd9082d1f00013d5c3f","6368f2eea3e9634aebcc2f6b","636b6fde741110ae8d95e39c","1423.5999999996275","","","","37","","","","key","16.66948965517242","768","357","true","-1","153","19.2","2","-1","-1","","","","","","","","","","","","",""
"psychophysics","98","359852","0.0-10.0-0.10","57ab1dd9082d1f00013d5c3f","6368f2eea3e9634aebcc2f6b","636b6fde741110ae8d95e39c","1354","","","","39","","","","key","16.667835714285943","768","357","true","1","133.8","19.2","2","-1","-1","","","","","","","","","","","","",""
"psychophysics","99","361904","0.0-10.0-0.11","57ab1dd9082d1f00013d5c3f","6368f2eea3e9634aebcc2f6b","636b6fde741110ae8d95e39c","1045.800000000745","","","","39","","","","key","16.666813008130408","768","357","true","1","133.8","19.2","2","-1","-1","","","","","","","","","","","","",""
"psychophysics","100","363892","0.0-10.0-0.12","57ab1dd9082d1f00013d5c3f","6368f2eea3e9634aebcc2f6b","636b6fde741110ae8d95e39c","986.5","","","","37","","","","key","16.66900000000033","768","357","true","-1","129","19.2","2","-1","-1","","","","","","","","","","","","",""
"psychophysics","101","365844","0.0-10.0-0.13","57ab1dd9082d1f00013d5c3f","6368f2eea3e9634aebcc2f6b","636b6fde741110ae8d95e39c","945.7000000001863","","","","37","","","","key","16.66752586206913","768","357","true","-1","129","19.2","2","-1","-1","","","","","","","","","","","","",""
"psychophysics","102","368011","0.0-10.0-0.14","57ab1dd9082d1f00013d5c3f","6368f2eea3e9634aebcc2f6b","636b6fde741110ae8d95e39c","1160.300000000745","","","","39","","","","key","16.666922480620123","768","357","true","1","129","19.2","2","-1","-1","","","","","","","","","","","","",""
"psychophysics","103","370075","0.0-10.0-0.15","57ab1dd9082d1f00013d5c3f","6368f2eea3e9634aebcc2f6b","636b6fde741110ae8d95e39c","1058.4000000003725","","","","37","","","","key","16.66770731707291","768","357","true","1","129","15.36","3","1","-1","","","","","","","","","","","","",""
"psychophysics","104","372378","0.0-10.0-0.16","57ab1dd9082d1f00013d5c3f","6368f2eea3e9634aebcc2f6b","636b6fde741110ae8d95e39c","1295.5999999996275","","","","37","","","","key","16.665788321167803","768","357","true","-1","144.36","15.36","3","-1","1","","","","","","","","","","","","",""
"psychophysics","105","374573","0.0-10.0-0.17","57ab1dd9082d1f00013d5c3f","6368f2eea3e9634aebcc2f6b","636b6fde741110ae8d95e39c","1189.199999999255","","","","39","","","","key","16.667496183206406","768","357","true","1","144.36","12.287999999999998","4","-1","-1","","","","","","","","","","","","",""
"psychophysics","106","376873","0.0-10.0-0.18","57ab1dd9082d1f00013d5c3f","6368f2eea3e9634aebcc2f6b","636b6fde741110ae8d95e39c","1289.7000000001863","","","","39","","","","key","16.666737226277323","768","357","true","1","132.072","12.287999999999998","4","-1","-1","","","","","","","","","","","","",""
"psychophysics","107","378952","0.0-10.0-0.19","57ab1dd9082d1f00013d5c3f","6368f2eea3e9634aebcc2f6b","636b6fde741110ae8d95e39c","1078","","","","37","","","","key","16.670479674797082","768","357","true","-1","132.072","12.287999999999998","4","-1","-1","","","","","","","","","","","","",""
"psychophysics","108","380908","0.0-10.0-0.20","57ab1dd9082d1f00013d5c3f","6368f2eea3e9634aebcc2f6b","636b6fde741110ae8d95e39c","945","","","","37","","","","key","16.67011965811949","768","357","true","1","129","9.8304","5","1","-1","","","","","","","","","","","","",""
"psychophysics","109","383076","0.0-10.0-0.21","57ab1dd9082d1f00013d5c3f","6368f2eea3e9634aebcc2f6b","636b6fde741110ae8d95e39c","1160.5","","","","37","","","","key","16.666620155038807","768","357","true","-1","138.8304","9.8304","5","-1","1","","","","","","","","","","","","",""
"psychophysics","110","385351","0.0-10.0-0.22","57ab1dd9082d1f00013d5c3f","6368f2eea3e9634aebcc2f6b","636b6fde741110ae8d95e39c","1269","","","","37","","","","key","16.66655555555545","768","357","true","-1","138.8304","7.864319999999999","6","-1","-1","","","","","","","","","","","","",""
"psychophysics","111","387741","0.0-10.0-0.23","57ab1dd9082d1f00013d5c3f","6368f2eea3e9634aebcc2f6b","636b6fde741110ae8d95e39c","1387.9000000003725","","","","39","","","","key","16.66716083916111","768","357","true","1","130.96608","7.864319999999999","6","-1","-1","","","","","","","","","","","","",""
"psychophysics","112","390115","0.0-10.0-0.24","57ab1dd9082d1f00013d5c3f","6368f2eea3e9634aebcc2f6b","636b6fde741110ae8d95e39c","1369.0999999996275","","","","37","","","","key","16.670404255319163","768","357","true","-1","130.96608","7.864319999999999","6","-1","-1","","","","","","","","","","","","",""
"psychophysics","113","392601","0.0-10.0-0.25","57ab1dd9082d1f00013d5c3f","6368f2eea3e9634aebcc2f6b","636b6fde741110ae8d95e39c","1481.2999999998137","","","","37","","","","key","16.66911486486473","768","357","true","-1","129","7.864319999999999","6","-1","-1","","","","","","","","","","","","",""
"psychophysics","114","394860","0.0-10.0-0.26","57ab1dd9082d1f00013d5c3f","6368f2eea3e9634aebcc2f6b","636b6fde741110ae8d95e39c","1257","","","","39","","","","key","16.669214814814687","768","357","true","-1","129","6.291456","7","1","-1","","","","","","","","","","","","",""
"psychophysics","115","397206","0.0-10.0-0.27","57ab1dd9082d1f00013d5c3f","6368f2eea3e9634aebcc2f6b","636b6fde741110ae8d95e39c","1339.7000000001863","","","","39","","","","key","16.668021428571333","768","357","true","1","135.291456","6.291456","7","-1","1","","","","","","","","","","","","",""
"psychophysics","116","399755","0.0-10.0-0.28","57ab1dd9082d1f00013d5c3f","6368f2eea3e9634aebcc2f6b","636b6fde741110ae8d95e39c","1545.2999999998137","","","","37","","","","key","16.668198675496985","768","357","true","1","135.291456","5.033164800000001","8","1","-1","","","","","","","","","","","","",""
"psychophysics","117","402260","0.0-10.0-0.29","57ab1dd9082d1f00013d5c3f","6368f2eea3e9634aebcc2f6b","636b6fde741110ae8d95e39c","1498.1000000005588","","","","37","","","","key","16.667640000000052","768","357","true","-1","140.32462080000002","5.033164800000001","8","-1","1","","","","","","","","","","","","",""
"psychophysics","118","404642","0.0-10.0-0.30","57ab1dd9082d1f00013d5c3f","6368f2eea3e9634aebcc2f6b","636b6fde741110ae8d95e39c","1376.2000000001863","","","","39","","","","key","16.669514084507018","768","357","true","1","140.32462080000002","4.0265318400000005","9","-1","-1","","","","","","","","","","","","",""
"psychophysics","119","406966","0.0-10.0-0.31","57ab1dd9082d1f00013d5c3f","6368f2eea3e9634aebcc2f6b","636b6fde741110ae8d95e39c","1315.7000000001863","","","","39","","","","key","16.667347826087255","768","357","true","1","136.29808896000003","4.0265318400000005","9","-1","-1","","","","","","","","","","","","",""
"psychophysics","120","409942","0.0-10.0-0.32","57ab1dd9082d1f00013d5c3f","6368f2eea3e9634aebcc2f6b","636b6fde741110ae8d95e39c","1972.4000000003725","","","","39","","","","key","16.66857303370783","768","357","true","1","136.29808896000003","4.0265318400000005","9","-1","-1","","","","","","","","","","","","",""
"psychophysics","121","412935","0.0-10.0-0.33","57ab1dd9082d1f00013d5c3f","6368f2eea3e9634aebcc2f6b","636b6fde741110ae8d95e39c","1987.7999999998137","","","","37","","","","key","16.668797752809166","768","357","true","-1","132.27155712000004","4.0265318400000005","9","-1","-1","","","","","","","","","","","","",""
"psychophysics","122","415303","0.0-10.0-0.34","57ab1dd9082d1f00013d5c3f","6368f2eea3e9634aebcc2f6b","636b6fde741110ae8d95e39c","1365.2999999998137","","","","37","","","","key","16.66818439716338","768","357","true","1","132.27155712000004","3.2212254720000004","10","1","-1","","","","","","","","","","","","",""
"psychophysics","123","417732","0.0-10.0-0.35","57ab1dd9082d1f00013d5c3f","6368f2eea3e9634aebcc2f6b","636b6fde741110ae8d95e39c","1427.5999999996275","","","","39","","","","key","16.668896551724075","768","357","true","1","135.49278259200003","3.2212254720000004","10","-1","1","","","","","","","","","","","","",""
"psychophysics","124","420372","0.0-10.0-0.36","57ab1dd9082d1f00013d5c3f","6368f2eea3e9634aebcc2f6b","636b6fde741110ae8d95e39c","1633.5","","","","39","","","","key","16.667445859872917","768","357","true","-1","135.49278259200003","2.5769803776000004","11","1","-1","","","","","","","","","","","","",""
"psychophysics","125","422884","0.0-10.0-0.37","57ab1dd9082d1f00013d5c3f","6368f2eea3e9634aebcc2f6b","636b6fde741110ae8d95e39c","1510.7000000001863","","","","39","","","","key","16.669446666666385","768","357","true","1","138.06976296960002","2.5769803776000004","11","-1","1","","","","","","","","","","","","",""
"psychophysics","126","425271","0.0-10.0-0.38","57ab1dd9082d1f00013d5c3f","6368f2eea3e9634aebcc2f6b","636b6fde741110ae8d95e39c","1384","","","","37","","","","key","16.66836619718307","768","357","true","-1","138.06976296960002","2.0615843020800004","12","-1","-1","","","","","","","","","","","","",""
"psychophysics","127","427381","0.0-10.0-0.39","57ab1dd9082d1f00013d5c3f","6368f2eea3e9634aebcc2f6b","636b6fde741110ae8d95e39c","1108.5","","","","39","","","","key","16.671182539682217","768","357","true","1","136.00817866752","2.0615843020800004","12","-1","-1","","","","","","","","","","","","",""
"html-keyboard-response","128","433942","0.0-11.0","57ab1dd9082d1f00013d5c3f","6368f2eea3e9634aebcc2f6b","636b6fde741110ae8d95e39c","6559.4000000003725","<p>Well Done !</p><p>Prepare for a new block.</p><p>DON'T EXIT THE FULL SCREEN MODE</p><p>Press the Spacebar to start.</p>","","","32","","","","","","","","","","","","","","","true","135.30031437004806","","","","","","","","","","",""
"psychophysics","129","435787","0.0-12.0-0.0","57ab1dd9082d1f00013d5c3f","6368f2eea3e9634aebcc2f6b","636b6fde741110ae8d95e39c","840.3000000007451","","","","37","","","","key","16.654281818181996","768","357","true","-1","180","30","0","-1","","","","","","","","","","","","","",""
"psychophysics","130","437608","0.0-12.0-0.1","57ab1dd9082d1f00013d5c3f","6368f2eea3e9634aebcc2f6b","636b6fde741110ae8d95e39c","819.2000000001863","","","","39","","","","key","16.666183486238545","768","357","true","1","180","30","0","-1","-1","","","","","","","","","","","","",""
"psychophysics","131","439467","0.0-12.0-0.2","57ab1dd9082d1f00013d5c3f","6368f2eea3e9634aebcc2f6b","636b6fde741110ae8d95e39c","856.5999999996275","","","","37","","","","key","16.667199999999934","768","357","true","-1","150","30","0","-1","-1","","","","","","","","","","","","",""
"psychophysics","132","441539","0.0-12.0-0.3","57ab1dd9082d1f00013d5c3f","6368f2eea3e9634aebcc2f6b","636b6fde741110ae8d95e39c","1067.8999999994412","","","","37","","","","key","16.66931707317074","768","357","true","-1","150","30","0","-1","-1","","","","","","","","","","","","",""
"psychophysics","133","443252","0.0-12.0-0.4","57ab1dd9082d1f00013d5c3f","6368f2eea3e9634aebcc2f6b","636b6fde741110ae8d95e39c","705.1000000005588","","","","39","","","","key","16.668852941176453","768","357","true","1","129","30","0","-1","-1","","","","","","","","","","","","",""
"psychophysics","134","445166","0.0-12.0-0.5","57ab1dd9082d1f00013d5c3f","6368f2eea3e9634aebcc2f6b","636b6fde741110ae8d95e39c","909.8999999994412","","","","37","","","","key","16.672026315789257","768","357","true","-1","129","30","0","-1","-1","","","","","","","","","","","","",""
"psychophysics","135","447001","0.0-12.0-0.6","57ab1dd9082d1f00013d5c3f","6368f2eea3e9634aebcc2f6b","636b6fde741110ae8d95e39c","830.5","","","","37","","","","key","16.667798165137423","768","357","true","-1","129","30","0","-1","-1","","","","","","","","","","","","",""
"psychophysics","136","449064","0.0-12.0-0.7","57ab1dd9082d1f00013d5c3f","6368f2eea3e9634aebcc2f6b","636b6fde741110ae8d95e39c","1060.9000000003725","","","","37","","","","key","16.66821138211384","768","357","true","1","129","24","1","1","-1","","","","","","","","","","","","",""
"psychophysics","137","451081","0.0-12.0-0.8","57ab1dd9082d1f00013d5c3f","6368f2eea3e9634aebcc2f6b","636b6fde741110ae8d95e39c","1014.6999999992549","","","","39","","","","key","16.669425000000047","768","357","true","1","153","24","1","-1","1","","","","","","","","","","","","",""
"psychophysics","138","453187","0.0-12.0-0.9","57ab1dd9082d1f00013d5c3f","6368f2eea3e9634aebcc2f6b","636b6fde741110ae8d95e39c","1104.3999999994412","","","","39","","","","key","16.66852000000002","768","357","true","1","153","19.2","2","-1","-1","","","","","","","","","","","","",""
"psychophysics","139","455252","0.0-12.0-0.10","57ab1dd9082d1f00013d5c3f","6368f2eea3e9634aebcc2f6b","636b6fde741110ae8d95e39c","1062","","","","39","","","","key","16.6681707317073","768","357","true","1","133.8","19.2","2","-1","-1","","","","","","","","","","","","",""
"psychophysics","140","457486","0.0-12.0-0.11","57ab1dd9082d1f00013d5c3f","6368f2eea3e9634aebcc2f6b","636b6fde741110ae8d95e39c","1229.699999999255","","","","39","","","","key","16.669157894736564","768","357","true","1","133.8","19.2","2","-1","-1","","","","","","","","","","","","",""
"psychophysics","141","459594","0.0-12.0-0.12","57ab1dd9082d1f00013d5c3f","6368f2eea3e9634aebcc2f6b","636b6fde741110ae8d95e39c","1104.2999999998137","","","","37","","","","key","16.670000000000332","768","357","true","1","129","15.36","3","1","-1","","","","","","","","","","","","",""
"psychophysics","142","461892","0.0-12.0-0.13","57ab1dd9082d1f00013d5c3f","6368f2eea3e9634aebcc2f6b","636b6fde741110ae8d95e39c","1290.199999999255","","","","37","","","","key","16.666375000000272","768","357","true","-1","144.36","15.36","3","-1","1","","","","","","","","","","","","",""
"psychophysics","143","464150","0.0-12.0-0.14","57ab1dd9082d1f00013d5c3f","6368f2eea3e9634aebcc2f6b","636b6fde741110ae8d95e39c","1251.0999999996275","","","","37","","","","key","16.669481481481515","768","357","true","-1","144.36","12.287999999999998","4","-1","-1","","","","","","","","","","","","",""
"psychophysics","144","466341","0.0-12.0-0.15","57ab1dd9082d1f00013d5c3f","6368f2eea3e9634aebcc2f6b","636b6fde741110ae8d95e39c","1185.6000000005588","","","","39","","","","key","16.667615384615672","768","357","true","1","132.072","12.287999999999998","4","-1","-1","","","","","","","","","","","","",""
"psychophysics","145","468711","0.0-12.0-0.16","57ab1dd9082d1f00013d5c3f","6368f2eea3e9634aebcc2f6b","636b6fde741110ae8d95e39c","1364.7999999998137","","","","37","","","","key","16.66893661971832","768","357","true","-1","132.072","12.287999999999998","4","-1","-1","","","","","","","","","","","","",""
"psychophysics","146","471599","0.0-12.0-0.17","57ab1dd9082d1f00013d5c3f","6368f2eea3e9634aebcc2f6b","636b6fde741110ae8d95e39c","1884.4000000003725","","","","37","","","","key","16.669081395348808","768","357","true","1","129","9.8304","5","1","-1","","","","","","","","","","","","",""
"psychophysics","147","473923","0.0-12.0-0.18","57ab1dd9082d1f00013d5c3f","6368f2eea3e9634aebcc2f6b","636b6fde741110ae8d95e39c","1320.7000000001863","","","","37","","","","key","16.67005072463771","768","357","true","-1","138.8304","9.8304","5","-1","1","","","","","","","","","","","","",""
"psychophysics","148","476442","0.0-12.0-0.19","57ab1dd9082d1f00013d5c3f","6368f2eea3e9634aebcc2f6b","636b6fde741110ae8d95e39c","1517.9000000003725","","","","37","","","","key","16.66953999999988","768","357","true","-1","138.8304","7.864319999999999","6","-1","-1","","","","","","","","","","","","",""
"psychophysics","149","479012","0.0-12.0-0.20","57ab1dd9082d1f00013d5c3f","6368f2eea3e9634aebcc2f6b","636b6fde741110ae8d95e39c","1561","","","","39","","","","key","16.66898051948043","768","357","true","1","130.96608","7.864319999999999","6","-1","-1","","","","","","","","","","","","",""
"psychophysics","150","481471","0.0-12.0-0.21","57ab1dd9082d1f00013d5c3f","6368f2eea3e9634aebcc2f6b","636b6fde741110ae8d95e39c","1451.7999999998137","","","","37","","","","key","16.66839726027404","768","357","true","-1","130.96608","7.864319999999999","6","-1","-1","","","","","","","","","","","","",""
"psychophysics","151","483878","0.0-12.0-0.22","57ab1dd9082d1f00013d5c3f","6368f2eea3e9634aebcc2f6b","636b6fde741110ae8d95e39c","1403.7999999998137","","","","39","","","","key","16.667666666666467","768","357","true","-1","129","6.291456","7","1","-1","","","","","","","","","","","","",""
"psychophysics","152","486479","0.0-12.0-0.23","57ab1dd9082d1f00013d5c3f","6368f2eea3e9634aebcc2f6b","636b6fde741110ae8d95e39c","1596.8999999994412","","","","37","","","","key","16.669109677419353","768","357","true","-1","135.291456","6.291456","7","-1","1","","","","","","","","","","","","",""
"psychophysics","153","488912","0.0-12.0-0.24","57ab1dd9082d1f00013d5c3f","6368f2eea3e9634aebcc2f6b","636b6fde741110ae8d95e39c","1429.7000000001863","","","","37","","","","key","16.666579310345096","768","357","true","-1","135.291456","5.033164800000001","8","-1","-1","","","","","","","","","","","","",""
"psychophysics","154","490819","0.0-12.0-0.25","57ab1dd9082d1f00013d5c3f","6368f2eea3e9634aebcc2f6b","636b6fde741110ae8d95e39c","904.7999999998137","","","","39","","","","key","16.666548672566435","768","357","true","-1","130.2582912","4.0265318400000005","9","1","-1","","","","","","","","","","","","",""
"psychophysics","155","493016","0.0-12.0-0.26","57ab1dd9082d1f00013d5c3f","6368f2eea3e9634aebcc2f6b","636b6fde741110ae8d95e39c","1191.4000000003725","","","","39","","","","key","16.66616793893116","768","357","true","1","134.28482304","4.0265318400000005","9","-1","1","","","","","","","","","","","","",""
"psychophysics","156","495085","0.0-12.0-0.27","57ab1dd9082d1f00013d5c3f","6368f2eea3e9634aebcc2f6b","636b6fde741110ae8d95e39c","1067.2000000001863","","","","39","","","","key","16.667422764227588","768","357","true","1","134.28482304","3.2212254720000004","10","-1","-1","","","","","","","","","","","","",""
"psychophysics","157","496923","0.0-12.0-0.28","57ab1dd9082d1f00013d5c3f","6368f2eea3e9634aebcc2f6b","636b6fde741110ae8d95e39c","832.5999999996275","","","","37","","","","key","16.666990825687982","768","357","true","1","131.06359756799998","2.5769803776000004","11","1","-1","","","","","","","","","","","","",""
"psychophysics","158","499288","0.0-12.0-0.29","57ab1dd9082d1f00013d5c3f","6368f2eea3e9634aebcc2f6b","636b6fde741110ae8d95e39c","1362.7999999998137","","","","39","","","","key","16.66762411347524","768","357","true","1","133.64057794559997","2.5769803776000004","11","-1","1","","","","","","","","","","","","",""
"psychophysics","159","501297","0.0-12.0-0.30","57ab1dd9082d1f00013d5c3f","6368f2eea3e9634aebcc2f6b","636b6fde741110ae8d95e39c","1006.5999999996275","","","","39","","","","key","16.668391666666626","768","357","true","1","133.64057794559997","2.0615843020800004","12","-1","-1","","","","","","","","","","","","",""
"psychophysics","160","503350","0.0-12.0-0.31","57ab1dd9082d1f00013d5c3f","6368f2eea3e9634aebcc2f6b","636b6fde741110ae8d95e39c","1051.9000000003725","","","","37","","","","key","16.665909836065886","768","357","true","1","131.57899364351996","1.6492674416640005","13","1","-1","","","","","","","","","","","","",""
"psychophysics","161","505483","0.0-12.0-0.32","57ab1dd9082d1f00013d5c3f","6368f2eea3e9634aebcc2f6b","636b6fde741110ae8d95e39c","1128.5","","","","39","","","","key","16.67021259842541","768","357","true","1","133.22826108518396","1.6492674416640005","13","-1","1","","","","","","","","","","","","",""
"psychophysics","162","507250","0.0-12.0-0.33","57ab1dd9082d1f00013d5c3f","6368f2eea3e9634aebcc2f6b","636b6fde741110ae8d95e39c","759.3999999994412","","","","37","","","","key","16.665142857143103","768","357","true","-1","133.22826108518396","1.3194139533312006","14","-1","-1","","","","","","","","","","","","",""
"psychophysics","163","509425","0.0-12.0-0.34","57ab1dd9082d1f00013d5c3f","6368f2eea3e9634aebcc2f6b","636b6fde741110ae8d95e39c","1165.5","","","","37","","","","key","16.667387596899175","768","357","true","1","131.90884713185275","1.0555311626649604","15","1","-1","","","","","","","","","","","","",""
"psychophysics","164","511599","0.0-12.0-0.35","57ab1dd9082d1f00013d5c3f","6368f2eea3e9634aebcc2f6b","636b6fde741110ae8d95e39c","1172.5","","","","37","","","","key","16.66919230769227","768","357","true","1","132.9643782945177","1.0555311626649604","15","1","1","","","","","","","","","","","","",""
"psychophysics","165","513534","0.0-12.0-0.36","57ab1dd9082d1f00013d5c3f","6368f2eea3e9634aebcc2f6b","636b6fde741110ae8d95e39c","931.9000000003725","","","","39","","","","key","16.671773913043612","768","357","true","-1","134.01990945718265","1.0555311626649604","15","1","1","","","","","","","","","","","","",""
"psychophysics","166","515606","0.0-12.0-0.37","57ab1dd9082d1f00013d5c3f","6368f2eea3e9634aebcc2f6b","636b6fde741110ae8d95e39c","1068.5","","","","37","","","","key","16.670869918699125","768","357","true","-1","135.0754406198476","1.0555311626649604","15","-1","1","","","","","","","","","","","","",""
"psychophysics","167","518200","0.0-12.0-0.38","57ab1dd9082d1f00013d5c3f","6368f2eea3e9634aebcc2f6b","636b6fde741110ae8d95e39c","1591","","","","39","","","","key","16.668083870967834","768","357","true","-1","135.0754406198476","1","16","1","-1","","","","","","","","","","","","",""
"psychophysics","168","519778","0.0-12.0-0.39","57ab1dd9082d1f00013d5c3f","6368f2eea3e9634aebcc2f6b","636b6fde741110ae8d95e39c","574.7000000001863","","","","37","","","","key","16.670193548387502","768","357","true","-1","136.0754406198476","1","16","-1","1","","","","","","","","","","","","",""
"html-keyboard-response","169","525146","0.0-13.0","57ab1dd9082d1f00013d5c3f","6368f2eea3e9634aebcc2f6b","636b6fde741110ae8d95e39c","5367.5","<p>Well Done !</p><p>Prepare for a new block.</p><p>DON'T EXIT THE FULL SCREEN MODE</p><p>Press the Spacebar to start.</p>","","","32","","","","","","","","","","","","","","","true","133.3551775530789","","","","","","","","","","",""
"html-keyboard-response","170","525256","0.0-14.0","57ab1dd9082d1f00013d5c3f","6368f2eea3e9634aebcc2f6b","636b6fde741110ae8d95e39c","null","","","","null","","","","","","","","","","","","","","","","","134.6792593768803","true","141.35851875376062","","","","","","","",""
"instructions","171","576705","0.0-15.0","57ab1dd9082d1f00013d5c3f","6368f2eea3e9634aebcc2f6b","636b6fde741110ae8d95e39c","51448.60000000056","","","","","","","[{""page_index"":0,""viewing_time"":42581.90000000037},{""page_index"":1,""viewing_time"":3084.7000000001863},{""page_index"":2,""viewing_time"":5781.399999999441}]","","","","","","","","","","","","","","","","","","","","","","","",""
"psychophysics","172","579730","0.0-16.0-0.0","57ab1dd9082d1f00013d5c3f","6368f2eea3e9634aebcc2f6b","636b6fde741110ae8d95e39c","null","","","","null","","","","key","16.65850819672122","768","357","","","","","","","","","","","","","","","","","","","",""
"psychophysics","173","580234","0.0-16.0-1.0","57ab1dd9082d1f00013d5c3f","6368f2eea3e9634aebcc2f6b","636b6fde741110ae8d95e39c","null","","","","null","","","","key","16.667931034486614","768","357","","","","","","","","","","","","","141","-1","3","false","","","",""
"psychophysics","174","582921","0.0-16.0-2.0","57ab1dd9082d1f00013d5c3f","6368f2eea3e9634aebcc2f6b","636b6fde741110ae8d95e39c","2685.5","","","","77","","","","key","16.668543749999664","768","357","","","","","","","","","","","","","","","","","","","",""
"psychophysics","175","583922","0.0-16.0-0.1","57ab1dd9082d1f00013d5c3f","6368f2eea3e9634aebcc2f6b","636b6fde741110ae8d95e39c","null","","","","null","","","","key","16.668423728814144","768","357","","","","","","","","","","","","","","","","","","","",""
"psychophysics","176","584426","0.0-16.0-1.1","57ab1dd9082d1f00013d5c3f","6368f2eea3e9634aebcc2f6b","636b6fde741110ae8d95e39c","null","","","","null","","","","key","16.666034482760708","768","357","","","","","","","","","","","","","141","1","4","false","","","",""
"psychophysics","177","585213","0.0-16.0-2.1","57ab1dd9082d1f00013d5c3f","6368f2eea3e9634aebcc2f6b","636b6fde741110ae8d95e39c","785.6000000005588","","","","77","","","","key","16.672956521739252","768","357","","","","","","","","","","","","","","","","","","","",""
"psychophysics","178","586215","0.0-16.0-0.2","57ab1dd9082d1f00013d5c3f","6368f2eea3e9634aebcc2f6b","636b6fde741110ae8d95e39c","null","","","","null","","","","key","16.67380000000121","768","357","","","","","","","","","","","","","","","","","","","",""
"psychophysics","179","586722","0.0-16.0-1.2","57ab1dd9082d1f00013d5c3f","6368f2eea3e9634aebcc2f6b","636b6fde741110ae8d95e39c","null","","","","null","","","","key","16.66848275862265","768","357","","","","","","","","","","","","","141","1","0","false","","","",""
"psychophysics","180","587570","0.0-16.0-2.2","57ab1dd9082d1f00013d5c3f","6368f2eea3e9634aebcc2f6b","636b6fde741110ae8d95e39c","846","","","","90","","","","key","16.666659999999684","768","357","","","","","","","","","","","","","","","","","","","",""
"psychophysics","181","588583","0.0-16.0-0.3","57ab1dd9082d1f00013d5c3f","6368f2eea3e9634aebcc2f6b","636b6fde741110ae8d95e39c","null","","","","null","","","","key","16.669813559321543","768","357","","","","","","","","","","","","","","","","","","","",""
"psychophysics","182","589091","0.0-16.0-1.3","57ab1dd9082d1f00013d5c3f","6368f2eea3e9634aebcc2f6b","636b6fde741110ae8d95e39c","null","","","","null","","","","key","16.66223333333231","768","357","","","","","","","","","","","","","141","1","5","false","","","",""
"psychophysics","183","589888","0.0-16.0-2.3","57ab1dd9082d1f00013d5c3f","6368f2eea3e9634aebcc2f6b","636b6fde741110ae8d95e39c","795.0999999996275","","","","77","","","","key","16.670425531915093","768","357","","","","","","","","","","","","","","","","","","","",""
"psychophysics","184","590892","0.0-16.0-0.4","57ab1dd9082d1f00013d5c3f","6368f2eea3e9634aebcc2f6b","636b6fde741110ae8d95e39c","null","","","","null","","","","key","16.669694915256006","768","357","","","","","","","","","","","","","","","","","","","",""
"psychophysics","185","591399","0.0-16.0-1.4","57ab1dd9082d1f00013d5c3f","6368f2eea3e9634aebcc2f6b","636b6fde741110ae8d95e39c","null","","","","null","","","","key","16.680000000000778","768","357","","","","","","","","","","","","","141","-1","5","false","","","",""
"psychophysics","186","592239","0.0-16.0-2.4","57ab1dd9082d1f00013d5c3f","6368f2eea3e9634aebcc2f6b","636b6fde741110ae8d95e39c","838.0999999996275","","","","77","","","","key","16.6678775510209","768","357","","","","","","","","","","","","","","","","","","","",""
"psychophysics","187","593244","0.0-16.0-0.5","57ab1dd9082d1f00013d5c3f","6368f2eea3e9634aebcc2f6b","636b6fde741110ae8d95e39c","null","","","","null","","","","key","16.664338983050783","768","357","","","","","","","","","","","","","","","","","","","",""
"psychophysics","188","593748","0.0-16.0-1.5","57ab1dd9082d1f00013d5c3f","6368f2eea3e9634aebcc2f6b","636b6fde741110ae8d95e39c","null","","","","null","","","","key","16.6755333333315","768","357","","","","","","","","","","","","","141","-1","2","false","","","",""
"psychophysics","189","594444","0.0-16.0-2.5","57ab1dd9082d1f00013d5c3f","6368f2eea3e9634aebcc2f6b","636b6fde741110ae8d95e39c","693.6000000005588","","","","90","","","","key","16.66662500000093","768","357","","","","","","","","","","","","","","","","","","","",""
"psychophysics","190","595448","0.0-16.0-0.6","57ab1dd9082d1f00013d5c3f","6368f2eea3e9634aebcc2f6b","636b6fde741110ae8d95e39c","null","","","","null","","","","key","16.670333333334806","768","357","","","","","","","","","","","","","","","","","","","",""
"psychophysics","191","595954","0.0-16.0-1.6","57ab1dd9082d1f00013d5c3f","6368f2eea3e9634aebcc2f6b","636b6fde741110ae8d95e39c","null","","","","null","","","","key","16.67862068965694","768","357","","","","","","","","","","","","","141","1","6","false","","","",""
"psychophysics","192","596579","0.0-16.0-2.6","57ab1dd9082d1f00013d5c3f","6368f2eea3e9634aebcc2f6b","636b6fde741110ae8d95e39c","623.2000000001863","","","","77","","","","key","16.668833333332763","768","357","","","","","","","","","","","","","","","","","","","",""
"psychophysics","193","597584","0.0-16.0-0.7","57ab1dd9082d1f00013d5c3f","6368f2eea3e9634aebcc2f6b","636b6fde741110ae8d95e39c","null","","","","null","","","","key","16.668616666668093","768","357","","","","","","","","","","","","","","","","","","","",""
"psychophysics","194","598091","0.0-16.0-1.7","57ab1dd9082d1f00013d5c3f","6368f2eea3e9634aebcc2f6b","636b6fde741110ae8d95e39c","null","","","","null","","","","key","16.671586206897388","768","357","","","","","","","","","","","","","141","1","2","false","","","",""
"psychophysics","195","598753","0.0-16.0-2.7","57ab1dd9082d1f00013d5c3f","6368f2eea3e9634aebcc2f6b","636b6fde741110ae8d95e39c","660.7000000001863","","","","90","","","","key","16.66782051282159","768","357","","","","","","","","","","","","","","","","","","","",""
"psychophysics","196","599755","0.0-16.0-0.8","57ab1dd9082d1f00013d5c3f","6368f2eea3e9634aebcc2f6b","636b6fde741110ae8d95e39c","null","","","","null","","","","key","16.671966101696036","768","357","","","","","","","","","","","","","","","","","","","",""
"psychophysics","197","600268","0.0-16.0-1.8","57ab1dd9082d1f00013d5c3f","6368f2eea3e9634aebcc2f6b","636b6fde741110ae8d95e39c","null","","","","null","","","","key","16.669206896551948","768","357","","","","","","","","","","","","","141","1","3","false","","","",""
"psychophysics","198","600820","0.0-16.0-2.8","57ab1dd9082d1f00013d5c3f","6368f2eea3e9634aebcc2f6b","636b6fde741110ae8d95e39c","550.2000000001863","","","","90","","","","key","16.68057575757672","768","357","","","","","","","","","","","","","","","","","","","",""
"psychophysics","199","601827","0.0-16.0-0.9","57ab1dd9082d1f00013d5c3f","6368f2eea3e9634aebcc2f6b","636b6fde741110ae8d95e39c","null","","","","null","","","","key","16.668779661016682","768","357","","","","","","","","","","","","","","","","","","","",""
"psychophysics","200","602332","0.0-16.0-1.9","57ab1dd9082d1f00013d5c3f","6368f2eea3e9634aebcc2f6b","636b6fde741110ae8d95e39c","null","","","","null","","","","key","16.67286666666623","768","357","","","","","","","","","","","","","141","-1","0","false","","","",""
"psychophysics","201","602921","0.0-16.0-2.9","57ab1dd9082d1f00013d5c3f","6368f2eea3e9634aebcc2f6b","636b6fde741110ae8d95e39c","586.6000000005588","","","","90","","","","key","16.672882352941944","768","357","","","","","","","","","","","","","","","","","","","",""
"psychophysics","202","603923","0.0-16.0-0.10","57ab1dd9082d1f00013d5c3f","6368f2eea3e9634aebcc2f6b","636b6fde741110ae8d95e39c","null","","","","null","","","","key","16.667254237288418","768","357","","","","","","","","","","","","","","","","","","","",""
"psychophysics","203","604427","0.0-16.0-1.10","57ab1dd9082d1f00013d5c3f","6368f2eea3e9634aebcc2f6b","636b6fde741110ae8d95e39c","null","","","","null","","","","key","16.68358620689331","768","357","","","","","","","","","","","","","141","-1","4","false","","","",""
"psychophysics","204","604836","0.0-16.0-2.10","57ab1dd9082d1f00013d5c3f","6368f2eea3e9634aebcc2f6b","636b6fde741110ae8d95e39c","406.70000000018626","","","","77","","","","key","16.65837499999907","768","357","","","","","","","","","","","","","","","","","","","",""
"psychophysics","205","605843","0.0-16.0-0.11","57ab1dd9082d1f00013d5c3f","6368f2eea3e9634aebcc2f6b","636b6fde741110ae8d95e39c","null","","","","null","","","","key","16.672830508475318","768","357","","","","","","","","","","","","","","","","","","","",""
"psychophysics","206","606347","0.0-16.0-1.11","57ab1dd9082d1f00013d5c3f","6368f2eea3e9634aebcc2f6b","636b6fde741110ae8d95e39c","null","","","","null","","","","key","16.663689655171513","768","357","","","","","","","","","","","","","141","-1","6","false","","","",""
"psychophysics","207","606901","0.0-16.0-2.11","57ab1dd9082d1f00013d5c3f","6368f2eea3e9634aebcc2f6b","636b6fde741110ae8d95e39c","550.7999999998137","","","","77","","","","key","16.676781250000204","768","357","","","","","","","","","","","","","","","","","","","",""
"psychophysics","208","607906","0.0-16.0-0.12","57ab1dd9082d1f00013d5c3f","6368f2eea3e9634aebcc2f6b","636b6fde741110ae8d95e39c","null","","","","null","","","","key","16.667916666665892","768","357","","","","","","","","","","","","","","","","","","","",""
"psychophysics","209","608411","0.0-16.0-1.12","57ab1dd9082d1f00013d5c3f","6368f2eea3e9634aebcc2f6b","636b6fde741110ae8d95e39c","null","","","","null","","","","key","16.68293103448051","768","357","","","","","","","","","","","","","141","-1","0","false","","","",""
"psychophysics","210","608918","0.0-16.0-2.12","57ab1dd9082d1f00013d5c3f","6368f2eea3e9634aebcc2f6b","636b6fde741110ae8d95e39c","504.70000000018626","","","","90","","","","key","16.666931034483273","768","357","","","","","","","","","","","","","","","","","","","",""
"psychophysics","211","609924","0.0-16.0-0.13","57ab1dd9082d1f00013d5c3f","6368f2eea3e9634aebcc2f6b","636b6fde741110ae8d95e39c","null","","","","null","","","","key","16.671116666666542","768","357","","","","","","","","","","","","","","","","","","","",""
"psychophysics","212","610427","0.0-16.0-1.13","57ab1dd9082d1f00013d5c3f","6368f2eea3e9634aebcc2f6b","636b6fde741110ae8d95e39c","null","","","","null","","","","key","16.672241379310183","768","357","","","","","","","","","","","","","141","-1","6","false","","","",""
"psychophysics","213","610929","0.0-16.0-2.13","57ab1dd9082d1f00013d5c3f","6368f2eea3e9634aebcc2f6b","636b6fde741110ae8d95e39c","500.3999999994412","","","","77","","","","key","16.667896551726354","768","357","","","","","","","","","","","","","","","","","","","",""
"psychophysics","214","611932","0.0-16.0-0.14","57ab1dd9082d1f00013d5c3f","6368f2eea3e9634aebcc2f6b","636b6fde741110ae8d95e39c","null","","","","null","","","","key","16.668716666665084","768","357","","","","","","","","","","","","","","","","","","","",""
"psychophysics","215","612442","0.0-16.0-1.14","57ab1dd9082d1f00013d5c3f","6368f2eea3e9634aebcc2f6b","636b6fde741110ae8d95e39c","null","","","","null","","","","key","16.66965517241524","768","357","","","","","","","","","","","","","141","1","0","false","","","",""
"psychophysics","216","613014","0.0-16.0-2.14","57ab1dd9082d1f00013d5c3f","6368f2eea3e9634aebcc2f6b","636b6fde741110ae8d95e39c","569.7000000001863","","","","90","","","","key","16.66642424242684","768","357","","","","","","","","","","","","","","","","","","","",""
"psychophysics","217","614015","0.0-16.0-0.15","57ab1dd9082d1f00013d5c3f","6368f2eea3e9634aebcc2f6b","636b6fde741110ae8d95e39c","null","","","","null","","","","key","16.66554999999935","768","357","","","","","","","","","","","","","","","","","","","",""
"psychophysics","218","614517","0.0-16.0-1.15","57ab1dd9082d1f00013d5c3f","6368f2eea3e9634aebcc2f6b","636b6fde741110ae8d95e39c","null","","","","null","","","","key","16.67700000000106","768","357","","","","","","","","","","","","","141","-1","3","false","","","",""
"psychophysics","219","615383","0.0-16.0-2.15","57ab1dd9082d1f00013d5c3f","6368f2eea3e9634aebcc2f6b","636b6fde741110ae8d95e39c","862.2000000001863","","","","90","","","","key","16.669020000000017","768","357","","","","","","","","","","","","","","","","","","","",""
"psychophysics","220","616387","0.0-16.0-0.16","57ab1dd9082d1f00013d5c3f","6368f2eea3e9634aebcc2f6b","636b6fde741110ae8d95e39c","null","","","","null","","","","key","16.67096666666718","768","357","","","","","","","","","","","","","","","","","","","",""
"psychophysics","221","616890","0.0-16.0-1.16","57ab1dd9082d1f00013d5c3f","6368f2eea3e9634aebcc2f6b","636b6fde741110ae8d95e39c","null","","","","null","","","","key","16.662620689655686","768","357","","","","","","","","","","","","","141","1","2","false","","","",""
"psychophysics","222","617464","0.0-16.0-2.16","57ab1dd9082d1f00013d5c3f","6368f2eea3e9634aebcc2f6b","636b6fde741110ae8d95e39c","572.0999999996275","","","","90","","","","key","16.667303030305035","768","357","","","","","","","","","","","","","","","","","","","",""
"psychophysics","223","618466","0.0-16.0-0.17","57ab1dd9082d1f00013d5c3f","6368f2eea3e9634aebcc2f6b","636b6fde741110ae8d95e39c","null","","","","null","","","","key","16.673399999999674","768","357","","","","","","","","","","","","","","","","","","","",""
"psychophysics","224","618971","0.0-16.0-1.17","57ab1dd9082d1f00013d5c3f","6368f2eea3e9634aebcc2f6b","636b6fde741110ae8d95e39c","null","","","","null","","","","key","16.679310344825982","768","357","","","","","","","","","","","","","141","-1","2","false","","","",""
"psychophysics","225","619545","0.0-16.0-2.17","57ab1dd9082d1f00013d5c3f","6368f2eea3e9634aebcc2f6b","636b6fde741110ae8d95e39c","572.2000000001863","","","","90","","","","key","16.669606060604565","768","357","","","","","","","","","","","","","","","","","","","",""
"psychophysics","226","620547","0.0-16.0-0.18","57ab1dd9082d1f00013d5c3f","6368f2eea3e9634aebcc2f6b","636b6fde741110ae8d95e39c","null","","","","null","","","","key","16.673508474575673","768","357","","","","","","","","","","","","","","","","","","","",""
"psychophysics","227","621050","0.0-16.0-1.18","57ab1dd9082d1f00013d5c3f","6368f2eea3e9634aebcc2f6b","636b6fde741110ae8d95e39c","null","","","","null","","","","key","16.67433333333271","768","357","","","","","","","","","","","","","141","1","4","false","","","",""
"psychophysics","228","621533","0.0-16.0-2.18","57ab1dd9082d1f00013d5c3f","6368f2eea3e9634aebcc2f6b","636b6fde741110ae8d95e39c","480.70000000018626","","","","77","","","","key","16.66703703703738","768","357","","","","","","","","","","","","","","","","","","","",""
"psychophysics","229","622534","0.0-16.0-0.19","57ab1dd9082d1f00013d5c3f","6368f2eea3e9634aebcc2f6b","636b6fde741110ae8d95e39c","null","","","","null","","","","key","16.669683333333037","768","357","","","","","","","","","","","","","","","","","","","",""
"psychophysics","230","623043","0.0-16.0-1.19","57ab1dd9082d1f00013d5c3f","6368f2eea3e9634aebcc2f6b","636b6fde741110ae8d95e39c","null","","","","null","","","","key","16.666310344830734","768","357","","","","","","","","","","","","","141","1","5","false","","","",""
"psychophysics","231","623496","0.0-16.0-2.19","57ab1dd9082d1f00013d5c3f","6368f2eea3e9634aebcc2f6b","636b6fde741110ae8d95e39c","451","","","","77","","","","key","16.667346153847085","768","357","","","","","","","","","","","","","","","","","","","",""
"psychophysics","232","624500","0.0-16.0-0.20","57ab1dd9082d1f00013d5c3f","6368f2eea3e9634aebcc2f6b","636b6fde741110ae8d95e39c","null","","","","null","","","","key","16.674383333333147","768","357","","","","","","","","","","","","","","","","","","","",""
"psychophysics","233","625002","0.0-16.0-1.20","57ab1dd9082d1f00013d5c3f","6368f2eea3e9634aebcc2f6b","636b6fde741110ae8d95e39c","null","","","","null","","","","key","16.664517241381592","768","357","","","","","","","","","","","","","141","-1","4","false","","","",""
"psychophysics","234","625448","0.0-16.0-2.20","57ab1dd9082d1f00013d5c3f","6368f2eea3e9634aebcc2f6b","636b6fde741110ae8d95e39c","443.80000000074506","","","","77","","","","key","16.659039999996313","768","357","","","","","","","","","","","","","","","","","","","",""
"psychophysics","235","626450","0.0-16.0-0.21","57ab1dd9082d1f00013d5c3f","6368f2eea3e9634aebcc2f6b","636b6fde741110ae8d95e39c","null","","","","null","","","","key","16.67006666666712","768","357","","","","","","","","","","","","","","","","","","","",""
"psychophysics","236","626955","0.0-16.0-1.21","57ab1dd9082d1f00013d5c3f","6368f2eea3e9634aebcc2f6b","636b6fde741110ae8d95e39c","null","","","","null","","","","key","16.67410344827583","768","357","","","","","","","","","","","","","141","1","6","false","","","",""
"psychophysics","237","627342","0.0-16.0-2.21","57ab1dd9082d1f00013d5c3f","6368f2eea3e9634aebcc2f6b","636b6fde741110ae8d95e39c","385.5","","","","77","","","","key","16.67081818181958","768","357","","","","","","","","","","","","","","","","","","","",""
"psychophysics","238","628347","0.0-16.0-0.22","57ab1dd9082d1f00013d5c3f","6368f2eea3e9634aebcc2f6b","636b6fde741110ae8d95e39c","null","","","","null","","","","key","16.672406779661365","768","357","","","","","","","","","","","","","","","","","","","",""
"psychophysics","239","628849","0.0-16.0-1.22","57ab1dd9082d1f00013d5c3f","6368f2eea3e9634aebcc2f6b","636b6fde741110ae8d95e39c","null","","","","null","","","","key","16.673275862065754","768","357","","","","","","","","","","","","","141","-1","5","false","","","",""
"psychophysics","240","629290","0.0-16.0-2.22","57ab1dd9082d1f00013d5c3f","6368f2eea3e9634aebcc2f6b","636b6fde741110ae8d95e39c","437.70000000018626","","","","77","","","","key","16.677346153847445","768","357","","","","","","","","","","","","","","","","","","","",""
"psychophysics","241","630298","0.0-16.0-0.23","57ab1dd9082d1f00013d5c3f","6368f2eea3e9634aebcc2f6b","636b6fde741110ae8d95e39c","null","","","","null","","","","key","16.668796610170027","768","357","","","","","","","","","","","","","","","","","","","",""
"psychophysics","242","630801","0.0-16.0-1.23","57ab1dd9082d1f00013d5c3f","6368f2eea3e9634aebcc2f6b","636b6fde741110ae8d95e39c","null","","","","null","","","","key","16.668733333334483","768","357","","","","","","","","","","","","","141","1","3","false","","","",""
"psychophysics","243","631407","0.0-16.0-2.23","57ab1dd9082d1f00013d5c3f","6368f2eea3e9634aebcc2f6b","636b6fde741110ae8d95e39c","603.0999999996275","","","","90","","","","key","16.665771428572146","768","357","","","","","","","","","","","","","","","","","","","",""
"html-keyboard-response","244","637060","0.0-17.0","57ab1dd9082d1f00013d5c3f","6368f2eea3e9634aebcc2f6b","636b6fde741110ae8d95e39c","5651.100000000559","<p>Well Done !</p><p>Training Complete. Press the spacebar to start.</p><p>DON'T EXIT THE FULL SCREEN MODE</p>","","","32","","","","","","","","","","","","","","","","","","","","","","","","","","",""
"psychophysics","245","640083","0.0-18.0-0.0","57ab1dd9082d1f00013d5c3f","6368f2eea3e9634aebcc2f6b","636b6fde741110ae8d95e39c","null","","","","null","","","","key","16.664683333334203","768","357","","","","","","","","","","","","","","","","","","","",""
"psychophysics","246","640587","0.0-18.0-1.0","57ab1dd9082d1f00013d5c3f","6368f2eea3e9634aebcc2f6b","636b6fde741110ae8d95e39c","null","","","","null","","","","key","16.652966666667876","768","357","","","","","","","","","","","","","141","-1","0","true","","","",""
"psychophysics","247","641658","0.0-18.0-2.0","57ab1dd9082d1f00013d5c3f","6368f2eea3e9634aebcc2f6b","636b6fde741110ae8d95e39c","1068.2999999998137","","","","77","","","","key","16.67057142857026","768","357","","","","","","","","","","","","","","","","","","","",""
"psychophysics","248","642666","0.0-18.0-0.1","57ab1dd9082d1f00013d5c3f","6368f2eea3e9634aebcc2f6b","636b6fde741110ae8d95e39c","null","","","","null","","","","key","16.667796610169887","768","357","","","","","","","","","","","","","","","","","","","",""
"psychophysics","249","643168","0.0-18.0-1.1","57ab1dd9082d1f00013d5c3f","6368f2eea3e9634aebcc2f6b","636b6fde741110ae8d95e39c","null","","","","null","","","","key","16.672466666666637","768","357","","","","","","","","","","","","","141","-1","4","true","","","",""
"psychophysics","250","643809","0.0-18.0-2.1","57ab1dd9082d1f00013d5c3f","6368f2eea3e9634aebcc2f6b","636b6fde741110ae8d95e39c","638.2999999998137","","","","77","","","","key","16.670648648649","768","357","","","","","","","","","","","","","","","","","","","",""
"psychophysics","251","644811","0.0-18.0-0.2","57ab1dd9082d1f00013d5c3f","6368f2eea3e9634aebcc2f6b","636b6fde741110ae8d95e39c","null","","","","null","","","","key","16.66357627118764","768","357","","","","","","","","","","","","","","","","","","","",""
"psychophysics","252","645314","0.0-18.0-1.2","57ab1dd9082d1f00013d5c3f","6368f2eea3e9634aebcc2f6b","636b6fde741110ae8d95e39c","null","","","","null","","","","key","16.680241379308804","768","357","","","","","","","","","","","","","141","1","6","true","","","",""
"psychophysics","253","646053","0.0-18.0-2.2","57ab1dd9082d1f00013d5c3f","6368f2eea3e9634aebcc2f6b","636b6fde741110ae8d95e39c","736","","","","77","","","","key","16.67037209302328","768","357","","","","","","","","","","","","","","","","","","","",""
"psychophysics","254","647059","0.0-18.0-0.3","57ab1dd9082d1f00013d5c3f","6368f2eea3e9634aebcc2f6b","636b6fde741110ae8d95e39c","null","","","","null","","","","key","16.673733333333317","768","357","","","","","","","","","","","","","","","","","","","",""
"psychophysics","255","647563","0.0-18.0-1.3","57ab1dd9082d1f00013d5c3f","6368f2eea3e9634aebcc2f6b","636b6fde741110ae8d95e39c","null","","","","null","","","","key","16.675655172415205","768","357","","","","","","","","","","","","","141","1","2","true","","","",""
"psychophysics","256","648039","0.0-18.0-2.3","57ab1dd9082d1f00013d5c3f","6368f2eea3e9634aebcc2f6b","636b6fde741110ae8d95e39c","475","","","","90","","","","key","16.673285714288276","768","357","","","","","","","","","","","","","","","","","","","",""
"psychophysics","257","649042","0.0-18.0-0.4","57ab1dd9082d1f00013d5c3f","6368f2eea3e9634aebcc2f6b","636b6fde741110ae8d95e39c","null","","","","null","","","","key","16.665305084746205","768","357","","","","","","","","","","","","","","","","","","","",""
"psychophysics","258","649547","0.0-18.0-1.4","57ab1dd9082d1f00013d5c3f","6368f2eea3e9634aebcc2f6b","636b6fde741110ae8d95e39c","null","","","","null","","","","key","16.662827586205193","768","357","","","","","","","","","","","","","141","1","5","true","","","",""
"psychophysics","259","650101","0.0-18.0-2.4","57ab1dd9082d1f00013d5c3f","6368f2eea3e9634aebcc2f6b","636b6fde741110ae8d95e39c","552.5","","","","77","","","","key","16.676218749998952","768","357","","","","","","","","","","","","","","","","","","","",""
"psychophysics","260","651107","0.0-18.0-0.5","57ab1dd9082d1f00013d5c3f","6368f2eea3e9634aebcc2f6b","636b6fde741110ae8d95e39c","null","","","","null","","","","key","16.675250000000233","768","357","","","","","","","","","","","","","","","","","","","",""
"psychophysics","261","651611","0.0-18.0-1.5","57ab1dd9082d1f00013d5c3f","6368f2eea3e9634aebcc2f6b","636b6fde741110ae8d95e39c","null","","","","null","","","","key","16.684724137929653","768","357","","","","","","","","","","","","","141","-1","3","true","","","",""
"psychophysics","262","652220","0.0-18.0-2.5","57ab1dd9082d1f00013d5c3f","6368f2eea3e9634aebcc2f6b","636b6fde741110ae8d95e39c","607.3999999994412","","","","90","","","","key","16.65905555555623","768","357","","","","","","","","","","","","","","","","","","","",""
"psychophysics","263","653228","0.0-18.0-0.6","57ab1dd9082d1f00013d5c3f","6368f2eea3e9634aebcc2f6b","636b6fde741110ae8d95e39c","null","","","","null","","","","key","16.668677966100542","768","357","","","","","","","","","","","","","","","","","","","",""
"psychophysics","264","653731","0.0-18.0-1.6","57ab1dd9082d1f00013d5c3f","6368f2eea3e9634aebcc2f6b","636b6fde741110ae8d95e39c","null","","","","null","","","","key","16.667862068966095","768","357","","","","","","","","","","","","","141","1","3","true","","","",""
"psychophysics","265","654204","0.0-18.0-2.6","57ab1dd9082d1f00013d5c3f","6368f2eea3e9634aebcc2f6b","636b6fde741110ae8d95e39c","470.8999999994412","","","","90","","","","key","16.679148148150286","768","357","","","","","","","","","","","","","","","","","","","",""
"psychophysics","266","655211","0.0-18.0-0.7","57ab1dd9082d1f00013d5c3f","6368f2eea3e9634aebcc2f6b","636b6fde741110ae8d95e39c","null","","","","null","","","","key","16.671799999999347","768","357","","","","","","","","","","","","","","","","","","","",""
"psychophysics","267","655714","0.0-18.0-1.7","57ab1dd9082d1f00013d5c3f","6368f2eea3e9634aebcc2f6b","636b6fde741110ae8d95e39c","null","","","","null","","","","key","16.674586206895363","768","357","","","","","","","","","","","","","141","-1","2","true","","","",""
"psychophysics","268","656153","0.0-18.0-2.7","57ab1dd9082d1f00013d5c3f","6368f2eea3e9634aebcc2f6b","636b6fde741110ae8d95e39c","435.8999999994412","","","","90","","","","key","16.67848000000231","768","357","","","","","","","","","","","","","","","","","","","",""
"psychophysics","269","657155","0.0-18.0-0.8","57ab1dd9082d1f00013d5c3f","6368f2eea3e9634aebcc2f6b","636b6fde741110ae8d95e39c","null","","","","null","","","","key","16.672383333333226","768","357","","","","","","","","","","","","","","","","","","","",""
"psychophysics","270","657660","0.0-18.0-1.8","57ab1dd9082d1f00013d5c3f","6368f2eea3e9634aebcc2f6b","636b6fde741110ae8d95e39c","null","","","","null","","","","key","16.669241379308193","768","357","","","","","","","","","","","","","141","-1","6","true","","","",""
"psychophysics","271","658101","0.0-18.0-2.8","57ab1dd9082d1f00013d5c3f","6368f2eea3e9634aebcc2f6b","636b6fde741110ae8d95e39c","439.19999999925494","","","","77","","","","key","16.68283999999985","768","357","","","","","","","","","","","","","","","","","","","",""
"psychophysics","272","659102","0.0-18.0-0.9","57ab1dd9082d1f00013d5c3f","6368f2eea3e9634aebcc2f6b","636b6fde741110ae8d95e39c","null","","","","null","","","","key","16.669050000000667","768","357","","","","","","","","","","","","","","","","","","","",""
"psychophysics","273","659610","0.0-18.0-1.9","57ab1dd9082d1f00013d5c3f","6368f2eea3e9634aebcc2f6b","636b6fde741110ae8d95e39c","null","","","","null","","","","key","16.66962068965498","768","357","","","","","","","","","","","","","141","1","0","true","","","",""
"psychophysics","274","660136","0.0-18.0-2.9","57ab1dd9082d1f00013d5c3f","6368f2eea3e9634aebcc2f6b","636b6fde741110ae8d95e39c","523.2999999998137","","","","90","","","","key","16.67013333333501","768","357","","","","","","","","","","","","","","","","","","","",""
"psychophysics","275","661139","0.0-18.0-0.10","57ab1dd9082d1f00013d5c3f","6368f2eea3e9634aebcc2f6b","636b6fde741110ae8d95e39c","null","","","","null","","","","key","16.668966666667256","768","357","","","","","","","","","","","","","","","","","","","",""
"psychophysics","276","661642","0.0-18.0-1.10","57ab1dd9082d1f00013d5c3f","6368f2eea3e9634aebcc2f6b","636b6fde741110ae8d95e39c","null","","","","null","","","","key","16.676137931034738","768","357","","","","","","","","","","","","","141","-1","5","true","","","",""
"psychophysics","277","662100","0.0-18.0-2.10","57ab1dd9082d1f00013d5c3f","6368f2eea3e9634aebcc2f6b","636b6fde741110ae8d95e39c","455.30000000074506","","","","77","","","","key","16.656076923075418","768","357","","","","","","","","","","","","","","","","","","","",""
"psychophysics","278","663101","0.0-18.0-0.11","57ab1dd9082d1f00013d5c3f","6368f2eea3e9634aebcc2f6b","636b6fde741110ae8d95e39c","null","","","","null","","","","key","16.670525423730567","768","357","","","","","","","","","","","","","","","","","","","",""
"psychophysics","279","663610","0.0-18.0-1.11","57ab1dd9082d1f00013d5c3f","6368f2eea3e9634aebcc2f6b","636b6fde741110ae8d95e39c","null","","","","null","","","","key","16.663266666668157","768","357","","","","","","","","","","","","","141","1","4","true","","","",""
"psychophysics","280","664111","0.0-18.0-2.11","57ab1dd9082d1f00013d5c3f","6368f2eea3e9634aebcc2f6b","636b6fde741110ae8d95e39c","498.70000000018626","","","","77","","","","key","16.661379310346593","768","357","","","","","","","","","","","","","","","","","","","",""
"psychophysics","281","665115","0.0-18.0-0.12","57ab1dd9082d1f00013d5c3f","6368f2eea3e9634aebcc2f6b","636b6fde741110ae8d95e39c","null","","","","null","","","","key","16.67637288135524","768","357","","","","","","","","","","","","","","","","","","","",""
"psychophysics","282","665618","0.0-18.0-1.12","57ab1dd9082d1f00013d5c3f","6368f2eea3e9634aebcc2f6b","636b6fde741110ae8d95e39c","null","","","","null","","","","key","16.671275862071116","768","357","","","","","","","","","","","","","141","-1","0","true","","","",""
"psychophysics","283","666277","0.0-18.0-2.12","57ab1dd9082d1f00013d5c3f","6368f2eea3e9634aebcc2f6b","636b6fde741110ae8d95e39c","654.7999999998137","","","","90","","","","key","16.668692307693","768","357","","","","","","","","","","","","","","","","","","","",""
"psychophysics","284","667283","0.0-18.0-0.13","57ab1dd9082d1f00013d5c3f","6368f2eea3e9634aebcc2f6b","636b6fde741110ae8d95e39c","null","","","","null","","","","key","16.66816949152577","768","357","","","","","","","","","","","","","","","","","","","",""
"psychophysics","285","667786","0.0-18.0-1.13","57ab1dd9082d1f00013d5c3f","6368f2eea3e9634aebcc2f6b","636b6fde741110ae8d95e39c","null","","","","null","","","","key","16.675799999999192","768","357","","","","","","","","","","","","","141","-1","4","true","","","",""
"psychophysics","286","668266","0.0-18.0-2.13","57ab1dd9082d1f00013d5c3f","6368f2eea3e9634aebcc2f6b","636b6fde741110ae8d95e39c","477.79999999981374","","","","77","","","","key","16.657592592592763","768","357","","","","","","","","","","","","","","","","","","","",""
"psychophysics","287","669268","0.0-18.0-0.14","57ab1dd9082d1f00013d5c3f","6368f2eea3e9634aebcc2f6b","636b6fde741110ae8d95e39c","null","","","","null","","","","key","16.67132203389843","768","357","","","","","","","","","","","","","","","","","","","",""
"psychophysics","288","669771","0.0-18.0-1.14","57ab1dd9082d1f00013d5c3f","6368f2eea3e9634aebcc2f6b","636b6fde741110ae8d95e39c","null","","","","null","","","","key","16.668266666668934","768","357","","","","","","","","","","","","","141","-1","5","true","","","",""
"psychophysics","289","670323","0.0-18.0-2.14","57ab1dd9082d1f00013d5c3f","6368f2eea3e9634aebcc2f6b","636b6fde741110ae8d95e39c","548.3999999994412","","","","77","","","","key","16.670935483870938","768","357","","","","","","","","","","","","","","","","","","","",""
"psychophysics","290","671331","0.0-18.0-0.15","57ab1dd9082d1f00013d5c3f","6368f2eea3e9634aebcc2f6b","636b6fde741110ae8d95e39c","null","","","","null","","","","key","16.670350000000326","768","357","","","","","","","","","","","","","","","","","","","",""
"psychophysics","291","671835","0.0-18.0-1.15","57ab1dd9082d1f00013d5c3f","6368f2eea3e9634aebcc2f6b","636b6fde741110ae8d95e39c","null","","","","null","","","","key","16.66558620689742","768","357","","","","","","","","","","","","","141","1","3","true","","","",""
"psychophysics","292","672376","0.0-18.0-2.15","57ab1dd9082d1f00013d5c3f","6368f2eea3e9634aebcc2f6b","636b6fde741110ae8d95e39c","536.2999999998137","","","","90","","","","key","16.669093750002503","768","357","","","","","","","","","","","","","","","","","","","",""
"psychophysics","293","673379","0.0-18.0-0.16","57ab1dd9082d1f00013d5c3f","6368f2eea3e9634aebcc2f6b","636b6fde741110ae8d95e39c","null","","","","null","","","","key","16.66940677966094","768","357","","","","","","","","","","","","","","","","","","","",""
"psychophysics","294","673883","0.0-18.0-1.16","57ab1dd9082d1f00013d5c3f","6368f2eea3e9634aebcc2f6b","636b6fde741110ae8d95e39c","null","","","","null","","","","key","16.669551724138476","768","357","","","","","","","","","","","","","141","1","0","true","","","",""
"psychophysics","295","674393","0.0-18.0-2.16","57ab1dd9082d1f00013d5c3f","6368f2eea3e9634aebcc2f6b","636b6fde741110ae8d95e39c","507.09999999962747","","","","90","","","","key","16.676533333332433","768","357","","","","","","","","","","","","","","","","","","","",""
"psychophysics","296","675394","0.0-18.0-0.17","57ab1dd9082d1f00013d5c3f","6368f2eea3e9634aebcc2f6b","636b6fde741110ae8d95e39c","null","","","","null","","","","key","16.669898305084335","768","357","","","","","","","","","","","","","","","","","","","",""
"psychophysics","297","675899","0.0-18.0-1.17","57ab1dd9082d1f00013d5c3f","6368f2eea3e9634aebcc2f6b","636b6fde741110ae8d95e39c","null","","","","null","","","","key","16.6673448275863","768","357","","","","","","","","","","","","","141","1","5","true","","","",""
"psychophysics","298","676365","0.0-18.0-2.17","57ab1dd9082d1f00013d5c3f","6368f2eea3e9634aebcc2f6b","636b6fde741110ae8d95e39c","464.5","","","","77","","","","key","16.675666666667286","768","357","","","","","","","","","","","","","","","","","","","",""
"psychophysics","299","677368","0.0-18.0-0.18","57ab1dd9082d1f00013d5c3f","6368f2eea3e9634aebcc2f6b","636b6fde741110ae8d95e39c","null","","","","null","","","","key","16.669983050847126","768","357","","","","","","","","","","","","","","","","","","","",""
"psychophysics","300","677870","0.0-18.0-1.18","57ab1dd9082d1f00013d5c3f","6368f2eea3e9634aebcc2f6b","636b6fde741110ae8d95e39c","null","","","","null","","","","key","16.668533333332743","768","357","","","","","","","","","","","","","141","-1","6","true","","","",""
"psychophysics","301","678304","0.0-18.0-2.18","57ab1dd9082d1f00013d5c3f","6368f2eea3e9634aebcc2f6b","636b6fde741110ae8d95e39c","431.70000000018626","","","","77","","","","key","16.66179166666795","768","357","","","","","","","","","","","","","","","","","","","",""
"psychophysics","302","679319","0.0-18.0-0.19","57ab1dd9082d1f00013d5c3f","6368f2eea3e9634aebcc2f6b","636b6fde741110ae8d95e39c","null","","","","null","","","","key","16.670163934426306","768","357","","","","","","","","","","","","","","","","","","","",""
"psychophysics","303","679836","0.0-18.0-1.19","57ab1dd9082d1f00013d5c3f","6368f2eea3e9634aebcc2f6b","636b6fde741110ae8d95e39c","null","","","","null","","","","key","16.663400000000063","768","357","","","","","","","","","","","","","141","-1","3","true","","","",""
"psychophysics","304","680350","0.0-18.0-2.19","57ab1dd9082d1f00013d5c3f","6368f2eea3e9634aebcc2f6b","636b6fde741110ae8d95e39c","510.20000000018626","","","","90","","","","key","16.673827586209818","768","357","","","","","","","","","","","","","","","","","","","",""
"psychophysics","305","681352","0.0-18.0-0.20","57ab1dd9082d1f00013d5c3f","6368f2eea3e9634aebcc2f6b","636b6fde741110ae8d95e39c","null","","","","null","","","","key","16.672881355931413","768","357","","","","","","","","","","","","","","","","","","","",""
"psychophysics","306","681862","0.0-18.0-1.20","57ab1dd9082d1f00013d5c3f","6368f2eea3e9634aebcc2f6b","636b6fde741110ae8d95e39c","null","","","","null","","","","key","16.663533333331966","768","357","","","","","","","","","","","","","141","-1","2","true","","","",""
"psychophysics","307","682274","0.0-18.0-2.20","57ab1dd9082d1f00013d5c3f","6368f2eea3e9634aebcc2f6b","636b6fde741110ae8d95e39c","410.69999999925494","","","","90","","","","key","16.67179166666756","768","357","","","","","","","","","","","","","","","","","","","",""
"psychophysics","308","683285","0.0-18.0-0.21","57ab1dd9082d1f00013d5c3f","6368f2eea3e9634aebcc2f6b","636b6fde741110ae8d95e39c","null","","","","null","","","","key","16.671101694914782","768","357","","","","","","","","","","","","","","","","","","","",""
"psychophysics","309","683787","0.0-18.0-1.21","57ab1dd9082d1f00013d5c3f","6368f2eea3e9634aebcc2f6b","636b6fde741110ae8d95e39c","null","","","","null","","","","key","16.66353333333585","768","357","","","","","","","","","","","","","141","1","4","true","","","",""
"psychophysics","310","684123","0.0-18.0-2.21","57ab1dd9082d1f00013d5c3f","6368f2eea3e9634aebcc2f6b","636b6fde741110ae8d95e39c","333.1000000005588","","","","77","","","","key","16.663222222226775","768","357","","","","","","","","","","","","","","","","","","","",""
"psychophysics","311","685131","0.0-18.0-0.22","57ab1dd9082d1f00013d5c3f","6368f2eea3e9634aebcc2f6b","636b6fde741110ae8d95e39c","null","","","","null","","","","key","16.671999999999148","768","357","","","","","","","","","","","","","","","","","","","",""
"psychophysics","312","685636","0.0-18.0-1.22","57ab1dd9082d1f00013d5c3f","6368f2eea3e9634aebcc2f6b","636b6fde741110ae8d95e39c","null","","","","null","","","","key","16.677620689653597","768","357","","","","","","","","","","","","","141","1","6","true","","","",""
"psychophysics","313","686400","0.0-18.0-2.22","57ab1dd9082d1f00013d5c3f","6368f2eea3e9634aebcc2f6b","636b6fde741110ae8d95e39c","760.2000000001863","","","","90","","","","key","16.66768888888829","768","357","","","","","","","","","","","","","","","","","","","",""
"psychophysics","314","687402","0.0-18.0-0.23","57ab1dd9082d1f00013d5c3f","6368f2eea3e9634aebcc2f6b","636b6fde741110ae8d95e39c","null","","","","null","","","","key","16.668500000001707","768","357","","","","","","","","","","","","","","","","","","","",""
"psychophysics","315","687914","0.0-18.0-1.23","57ab1dd9082d1f00013d5c3f","6368f2eea3e9634aebcc2f6b","636b6fde741110ae8d95e39c","null","","","","null","","","","key","16.67162068965363","768","357","","","","","","","","","","","","","141","1","2","true","","","",""
"psychophysics","316","688333","0.0-18.0-2.23","57ab1dd9082d1f00013d5c3f","6368f2eea3e9634aebcc2f6b","636b6fde741110ae8d95e39c","416.3999999994412","","","","77","","","","key","16.668875000003027","768","357","","","","","","","","","","","","","","","","","","","",""
"psychophysics","317","689335","0.0-18.0-0.24","57ab1dd9082d1f00013d5c3f","6368f2eea3e9634aebcc2f6b","636b6fde741110ae8d95e39c","null","","","","null","","","","key","16.66601694915128","768","357","","","","","","","","","","","","","","","","","","","",""
"psychophysics","318","689837","0.0-18.0-1.24","57ab1dd9082d1f00013d5c3f","6368f2eea3e9634aebcc2f6b","636b6fde741110ae8d95e39c","null","","","","null","","","","key","16.67943333333436","768","357","","","","","","","","","","","","","141","-1","3","true","","","",""
"psychophysics","319","690496","0.0-18.0-2.24","57ab1dd9082d1f00013d5c3f","6368f2eea3e9634aebcc2f6b","636b6fde741110ae8d95e39c","656.1999999992549","","","","77","","","","key","16.67110526315733","768","357","","","","","","","","","","","","","","","","","","","",""
"psychophysics","320","691502","0.0-18.0-0.25","57ab1dd9082d1f00013d5c3f","6368f2eea3e9634aebcc2f6b","636b6fde741110ae8d95e39c","null","","","","null","","","","key","16.668288135593283","768","357","","","","","","","","","","","","","","","","","","","",""
"psychophysics","321","692004","0.0-18.0-1.25","57ab1dd9082d1f00013d5c3f","6368f2eea3e9634aebcc2f6b","636b6fde741110ae8d95e39c","null","","","","null","","","","key","16.667266666668002","768","357","","","","","","","","","","","","","141","-1","0","true","","","",""
"psychophysics","322","693035","0.0-18.0-2.25","57ab1dd9082d1f00013d5c3f","6368f2eea3e9634aebcc2f6b","636b6fde741110ae8d95e39c","1028.0999999996275","","","","90","","","","key","16.669099999999162","768","357","","","","","","","","","","","","","","","","","","","",""
"psychophysics","323","694052","0.0-18.0-0.26","57ab1dd9082d1f00013d5c3f","6368f2eea3e9634aebcc2f6b","636b6fde741110ae8d95e39c","null","","","","null","","","","key","16.66681967213078","768","357","","","","","","","","","","","","","","","","","","","",""
"psychophysics","324","694554","0.0-18.0-1.26","57ab1dd9082d1f00013d5c3f","6368f2eea3e9634aebcc2f6b","636b6fde741110ae8d95e39c","null","","","","null","","","","key","16.673724137933057","768","357","","","","","","","","","","","","","141","1","0","true","","","",""
"psychophysics","325","695042","0.0-18.0-2.26","57ab1dd9082d1f00013d5c3f","6368f2eea3e9634aebcc2f6b","636b6fde741110ae8d95e39c","483.6000000005588","","","","90","","","","key","16.680821428570198","768","357","","","","","","","","","","","","","","","","","","","",""
"psychophysics","326","696045","0.0-18.0-0.27","57ab1dd9082d1f00013d5c3f","6368f2eea3e9634aebcc2f6b","636b6fde741110ae8d95e39c","null","","","","null","","","","key","16.672271186440504","768","357","","","","","","","","","","","","","","","","","","","",""
"psychophysics","327","696554","0.0-18.0-1.27","57ab1dd9082d1f00013d5c3f","6368f2eea3e9634aebcc2f6b","636b6fde741110ae8d95e39c","null","","","","null","","","","key","16.683699999998012","768","357","","","","","","","","","","","","","141","-1","6","true","","","",""
"psychophysics","328","696936","0.0-18.0-2.27","57ab1dd9082d1f00013d5c3f","6368f2eea3e9634aebcc2f6b","636b6fde741110ae8d95e39c","380","","","","77","","","","key","16.65904761905161","768","357","","","","","","","","","","","","","","","","","","","",""
"psychophysics","329","697937","0.0-18.0-0.28","57ab1dd9082d1f00013d5c3f","6368f2eea3e9634aebcc2f6b","636b6fde741110ae8d95e39c","null","","","","null","","","","key","16.67080000000036","768","357","","","","","","","","","","","","","","","","","","","",""
"psychophysics","330","698453","0.0-18.0-1.28","57ab1dd9082d1f00013d5c3f","6368f2eea3e9634aebcc2f6b","636b6fde741110ae8d95e39c","null","","","","null","","","","key","16.666758620690008","768","357","","","","","","","","","","","","","141","1","2","true","","","",""
"psychophysics","331","699199","0.0-18.0-2.28","57ab1dd9082d1f00013d5c3f","6368f2eea3e9634aebcc2f6b","636b6fde741110ae8d95e39c","742.2000000001863","","","","90","","","","key","16.663136363638014","768","357","","","","","","","","","","","","","","","","","","","",""
"psychophysics","332","700203","0.0-18.0-0.29","57ab1dd9082d1f00013d5c3f","6368f2eea3e9634aebcc2f6b","636b6fde741110ae8d95e39c","null","","","","null","","","","key","16.665728813560158","768","357","","","","","","","","","","","","","","","","","","","",""
"psychophysics","333","700705","0.0-18.0-1.29","57ab1dd9082d1f00013d5c3f","6368f2eea3e9634aebcc2f6b","636b6fde741110ae8d95e39c","null","","","","null","","","","key","16.667766666668467","768","357","","","","","","","","","","","","","141","1","5","true","","","",""
