"trial_type","trial_index","time_elapsed","internal_node_id","PROLIFIC_PID","STUDY_ID","SESSION_ID","rt","stimulus","button_pressed","success","key_press","responses","isData","view_history","response_type","avg_frame_time","center_x","center_y","isSC","stim_side","trial_luminance","step_size","nReversal","correct","prev_ans","isThreshold","SC_threshold","final_threshold","isLuminance","FF_luminance","luminance","stimSide","ISInt","isFF","question_order","isSPQ","isCAPS","isAQ"
"pavlovia","0","9","0.0-0.0","636965c63844a6e955b6036a","6368f2eea3e9634aebcc2f6b","636b6fc4225b89f1ce79ecb4","","","","","","","","","","","","","","","","","","","","","","","","","","","","","","","",""
"html-button-response","1","10906","0.0-1.0","636965c63844a6e955b6036a","6368f2eea3e9634aebcc2f6b","636b6fc4225b89f1ce79ecb4","10897","<div style='background-color: white; width:60%; margin: auto; padding: 50px; text-align: justify; text-justify: inter-word; margin-bottom: 20px;'><h1 style='text-align: center;'>Consent Form</h1><p>Please read this consent form carefully before deciding whether you would like to participate in this study. You have to be 18 years old or older to participate to this study.</p><p style='text-decoration: underline;'>Participation is voluntary:</p><p>It is your choice whether or not to participate in this research. If you choose to participate, you may change your mind and leave the study at any time. Refusal to participate or stopping your participation will involve no penalty or loss of benefits to which you are otherwise entitled.</p><p style='text-decoration: underline;'>Purpose of the Study:</p><p>To understand the mechanisms underlying human perception.</p><p style='text-decoration: underline;'>What you will do in this study:</p><p>You will be presented with a series of visual images and then you will press buttons on the keyboard of your computer to respond to simple questions about the images (e.g. Were one or two images presented?). In addition, you will be asked to complete a questionnaire concerning your beliefs and everyday mental and perceptual experiences.'</p><p style='text-decoration: underline;'> Time Required:</p><p>The study will take 40 minutes to complete. </p><p style='text-decoration: underline;'>Risks:</p><p>There are no anticipated risks associated with participating in this study that are beyond those experienced in everyday life. </p><p style='text-decoration: underline;'>Benefits:</p><p>There are no benefits to you in participating in the study. However, this study may lead to a better understanding of how different kinds of visual information are used.</p><p style='text-decoration: underline;'>Compensation:</p><p>You will be paid US$6.6/hour. </p><p style='text-decoration: underline;'>Privacy and Confidentiality:</p><p>Your participation in this study will be anonymous. No personal information about your name or identity will be asked or recorded. This anonymous data will be stored for several years and may be used for a variety of research purposes. The overall results of the study may be published, or the data files may be shared with other researchers, but your identity will not be revealed in any way. The online services we are using for this study may temporarily store your data, but this data will be downloaded and then promptly deleted from those services.Your data will not be permanently associated with your name, IP address, or any other identifiable information (e.g., your information will only be connected to your payment, not to any of your responses), though they may be temporarily stored together before we download and separate them. Even so, no guarantee of internet survey security can be given because, although unlikely, transmissions can be intercepted and IP addresses can be identified. The anonymous data may be shared publicly (for example, in conjunction with a resulting academic publication).</p><p style='text-decoration: underline;'>Participation and Withdrawal:</p><p>Your participation in this study is completely voluntary. You may stop responding to the stimuli or stop answering questions if you so choose and without penalty by exiting the full screen mode, closing this tab of your browser or redirecting it to a different website.</p><p style='text-decoration: underline;'>Contact Info of the Researcher: </p><p>If you have questions about this study, or if you would like to talk to the research team, please contact David Melcher (david.melcher@nyu.edu, md5050@nyu.edu) at the Perception and Active Cognition Laboratory, New York University Abu Dhabi, Computational Research Building, Saadiyat Island, Abu Dhabi, UAE.This research has been reviewed by the New York University Abu Dhabi Institutional Review Board (NYUAD IRB). To contact about your rights in this research, for questions, suggestions, or complaints that are not addressed by the researchers, please email IRBnyuad@nyu.edu, or call the NYUAD IRB at +971 2 628 4313. </p></div>","0","","","","","","","","","","","","","","","","","","","","","","","","","","","","",""
"fullscreen","2","12782","0.0-2.0","636965c63844a6e955b6036a","6368f2eea3e9634aebcc2f6b","636b6fc4225b89f1ce79ecb4","","","","true","","","","","","","","","","","","","","","","","","","","","","","","","","","",""
"html-keyboard-response","3","33874","0.0-3.0","636965c63844a6e955b6036a","6368f2eea3e9634aebcc2f6b","636b6fc4225b89f1ce79ecb4","21089","<p>Welcome !</p><p>READ CAREFULLY THE FOLLOWING INDICATIONS:</p><p>From this moment you have ~40 minutes to complete the experiment.</p><p>During the experiment you will be prompted to take several breaks. Each break should not last longer than 2-3 minutes.</p><p>Make sure that your computer is plugged in and it's not running on battery power, even if the battery is already fully charged.</p><p>Turn off your phone and music, make sure that you are in a quiet room and that you will not be distracted for the next hour.</p><p>Failure to comply with the instructions and indications provided during the experiment will most likely result in the rejection of your data.<p>Press the spacebar to start.</p>","","","32","","","","","","","","","","","","","","","","","","","","","","","","","","",""
"survey-html-form","4","40118","0.0-4.0","636965c63844a6e955b6036a","6368f2eea3e9634aebcc2f6b","636b6fc4225b89f1ce79ecb4","6245","","","","","{""age"":""48"",""sex"":""m""}","true","","","","","","","","","","","","","","","","","","","","","","","","",""
"instructions","5","91383","0.0-5.0","636965c63844a6e955b6036a","6368f2eea3e9634aebcc2f6b","636b6fc4225b89f1ce79ecb4","51263","","","","","","","[{""page_index"":0,""viewing_time"":26863},{""page_index"":1,""viewing_time"":19144},{""page_index"":2,""viewing_time"":5256}]","","","","","","","","","","","","","","","","","","","","","","","",""
"psychophysics","6","92403","0.0-6.0-0.0","636965c63844a6e955b6036a","6368f2eea3e9634aebcc2f6b","636b6fc4225b89f1ce79ecb4","1","","","","39","","","","key","16.574754098360618","768","355.5","true","1","180","30","0","-1","","","","","","","","","","","","","",""
"psychophysics","7","93422","0.0-6.0-0.1","636965c63844a6e955b6036a","6368f2eea3e9634aebcc2f6b","636b6fc4225b89f1ce79ecb4","15","","","","39","","","","key","16.66333333333338","768","355.5","true","1","180","30","0","-1","-1","","","","","","","","","","","","",""
"psychophysics","8","94460","0.0-6.0-0.2","636965c63844a6e955b6036a","6368f2eea3e9634aebcc2f6b","636b6fc4225b89f1ce79ecb4","22","","","","39","","","","key","16.661639344262305","768","355.5","true","1","150","30","0","-1","-1","","","","","","","","","","","","",""
"psychophysics","9","95488","0.0-6.0-0.3","636965c63844a6e955b6036a","6368f2eea3e9634aebcc2f6b","636b6fc4225b89f1ce79ecb4","11","","","","39","","","","key","16.662622950819642","768","355.5","true","1","150","30","0","-1","-1","","","","","","","","","","","","",""
"psychophysics","10","100613","0.0-6.0-0.4","636965c63844a6e955b6036a","6368f2eea3e9634aebcc2f6b","636b6fc4225b89f1ce79ecb4","4115","","","","39","","","","key","16.662671009771948","768","355.5","true","-1","129","24","1","1","-1","","","","","","","","","","","","",""
"psychophysics","11","103163","0.0-6.0-0.5","636965c63844a6e955b6036a","6368f2eea3e9634aebcc2f6b","636b6fc4225b89f1ce79ecb4","1538","","","","37","","","","key","16.66236842105268","768","355.5","true","-1","153","24","1","-1","1","","","","","","","","","","","","",""
"psychophysics","12","104864","0.0-6.0-0.6","636965c63844a6e955b6036a","6368f2eea3e9634aebcc2f6b","636b6fc4225b89f1ce79ecb4","691","","","","39","","","","key","16.662970297029766","768","355.5","true","1","153","19.2","2","-1","-1","","","","","","","","","","","","",""
"psychophysics","13","108495","0.0-6.0-0.7","636965c63844a6e955b6036a","6368f2eea3e9634aebcc2f6b","636b6fc4225b89f1ce79ecb4","2629","","","","39","","","","key","16.662488479262716","768","355.5","true","1","133.8","19.2","2","-1","-1","","","","","","","","","","","","",""
"psychophysics","14","112038","0.0-6.0-0.8","636965c63844a6e955b6036a","6368f2eea3e9634aebcc2f6b","636b6fc4225b89f1ce79ecb4","2538","","","","39","","","","key","16.66274881516586","768","355.5","true","1","133.8","19.2","2","-1","-1","","","","","","","","","","","","",""
"psychophysics","15","114914","0.0-6.0-0.9","636965c63844a6e955b6036a","6368f2eea3e9634aebcc2f6b","636b6fc4225b89f1ce79ecb4","1871","","","","39","","","","key","16.66232558139534","768","355.5","true","-1","129","15.36","3","1","-1","","","","","","","","","","","","",""
"psychophysics","16","117262","0.0-6.0-0.10","636965c63844a6e955b6036a","6368f2eea3e9634aebcc2f6b","636b6fc4225b89f1ce79ecb4","1341","","","","37","","","","key","16.66242857142861","768","355.5","true","-1","144.36","15.36","3","-1","1","","","","","","","","","","","","",""
"psychophysics","17","119314","0.0-6.0-0.11","636965c63844a6e955b6036a","6368f2eea3e9634aebcc2f6b","636b6fc4225b89f1ce79ecb4","1041","","","","37","","","","key","16.663114754098313","768","355.5","true","-1","144.36","12.287999999999998","4","-1","-1","","","","","","","","","","","","",""
"psychophysics","18","122765","0.0-6.0-0.12","636965c63844a6e955b6036a","6368f2eea3e9634aebcc2f6b","636b6fc4225b89f1ce79ecb4","2445","","","","39","","","","key","16.662815533980552","768","355.5","true","-1","132.072","9.8304","5","1","-1","","","","","","","","","","","","",""
"psychophysics","19","124341","0.0-6.0-0.13","636965c63844a6e955b6036a","6368f2eea3e9634aebcc2f6b","636b6fc4225b89f1ce79ecb4","564","","","","39","","","","key","16.66234042553186","768","355.5","true","1","141.9024","9.8304","5","-1","1","","","","","","","","","","","","",""
"psychophysics","20","125974","0.0-6.0-0.14","636965c63844a6e955b6036a","6368f2eea3e9634aebcc2f6b","636b6fc4225b89f1ce79ecb4","627","","","","37","","","","key","16.662061855670114","768","355.5","true","-1","141.9024","7.864319999999999","6","-1","-1","","","","","","","","","","","","",""
"psychophysics","21","129374","0.0-6.0-0.15","636965c63844a6e955b6036a","6368f2eea3e9634aebcc2f6b","636b6fc4225b89f1ce79ecb4","2398","","","","39","","","","key","16.662660098522117","768","355.5","true","-1","134.03808","6.291456","7","1","-1","","","","","","","","","","","","",""
"psychophysics","22","131055","0.0-6.0-0.16","636965c63844a6e955b6036a","6368f2eea3e9634aebcc2f6b","636b6fc4225b89f1ce79ecb4","665","","","","37","","","","key","16.66279999999999","768","355.5","true","-1","140.32953600000002","6.291456","7","-1","1","","","","","","","","","","","","",""
"psychophysics","23","133098","0.0-6.0-0.17","636965c63844a6e955b6036a","6368f2eea3e9634aebcc2f6b","636b6fc4225b89f1ce79ecb4","1039","","","","39","","","","key","16.66314049586769","768","355.5","true","1","140.32953600000002","5.033164800000001","8","-1","-1","","","","","","","","","","","","",""
"psychophysics","24","134722","0.0-6.0-0.18","636965c63844a6e955b6036a","6368f2eea3e9634aebcc2f6b","636b6fc4225b89f1ce79ecb4","620","","","","39","","","","key","16.66226804123732","768","355.5","true","1","135.2963712","5.033164800000001","8","-1","-1","","","","","","","","","","","","",""
"psychophysics","25","136622","0.0-6.0-0.19","636965c63844a6e955b6036a","6368f2eea3e9634aebcc2f6b","636b6fc4225b89f1ce79ecb4","891","","","","39","","","","key","16.662831858407028","768","355.5","true","1","135.2963712","5.033164800000001","8","-1","-1","","","","","","","","","","","","",""
"psychophysics","26","138926","0.0-6.0-0.20","636965c63844a6e955b6036a","6368f2eea3e9634aebcc2f6b","636b6fc4225b89f1ce79ecb4","1296","","","","39","","","","key","16.661167883211586","768","355.5","true","-1","130.2632064","4.0265318400000005","9","1","-1","","","","","","","","","","","","",""
"psychophysics","27","140942","0.0-6.0-0.21","636965c63844a6e955b6036a","6368f2eea3e9634aebcc2f6b","636b6fc4225b89f1ce79ecb4","1010","","","","39","","","","key","16.664500000000164","768","355.5","true","1","134.28973824","4.0265318400000005","9","-1","1","","","","","","","","","","","","",""
"psychophysics","28","144255","0.0-6.0-0.22","636965c63844a6e955b6036a","6368f2eea3e9634aebcc2f6b","636b6fc4225b89f1ce79ecb4","2311","","","","39","","","","key","16.661717171717118","768","355.5","true","1","134.28973824","3.2212254720000004","10","-1","-1","","","","","","","","","","","","",""
"psychophysics","29","146535","0.0-6.0-0.23","636965c63844a6e955b6036a","6368f2eea3e9634aebcc2f6b","636b6fc4225b89f1ce79ecb4","1277","","","","39","","","","key","16.662941176470614","768","355.5","true","1","131.068512768","3.2212254720000004","10","-1","-1","","","","","","","","","","","","",""
"psychophysics","30","148521","0.0-6.0-0.24","636965c63844a6e955b6036a","6368f2eea3e9634aebcc2f6b","636b6fc4225b89f1ce79ecb4","979","","","","39","","","","key","16.66237288135596","768","355.5","true","1","131.068512768","3.2212254720000004","10","-1","-1","","","","","","","","","","","","",""
"psychophysics","31","151198","0.0-6.0-0.25","636965c63844a6e955b6036a","6368f2eea3e9634aebcc2f6b","636b6fc4225b89f1ce79ecb4","1670","","","","39","","","","key","16.662874999999985","768","355.5","true","-1","129","2.5769803776000004","11","1","-1","","","","","","","","","","","","",""
"psychophysics","32","153551","0.0-6.0-0.26","636965c63844a6e955b6036a","6368f2eea3e9634aebcc2f6b","636b6fc4225b89f1ce79ecb4","1346","","","","39","","","","key","16.66171428571418","768","355.5","true","-1","131.5769803776","2.5769803776000004","11","1","1","","","","","","","","","","","","",""
"psychophysics","33","155866","0.0-6.0-0.27","636965c63844a6e955b6036a","6368f2eea3e9634aebcc2f6b","636b6fc4225b89f1ce79ecb4","1316","","","","39","","","","key","16.66347826086955","768","355.5","true","-1","134.1539607552","2.5769803776000004","11","1","1","","","","","","","","","","","","",""
"psychophysics","34","158175","0.0-6.0-0.28","636965c63844a6e955b6036a","6368f2eea3e9634aebcc2f6b","636b6fc4225b89f1ce79ecb4","1297","","","","39","","","","key","16.66277372262765","768","355.5","true","1","136.73094113279998","2.5769803776000004","11","-1","1","","","","","","","","","","","","",""
"psychophysics","35","161481","0.0-6.0-0.29","636965c63844a6e955b6036a","6368f2eea3e9634aebcc2f6b","636b6fc4225b89f1ce79ecb4","2303","","","","39","","","","key","16.662727272727277","768","355.5","true","1","136.73094113279998","2.0615843020800004","12","-1","-1","","","","","","","","","","","","",""
"psychophysics","36","165047","0.0-6.0-0.30","636965c63844a6e955b6036a","6368f2eea3e9634aebcc2f6b","636b6fc4225b89f1ce79ecb4","2558","","","","39","","","","key","16.66244131455402","768","355.5","true","-1","134.66935683071998","1.6492674416640005","13","1","-1","","","","","","","","","","","","",""
"psychophysics","37","166823","0.0-6.0-0.31","636965c63844a6e955b6036a","6368f2eea3e9634aebcc2f6b","636b6fc4225b89f1ce79ecb4","775","","","","39","","","","key","16.662666666666823","768","355.5","true","1","136.31862427238397","1.6492674416640005","13","-1","1","","","","","","","","","","","","",""
"psychophysics","38","171327","0.0-6.0-0.32","636965c63844a6e955b6036a","6368f2eea3e9634aebcc2f6b","636b6fc4225b89f1ce79ecb4","3491","","","","39","","","","key","16.662518518518535","768","355.5","true","-1","136.31862427238397","1.3194139533312006","14","1","-1","","","","","","","","","","","","",""
"psychophysics","39","172631","0.0-6.0-0.33","636965c63844a6e955b6036a","6368f2eea3e9634aebcc2f6b","636b6fc4225b89f1ce79ecb4","297","","","","37","","","","key","16.663116883116853","768","355.5","true","-1","137.63803822571518","1.3194139533312006","14","-1","1","","","","","","","","","","","","",""
"psychophysics","40","175826","0.0-6.0-0.34","636965c63844a6e955b6036a","6368f2eea3e9634aebcc2f6b","636b6fc4225b89f1ce79ecb4","2192","","","","39","","","","key","16.662198952879482","768","355.5","true","1","137.63803822571518","1.0555311626649604","15","-1","-1","","","","","","","","","","","","",""
"psychophysics","41","177552","0.0-6.0-0.35","636965c63844a6e955b6036a","6368f2eea3e9634aebcc2f6b","636b6fc4225b89f1ce79ecb4","719","","","","39","","","","key","16.663333333333366","768","355.5","true","1","136.58250706305023","1.0555311626649604","15","-1","-1","","","","","","","","","","","","",""
"psychophysics","42","179649","0.0-6.0-0.36","636965c63844a6e955b6036a","6368f2eea3e9634aebcc2f6b","636b6fc4225b89f1ce79ecb4","1091","","","","39","","","","key","16.661600000000092","768","355.5","true","-1","136.58250706305023","1","16","1","-1","","","","","","","","","","","","",""
"psychophysics","43","181117","0.0-6.0-0.37","636965c63844a6e955b6036a","6368f2eea3e9634aebcc2f6b","636b6fc4225b89f1ce79ecb4","458","","","","37","","","","key","16.663218390804396","768","355.5","true","-1","137.58250706305023","1","16","-1","1","","","","","","","","","","","","",""
"psychophysics","44","182885","0.0-6.0-0.38","636965c63844a6e955b6036a","6368f2eea3e9634aebcc2f6b","636b6fc4225b89f1ce79ecb4","767","","","","37","","","","key","16.663428571428604","768","355.5","true","-1","137.58250706305023","1","17","-1","-1","","","","","","","","","","","","",""
"psychophysics","45","184796","0.0-6.0-0.39","636965c63844a6e955b6036a","6368f2eea3e9634aebcc2f6b","636b6fc4225b89f1ce79ecb4","900","","","","37","","","","key","16.661929824561586","768","355.5","true","-1","136.58250706305023","1","17","-1","-1","","","","","","","","","","","","",""
"html-keyboard-response","46","190662","0.0-7.0","636965c63844a6e955b6036a","6368f2eea3e9634aebcc2f6b","636b6fc4225b89f1ce79ecb4","5865","<p>Well Done !</p><p>Prepare for a new block.</p><p>DON'T EXIT THE FULL SCREEN MODE</p><p>Press the Spacebar to start.</p>","","","32","","","","","","","","","","","","","","","true","135.712536036038","","","","","","","","","","",""
"psychophysics","47","191781","0.0-8.0-0.0","636965c63844a6e955b6036a","6368f2eea3e9634aebcc2f6b","636b6fc4225b89f1ce79ecb4","116","","","","39","","","","key","16.28352941176469","768","355.5","true","1","180","30","0","-1","","","","","","","","","","","","","",""
"psychophysics","48","193277","0.0-8.0-0.1","636965c63844a6e955b6036a","6368f2eea3e9634aebcc2f6b","636b6fc4225b89f1ce79ecb4","496","","","","39","","","","key","16.662696629213603","768","355.5","true","1","180","30","0","-1","-1","","","","","","","","","","","","",""
"psychophysics","49","194694","0.0-8.0-0.2","636965c63844a6e955b6036a","6368f2eea3e9634aebcc2f6b","636b6fc4225b89f1ce79ecb4","405","","","","37","","","","key","16.661904761904832","768","355.5","true","-1","150","30","0","-1","-1","","","","","","","","","","","","",""
"psychophysics","50","196279","0.0-8.0-0.3","636965c63844a6e955b6036a","6368f2eea3e9634aebcc2f6b","636b6fc4225b89f1ce79ecb4","574","","","","37","","","","key","16.662765957446684","768","355.5","true","-1","150","30","0","-1","-1","","","","","","","","","","","","",""
"psychophysics","51","199322","0.0-8.0-0.4","636965c63844a6e955b6036a","6368f2eea3e9634aebcc2f6b","636b6fc4225b89f1ce79ecb4","2040","","","","37","","","","key","16.66230769230758","768","355.5","true","-1","129","30","0","-1","-1","","","","","","","","","","","","",""
"psychophysics","52","202455","0.0-8.0-0.5","636965c63844a6e955b6036a","6368f2eea3e9634aebcc2f6b","636b6fc4225b89f1ce79ecb4","2129","","","","37","","","","key","16.663101604278076","768","355.5","true","1","129","24","1","1","-1","","","","","","","","","","","","",""
"psychophysics","53","203811","0.0-8.0-0.6","636965c63844a6e955b6036a","6368f2eea3e9634aebcc2f6b","636b6fc4225b89f1ce79ecb4","353","","","","39","","","","key","16.6625","768","355.5","true","1","153","24","1","-1","1","","","","","","","","","","","","",""
"psychophysics","54","205305","0.0-8.0-0.7","636965c63844a6e955b6036a","6368f2eea3e9634aebcc2f6b","636b6fc4225b89f1ce79ecb4","489","","","","37","","","","key","16.662471910112266","768","355.5","true","-1","153","19.2","2","-1","-1","","","","","","","","","","","","",""
"psychophysics","55","206775","0.0-8.0-0.8","636965c63844a6e955b6036a","6368f2eea3e9634aebcc2f6b","636b6fc4225b89f1ce79ecb4","463","","","","39","","","","key","16.662758620689694","768","355.5","true","1","133.8","19.2","2","-1","-1","","","","","","","","","","","","",""
"psychophysics","56","210019","0.0-8.0-0.9","636965c63844a6e955b6036a","6368f2eea3e9634aebcc2f6b","636b6fc4225b89f1ce79ecb4","2236","","","","37","","","","key","16.662371134020617","768","355.5","true","-1","133.8","19.2","2","-1","-1","","","","","","","","","","","","",""
"psychophysics","57","211893","0.0-8.0-0.10","636965c63844a6e955b6036a","6368f2eea3e9634aebcc2f6b","636b6fc4225b89f1ce79ecb4","865","","","","37","","","","key","16.66234234234225","768","355.5","true","-1","129","19.2","2","-1","-1","","","","","","","","","","","","",""
"psychophysics","58","214074","0.0-8.0-0.11","636965c63844a6e955b6036a","6368f2eea3e9634aebcc2f6b","636b6fc4225b89f1ce79ecb4","1168","","","","37","","","","key","16.662461538461727","768","355.5","true","-1","129","19.2","2","-1","-1","","","","","","","","","","","","",""
"psychophysics","59","216723","0.0-8.0-0.12","636965c63844a6e955b6036a","6368f2eea3e9634aebcc2f6b","636b6fc4225b89f1ce79ecb4","1635","","","","37","","","","key","16.663037974683604","768","355.5","true","1","129","15.36","3","1","-1","","","","","","","","","","","","",""
"psychophysics","60","218568","0.0-8.0-0.13","636965c63844a6e955b6036a","6368f2eea3e9634aebcc2f6b","636b6fc4225b89f1ce79ecb4","837","","","","37","","","","key","16.662181818181786","768","355.5","true","-1","144.36","15.36","3","-1","1","","","","","","","","","","","","",""
"psychophysics","61","220178","0.0-8.0-0.14","636965c63844a6e955b6036a","6368f2eea3e9634aebcc2f6b","636b6fc4225b89f1ce79ecb4","608","","","","39","","","","key","16.6625263157895","768","355.5","true","1","144.36","12.287999999999998","4","-1","-1","","","","","","","","","","","","",""
"psychophysics","62","222965","0.0-8.0-0.15","636965c63844a6e955b6036a","6368f2eea3e9634aebcc2f6b","636b6fc4225b89f1ce79ecb4","1778","","","","39","","","","key","16.66275449101792","768","355.5","true","1","132.072","12.287999999999998","4","-1","-1","","","","","","","","","","","","",""
"psychophysics","63","224654","0.0-8.0-0.16","636965c63844a6e955b6036a","6368f2eea3e9634aebcc2f6b","636b6fc4225b89f1ce79ecb4","677","","","","39","","","","key","16.661600000000035","768","355.5","true","1","132.072","12.287999999999998","4","-1","-1","","","","","","","","","","","","",""
"psychophysics","64","228652","0.0-8.0-0.17","636965c63844a6e955b6036a","6368f2eea3e9634aebcc2f6b","636b6fc4225b89f1ce79ecb4","2996","","","","39","","","","key","16.662677824267803","768","355.5","true","-1","129","9.8304","5","1","-1","","","","","","","","","","","","",""
"psychophysics","65","230360","0.0-8.0-0.18","636965c63844a6e955b6036a","6368f2eea3e9634aebcc2f6b","636b6fc4225b89f1ce79ecb4","702","","","","37","","","","key","16.6631683168315","768","355.5","true","-1","138.8304","9.8304","5","-1","1","","","","","","","","","","","","",""
"psychophysics","66","231905","0.0-8.0-0.19","636965c63844a6e955b6036a","6368f2eea3e9634aebcc2f6b","636b6fc4225b89f1ce79ecb4","530","","","","37","","","","key","16.662826086956635","768","355.5","true","-1","138.8304","7.864319999999999","6","-1","-1","","","","","","","","","","","","",""
"psychophysics","67","235064","0.0-8.0-0.20","636965c63844a6e955b6036a","6368f2eea3e9634aebcc2f6b","636b6fc4225b89f1ce79ecb4","2146","","","","37","","","","key","16.66285714285714","768","355.5","true","1","130.96608","6.291456","7","1","-1","","","","","","","","","","","","",""
"psychophysics","68","236700","0.0-8.0-0.21","636965c63844a6e955b6036a","6368f2eea3e9634aebcc2f6b","636b6fc4225b89f1ce79ecb4","621","","","","37","","","","key","16.662061855670114","768","355.5","true","-1","137.25753600000002","6.291456","7","-1","1","","","","","","","","","","","","",""
"psychophysics","69","239370","0.0-8.0-0.22","636965c63844a6e955b6036a","6368f2eea3e9634aebcc2f6b","636b6fc4225b89f1ce79ecb4","1655","","","","37","","","","key","16.662641509433875","768","355.5","true","-1","137.25753600000002","5.033164800000001","8","-1","-1","","","","","","","","","","","","",""
"psychophysics","70","241005","0.0-8.0-0.23","636965c63844a6e955b6036a","6368f2eea3e9634aebcc2f6b","636b6fc4225b89f1ce79ecb4","625","","","","39","","","","key","16.66185567010321","768","355.5","true","1","132.2243712","5.033164800000001","8","-1","-1","","","","","","","","","","","","",""
"psychophysics","71","244074","0.0-8.0-0.24","636965c63844a6e955b6036a","6368f2eea3e9634aebcc2f6b","636b6fc4225b89f1ce79ecb4","2059","","","","39","","","","key","16.66295081967217","768","355.5","true","1","132.2243712","5.033164800000001","8","-1","-1","","","","","","","","","","","","",""
"psychophysics","72","246075","0.0-8.0-0.25","636965c63844a6e955b6036a","6368f2eea3e9634aebcc2f6b","636b6fc4225b89f1ce79ecb4","993","","","","39","","","","key","16.6625","768","355.5","true","1","129","5.033164800000001","8","-1","-1","","","","","","","","","","","","",""
"psychophysics","73","248297","0.0-8.0-0.26","636965c63844a6e955b6036a","6368f2eea3e9634aebcc2f6b","636b6fc4225b89f1ce79ecb4","1214","","","","39","","","","key","16.661818181818298","768","355.5","true","1","129","5.033164800000001","8","-1","-1","","","","","","","","","","","","",""
"psychophysics","74","251299","0.0-8.0-0.27","636965c63844a6e955b6036a","6368f2eea3e9634aebcc2f6b","636b6fc4225b89f1ce79ecb4","2002","","","","39","","","","key","16.663240223463692","768","355.5","true","-1","129","4.0265318400000005","9","1","-1","","","","","","","","","","","","",""
"psychophysics","75","253657","0.0-8.0-0.28","636965c63844a6e955b6036a","6368f2eea3e9634aebcc2f6b","636b6fc4225b89f1ce79ecb4","1355","","","","39","","","","key","16.662411347517896","768","355.5","true","-1","133.02653184","4.0265318400000005","9","1","1","","","","","","","","","","","","",""
"psychophysics","76","256027","0.0-8.0-0.29","636965c63844a6e955b6036a","6368f2eea3e9634aebcc2f6b","636b6fc4225b89f1ce79ecb4","1356","","","","39","","","","key","16.662695035460803","768","355.5","true","1","137.05306367999998","4.0265318400000005","9","-1","1","","","","","","","","","","","","",""
"psychophysics","77","258634","0.0-8.0-0.30","636965c63844a6e955b6036a","6368f2eea3e9634aebcc2f6b","636b6fc4225b89f1ce79ecb4","1593","","","","39","","","","key","16.662580645161178","768","355.5","true","-1","137.05306367999998","3.2212254720000004","10","1","-1","","","","","","","","","","","","",""
"psychophysics","78","260295","0.0-8.0-0.31","636965c63844a6e955b6036a","6368f2eea3e9634aebcc2f6b","636b6fc4225b89f1ce79ecb4","657","","","","39","","","","key","16.662020202019992","768","355.5","true","1","140.274289152","3.2212254720000004","10","-1","1","","","","","","","","","","","","",""
"psychophysics","79","261923","0.0-8.0-0.32","636965c63844a6e955b6036a","6368f2eea3e9634aebcc2f6b","636b6fc4225b89f1ce79ecb4","615","","","","39","","","","key","16.662680412371422","768","355.5","true","1","140.274289152","2.5769803776000004","11","-1","-1","","","","","","","","","","","","",""
"psychophysics","80","263500","0.0-8.0-0.33","636965c63844a6e955b6036a","6368f2eea3e9634aebcc2f6b","636b6fc4225b89f1ce79ecb4","566","","","","37","","","","key","16.662580645161242","768","355.5","true","-1","137.6973087744","2.5769803776000004","11","-1","-1","","","","","","","","","","","","",""
"psychophysics","81","264927","0.0-8.0-0.34","636965c63844a6e955b6036a","6368f2eea3e9634aebcc2f6b","636b6fc4225b89f1ce79ecb4","422","","","","39","","","","key","16.662352941176334","768","355.5","true","1","137.6973087744","2.5769803776000004","11","-1","-1","","","","","","","","","","","","",""
"psychophysics","82","266876","0.0-8.0-0.35","636965c63844a6e955b6036a","6368f2eea3e9634aebcc2f6b","636b6fc4225b89f1ce79ecb4","948","","","","39","","","","key","16.662931034482458","768","355.5","true","-1","135.1203283968","2.0615843020800004","12","1","-1","","","","","","","","","","","","",""
"psychophysics","83","268353","0.0-8.0-0.36","636965c63844a6e955b6036a","6368f2eea3e9634aebcc2f6b","636b6fc4225b89f1ce79ecb4","467","","","","37","","","","key","16.662272727272384","768","355.5","true","-1","137.18191269888","2.0615843020800004","12","-1","1","","","","","","","","","","","","",""
"psychophysics","84","269924","0.0-8.0-0.37","636965c63844a6e955b6036a","6368f2eea3e9634aebcc2f6b","636b6fc4225b89f1ce79ecb4","562","","","","37","","","","key","16.66322580645154","768","355.5","true","-1","137.18191269888","1.6492674416640005","13","-1","-1","","","","","","","","","","","","",""
"psychophysics","85","273504","0.0-8.0-0.38","636965c63844a6e955b6036a","6368f2eea3e9634aebcc2f6b","636b6fc4225b89f1ce79ecb4","2566","","","","37","","","","key","16.66233644859836","768","355.5","true","1","135.53264525721602","1.3194139533312006","14","1","-1","","","","","","","","","","","","",""
"psychophysics","86","274974","0.0-8.0-0.39","636965c63844a6e955b6036a","6368f2eea3e9634aebcc2f6b","636b6fc4225b89f1ce79ecb4","463","","","","39","","","","key","16.661379310344586","768","355.5","true","1","136.85205921054722","1.3194139533312006","14","-1","1","","","","","","","","","","","","",""
"html-keyboard-response","87","277792","0.0-9.0","636965c63844a6e955b6036a","6368f2eea3e9634aebcc2f6b","636b6fc4225b89f1ce79ecb4","2816","<p>Well Done !</p><p>Prepare for a new block.</p><p>DON'T EXIT THE FULL SCREEN MODE</p><p>Press the Spacebar to start.</p>","","","32","","","","","","","","","","","","","","","true","135.46298088767486","","","","","","","","","","",""
"psychophysics","88","279219","0.0-10.0-0.0","636965c63844a6e955b6036a","6368f2eea3e9634aebcc2f6b","636b6fc4225b89f1ce79ecb4","422","","","","39","","","","key","16.543023255814088","768","355.5","true","1","180","30","0","-1","","","","","","","","","","","","","",""
"psychophysics","89","280654","0.0-10.0-0.1","636965c63844a6e955b6036a","6368f2eea3e9634aebcc2f6b","636b6fc4225b89f1ce79ecb4","426","","","","39","","","","key","16.662588235293516","768","355.5","true","1","180","30","0","-1","-1","","","","","","","","","","","","",""
"psychophysics","90","282528","0.0-10.0-0.2","636965c63844a6e955b6036a","6368f2eea3e9634aebcc2f6b","636b6fc4225b89f1ce79ecb4","862","","","","39","","","","key","16.66288288288303","768","355.5","true","1","150","30","0","-1","-1","","","","","","","","","","","","",""
"psychophysics","91","284200","0.0-10.0-0.3","636965c63844a6e955b6036a","6368f2eea3e9634aebcc2f6b","636b6fc4225b89f1ce79ecb4","663","","","","39","","","","key","16.662999999999883","768","355.5","true","1","150","30","0","-1","-1","","","","","","","","","","","","",""
"psychophysics","92","286410","0.0-10.0-0.4","636965c63844a6e955b6036a","6368f2eea3e9634aebcc2f6b","636b6fc4225b89f1ce79ecb4","1206","","","","39","","","","key","16.66259541984724","768","355.5","true","1","129","30","0","-1","-1","","","","","","","","","","","","",""
"psychophysics","93","290588","0.0-10.0-0.5","636965c63844a6e955b6036a","6368f2eea3e9634aebcc2f6b","636b6fc4225b89f1ce79ecb4","3176","","","","39","","","","key","16.662560000000056","768","355.5","true","-1","129","24","1","1","-1","","","","","","","","","","","","",""
"psychophysics","94","292522","0.0-10.0-0.6","636965c63844a6e955b6036a","6368f2eea3e9634aebcc2f6b","636b6fc4225b89f1ce79ecb4","919","","","","39","","","","key","16.66313043478269","768","355.5","true","1","153","24","1","-1","1","","","","","","","","","","","","",""
"psychophysics","95","293898","0.0-10.0-0.7","636965c63844a6e955b6036a","6368f2eea3e9634aebcc2f6b","636b6fc4225b89f1ce79ecb4","371","","","","37","","","","key","16.66243902439033","768","355.5","true","-1","153","19.2","2","-1","-1","","","","","","","","","","","","",""
"psychophysics","96","297022","0.0-10.0-0.8","636965c63844a6e955b6036a","6368f2eea3e9634aebcc2f6b","636b6fc4225b89f1ce79ecb4","2110","","","","39","","","","key","16.66247311827942","768","355.5","true","1","133.8","19.2","2","-1","-1","","","","","","","","","","","","",""
"psychophysics","97","299298","0.0-10.0-0.9","636965c63844a6e955b6036a","6368f2eea3e9634aebcc2f6b","636b6fc4225b89f1ce79ecb4","1277","","","","39","","","","key","16.662794117646733","768","355.5","true","1","133.8","19.2","2","-1","-1","","","","","","","","","","","","",""
"psychophysics","98","302147","0.0-10.0-0.10","636965c63844a6e955b6036a","6368f2eea3e9634aebcc2f6b","636b6fc4225b89f1ce79ecb4","1834","","","","39","","","","key","16.662235294117743","768","355.5","true","-1","129","15.36","3","1","-1","","","","","","","","","","","","",""
"psychophysics","99","303554","0.0-10.0-0.11","636965c63844a6e955b6036a","6368f2eea3e9634aebcc2f6b","636b6fc4225b89f1ce79ecb4","400","","","","37","","","","key","16.66313253012023","768","355.5","true","-1","144.36","15.36","3","-1","1","","","","","","","","","","","","",""
"psychophysics","100","304949","0.0-10.0-0.12","636965c63844a6e955b6036a","6368f2eea3e9634aebcc2f6b","636b6fc4225b89f1ce79ecb4","381","","","","39","","","","key","16.66313253012023","768","355.5","true","1","144.36","12.287999999999998","4","-1","-1","","","","","","","","","","","","",""
"psychophysics","101","307198","0.0-10.0-0.13","636965c63844a6e955b6036a","6368f2eea3e9634aebcc2f6b","636b6fc4225b89f1ce79ecb4","1245","","","","39","","","","key","16.66253731343261","768","355.5","true","-1","132.072","9.8304","5","1","-1","","","","","","","","","","","","",""
"psychophysics","102","309136","0.0-10.0-0.14","636965c63844a6e955b6036a","6368f2eea3e9634aebcc2f6b","636b6fc4225b89f1ce79ecb4","930","","","","39","","","","key","16.66208695652186","768","355.5","true","1","141.9024","9.8304","5","-1","1","","","","","","","","","","","","",""
"psychophysics","103","310906","0.0-10.0-0.15","636965c63844a6e955b6036a","6368f2eea3e9634aebcc2f6b","636b6fc4225b89f1ce79ecb4","768","","","","37","","","","key","16.66304761904813","768","355.5","true","-1","141.9024","7.864319999999999","6","-1","-1","","","","","","","","","","","","",""
"psychophysics","104","313110","0.0-10.0-0.16","636965c63844a6e955b6036a","6368f2eea3e9634aebcc2f6b","636b6fc4225b89f1ce79ecb4","1191","","","","39","","","","key","16.66242424242426","768","355.5","true","1","134.03808","7.864319999999999","6","-1","-1","","","","","","","","","","","","",""
"psychophysics","105","316777","0.0-10.0-0.17","636965c63844a6e955b6036a","6368f2eea3e9634aebcc2f6b","636b6fc4225b89f1ce79ecb4","2654","","","","39","","","","key","16.662739726027194","768","355.5","true","1","134.03808","7.864319999999999","6","-1","-1","","","","","","","","","","","","",""
"psychophysics","106","318394","0.0-10.0-0.18","636965c63844a6e955b6036a","6368f2eea3e9634aebcc2f6b","636b6fc4225b89f1ce79ecb4","601","","","","39","","","","key","16.662499999999756","768","355.5","true","-1","129","6.291456","7","1","-1","","","","","","","","","","","","",""
"psychophysics","107","320341","0.0-10.0-0.19","636965c63844a6e955b6036a","6368f2eea3e9634aebcc2f6b","636b6fc4225b89f1ce79ecb4","942","","","","39","","","","key","16.662586206896933","768","355.5","true","1","135.291456","6.291456","7","-1","1","","","","","","","","","","","","",""
"psychophysics","108","322001","0.0-10.0-0.20","636965c63844a6e955b6036a","6368f2eea3e9634aebcc2f6b","636b6fc4225b89f1ce79ecb4","645","","","","39","","","","key","16.662040816326577","768","355.5","true","-1","135.291456","5.033164800000001","8","1","-1","","","","","","","","","","","","",""
"psychophysics","109","323703","0.0-10.0-0.21","636965c63844a6e955b6036a","6368f2eea3e9634aebcc2f6b","636b6fc4225b89f1ce79ecb4","687","","","","39","","","","key","16.66237623762399","768","355.5","true","1","140.32462080000002","5.033164800000001","8","-1","1","","","","","","","","","","","","",""
"psychophysics","110","325127","0.0-10.0-0.22","636965c63844a6e955b6036a","6368f2eea3e9634aebcc2f6b","636b6fc4225b89f1ce79ecb4","413","","","","37","","","","key","16.663294117647112","768","355.5","true","-1","140.32462080000002","4.0265318400000005","9","-1","-1","","","","","","","","","","","","",""
"psychophysics","111","327591","0.0-10.0-0.23","636965c63844a6e955b6036a","6368f2eea3e9634aebcc2f6b","636b6fc4225b89f1ce79ecb4","1461","","","","39","","","","key","16.662448979591474","768","355.5","true","-1","136.29808896000003","3.2212254720000004","10","1","-1","","","","","","","","","","","","",""
"psychophysics","112","329709","0.0-10.0-0.24","636965c63844a6e955b6036a","6368f2eea3e9634aebcc2f6b","636b6fc4225b89f1ce79ecb4","1108","","","","39","","","","key","16.66238095238112","768","355.5","true","1","139.51931443200004","3.2212254720000004","10","-1","1","","","","","","","","","","","","",""
"psychophysics","113","331691","0.0-10.0-0.25","636965c63844a6e955b6036a","6368f2eea3e9634aebcc2f6b","636b6fc4225b89f1ce79ecb4","973","","","","39","","","","key","16.662711864406386","768","355.5","true","1","139.51931443200004","2.5769803776000004","11","-1","-1","","","","","","","","","","","","",""
"psychophysics","114","333344","0.0-10.0-0.26","636965c63844a6e955b6036a","6368f2eea3e9634aebcc2f6b","636b6fc4225b89f1ce79ecb4","642","","","","37","","","","key","16.66244897959167","768","355.5","true","-1","136.94233405440005","2.5769803776000004","11","-1","-1","","","","","","","","","","","","",""
"psychophysics","115","334964","0.0-10.0-0.27","636965c63844a6e955b6036a","6368f2eea3e9634aebcc2f6b","636b6fc4225b89f1ce79ecb4","613","","","","37","","","","key","16.66333333333326","768","355.5","true","-1","136.94233405440005","2.5769803776000004","11","-1","-1","","","","","","","","","","","","",""
"psychophysics","116","337396","0.0-10.0-0.28","636965c63844a6e955b6036a","6368f2eea3e9634aebcc2f6b","636b6fc4225b89f1ce79ecb4","1427","","","","37","","","","key","16.66193103448263","768","355.5","true","-1","134.36535367680005","2.5769803776000004","11","-1","-1","","","","","","","","","","","","",""
"psychophysics","117","339455","0.0-10.0-0.29","636965c63844a6e955b6036a","6368f2eea3e9634aebcc2f6b","636b6fc4225b89f1ce79ecb4","1046","","","","39","","","","key","16.662439024390093","768","355.5","true","1","134.36535367680005","2.5769803776000004","11","-1","-1","","","","","","","","","","","","",""
"psychophysics","118","341391","0.0-10.0-0.30","636965c63844a6e955b6036a","6368f2eea3e9634aebcc2f6b","636b6fc4225b89f1ce79ecb4","926","","","","39","","","","key","16.662260869564996","768","355.5","true","-1","131.78837329920006","2.0615843020800004","12","1","-1","","","","","","","","","","","","",""
"psychophysics","119","343761","0.0-10.0-0.31","636965c63844a6e955b6036a","6368f2eea3e9634aebcc2f6b","636b6fc4225b89f1ce79ecb4","1366","","","","39","","","","key","16.66226950354613","768","355.5","true","1","133.84995760128007","2.0615843020800004","12","-1","1","","","","","","","","","","","","",""
"psychophysics","120","346125","0.0-10.0-0.32","636965c63844a6e955b6036a","6368f2eea3e9634aebcc2f6b","636b6fc4225b89f1ce79ecb4","1352","","","","39","","","","key","16.663262411347237","768","355.5","true","1","133.84995760128007","1.6492674416640005","13","-1","-1","","","","","","","","","","","","",""
"psychophysics","121","348918","0.0-10.0-0.33","636965c63844a6e955b6036a","6368f2eea3e9634aebcc2f6b","636b6fc4225b89f1ce79ecb4","1789","","","","39","","","","key","16.662874251497076","768","355.5","true","-1","132.20069015961607","1.3194139533312006","14","1","-1","","","","","","","","","","","","",""
"psychophysics","122","351029","0.0-10.0-0.34","636965c63844a6e955b6036a","6368f2eea3e9634aebcc2f6b","636b6fc4225b89f1ce79ecb4","1101","","","","39","","","","key","16.662399999999906","768","355.5","true","1","133.52010411294728","1.3194139533312006","14","-1","1","","","","","","","","","","","","",""
"psychophysics","123","353103","0.0-10.0-0.35","636965c63844a6e955b6036a","6368f2eea3e9634aebcc2f6b","636b6fc4225b89f1ce79ecb4","1063","","","","39","","","","key","16.663064516129275","768","355.5","true","-1","133.52010411294728","1.0555311626649604","15","1","-1","","","","","","","","","","","","",""
"psychophysics","124","354672","0.0-10.0-0.36","636965c63844a6e955b6036a","6368f2eea3e9634aebcc2f6b","636b6fc4225b89f1ce79ecb4","552","","","","37","","","","key","16.66193548387094","768","355.5","true","-1","134.57563527561223","1.0555311626649604","15","-1","1","","","","","","","","","","","","",""
"psychophysics","125","357163","0.0-10.0-0.37","636965c63844a6e955b6036a","6368f2eea3e9634aebcc2f6b","636b6fc4225b89f1ce79ecb4","1484","","","","39","","","","key","16.66324324324307","768","355.5","true","-1","134.57563527561223","1","16","1","-1","","","","","","","","","","","","",""
"psychophysics","126","359353","0.0-10.0-0.38","636965c63844a6e955b6036a","6368f2eea3e9634aebcc2f6b","636b6fc4225b89f1ce79ecb4","1189","","","","39","","","","key","16.662290076335506","768","355.5","true","-1","135.57563527561223","1","16","1","1","","","","","","","","","","","","",""
"psychophysics","127","360549","0.0-10.0-0.39","636965c63844a6e955b6036a","6368f2eea3e9634aebcc2f6b","636b6fc4225b89f1ce79ecb4","185","","","","37","","","","key","16.663098591549524","768","355.5","true","-1","136.57563527561223","1","16","-1","1","","","","","","","","","","","","",""
"html-keyboard-response","128","366785","0.0-11.0","636965c63844a6e955b6036a","6368f2eea3e9634aebcc2f6b","636b6fc4225b89f1ce79ecb4","6236","<p>Well Done !</p><p>Prepare for a new block.</p><p>DON'T EXIT THE FULL SCREEN MODE</p><p>Press the Spacebar to start.</p>","","","32","","","","","","","","","","","","","","","true","134.811094525608","","","","","","","","","","",""
"psychophysics","129","367908","0.0-12.0-0.0","636965c63844a6e955b6036a","6368f2eea3e9634aebcc2f6b","636b6fc4225b89f1ce79ecb4","114","","","","39","","","","key","16.284117647058928","768","355.5","true","1","180","30","0","-1","","","","","","","","","","","","","",""
"psychophysics","130","371066","0.0-12.0-0.1","636965c63844a6e955b6036a","6368f2eea3e9634aebcc2f6b","636b6fc4225b89f1ce79ecb4","2146","","","","39","","","","key","16.66306878306882","768","355.5","true","1","180","30","0","-1","-1","","","","","","","","","","","","",""
"psychophysics","131","372475","0.0-12.0-0.2","636965c63844a6e955b6036a","6368f2eea3e9634aebcc2f6b","636b6fc4225b89f1ce79ecb4","402","","","","39","","","","key","16.662409638553992","768","355.5","true","1","150","30","0","-1","-1","","","","","","","","","","","","",""
"psychophysics","132","374355","0.0-12.0-0.3","636965c63844a6e955b6036a","6368f2eea3e9634aebcc2f6b","636b6fc4225b89f1ce79ecb4","864","","","","39","","","","key","16.662678571428323","768","355.5","true","1","150","30","0","-1","-1","","","","","","","","","","","","",""
"psychophysics","133","376057","0.0-12.0-0.4","636965c63844a6e955b6036a","6368f2eea3e9634aebcc2f6b","636b6fc4225b89f1ce79ecb4","695","","","","39","","","","key","16.663366336633665","768","355.5","true","1","129","30","0","-1","-1","","","","","","","","","","","","",""
"psychophysics","134","377705","0.0-12.0-0.5","636965c63844a6e955b6036a","6368f2eea3e9634aebcc2f6b","636b6fc4225b89f1ce79ecb4","639","","","","39","","","","key","16.663673469388137","768","355.5","true","-1","129","24","1","1","-1","","","","","","","","","","","","",""
"psychophysics","135","379096","0.0-12.0-0.6","636965c63844a6e955b6036a","6368f2eea3e9634aebcc2f6b","636b6fc4225b89f1ce79ecb4","379","","","","37","","","","key","16.662409638553992","768","355.5","true","-1","153","24","1","-1","1","","","","","","","","","","","","",""
"psychophysics","136","380539","0.0-12.0-0.7","636965c63844a6e955b6036a","6368f2eea3e9634aebcc2f6b","636b6fc4225b89f1ce79ecb4","437","","","","37","","","","key","16.66282352941138","768","355.5","true","-1","153","19.2","2","-1","-1","","","","","","","","","","","","",""
"psychophysics","137","382893","0.0-12.0-0.8","636965c63844a6e955b6036a","6368f2eea3e9634aebcc2f6b","636b6fc4225b89f1ce79ecb4","1339","","","","39","","","","key","16.66269503546101","768","355.5","true","-1","133.8","15.36","3","1","-1","","","","","","","","","","","","",""
"psychophysics","138","384360","0.0-12.0-0.9","636965c63844a6e955b6036a","6368f2eea3e9634aebcc2f6b","636b6fc4225b89f1ce79ecb4","457","","","","39","","","","key","16.663218390804733","768","355.5","true","1","149.16000000000003","15.36","3","-1","1","","","","","","","","","","","","",""
"psychophysics","139","385764","0.0-12.0-0.10","636965c63844a6e955b6036a","6368f2eea3e9634aebcc2f6b","636b6fc4225b89f1ce79ecb4","390","","","","37","","","","key","16.6619277108427","768","355.5","true","-1","149.16000000000003","12.287999999999998","4","-1","-1","","","","","","","","","","","","",""
"psychophysics","140","387286","0.0-12.0-0.11","636965c63844a6e955b6036a","6368f2eea3e9634aebcc2f6b","636b6fc4225b89f1ce79ecb4","508","","","","39","","","","key","16.662222222221963","768","355.5","true","1","136.872","12.287999999999998","4","-1","-1","","","","","","","","","","","","",""
"psychophysics","141","388765","0.0-12.0-0.12","636965c63844a6e955b6036a","6368f2eea3e9634aebcc2f6b","636b6fc4225b89f1ce79ecb4","476","","","","39","","","","key","16.662954545454838","768","355.5","true","1","136.872","12.287999999999998","4","-1","-1","","","","","","","","","","","","",""
"psychophysics","142","390860","0.0-12.0-0.13","636965c63844a6e955b6036a","6368f2eea3e9634aebcc2f6b","636b6fc4225b89f1ce79ecb4","1080","","","","39","","","","key","16.662720000000206","768","355.5","true","-1","129","9.8304","5","1","-1","","","","","","","","","","","","",""
"psychophysics","143","392002","0.0-12.0-0.14","636965c63844a6e955b6036a","6368f2eea3e9634aebcc2f6b","636b6fc4225b89f1ce79ecb4","129","","","","37","","","","key","16.662985074627493","768","355.5","true","-1","138.8304","9.8304","5","-1","1","","","","","","","","","","","","",""
"psychophysics","144","393515","0.0-12.0-0.15","636965c63844a6e955b6036a","6368f2eea3e9634aebcc2f6b","636b6fc4225b89f1ce79ecb4","505","","","","39","","","","key","16.662888888888606","768","355.5","true","1","138.8304","7.864319999999999","6","-1","-1","","","","","","","","","","","","",""
"psychophysics","145","395350","0.0-12.0-0.16","636965c63844a6e955b6036a","6368f2eea3e9634aebcc2f6b","636b6fc4225b89f1ce79ecb4","827","","","","39","","","","key","16.6629357798166","768","355.5","true","1","130.96608","7.864319999999999","6","-1","-1","","","","","","","","","","","","",""
"psychophysics","146","397665","0.0-12.0-0.17","636965c63844a6e955b6036a","6368f2eea3e9634aebcc2f6b","636b6fc4225b89f1ce79ecb4","1313","","","","39","","","","key","16.661594202898467","768","355.5","true","-1","130.96608","6.291456","7","1","-1","","","","","","","","","","","","",""
"psychophysics","147","399081","0.0-12.0-0.18","636965c63844a6e955b6036a","6368f2eea3e9634aebcc2f6b","636b6fc4225b89f1ce79ecb4","409","","","","37","","","","key","16.66404761904726","768","355.5","true","-1","137.25753600000002","6.291456","7","-1","1","","","","","","","","","","","","",""
"psychophysics","148","400516","0.0-12.0-0.19","636965c63844a6e955b6036a","6368f2eea3e9634aebcc2f6b","636b6fc4225b89f1ce79ecb4","424","","","","39","","","","key","16.661411764706237","768","355.5","true","1","137.25753600000002","5.033164800000001","8","-1","-1","","","","","","","","","","","","",""
"psychophysics","149","403280","0.0-12.0-0.20","636965c63844a6e955b6036a","6368f2eea3e9634aebcc2f6b","636b6fc4225b89f1ce79ecb4","1755","","","","39","","","","key","16.66303030303009","768","355.5","true","1","132.2243712","5.033164800000001","8","-1","-1","","","","","","","","","","","","",""
"psychophysics","150","404989","0.0-12.0-0.21","636965c63844a6e955b6036a","6368f2eea3e9634aebcc2f6b","636b6fc4225b89f1ce79ecb4","707","","","","39","","","","key","16.662352941176447","768","355.5","true","-1","132.2243712","4.0265318400000005","9","1","-1","","","","","","","","","","","","",""
"psychophysics","151","406417","0.0-12.0-0.22","636965c63844a6e955b6036a","6368f2eea3e9634aebcc2f6b","636b6fc4225b89f1ce79ecb4","425","","","","37","","","","key","16.66285714285706","768","355.5","true","-1","136.25090304","4.0265318400000005","9","-1","1","","","","","","","","","","","","",""
"psychophysics","152","408986","0.0-12.0-0.23","636965c63844a6e955b6036a","6368f2eea3e9634aebcc2f6b","636b6fc4225b89f1ce79ecb4","1566","","","","39","","","","key","16.662727272727256","768","355.5","true","1","136.25090304","3.2212254720000004","10","-1","-1","","","","","","","","","","","","",""
"psychophysics","153","411587","0.0-12.0-0.24","636965c63844a6e955b6036a","6368f2eea3e9634aebcc2f6b","636b6fc4225b89f1ce79ecb4","1596","","","","39","","","","key","16.66283870967736","768","355.5","true","-1","133.029677568","2.5769803776000004","11","1","-1","","","","","","","","","","","","",""
"psychophysics","154","414162","0.0-12.0-0.25","636965c63844a6e955b6036a","6368f2eea3e9634aebcc2f6b","636b6fc4225b89f1ce79ecb4","1566","","","","39","","","","key","16.662875816993736","768","355.5","true","-1","135.6066579456","2.5769803776000004","11","1","1","","","","","","","","","","","","",""
"psychophysics","155","415704","0.0-12.0-0.26","636965c63844a6e955b6036a","6368f2eea3e9634aebcc2f6b","636b6fc4225b89f1ce79ecb4","529","","","","37","","","","key","16.661304347826366","768","355.5","true","-1","138.1836383232","2.5769803776000004","11","-1","1","","","","","","","","","","","","",""
"psychophysics","156","420790","0.0-12.0-0.27","636965c63844a6e955b6036a","6368f2eea3e9634aebcc2f6b","636b6fc4225b89f1ce79ecb4","4082","","","","39","","","","key","16.66282894736842","768","355.5","true","1","138.1836383232","2.0615843020800004","12","-1","-1","","","","","","","","","","","","",""
"psychophysics","157","422358","0.0-12.0-0.28","636965c63844a6e955b6036a","6368f2eea3e9634aebcc2f6b","636b6fc4225b89f1ce79ecb4","557","","","","39","","","","key","16.662150537634584","768","355.5","true","1","136.12205402112","2.0615843020800004","12","-1","-1","","","","","","","","","","","","",""
"psychophysics","158","423817","0.0-12.0-0.29","636965c63844a6e955b6036a","6368f2eea3e9634aebcc2f6b","636b6fc4225b89f1ce79ecb4","441","","","","37","","","","key","16.661839080459288","768","355.5","true","-1","136.12205402112","2.0615843020800004","12","-1","-1","","","","","","","","","","","","",""
"psychophysics","159","426881","0.0-12.0-0.30","636965c63844a6e955b6036a","6368f2eea3e9634aebcc2f6b","636b6fc4225b89f1ce79ecb4","2051","","","","39","","","","key","16.66295081967217","768","355.5","true","1","134.06046971904","2.0615843020800004","12","-1","-1","","","","","","","","","","","","",""
"psychophysics","160","428428","0.0-12.0-0.31","636965c63844a6e955b6036a","6368f2eea3e9634aebcc2f6b","636b6fc4225b89f1ce79ecb4","539","","","","39","","","","key","16.66241758241725","768","355.5","true","-1","134.06046971904","1.6492674416640005","13","1","-1","","","","","","","","","","","","",""
"psychophysics","161","430035","0.0-12.0-0.32","636965c63844a6e955b6036a","6368f2eea3e9634aebcc2f6b","636b6fc4225b89f1ce79ecb4","594","","","","39","","","","key","16.66208333333331","768","355.5","true","-1","135.70973716070398","1.6492674416640005","13","1","1","","","","","","","","","","","","",""
"psychophysics","162","431204","0.0-12.0-0.33","636965c63844a6e955b6036a","6368f2eea3e9634aebcc2f6b","636b6fc4225b89f1ce79ecb4","163","","","","37","","","","key","16.662898550724503","768","355.5","true","-1","137.35900460236797","1.6492674416640005","13","-1","1","","","","","","","","","","","","",""
"psychophysics","163","435015","0.0-12.0-0.34","636965c63844a6e955b6036a","6368f2eea3e9634aebcc2f6b","636b6fc4225b89f1ce79ecb4","2799","","","","39","","","","key","16.662894736842166","768","355.5","true","1","137.35900460236797","1.3194139533312006","14","-1","-1","","","","","","","","","","","","",""
"psychophysics","164","437766","0.0-12.0-0.35","636965c63844a6e955b6036a","6368f2eea3e9634aebcc2f6b","636b6fc4225b89f1ce79ecb4","1749","","","","39","","","","key","16.662317073170705","768","355.5","true","1","136.03959064903677","1.3194139533312006","14","-1","-1","","","","","","","","","","","","",""
"psychophysics","165","439955","0.0-12.0-0.36","636965c63844a6e955b6036a","6368f2eea3e9634aebcc2f6b","636b6fc4225b89f1ce79ecb4","1169","","","","39","","","","key","16.662769230769033","768","355.5","true","1","136.03959064903677","1.3194139533312006","14","-1","-1","","","","","","","","","","","","",""
"psychophysics","166","441979","0.0-12.0-0.37","636965c63844a6e955b6036a","6368f2eea3e9634aebcc2f6b","636b6fc4225b89f1ce79ecb4","1011","","","","39","","","","key","16.662479338843244","768","355.5","true","-1","134.72017669570556","1.0555311626649604","15","1","-1","","","","","","","","","","","","",""
"psychophysics","167","443766","0.0-12.0-0.38","636965c63844a6e955b6036a","6368f2eea3e9634aebcc2f6b","636b6fc4225b89f1ce79ecb4","776","","","","39","","","","key","16.662641509433875","768","355.5","true","-1","135.7757078583705","1.0555311626649604","15","1","1","","","","","","","","","","","","",""
"psychophysics","168","445578","0.0-12.0-0.39","636965c63844a6e955b6036a","6368f2eea3e9634aebcc2f6b","636b6fc4225b89f1ce79ecb4","811","","","","39","","","","key","16.66277777777793","768","355.5","true","1","136.83123902103546","1.0555311626649604","15","-1","1","","","","","","","","","","","","",""
"html-keyboard-response","169","447413","0.0-13.0","636965c63844a6e955b6036a","6368f2eea3e9634aebcc2f6b","636b6fc4225b89f1ce79ecb4","1834","<p>Well Done !</p><p>Prepare for a new block.</p><p>DON'T EXIT THE FULL SCREEN MODE</p><p>Press the Spacebar to start.</p>","","","32","","","","","","","","","","","","","","","true","136.14486888739629","","","","","","","","","","",""
"html-keyboard-response","170","447519","0.0-14.0","636965c63844a6e955b6036a","6368f2eea3e9634aebcc2f6b","636b6fc4225b89f1ce79ecb4","null","","","","null","","","","","","","","","","","","","","","","","135.5328700841793","true","143.06574016835862","","","","","","","",""
"instructions","171","483960","0.0-15.0","636965c63844a6e955b6036a","6368f2eea3e9634aebcc2f6b","636b6fc4225b89f1ce79ecb4","36439","","","","","","","[{""page_index"":0,""viewing_time"":33255},{""page_index"":1,""viewing_time"":1256},{""page_index"":2,""viewing_time"":1928}]","","","","","","","","","","","","","","","","","","","","","","","",""
"psychophysics","172","486967","0.0-16.0-0.0","636965c63844a6e955b6036a","6368f2eea3e9634aebcc2f6b","636b6fc4225b89f1ce79ecb4","null","","","","null","","","","key","16.37639344262234","768","355.5","","","","","","","","","","","","","","","","","","","",""
"psychophysics","173","487480","0.0-16.0-1.0","636965c63844a6e955b6036a","6368f2eea3e9634aebcc2f6b","636b6fc4225b89f1ce79ecb4","null","","","","null","","","","key","16.664137931032798","768","355.5","","","","","","","","","","","","","143","1","4","false","","","",""
"psychophysics","174","489002","0.0-16.0-2.0","636965c63844a6e955b6036a","6368f2eea3e9634aebcc2f6b","636b6fc4225b89f1ce79ecb4","1518","","","","77","","","","key","16.663076923076567","768","355.5","","","","","","","","","","","","","","","","","","","",""
"psychophysics","175","490005","0.0-16.0-0.1","636965c63844a6e955b6036a","6368f2eea3e9634aebcc2f6b","636b6fc4225b89f1ce79ecb4","null","","","","null","","","","key","16.661694915253882","768","355.5","","","","","","","","","","","","","","","","","","","",""
"psychophysics","176","490527","0.0-16.0-1.1","636965c63844a6e955b6036a","6368f2eea3e9634aebcc2f6b","636b6fc4225b89f1ce79ecb4","null","","","","null","","","","key","16.663999999999458","768","355.5","","","","","","","","","","","","","143","-1","0","false","","","",""
"psychophysics","177","491117","0.0-16.0-2.1","636965c63844a6e955b6036a","6368f2eea3e9634aebcc2f6b","636b6fc4225b89f1ce79ecb4","588","","","","77","","","","key","16.659999999999336","768","355.5","","","","","","","","","","","","","","","","","","","",""
"psychophysics","178","492127","0.0-16.0-0.2","636965c63844a6e955b6036a","6368f2eea3e9634aebcc2f6b","636b6fc4225b89f1ce79ecb4","null","","","","null","","","","key","16.663050847457548","768","355.5","","","","","","","","","","","","","","","","","","","",""
"psychophysics","179","492639","0.0-16.0-1.2","636965c63844a6e955b6036a","6368f2eea3e9634aebcc2f6b","636b6fc4225b89f1ce79ecb4","null","","","","null","","","","key","16.662666666666823","768","355.5","","","","","","","","","","","","","143","-1","5","false","","","",""
"psychophysics","180","492852","0.0-16.0-2.2","636965c63844a6e955b6036a","6368f2eea3e9634aebcc2f6b","636b6fc4225b89f1ce79ecb4","211","","","","77","","","","key","16.658333333335275","768","355.5","","","","","","","","","","","","","","","","","","","",""
"psychophysics","181","493865","0.0-16.0-0.3","636965c63844a6e955b6036a","6368f2eea3e9634aebcc2f6b","636b6fc4225b89f1ce79ecb4","null","","","","null","","","","key","16.664000000000428","768","355.5","","","","","","","","","","","","","","","","","","","",""
"psychophysics","182","494378","0.0-16.0-1.3","636965c63844a6e955b6036a","6368f2eea3e9634aebcc2f6b","636b6fc4225b89f1ce79ecb4","null","","","","null","","","","key","16.658620689656377","768","355.5","","","","","","","","","","","","","143","1","3","false","","","",""
"psychophysics","183","494738","0.0-16.0-2.3","636965c63844a6e955b6036a","6368f2eea3e9634aebcc2f6b","636b6fc4225b89f1ce79ecb4","357","","","","77","","","","key","16.6647619047629","768","355.5","","","","","","","","","","","","","","","","","","","",""
"psychophysics","184","495751","0.0-16.0-0.4","636965c63844a6e955b6036a","6368f2eea3e9634aebcc2f6b","636b6fc4225b89f1ce79ecb4","null","","","","null","","","","key","16.664000000000428","768","355.5","","","","","","","","","","","","","","","","","","","",""
"psychophysics","185","496255","0.0-16.0-1.4","636965c63844a6e955b6036a","6368f2eea3e9634aebcc2f6b","636b6fc4225b89f1ce79ecb4","null","","","","null","","","","key","16.660000000000483","768","355.5","","","","","","","","","","","","","143","-1","3","false","","","",""
"psychophysics","186","497793","0.0-16.0-2.4","636965c63844a6e955b6036a","6368f2eea3e9634aebcc2f6b","636b6fc4225b89f1ce79ecb4","1537","","","","90","","","","key","16.662197802197905","768","355.5","","","","","","","","","","","","","","","","","","","",""
"psychophysics","187","498807","0.0-16.0-0.5","636965c63844a6e955b6036a","6368f2eea3e9634aebcc2f6b","636b6fc4225b89f1ce79ecb4","null","","","","null","","","","key","16.662333333333176","768","355.5","","","","","","","","","","","","","","","","","","","",""
"psychophysics","188","499316","0.0-16.0-1.5","636965c63844a6e955b6036a","6368f2eea3e9634aebcc2f6b","636b6fc4225b89f1ce79ecb4","null","","","","null","","","","key","16.664666666666744","768","355.5","","","","","","","","","","","","","143","1","0","false","","","",""
"psychophysics","189","499696","0.0-16.0-2.5","636965c63844a6e955b6036a","6368f2eea3e9634aebcc2f6b","636b6fc4225b89f1ce79ecb4","379","","","","77","","","","key","16.657272727271035","768","355.5","","","","","","","","","","","","","","","","","","","",""
"psychophysics","190","500710","0.0-16.0-0.6","636965c63844a6e955b6036a","6368f2eea3e9634aebcc2f6b","636b6fc4225b89f1ce79ecb4","null","","","","null","","","","key","16.664406779661213","768","355.5","","","","","","","","","","","","","","","","","","","",""
"psychophysics","191","501223","0.0-16.0-1.6","636965c63844a6e955b6036a","6368f2eea3e9634aebcc2f6b","636b6fc4225b89f1ce79ecb4","null","","","","null","","","","key","16.664666666666744","768","355.5","","","","","","","","","","","","","143","-1","6","false","","","",""
"psychophysics","192","501631","0.0-16.0-2.6","636965c63844a6e955b6036a","6368f2eea3e9634aebcc2f6b","636b6fc4225b89f1ce79ecb4","407","","","","77","","","","key","16.656666666667054","768","355.5","","","","","","","","","","","","","","","","","","","",""
"psychophysics","193","502641","0.0-16.0-0.7","636965c63844a6e955b6036a","6368f2eea3e9634aebcc2f6b","636b6fc4225b89f1ce79ecb4","null","","","","null","","","","key","16.664067796610052","768","355.5","","","","","","","","","","","","","","","","","","","",""
"psychophysics","194","503154","0.0-16.0-1.7","636965c63844a6e955b6036a","6368f2eea3e9634aebcc2f6b","636b6fc4225b89f1ce79ecb4","null","","","","null","","","","key","16.659333333332324","768","355.5","","","","","","","","","","","","","143","1","5","false","","","",""
"psychophysics","195","503743","0.0-16.0-2.7","636965c63844a6e955b6036a","6368f2eea3e9634aebcc2f6b","636b6fc4225b89f1ce79ecb4","588","","","","77","","","","key","16.664705882352255","768","355.5","","","","","","","","","","","","","","","","","","","",""
"psychophysics","196","504745","0.0-16.0-0.8","636965c63844a6e955b6036a","6368f2eea3e9634aebcc2f6b","636b6fc4225b89f1ce79ecb4","null","","","","null","","","","key","16.663999999999458","768","355.5","","","","","","","","","","","","","","","","","","","",""
"psychophysics","197","505248","0.0-16.0-1.8","636965c63844a6e955b6036a","6368f2eea3e9634aebcc2f6b","636b6fc4225b89f1ce79ecb4","null","","","","null","","","","key","16.659310344827425","768","355.5","","","","","","","","","","","","","143","-1","4","false","","","",""
"psychophysics","198","505756","0.0-16.0-2.8","636965c63844a6e955b6036a","6368f2eea3e9634aebcc2f6b","636b6fc4225b89f1ce79ecb4","507","","","","77","","","","key","16.66482758620786","768","355.5","","","","","","","","","","","","","","","","","","","",""
"psychophysics","199","506770","0.0-16.0-0.9","636965c63844a6e955b6036a","6368f2eea3e9634aebcc2f6b","636b6fc4225b89f1ce79ecb4","null","","","","null","","","","key","16.944745762711708","768","355.5","","","","","","","","","","","","","","","","","","","",""
"psychophysics","200","507278","0.0-16.0-1.9","636965c63844a6e955b6036a","6368f2eea3e9634aebcc2f6b","636b6fc4225b89f1ce79ecb4","null","","","","null","","","","key","16.662666666666823","768","355.5","","","","","","","","","","","","","143","1","2","false","","","",""
"psychophysics","201","510230","0.0-16.0-2.9","636965c63844a6e955b6036a","6368f2eea3e9634aebcc2f6b","636b6fc4225b89f1ce79ecb4","2950","","","","77","","","","key","16.662159090908972","768","355.5","","","","","","","","","","","","","","","","","","","",""
"psychophysics","202","511235","0.0-16.0-0.10","636965c63844a6e955b6036a","6368f2eea3e9634aebcc2f6b","636b6fc4225b89f1ce79ecb4","null","","","","null","","","","key","16.663389830508713","768","355.5","","","","","","","","","","","","","","","","","","","",""
"psychophysics","203","511744","0.0-16.0-1.10","636965c63844a6e955b6036a","6368f2eea3e9634aebcc2f6b","636b6fc4225b89f1ce79ecb4","null","","","","null","","","","key","16.663999999999458","768","355.5","","","","","","","","","","","","","143","1","6","false","","","",""
"psychophysics","204","512401","0.0-16.0-2.10","636965c63844a6e955b6036a","6368f2eea3e9634aebcc2f6b","636b6fc4225b89f1ce79ecb4","656","","","","77","","","","key","16.664210526315543","768","355.5","","","","","","","","","","","","","","","","","","","",""
"psychophysics","205","513403","0.0-16.0-0.11","636965c63844a6e955b6036a","6368f2eea3e9634aebcc2f6b","636b6fc4225b89f1ce79ecb4","null","","","","null","","","","key","16.661694915253882","768","355.5","","","","","","","","","","","","","","","","","","","",""
"psychophysics","206","513915","0.0-16.0-1.11","636965c63844a6e955b6036a","6368f2eea3e9634aebcc2f6b","636b6fc4225b89f1ce79ecb4","null","","","","null","","","","key","16.659333333332324","768","355.5","","","","","","","","","","","","","143","-1","2","false","","","",""
"psychophysics","207","514452","0.0-16.0-2.11","636965c63844a6e955b6036a","6368f2eea3e9634aebcc2f6b","636b6fc4225b89f1ce79ecb4","536","","","","77","","","","key","16.664516129033384","768","355.5","","","","","","","","","","","","","","","","","","","",""
"psychophysics","208","515464","0.0-16.0-0.12","636965c63844a6e955b6036a","6368f2eea3e9634aebcc2f6b","636b6fc4225b89f1ce79ecb4","null","","","","null","","","","key","16.662000000000504","768","355.5","","","","","","","","","","","","","","","","","","","",""
"psychophysics","209","515977","0.0-16.0-1.12","636965c63844a6e955b6036a","6368f2eea3e9634aebcc2f6b","636b6fc4225b89f1ce79ecb4","null","","","","null","","","","key","16.663999999999458","768","355.5","","","","","","","","","","","","","143","-1","6","false","","","",""
"psychophysics","210","516713","0.0-16.0-2.12","636965c63844a6e955b6036a","6368f2eea3e9634aebcc2f6b","636b6fc4225b89f1ce79ecb4","735","","","","77","","","","key","16.661860465116767","768","355.5","","","","","","","","","","","","","","","","","","","",""
"psychophysics","211","517714","0.0-16.0-0.13","636965c63844a6e955b6036a","6368f2eea3e9634aebcc2f6b","636b6fc4225b89f1ce79ecb4","null","","","","null","","","","key","16.66203389830603","768","355.5","","","","","","","","","","","","","","","","","","","",""
"psychophysics","212","518237","0.0-16.0-1.13","636965c63844a6e955b6036a","6368f2eea3e9634aebcc2f6b","636b6fc4225b89f1ce79ecb4","null","","","","null","","","","key","16.664666666666744","768","355.5","","","","","","","","","","","","","143","1","0","false","","","",""
"psychophysics","213","519100","0.0-16.0-2.13","636965c63844a6e955b6036a","6368f2eea3e9634aebcc2f6b","636b6fc4225b89f1ce79ecb4","862","","","","77","","","","key","16.66196078431391","768","355.5","","","","","","","","","","","","","","","","","","","",""
"psychophysics","214","520102","0.0-16.0-0.14","636965c63844a6e955b6036a","6368f2eea3e9634aebcc2f6b","636b6fc4225b89f1ce79ecb4","null","","","","null","","","","key","16.663050847457548","768","355.5","","","","","","","","","","","","","","","","","","","",""
"psychophysics","215","520614","0.0-16.0-1.14","636965c63844a6e955b6036a","6368f2eea3e9634aebcc2f6b","636b6fc4225b89f1ce79ecb4","null","","","","null","","","","key","16.663999999999458","768","355.5","","","","","","","","","","","","","143","-1","2","false","","","",""
"psychophysics","216","522152","0.0-16.0-2.14","636965c63844a6e955b6036a","6368f2eea3e9634aebcc2f6b","636b6fc4225b89f1ce79ecb4","1538","","","","77","","","","key","16.662197802197266","768","355.5","","","","","","","","","","","","","","","","","","","",""
"psychophysics","217","523161","0.0-16.0-0.15","636965c63844a6e955b6036a","6368f2eea3e9634aebcc2f6b","636b6fc4225b89f1ce79ecb4","null","","","","null","","","","key","16.6606666666669","768","355.5","","","","","","","","","","","","","","","","","","","",""
"psychophysics","218","523674","0.0-16.0-1.15","636965c63844a6e955b6036a","6368f2eea3e9634aebcc2f6b","636b6fc4225b89f1ce79ecb4","null","","","","null","","","","key","16.664666666664804","768","355.5","","","","","","","","","","","","","143","-1","3","false","","","",""
"psychophysics","219","524531","0.0-16.0-2.15","636965c63844a6e955b6036a","6368f2eea3e9634aebcc2f6b","636b6fc4225b89f1ce79ecb4","854","","","","77","","","","key","16.66159999999916","768","355.5","","","","","","","","","","","","","","","","","","","",""
"psychophysics","220","525535","0.0-16.0-0.16","636965c63844a6e955b6036a","6368f2eea3e9634aebcc2f6b","636b6fc4225b89f1ce79ecb4","null","","","","null","","","","key","16.662711864406386","768","355.5","","","","","","","","","","","","","","","","","","","",""
"psychophysics","221","526049","0.0-16.0-1.16","636965c63844a6e955b6036a","6368f2eea3e9634aebcc2f6b","636b6fc4225b89f1ce79ecb4","null","","","","null","","","","key","16.664666666664804","768","355.5","","","","","","","","","","","","","143","-1","4","false","","","",""
"psychophysics","222","526970","0.0-16.0-2.16","636965c63844a6e955b6036a","6368f2eea3e9634aebcc2f6b","636b6fc4225b89f1ce79ecb4","921","","","","77","","","","key","16.66259259259311","768","355.5","","","","","","","","","","","","","","","","","","","",""
"psychophysics","223","527986","0.0-16.0-0.17","636965c63844a6e955b6036a","6368f2eea3e9634aebcc2f6b","636b6fc4225b89f1ce79ecb4","null","","","","null","","","","key","16.6643333333331","768","355.5","","","","","","","","","","","","","","","","","","","",""
"psychophysics","224","528499","0.0-16.0-1.17","636965c63844a6e955b6036a","6368f2eea3e9634aebcc2f6b","636b6fc4225b89f1ce79ecb4","null","","","","null","","","","key","16.664666666664804","768","355.5","","","","","","","","","","","","","143","1","4","false","","","",""
"psychophysics","225","529295","0.0-16.0-2.17","636965c63844a6e955b6036a","6368f2eea3e9634aebcc2f6b","636b6fc4225b89f1ce79ecb4","794","","","","77","","","","key","16.660000000000398","768","355.5","","","","","","","","","","","","","","","","","","","",""
"psychophysics","226","530299","0.0-16.0-0.18","636965c63844a6e955b6036a","6368f2eea3e9634aebcc2f6b","636b6fc4225b89f1ce79ecb4","null","","","","null","","","","key","16.663389830508713","768","355.5","","","","","","","","","","","","","","","","","","","",""
"psychophysics","227","530811","0.0-16.0-1.18","636965c63844a6e955b6036a","6368f2eea3e9634aebcc2f6b","636b6fc4225b89f1ce79ecb4","null","","","","null","","","","key","16.66333333333411","768","355.5","","","","","","","","","","","","","143","1","3","false","","","",""
"psychophysics","228","531764","0.0-16.0-2.18","636965c63844a6e955b6036a","6368f2eea3e9634aebcc2f6b","636b6fc4225b89f1ce79ecb4","952","","","","77","","","","key","16.663214285714535","768","355.5","","","","","","","","","","","","","","","","","","","",""
"psychophysics","229","532772","0.0-16.0-0.19","636965c63844a6e955b6036a","6368f2eea3e9634aebcc2f6b","636b6fc4225b89f1ce79ecb4","null","","","","null","","","","key","16.662333333333176","768","355.5","","","","","","","","","","","","","","","","","","","",""
"psychophysics","230","533285","0.0-16.0-1.19","636965c63844a6e955b6036a","6368f2eea3e9634aebcc2f6b","636b6fc4225b89f1ce79ecb4","null","","","","null","","","","key","16.66482758620786","768","355.5","","","","","","","","","","","","","143","1","2","false","","","",""
"psychophysics","231","534918","0.0-16.0-2.19","636965c63844a6e955b6036a","6368f2eea3e9634aebcc2f6b","636b6fc4225b89f1ce79ecb4","1629","","","","77","","","","key","16.662268041237017","768","355.5","","","","","","","","","","","","","","","","","","","",""
"psychophysics","232","535933","0.0-16.0-0.20","636965c63844a6e955b6036a","6368f2eea3e9634aebcc2f6b","636b6fc4225b89f1ce79ecb4","null","","","","null","","","","key","16.66433333333504","768","355.5","","","","","","","","","","","","","","","","","","","",""
"psychophysics","233","536445","0.0-16.0-1.20","636965c63844a6e955b6036a","6368f2eea3e9634aebcc2f6b","636b6fc4225b89f1ce79ecb4","null","","","","null","","","","key","16.65799999999969","768","355.5","","","","","","","","","","","","","143","1","5","false","","","",""
"psychophysics","234","537666","0.0-16.0-2.20","636965c63844a6e955b6036a","6368f2eea3e9634aebcc2f6b","636b6fc4225b89f1ce79ecb4","1219","","","","77","","","","key","16.664166666665956","768","355.5","","","","","","","","","","","","","","","","","","","",""
"psychophysics","235","538670","0.0-16.0-0.21","636965c63844a6e955b6036a","6368f2eea3e9634aebcc2f6b","636b6fc4225b89f1ce79ecb4","null","","","","null","","","","key","16.662333333333176","768","355.5","","","","","","","","","","","","","","","","","","","",""
"psychophysics","236","539184","0.0-16.0-1.21","636965c63844a6e955b6036a","6368f2eea3e9634aebcc2f6b","636b6fc4225b89f1ce79ecb4","null","","","","null","","","","key","16.657931034481315","768","355.5","","","","","","","","","","","","","143","-1","5","false","","","",""
"psychophysics","237","539911","0.0-16.0-2.21","636965c63844a6e955b6036a","6368f2eea3e9634aebcc2f6b","636b6fc4225b89f1ce79ecb4","727","","","","77","","","","key","16.66418604651022","768","355.5","","","","","","","","","","","","","","","","","","","",""
"psychophysics","238","540931","0.0-16.0-0.22","636965c63844a6e955b6036a","6368f2eea3e9634aebcc2f6b","636b6fc4225b89f1ce79ecb4","null","","","","null","","","","key","16.66366666666581","768","355.5","","","","","","","","","","","","","","","","","","","",""
"psychophysics","239","541438","0.0-16.0-1.22","636965c63844a6e955b6036a","6368f2eea3e9634aebcc2f6b","636b6fc4225b89f1ce79ecb4","null","","","","null","","","","key","16.661333333332248","768","355.5","","","","","","","","","","","","","143","1","6","false","","","",""
"psychophysics","240","542284","0.0-16.0-2.22","636965c63844a6e955b6036a","6368f2eea3e9634aebcc2f6b","636b6fc4225b89f1ce79ecb4","845","","","","90","","","","key","16.661632653062078","768","355.5","","","","","","","","","","","","","","","","","","","",""
"psychophysics","241","543298","0.0-16.0-0.23","636965c63844a6e955b6036a","6368f2eea3e9634aebcc2f6b","636b6fc4225b89f1ce79ecb4","null","","","","null","","","","key","16.6643333333331","768","355.5","","","","","","","","","","","","","","","","","","","",""
"psychophysics","242","543812","0.0-16.0-1.23","636965c63844a6e955b6036a","6368f2eea3e9634aebcc2f6b","636b6fc4225b89f1ce79ecb4","null","","","","null","","","","key","16.658666666666978","768","355.5","","","","","","","","","","","","","143","-1","0","false","","","",""
"psychophysics","243","545709","0.0-16.0-2.23","636965c63844a6e955b6036a","6368f2eea3e9634aebcc2f6b","636b6fc4225b89f1ce79ecb4","1894","","","","77","","","","key","16.663008849557894","768","355.5","","","","","","","","","","","","","","","","","","","",""
"html-keyboard-response","244","548302","0.0-17.0","636965c63844a6e955b6036a","6368f2eea3e9634aebcc2f6b","636b6fc4225b89f1ce79ecb4","2593","<p>Well Done !</p><p>Training Complete. Press the spacebar to start.</p><p>DON'T EXIT THE FULL SCREEN MODE</p>","","","32","","","","","","","","","","","","","","","","","","","","","","","","","","",""
"psychophysics","245","551313","0.0-18.0-0.0","636965c63844a6e955b6036a","6368f2eea3e9634aebcc2f6b","636b6fc4225b89f1ce79ecb4","null","","","","null","","","","key","16.309836065572245","768","355.5","","","","","","","","","","","","","","","","","","","",""
"psychophysics","246","551826","0.0-18.0-1.0","636965c63844a6e955b6036a","6368f2eea3e9634aebcc2f6b","636b6fc4225b89f1ce79ecb4","null","","","","null","","","","key","16.664666666668683","768","355.5","","","","","","","","","","","","","143","1","4","true","","","",""
"psychophysics","247","553902","0.0-18.0-2.0","636965c63844a6e955b6036a","6368f2eea3e9634aebcc2f6b","636b6fc4225b89f1ce79ecb4","2073","","","","77","","","","key","16.66225806451609","768","355.5","","","","","","","","","","","","","","","","","","","",""
"psychophysics","248","554916","0.0-18.0-0.1","636965c63844a6e955b6036a","6368f2eea3e9634aebcc2f6b","636b6fc4225b89f1ce79ecb4","null","","","","null","","","","key","16.662333333333176","768","355.5","","","","","","","","","","","","","","","","","","","",""
"psychophysics","249","555429","0.0-18.0-1.1","636965c63844a6e955b6036a","6368f2eea3e9634aebcc2f6b","636b6fc4225b89f1ce79ecb4","null","","","","null","","","","key","16.663448275861747","768","355.5","","","","","","","","","","","","","143","1","3","true","","","",""
"psychophysics","250","556234","0.0-18.0-2.1","636965c63844a6e955b6036a","6368f2eea3e9634aebcc2f6b","636b6fc4225b89f1ce79ecb4","801","","","","77","","","","key","16.662083333333914","768","355.5","","","","","","","","","","","","","","","","","","","",""
"psychophysics","251","557250","0.0-18.0-0.2","636965c63844a6e955b6036a","6368f2eea3e9634aebcc2f6b","636b6fc4225b89f1ce79ecb4","null","","","","null","","","","key","16.66333333333411","768","355.5","","","","","","","","","","","","","","","","","","","",""
"psychophysics","252","557763","0.0-18.0-1.2","636965c63844a6e955b6036a","6368f2eea3e9634aebcc2f6b","636b6fc4225b89f1ce79ecb4","null","","","","null","","","","key","16.660689655169524","768","355.5","","","","","","","","","","","","","143","-1","3","true","","","",""
"psychophysics","253","558339","0.0-18.0-2.2","636965c63844a6e955b6036a","6368f2eea3e9634aebcc2f6b","636b6fc4225b89f1ce79ecb4","571","","","","90","","","","key","16.663529411766348","768","355.5","","","","","","","","","","","","","","","","","","","",""
"psychophysics","254","559350","0.0-18.0-0.3","636965c63844a6e955b6036a","6368f2eea3e9634aebcc2f6b","636b6fc4225b89f1ce79ecb4","null","","","","null","","","","key","16.663000000000466","768","355.5","","","","","","","","","","","","","","","","","","","",""
"psychophysics","255","559865","0.0-18.0-1.3","636965c63844a6e955b6036a","6368f2eea3e9634aebcc2f6b","636b6fc4225b89f1ce79ecb4","null","","","","null","","","","key","16.66333333333411","768","355.5","","","","","","","","","","","","","143","1","5","true","","","",""
"psychophysics","256","560104","0.0-18.0-2.3","636965c63844a6e955b6036a","6368f2eea3e9634aebcc2f6b","636b6fc4225b89f1ce79ecb4","237","","","","77","","","","key","16.653846153846153","768","355.5","","","","","","","","","","","","","","","","","","","",""
"psychophysics","257","561110","0.0-18.0-0.4","636965c63844a6e955b6036a","6368f2eea3e9634aebcc2f6b","636b6fc4225b89f1ce79ecb4","null","","","","null","","","","key","16.66440677966023","768","355.5","","","","","","","","","","","","","","","","","","","",""
"psychophysics","258","561614","0.0-18.0-1.4","636965c63844a6e955b6036a","6368f2eea3e9634aebcc2f6b","636b6fc4225b89f1ce79ecb4","null","","","","null","","","","key","16.65799999999969","768","355.5","","","","","","","","","","","","","143","1","6","true","","","",""
"psychophysics","259","562184","0.0-18.0-2.4","636965c63844a6e955b6036a","6368f2eea3e9634aebcc2f6b","636b6fc4225b89f1ce79ecb4","569","","","","77","","","","key","16.664242424240168","768","355.5","","","","","","","","","","","","","","","","","","","",""
"psychophysics","260","563184","0.0-18.0-0.5","636965c63844a6e955b6036a","6368f2eea3e9634aebcc2f6b","636b6fc4225b89f1ce79ecb4","null","","","","null","","","","key","16.661355932203705","768","355.5","","","","","","","","","","","","","","","","","","","",""
"psychophysics","261","563687","0.0-18.0-1.5","636965c63844a6e955b6036a","6368f2eea3e9634aebcc2f6b","636b6fc4225b89f1ce79ecb4","null","","","","null","","","","key","16.664827586203845","768","355.5","","","","","","","","","","","","","143","-1","2","true","","","",""
"psychophysics","262","564537","0.0-18.0-2.5","636965c63844a6e955b6036a","6368f2eea3e9634aebcc2f6b","636b6fc4225b89f1ce79ecb4","850","","","","90","","","","key","16.662800000000278","768","355.5","","","","","","","","","","","","","","","","","","","",""
"psychophysics","263","565552","0.0-18.0-0.6","636965c63844a6e955b6036a","6368f2eea3e9634aebcc2f6b","636b6fc4225b89f1ce79ecb4","null","","","","null","","","","key","16.662333333333176","768","355.5","","","","","","","","","","","","","","","","","","","",""
"psychophysics","264","566066","0.0-18.0-1.6","636965c63844a6e955b6036a","6368f2eea3e9634aebcc2f6b","636b6fc4225b89f1ce79ecb4","null","","","","null","","","","key","16.664666666668683","768","355.5","","","","","","","","","","","","","143","1","2","true","","","",""
"psychophysics","265","566586","0.0-18.0-2.6","636965c63844a6e955b6036a","6368f2eea3e9634aebcc2f6b","636b6fc4225b89f1ce79ecb4","520","","","","90","","","","key","16.66066666666496","768","355.5","","","","","","","","","","","","","","","","","","","",""
"psychophysics","266","567594","0.0-18.0-0.7","636965c63844a6e955b6036a","6368f2eea3e9634aebcc2f6b","636b6fc4225b89f1ce79ecb4","null","","","","null","","","","key","16.663728813557903","768","355.5","","","","","","","","","","","","","","","","","","","",""
"psychophysics","267","568110","0.0-18.0-1.7","636965c63844a6e955b6036a","6368f2eea3e9634aebcc2f6b","636b6fc4225b89f1ce79ecb4","null","","","","null","","","","key","16.664000000001398","768","355.5","","","","","","","","","","","","","143","-1","0","true","","","",""
"psychophysics","268","568601","0.0-18.0-2.7","636965c63844a6e955b6036a","6368f2eea3e9634aebcc2f6b","636b6fc4225b89f1ce79ecb4","490","","","","77","","","","key","16.657241379308257","768","355.5","","","","","","","","","","","","","","","","","","","",""
"psychophysics","269","569607","0.0-18.0-0.8","636965c63844a6e955b6036a","6368f2eea3e9634aebcc2f6b","636b6fc4225b89f1ce79ecb4","null","","","","null","","","","key","16.66474576271139","768","355.5","","","","","","","","","","","","","","","","","","","",""
"psychophysics","270","570122","0.0-18.0-1.8","636965c63844a6e955b6036a","6368f2eea3e9634aebcc2f6b","636b6fc4225b89f1ce79ecb4","null","","","","null","","","","key","16.659999999997673","768","355.5","","","","","","","","","","","","","143","-1","6","true","","","",""
"psychophysics","271","570598","0.0-18.0-2.8","636965c63844a6e955b6036a","6368f2eea3e9634aebcc2f6b","636b6fc4225b89f1ce79ecb4","475","","","","77","","","","key","16.662857142854982","768","355.5","","","","","","","","","","","","","","","","","","","",""
"psychophysics","272","571614","0.0-18.0-0.9","636965c63844a6e955b6036a","6368f2eea3e9634aebcc2f6b","636b6fc4225b89f1ce79ecb4","null","","","","null","","","","key","16.661999999999534","768","355.5","","","","","","","","","","","","","","","","","","","",""
"psychophysics","273","572125","0.0-18.0-1.9","636965c63844a6e955b6036a","6368f2eea3e9634aebcc2f6b","636b6fc4225b89f1ce79ecb4","null","","","","null","","","","key","16.664137931034805","768","355.5","","","","","","","","","","","","","143","1","0","true","","","",""
"psychophysics","274","572571","0.0-18.0-2.9","636965c63844a6e955b6036a","6368f2eea3e9634aebcc2f6b","636b6fc4225b89f1ce79ecb4","445","","","","77","","","","key","16.66230769230662","768","355.5","","","","","","","","","","","","","","","","","","","",""
"psychophysics","275","573574","0.0-18.0-0.10","636965c63844a6e955b6036a","6368f2eea3e9634aebcc2f6b","636b6fc4225b89f1ce79ecb4","null","","","","null","","","","key","16.661355932201733","768","355.5","","","","","","","","","","","","","","","","","","","",""
"psychophysics","276","574086","0.0-18.0-1.10","636965c63844a6e955b6036a","6368f2eea3e9634aebcc2f6b","636b6fc4225b89f1ce79ecb4","null","","","","null","","","","key","16.664666666668683","768","355.5","","","","","","","","","","","","","143","-1","5","true","","","",""
"psychophysics","277","574528","0.0-18.0-2.10","636965c63844a6e955b6036a","6368f2eea3e9634aebcc2f6b","636b6fc4225b89f1ce79ecb4","441","","","","77","","","","key","16.659230769231307","768","355.5","","","","","","","","","","","","","","","","","","","",""
"psychophysics","278","575533","0.0-18.0-0.11","636965c63844a6e955b6036a","6368f2eea3e9634aebcc2f6b","636b6fc4225b89f1ce79ecb4","null","","","","null","","","","key","16.66440677966023","768","355.5","","","","","","","","","","","","","","","","","","","",""
"psychophysics","279","576047","0.0-18.0-1.11","636965c63844a6e955b6036a","6368f2eea3e9634aebcc2f6b","636b6fc4225b89f1ce79ecb4","null","","","","null","","","","key","16.66333333333411","768","355.5","","","","","","","","","","","","","143","-1","4","true","","","",""
"psychophysics","280","579773","0.0-18.0-2.11","636965c63844a6e955b6036a","6368f2eea3e9634aebcc2f6b","636b6fc4225b89f1ce79ecb4","3725","","","","77","","","","key","16.66261261261251","768","355.5","","","","","","","","","","","","","","","","","","","",""
"psychophysics","281","580778","0.0-18.0-0.12","636965c63844a6e955b6036a","6368f2eea3e9634aebcc2f6b","636b6fc4225b89f1ce79ecb4","null","","","","null","","","","key","16.662666666666823","768","355.5","","","","","","","","","","","","","","","","","","","",""
"psychophysics","282","581293","0.0-18.0-1.12","636965c63844a6e955b6036a","6368f2eea3e9634aebcc2f6b","636b6fc4225b89f1ce79ecb4","null","","","","null","","","","key","16.66066666666884","768","355.5","","","","","","","","","","","","","143","-1","0","true","","","",""
"psychophysics","283","581728","0.0-18.0-2.12","636965c63844a6e955b6036a","6368f2eea3e9634aebcc2f6b","636b6fc4225b89f1ce79ecb4","434","","","","77","","","","key","16.664799999999815","768","355.5","","","","","","","","","","","","","","","","","","","",""
"psychophysics","284","582730","0.0-18.0-0.13","636965c63844a6e955b6036a","6368f2eea3e9634aebcc2f6b","636b6fc4225b89f1ce79ecb4","null","","","","null","","","","key","16.662711864406386","768","355.5","","","","","","","","","","","","","","","","","","","",""
"psychophysics","285","583243","0.0-18.0-1.13","636965c63844a6e955b6036a","6368f2eea3e9634aebcc2f6b","636b6fc4225b89f1ce79ecb4","null","","","","null","","","","key","16.661333333332248","768","355.5","","","","","","","","","","","","","143","1","5","true","","","",""
"psychophysics","286","583773","0.0-18.0-2.13","636965c63844a6e955b6036a","6368f2eea3e9634aebcc2f6b","636b6fc4225b89f1ce79ecb4","528","","","","77","","","","key","16.664666666664804","768","355.5","","","","","","","","","","","","","","","","","","","",""
"psychophysics","287","584776","0.0-18.0-0.14","636965c63844a6e955b6036a","6368f2eea3e9634aebcc2f6b","636b6fc4225b89f1ce79ecb4","null","","","","null","","","","key","16.66333333333411","768","355.5","","","","","","","","","","","","","","","","","","","",""
"psychophysics","288","585288","0.0-18.0-1.14","636965c63844a6e955b6036a","6368f2eea3e9634aebcc2f6b","636b6fc4225b89f1ce79ecb4","null","","","","null","","","","key","16.660689655169524","768","355.5","","","","","","","","","","","","","143","1","0","true","","","",""
"psychophysics","289","586347","0.0-18.0-2.14","636965c63844a6e955b6036a","6368f2eea3e9634aebcc2f6b","636b6fc4225b89f1ce79ecb4","1058","","","","77","","","","key","16.66222222222178","768","355.5","","","","","","","","","","","","","","","","","","","",""
"psychophysics","290","587362","0.0-18.0-0.15","636965c63844a6e955b6036a","6368f2eea3e9634aebcc2f6b","636b6fc4225b89f1ce79ecb4","null","","","","null","","","","key","16.66366666666581","768","355.5","","","","","","","","","","","","","","","","","","","",""
"psychophysics","291","587865","0.0-18.0-1.15","636965c63844a6e955b6036a","6368f2eea3e9634aebcc2f6b","636b6fc4225b89f1ce79ecb4","null","","","","null","","","","key","16.661379310346593","768","355.5","","","","","","","","","","","","","143","-1","6","true","","","",""
"psychophysics","292","588289","0.0-18.0-2.15","636965c63844a6e955b6036a","6368f2eea3e9634aebcc2f6b","636b6fc4225b89f1ce79ecb4","423","","","","77","","","","key","16.66416666666919","768","355.5","","","","","","","","","","","","","","","","","","","",""
"psychophysics","293","589303","0.0-18.0-0.16","636965c63844a6e955b6036a","6368f2eea3e9634aebcc2f6b","636b6fc4225b89f1ce79ecb4","null","","","","null","","","","key","16.66166666666589","768","355.5","","","","","","","","","","","","","","","","","","","",""
"psychophysics","294","589805","0.0-18.0-1.16","636965c63844a6e955b6036a","6368f2eea3e9634aebcc2f6b","636b6fc4225b89f1ce79ecb4","null","","","","null","","","","key","16.664137931034805","768","355.5","","","","","","","","","","","","","143","-1","2","true","","","",""
"psychophysics","295","590442","0.0-18.0-2.16","636965c63844a6e955b6036a","6368f2eea3e9634aebcc2f6b","636b6fc4225b89f1ce79ecb4","633","","","","90","","","","key","16.662105263158754","768","355.5","","","","","","","","","","","","","","","","","","","",""
"psychophysics","296","591452","0.0-18.0-0.17","636965c63844a6e955b6036a","6368f2eea3e9634aebcc2f6b","636b6fc4225b89f1ce79ecb4","null","","","","null","","","","key","16.663389830508713","768","355.5","","","","","","","","","","","","","","","","","","","",""
"psychophysics","297","591957","0.0-18.0-1.17","636965c63844a6e955b6036a","6368f2eea3e9634aebcc2f6b","636b6fc4225b89f1ce79ecb4","null","","","","null","","","","key","16.661333333336128","768","355.5","","","","","","","","","","","","","143","1","6","true","","","",""
"psychophysics","298","592545","0.0-18.0-2.17","636965c63844a6e955b6036a","6368f2eea3e9634aebcc2f6b","636b6fc4225b89f1ce79ecb4","585","","","","77","","","","key","17.167878787879918","768","355.5","","","","","","","","","","","","","","","","","","","",""
"psychophysics","299","593560","0.0-18.0-0.18","636965c63844a6e955b6036a","6368f2eea3e9634aebcc2f6b","636b6fc4225b89f1ce79ecb4","null","","","","null","","","","key","16.66366666666581","768","355.5","","","","","","","","","","","","","","","","","","","",""
"psychophysics","300","594071","0.0-18.0-1.18","636965c63844a6e955b6036a","6368f2eea3e9634aebcc2f6b","636b6fc4225b89f1ce79ecb4","null","","","","null","","","","key","16.660000000000483","768","355.5","","","","","","","","","","","","","143","1","4","true","","","",""
"psychophysics","301","594375","0.0-18.0-2.18","636965c63844a6e955b6036a","6368f2eea3e9634aebcc2f6b","636b6fc4225b89f1ce79ecb4","302","","","","77","","","","key","16.66333333333023","768","355.5","","","","","","","","","","","","","","","","","","","",""
"psychophysics","302","595390","0.0-18.0-0.19","636965c63844a6e955b6036a","6368f2eea3e9634aebcc2f6b","636b6fc4225b89f1ce79ecb4","null","","","","null","","","","key","16.66333333333217","768","355.5","","","","","","","","","","","","","","","","","","","",""
"psychophysics","303","595894","0.0-18.0-1.19","636965c63844a6e955b6036a","6368f2eea3e9634aebcc2f6b","636b6fc4225b89f1ce79ecb4","null","","","","null","","","","key","16.66206896551965","768","355.5","","","","","","","","","","","","","143","1","2","true","","","",""
"psychophysics","304","596685","0.0-18.0-2.19","636965c63844a6e955b6036a","6368f2eea3e9634aebcc2f6b","636b6fc4225b89f1ce79ecb4","790","","","","77","","","","key","16.66304347826087","768","355.5","","","","","","","","","","","","","","","","","","","",""
"psychophysics","305","597700","0.0-18.0-0.20","636965c63844a6e955b6036a","6368f2eea3e9634aebcc2f6b","636b6fc4225b89f1ce79ecb4","null","","","","null","","","","key","16.66166666666589","768","355.5","","","","","","","","","","","","","","","","","","","",""
"psychophysics","306","598205","0.0-18.0-1.20","636965c63844a6e955b6036a","6368f2eea3e9634aebcc2f6b","636b6fc4225b89f1ce79ecb4","null","","","","null","","","","key","16.664666666664804","768","355.5","","","","","","","","","","","","","143","1","3","true","","","",""
"psychophysics","307","598875","0.0-18.0-2.20","636965c63844a6e955b6036a","6368f2eea3e9634aebcc2f6b","636b6fc4225b89f1ce79ecb4","667","","","","90","","","","key","16.662564102563266","768","355.5","","","","","","","","","","","","","","","","","","","",""
"psychophysics","308","599878","0.0-18.0-0.21","636965c63844a6e955b6036a","6368f2eea3e9634aebcc2f6b","636b6fc4225b89f1ce79ecb4","null","","","","null","","","","key","16.660338983050217","768","355.5","","","","","","","","","","","","","","","","","","","",""
"psychophysics","309","600394","0.0-18.0-1.21","636965c63844a6e955b6036a","6368f2eea3e9634aebcc2f6b","636b6fc4225b89f1ce79ecb4","null","","","","null","","","","key","16.664666666668683","768","355.5","","","","","","","","","","","","","143","-1","3","true","","","",""
"psychophysics","310","601786","0.0-18.0-2.21","636965c63844a6e955b6036a","6368f2eea3e9634aebcc2f6b","636b6fc4225b89f1ce79ecb4","1391","","","","77","","","","key","16.663170731707375","768","355.5","","","","","","","","","","","","","","","","","","","",""
"psychophysics","311","602798","0.0-18.0-0.22","636965c63844a6e955b6036a","6368f2eea3e9634aebcc2f6b","636b6fc4225b89f1ce79ecb4","null","","","","null","","","","key","16.662333333333176","768","355.5","","","","","","","","","","","","","","","","","","","",""
"psychophysics","312","603309","0.0-18.0-1.22","636965c63844a6e955b6036a","6368f2eea3e9634aebcc2f6b","636b6fc4225b89f1ce79ecb4","null","","","","null","","","","key","16.664666666668683","768","355.5","","","","","","","","","","","","","143","-1","4","true","","","",""
"psychophysics","313","603754","0.0-18.0-2.22","636965c63844a6e955b6036a","6368f2eea3e9634aebcc2f6b","636b6fc4225b89f1ce79ecb4","444","","","","77","","","","key","16.66230769230662","768","355.5","","","","","","","","","","","","","","","","","","","",""
"psychophysics","314","604757","0.0-18.0-0.23","636965c63844a6e955b6036a","6368f2eea3e9634aebcc2f6b","636b6fc4225b89f1ce79ecb4","null","","","","null","","","","key","16.661355932201733","768","355.5","","","","","","","","","","","","","","","","","","","",""
"psychophysics","315","605273","0.0-18.0-1.23","636965c63844a6e955b6036a","6368f2eea3e9634aebcc2f6b","636b6fc4225b89f1ce79ecb4","null","","","","null","","","","key","16.664000000001398","768","355.5","","","","","","","","","","","","","143","-1","5","true","","","",""
"psychophysics","316","606067","0.0-18.0-2.23","636965c63844a6e955b6036a","6368f2eea3e9634aebcc2f6b","636b6fc4225b89f1ce79ecb4","794","","","","77","","","","key","16.6617391304361","768","355.5","","","","","","","","","","","","","","","","","","","",""
"psychophysics","317","607078","0.0-18.0-0.24","636965c63844a6e955b6036a","6368f2eea3e9634aebcc2f6b","636b6fc4225b89f1ce79ecb4","null","","","","null","","","","key","16.662666666666823","768","355.5","","","","","","","","","","","","","","","","","","","",""
"psychophysics","318","607592","0.0-18.0-1.24","636965c63844a6e955b6036a","6368f2eea3e9634aebcc2f6b","636b6fc4225b89f1ce79ecb4","null","","","","null","","","","key","16.664666666664804","768","355.5","","","","","","","","","","","","","143","1","4","true","","","",""
"psychophysics","319","608492","0.0-18.0-2.24","636965c63844a6e955b6036a","6368f2eea3e9634aebcc2f6b","636b6fc4225b89f1ce79ecb4","899","","","","77","","","","key","16.662641509433875","768","355.5","","","","","","","","","","","","","","","","","","","",""
"psychophysics","320","609496","0.0-18.0-0.25","636965c63844a6e955b6036a","6368f2eea3e9634aebcc2f6b","636b6fc4225b89f1ce79ecb4","null","","","","null","","","","key","16.66440677966023","768","355.5","","","","","","","","","","","","","","","","","","","",""
"psychophysics","321","610011","0.0-18.0-1.25","636965c63844a6e955b6036a","6368f2eea3e9634aebcc2f6b","636b6fc4225b89f1ce79ecb4","null","","","","null","","","","key","16.661999999999534","768","355.5","","","","","","","","","","","","","143","-1","6","true","","","",""
"psychophysics","322","610648","0.0-18.0-2.25","636965c63844a6e955b6036a","6368f2eea3e9634aebcc2f6b","636b6fc4225b89f1ce79ecb4","638","","","","77","","","","key","16.66216216216216","768","355.5","","","","","","","","","","","","","","","","","","","",""
"psychophysics","323","611661","0.0-18.0-0.26","636965c63844a6e955b6036a","6368f2eea3e9634aebcc2f6b","636b6fc4225b89f1ce79ecb4","null","","","","null","","","","key","16.66333333333411","768","355.5","","","","","","","","","","","","","","","","","","","",""
"psychophysics","324","612175","0.0-18.0-1.26","636965c63844a6e955b6036a","6368f2eea3e9634aebcc2f6b","636b6fc4225b89f1ce79ecb4","null","","","","null","","","","key","16.659333333330384","768","355.5","","","","","","","","","","","","","143","1","3","true","","","",""
"psychophysics","325","612806","0.0-18.0-2.26","636965c63844a6e955b6036a","6368f2eea3e9634aebcc2f6b","636b6fc4225b89f1ce79ecb4","630","","","","90","","","","key","16.664324324323193","768","355.5","","","","","","","","","","","","","","","","","","","",""
"psychophysics","326","613815","0.0-18.0-0.27","636965c63844a6e955b6036a","6368f2eea3e9634aebcc2f6b","636b6fc4225b89f1ce79ecb4","null","","","","null","","","","key","16.66203389830603","768","355.5","","","","","","","","","","","","","","","","","","","",""
"psychophysics","327","614331","0.0-18.0-1.27","636965c63844a6e955b6036a","6368f2eea3e9634aebcc2f6b","636b6fc4225b89f1ce79ecb4","null","","","","null","","","","key","16.664000000001398","768","355.5","","","","","","","","","","","","","143","-1","3","true","","","",""
"psychophysics","328","616016","0.0-18.0-2.27","636965c63844a6e955b6036a","6368f2eea3e9634aebcc2f6b","636b6fc4225b89f1ce79ecb4","1684","","","","77","","","","key","16.66159999999916","768","355.5","","","","","","","","","","","","","","","","","","","",""
"psychophysics","329","617027","0.0-18.0-0.28","636965c63844a6e955b6036a","6368f2eea3e9634aebcc2f6b","636b6fc4225b89f1ce79ecb4","null","","","","null","","","","key","16.66366666666581","768","355.5","","","","","","","","","","","","","","","","","","","",""
"psychophysics","330","617539","0.0-18.0-1.28","636965c63844a6e955b6036a","6368f2eea3e9634aebcc2f6b","636b6fc4225b89f1ce79ecb4","null","","","","null","","","","key","16.659333333334263","768","355.5","","","","","","","","","","","","","143","-1","0","true","","","",""
"psychophysics","331","618121","0.0-18.0-2.28","636965c63844a6e955b6036a","6368f2eea3e9634aebcc2f6b","636b6fc4225b89f1ce79ecb4","578","","","","77","","","","key","16.664117647061016","768","355.5","","","","","","","","","","","","","","","","","","","",""
"psychophysics","332","619127","0.0-18.0-0.29","636965c63844a6e955b6036a","6368f2eea3e9634aebcc2f6b","636b6fc4225b89f1ce79ecb4","null","","","","null","","","","key","16.663050847457548","768","355.5","","","","","","","","","","","","","","","","","","","",""
"psychophysics","333","619642","0.0-18.0-1.29","636965c63844a6e955b6036a","6368f2eea3e9634aebcc2f6b","636b6fc4225b89f1ce79ecb4","null","","","","null","","","","key","16.66066666666884","768","355.5","","","","","","","","","","","","","143","-1","4","true","","","",""
"psychophysics","334","620169","0.0-18.0-2.29","636965c63844a6e955b6036a","6368f2eea3e9634aebcc2f6b","636b6fc4225b89f1ce79ecb4","526","","","","77","","","","key","16.664516129035263","768","355.5","","","","","","","","","","","","","","","","","","","",""
"psychophysics","335","621170","0.0-18.0-0.30","636965c63844a6e955b6036a","6368f2eea3e9634aebcc2f6b","636b6fc4225b89f1ce79ecb4","null","","","","null","","","","key","16.662372881357197","768","355.5","","","","","","","","","","","","","","","","","","","",""
"psychophysics","336","621672","0.0-18.0-1.30","636965c63844a6e955b6036a","6368f2eea3e9634aebcc2f6b","636b6fc4225b89f1ce79ecb4","null","","","","null","","","","key","16.662758620692706","768","355.5","","","","","","","","","","","","","143","1","6","true","","","",""
"psychophysics","337","622188","0.0-18.0-2.30","636965c63844a6e955b6036a","6368f2eea3e9634aebcc2f6b","636b6fc4225b89f1ce79ecb4","515","","","","77","","","","key","16.662666666666823","768","355.5","","","","","","","","","","","","","","","","","","","",""
"psychophysics","338","623197","0.0-18.0-0.31","636965c63844a6e955b6036a","6368f2eea3e9634aebcc2f6b","636b6fc4225b89f1ce79ecb4","null","","","","null","","","","key","16.66203389830603","768","355.5","","","","","","","","","","","","","","","","","","","",""
"psychophysics","339","623710","0.0-18.0-1.31","636965c63844a6e955b6036a","6368f2eea3e9634aebcc2f6b","636b6fc4225b89f1ce79ecb4","null","","","","null","","","","key","16.66333333333411","768","355.5","","","","","","","","","","","","","143","1","2","true","","","",""
