"trial_type","trial_index","time_elapsed","internal_node_id","PROLIFIC_PID","STUDY_ID","SESSION_ID","rt","stimulus","button_pressed","success","key_press","responses","isData","view_history","response_type","avg_frame_time","center_x","center_y","isSC","stim_side","trial_luminance","step_size","nReversal","correct","prev_ans","isThreshold","SC_threshold","final_threshold","isLuminance","FF_luminance","luminance","stimSide","ISInt","isFF","question_order","isSPQ","isCAPS","isAQ"
"pavlovia","0","7","0.0-0.0","5f30a3aafe3e9550d0b8333d","6368f2eea3e9634aebcc2f6b","636b47f8d80482492c7040d9","","","","","","","","","","","","","","","","","","","","","","","","","","","","","","","",""
"html-button-response","1","13972","0.0-1.0","5f30a3aafe3e9550d0b8333d","6368f2eea3e9634aebcc2f6b","636b47f8d80482492c7040d9","13961.899999976158","<div style='background-color: white; width:60%; margin: auto; padding: 50px; text-align: justify; text-justify: inter-word; margin-bottom: 20px;'><h1 style='text-align: center;'>Consent Form</h1><p>Please read this consent form carefully before deciding whether you would like to participate in this study. You have to be 18 years old or older to participate to this study.</p><p style='text-decoration: underline;'>Participation is voluntary:</p><p>It is your choice whether or not to participate in this research. If you choose to participate, you may change your mind and leave the study at any time. Refusal to participate or stopping your participation will involve no penalty or loss of benefits to which you are otherwise entitled.</p><p style='text-decoration: underline;'>Purpose of the Study:</p><p>To understand the mechanisms underlying human perception.</p><p style='text-decoration: underline;'>What you will do in this study:</p><p>You will be presented with a series of visual images and then you will press buttons on the keyboard of your computer to respond to simple questions about the images (e.g. Were one or two images presented?). In addition, you will be asked to complete a questionnaire concerning your beliefs and everyday mental and perceptual experiences.'</p><p style='text-decoration: underline;'> Time Required:</p><p>The study will take 40 minutes to complete. </p><p style='text-decoration: underline;'>Risks:</p><p>There are no anticipated risks associated with participating in this study that are beyond those experienced in everyday life. </p><p style='text-decoration: underline;'>Benefits:</p><p>There are no benefits to you in participating in the study. However, this study may lead to a better understanding of how different kinds of visual information are used.</p><p style='text-decoration: underline;'>Compensation:</p><p>You will be paid US$6.6/hour. </p><p style='text-decoration: underline;'>Privacy and Confidentiality:</p><p>Your participation in this study will be anonymous. No personal information about your name or identity will be asked or recorded. This anonymous data will be stored for several years and may be used for a variety of research purposes. The overall results of the study may be published, or the data files may be shared with other researchers, but your identity will not be revealed in any way. The online services we are using for this study may temporarily store your data, but this data will be downloaded and then promptly deleted from those services.Your data will not be permanently associated with your name, IP address, or any other identifiable information (e.g., your information will only be connected to your payment, not to any of your responses), though they may be temporarily stored together before we download and separate them. Even so, no guarantee of internet survey security can be given because, although unlikely, transmissions can be intercepted and IP addresses can be identified. The anonymous data may be shared publicly (for example, in conjunction with a resulting academic publication).</p><p style='text-decoration: underline;'>Participation and Withdrawal:</p><p>Your participation in this study is completely voluntary. You may stop responding to the stimuli or stop answering questions if you so choose and without penalty by exiting the full screen mode, closing this tab of your browser or redirecting it to a different website.</p><p style='text-decoration: underline;'>Contact Info of the Researcher: </p><p>If you have questions about this study, or if you would like to talk to the research team, please contact David Melcher (david.melcher@nyu.edu, md5050@nyu.edu) at the Perception and Active Cognition Laboratory, New York University Abu Dhabi, Computational Research Building, Saadiyat Island, Abu Dhabi, UAE.This research has been reviewed by the New York University Abu Dhabi Institutional Review Board (NYUAD IRB). To contact about your rights in this research, for questions, suggestions, or complaints that are not addressed by the researchers, please email IRBnyuad@nyu.edu, or call the NYUAD IRB at +971 2 628 4313. </p></div>","0","","","","","","","","","","","","","","","","","","","","","","","","","","","","",""
"fullscreen","2","15628","0.0-2.0","5f30a3aafe3e9550d0b8333d","6368f2eea3e9634aebcc2f6b","636b47f8d80482492c7040d9","","","","true","","","","","","","","","","","","","","","","","","","","","","","","","","","",""
"html-keyboard-response","3","31714","0.0-3.0","5f30a3aafe3e9550d0b8333d","6368f2eea3e9634aebcc2f6b","636b47f8d80482492c7040d9","16084.399999976158","<p>Welcome !</p><p>READ CAREFULLY THE FOLLOWING INDICATIONS:</p><p>From this moment you have ~40 minutes to complete the experiment.</p><p>During the experiment you will be prompted to take several breaks. Each break should not last longer than 2-3 minutes.</p><p>Make sure that your computer is plugged in and it's not running on battery power, even if the battery is already fully charged.</p><p>Turn off your phone and music, make sure that you are in a quiet room and that you will not be distracted for the next hour.</p><p>Failure to comply with the instructions and indications provided during the experiment will most likely result in the rejection of your data.<p>Press the spacebar to start.</p>","","","32","","","","","","","","","","","","","","","","","","","","","","","","","","",""
"survey-html-form","4","39403","0.0-4.0","5f30a3aafe3e9550d0b8333d","6368f2eea3e9634aebcc2f6b","636b47f8d80482492c7040d9","7686.399999976158","","","","","{""age"":""46"",""sex"":""M""}","true","","","","","","","","","","","","","","","","","","","","","","","","",""
"instructions","5","89618","0.0-5.0","5f30a3aafe3e9550d0b8333d","6368f2eea3e9634aebcc2f6b","636b47f8d80482492c7040d9","50211.39999997616","","","","","","","[{""page_index"":0,""viewing_time"":29582.899999976158},{""page_index"":1,""viewing_time"":10917},{""page_index"":2,""viewing_time"":9709.899999976158}]","","","","","","","","","","","","","","","","","","","","","","","",""
"psychophysics","6","96184","0.0-6.0-0.0","5f30a3aafe3e9550d0b8333d","6368f2eea3e9634aebcc2f6b","636b47f8d80482492c7040d9","5551.700000047684","","","","39","","","","key","16.832482051282064","621","298.5","true","1","180","30","0","-1","","","","","","","","","","","","","",""
"psychophysics","7","97446","0.0-6.0-0.1","5f30a3aafe3e9550d0b8333d","6368f2eea3e9634aebcc2f6b","636b47f8d80482492c7040d9","254.80000007152557","","","","37","","","","key","16.74282666666666","621","298.5","true","-1","180","30","0","-1","-1","","","","","","","","","","","","",""
"psychophysics","8","98656","0.0-6.0-0.2","5f30a3aafe3e9550d0b8333d","6368f2eea3e9634aebcc2f6b","636b47f8d80482492c7040d9","205.60000002384186","","","","39","","","","key","16.743197183098488","621","298.5","true","1","150","30","0","-1","-1","","","","","","","","","","","","",""
"psychophysics","9","102419","0.0-6.0-0.3","5f30a3aafe3e9550d0b8333d","6368f2eea3e9634aebcc2f6b","636b47f8d80482492c7040d9","2750.399999976158","","","","39","","","","key","16.742290178571498","621","298.5","true","1","150","30","0","-1","-1","","","","","","","","","","","","",""
"psychophysics","10","104430","0.0-6.0-0.4","5f30a3aafe3e9550d0b8333d","6368f2eea3e9634aebcc2f6b","636b47f8d80482492c7040d9","1006.8999999761581","","","","39","","","","key","16.743142857142928","621","298.5","true","-1","129","24","1","1","-1","","","","","","","","","","","","",""
"psychophysics","11","105466","0.0-6.0-0.5","5f30a3aafe3e9550d0b8333d","6368f2eea3e9634aebcc2f6b","636b47f8d80482492c7040d9","30.100000023841858","","","","39","","","","key","16.742566666666242","621","298.5","true","1","153","24","1","-1","1","","","","","","","","","","","","",""
"psychophysics","12","107819","0.0-6.0-0.6","5f30a3aafe3e9550d0b8333d","6368f2eea3e9634aebcc2f6b","636b47f8d80482492c7040d9","1349.2999999523163","","","","39","","","","key","16.74257142857137","621","298.5","true","1","153","19.2","2","-1","-1","","","","","","","","","","","","",""
"psychophysics","13","109554","0.0-6.0-0.7","5f30a3aafe3e9550d0b8333d","6368f2eea3e9634aebcc2f6b","636b47f8d80482492c7040d9","709.3999999761581","","","","39","","","","key","16.742640776699012","621","298.5","true","1","133.8","19.2","2","-1","-1","","","","","","","","","","","","",""
"psychophysics","14","111939","0.0-6.0-0.8","5f30a3aafe3e9550d0b8333d","6368f2eea3e9634aebcc2f6b","636b47f8d80482492c7040d9","1371.8000000715256","","","","37","","","","key","16.742624113475326","621","298.5","true","-1","133.8","19.2","2","-1","-1","","","","","","","","","","","","",""
"psychophysics","15","114439","0.0-6.0-0.9","5f30a3aafe3e9550d0b8333d","6368f2eea3e9634aebcc2f6b","636b47f8d80482492c7040d9","1493.5","","","","37","","","","key","16.74261486486491","621","298.5","true","-1","129","19.2","2","-1","-1","","","","","","","","","","","","",""
"psychophysics","16","116232","0.0-6.0-0.10","5f30a3aafe3e9550d0b8333d","6368f2eea3e9634aebcc2f6b","636b47f8d80482492c7040d9","788.7000000476837","","","","37","","","","key","16.742443396226626","621","298.5","true","-1","129","19.2","2","-1","-1","","","","","","","","","","","","",""
"psychophysics","17","119089","0.0-6.0-0.11","5f30a3aafe3e9550d0b8333d","6368f2eea3e9634aebcc2f6b","636b47f8d80482492c7040d9","1853.8999999761581","","","","37","","","","key","16.743182352941094","621","298.5","true","-1","129","19.2","2","-1","-1","","","","","","","","","","","","",""
"psychophysics","18","120782","0.0-6.0-0.12","5f30a3aafe3e9550d0b8333d","6368f2eea3e9634aebcc2f6b","636b47f8d80482492c7040d9","684.5999999046326","","","","37","","","","key","16.743000000000176","621","298.5","true","1","129","15.36","3","1","-1","","","","","","","","","","","","",""
"psychophysics","19","121914","0.0-6.0-0.13","5f30a3aafe3e9550d0b8333d","6368f2eea3e9634aebcc2f6b","636b47f8d80482492c7040d9","112.90000009536743","","","","39","","","","key","16.741537313432687","621","298.5","true","1","144.36","15.36","3","-1","1","","","","","","","","","","","","",""
"psychophysics","20","123079","0.0-6.0-0.14","5f30a3aafe3e9550d0b8333d","6368f2eea3e9634aebcc2f6b","636b47f8d80482492c7040d9","155.80000007152557","","","","37","","","","key","16.741478260869304","621","298.5","true","-1","144.36","12.287999999999998","4","-1","-1","","","","","","","","","","","","",""
"psychophysics","21","124792","0.0-6.0-0.15","5f30a3aafe3e9550d0b8333d","6368f2eea3e9634aebcc2f6b","636b47f8d80482492c7040d9","709.5","","","","37","","","","key","16.743574257425983","621","298.5","true","-1","132.072","12.287999999999998","4","-1","-1","","","","","","","","","","","","",""
"psychophysics","22","126366","0.0-6.0-0.16","5f30a3aafe3e9550d0b8333d","6368f2eea3e9634aebcc2f6b","636b47f8d80482492c7040d9","563.1000000238419","","","","37","","","","key","16.74282795698908","621","298.5","true","-1","132.072","12.287999999999998","4","-1","-1","","","","","","","","","","","","",""
"psychophysics","23","128211","0.0-6.0-0.17","5f30a3aafe3e9550d0b8333d","6368f2eea3e9634aebcc2f6b","636b47f8d80482492c7040d9","833.9000000953674","","","","37","","","","key","16.743055045871447","621","298.5","true","1","129","9.8304","5","1","-1","","","","","","","","","","","","",""
"psychophysics","24","130078","0.0-6.0-0.18","5f30a3aafe3e9550d0b8333d","6368f2eea3e9634aebcc2f6b","636b47f8d80482492c7040d9","859.1999999284744","","","","37","","","","key","16.742549549549377","621","298.5","true","-1","138.8304","9.8304","5","-1","1","","","","","","","","","","","","",""
"psychophysics","25","131570","0.0-6.0-0.19","5f30a3aafe3e9550d0b8333d","6368f2eea3e9634aebcc2f6b","636b47f8d80482492c7040d9","488.89999997615814","","","","39","","","","key","16.742534090909018","621","298.5","true","-1","138.8304","7.864319999999999","6","1","-1","","","","","","","","","","","","",""
"psychophysics","26","132933","0.0-6.0-0.20","5f30a3aafe3e9550d0b8333d","6368f2eea3e9634aebcc2f6b","636b47f8d80482492c7040d9","349.7000000476837","","","","37","","","","key","16.742312499999752","621","298.5","true","-1","146.69472","7.864319999999999","6","-1","1","","","","","","","","","","","","",""
"psychophysics","27","134216","0.0-6.0-0.21","5f30a3aafe3e9550d0b8333d","6368f2eea3e9634aebcc2f6b","636b47f8d80482492c7040d9","276","","","","37","","","","key","16.742736842105316","621","298.5","true","-1","146.69472","6.291456","7","-1","-1","","","","","","","","","","","","",""
"psychophysics","28","137158","0.0-6.0-0.22","5f30a3aafe3e9550d0b8333d","6368f2eea3e9634aebcc2f6b","636b47f8d80482492c7040d9","1938.7999999523163","","","","37","","","","key","16.742537142857245","621","298.5","true","-1","140.40326399999998","6.291456","7","-1","-1","","","","","","","","","","","","",""
"psychophysics","29","138268","0.0-6.0-0.23","5f30a3aafe3e9550d0b8333d","6368f2eea3e9634aebcc2f6b","636b47f8d80482492c7040d9","106.70000004768372","","","","37","","","","key","16.7423538461538","621","298.5","true","-1","140.40326399999998","6.291456","7","-1","-1","","","","","","","","","","","","",""
"psychophysics","30","140708","0.0-6.0-0.24","5f30a3aafe3e9550d0b8333d","6368f2eea3e9634aebcc2f6b","636b47f8d80482492c7040d9","1434.4000000953674","","","","37","","","","key","16.742503448275865","621","298.5","true","1","134.11180799999997","5.033164800000001","8","1","-1","","","","","","","","","","","","",""
"psychophysics","31","142019","0.0-6.0-0.25","5f30a3aafe3e9550d0b8333d","6368f2eea3e9634aebcc2f6b","636b47f8d80482492c7040d9","308.2999999523163","","","","37","","","","key","16.74364935064933","621","298.5","true","-1","139.14497279999998","5.033164800000001","8","-1","1","","","","","","","","","","","","",""
"psychophysics","32","144033","0.0-6.0-0.26","5f30a3aafe3e9550d0b8333d","6368f2eea3e9634aebcc2f6b","636b47f8d80482492c7040d9","998.6000000238419","","","","39","","","","key","16.74247899159648","621","298.5","true","1","139.14497279999998","4.0265318400000005","9","-1","-1","","","","","","","","","","","","",""
"psychophysics","33","145749","0.0-6.0-0.27","5f30a3aafe3e9550d0b8333d","6368f2eea3e9634aebcc2f6b","636b47f8d80482492c7040d9","708","","","","37","","","","key","16.742411764705835","621","298.5","true","-1","135.11844096","4.0265318400000005","9","-1","-1","","","","","","","","","","","","",""
"psychophysics","34","147523","0.0-6.0-0.28","5f30a3aafe3e9550d0b8333d","6368f2eea3e9634aebcc2f6b","636b47f8d80482492c7040d9","771.3000000715256","","","","37","","","","key","16.74257142857144","621","298.5","true","-1","135.11844096","4.0265318400000005","9","-1","-1","","","","","","","","","","","","",""
"psychophysics","35","149479","0.0-6.0-0.29","5f30a3aafe3e9550d0b8333d","6368f2eea3e9634aebcc2f6b","636b47f8d80482492c7040d9","951.1999999284744","","","","37","","","","key","16.74300869565214","621","298.5","true","1","131.09190912","3.2212254720000004","10","1","-1","","","","","","","","","","","","",""
"psychophysics","36","151244","0.0-6.0-0.30","5f30a3aafe3e9550d0b8333d","6368f2eea3e9634aebcc2f6b","636b47f8d80482492c7040d9","758.6999999284744","","","","37","","","","key","16.74259047619056","621","298.5","true","1","134.31313459199998","3.2212254720000004","10","1","1","","","","","","","","","","","","",""
"psychophysics","37","152466","0.0-6.0-0.31","5f30a3aafe3e9550d0b8333d","6368f2eea3e9634aebcc2f6b","636b47f8d80482492c7040d9","210.19999992847443","","","","39","","","","key","16.742944444444422","621","298.5","true","1","137.534360064","3.2212254720000004","10","-1","1","","","","","","","","","","","","",""
"psychophysics","38","153628","0.0-6.0-0.32","5f30a3aafe3e9550d0b8333d","6368f2eea3e9634aebcc2f6b","636b47f8d80482492c7040d9","144.5","","","","37","","","","key","16.74030882352963","621","298.5","true","-1","137.534360064","2.5769803776000004","11","-1","-1","","","","","","","","","","","","",""
"psychophysics","39","155916","0.0-6.0-0.33","5f30a3aafe3e9550d0b8333d","6368f2eea3e9634aebcc2f6b","636b47f8d80482492c7040d9","1282.3999999761581","","","","37","","","","key","16.743441176470643","621","298.5","true","1","134.9573796864","2.0615843020800004","12","1","-1","","","","","","","","","","","","",""
"psychophysics","40","158674","0.0-6.0-0.34","5f30a3aafe3e9550d0b8333d","6368f2eea3e9634aebcc2f6b","636b47f8d80482492c7040d9","1750.3000000715256","","","","39","","","","key","16.74216463414632","621","298.5","true","1","137.01896398848","2.0615843020800004","12","-1","1","","","","","","","","","","","","",""
"psychophysics","41","160047","0.0-6.0-0.35","5f30a3aafe3e9550d0b8333d","6368f2eea3e9634aebcc2f6b","636b47f8d80482492c7040d9","370","","","","37","","","","key","16.7442962962963","621","298.5","true","-1","137.01896398848","1.6492674416640005","13","-1","-1","","","","","","","","","","","","",""
"psychophysics","42","162225","0.0-6.0-0.36","5f30a3aafe3e9550d0b8333d","6368f2eea3e9634aebcc2f6b","636b47f8d80482492c7040d9","1175","","","","37","","","","key","16.74272093023246","621","298.5","true","1","135.36969654681602","1.3194139533312006","14","1","-1","","","","","","","","","","","","",""
"psychophysics","43","164067","0.0-6.0-0.37","5f30a3aafe3e9550d0b8333d","6368f2eea3e9634aebcc2f6b","636b47f8d80482492c7040d9","828.3999999761581","","","","37","","","","key","16.741944954128467","621","298.5","true","1","136.68911050014722","1.3194139533312006","14","1","1","","","","","","","","","","","","",""
"psychophysics","44","166158","0.0-6.0-0.38","5f30a3aafe3e9550d0b8333d","6368f2eea3e9634aebcc2f6b","636b47f8d80482492c7040d9","1078.2000000476837","","","","37","","","","key","16.742782258064366","621","298.5","true","1","138.00852445347843","1.3194139533312006","14","1","1","","","","","","","","","","","","",""
"psychophysics","45","167393","0.0-6.0-0.39","5f30a3aafe3e9550d0b8333d","6368f2eea3e9634aebcc2f6b","636b47f8d80482492c7040d9","231","","","","39","","","","key","16.743222222222055","621","298.5","true","1","139.32793840680964","1.3194139533312006","14","-1","1","","","","","","","","","","","","",""
"html-keyboard-response","46","172594","0.0-7.0","5f30a3aafe3e9550d0b8333d","6368f2eea3e9634aebcc2f6b","636b47f8d80482492c7040d9","5197.800000071526","<p>Well Done !</p><p>Prepare for a new block.</p><p>DON'T EXIT THE FULL SCREEN MODE</p><p>Press the Spacebar to start.</p>","","","32","","","","","","","","","","","","","","","true","136.49274459537406","","","","","","","","","","",""
"psychophysics","47","174111","0.0-8.0-0.0","5f30a3aafe3e9550d0b8333d","6368f2eea3e9634aebcc2f6b","636b47f8d80482492c7040d9","509.2000000476837","","","","37","","","","key","16.812788888889028","621","298.5","true","-1","180","30","0","-1","","","","","","","","","","","","","",""
"psychophysics","48","176726","0.0-8.0-0.1","5f30a3aafe3e9550d0b8333d","6368f2eea3e9634aebcc2f6b","636b47f8d80482492c7040d9","1610.1000000238419","","","","37","","","","key","16.74258064516133","621","298.5","true","-1","180","30","0","-1","-1","","","","","","","","","","","","",""
"psychophysics","49","177761","0.0-8.0-0.2","5f30a3aafe3e9550d0b8333d","6368f2eea3e9634aebcc2f6b","636b47f8d80482492c7040d9","22.40000009536743","","","","39","","","","key","16.742836065573684","621","298.5","true","1","150","30","0","-1","-1","","","","","","","","","","","","",""
"psychophysics","50","179034","0.0-8.0-0.3","5f30a3aafe3e9550d0b8333d","6368f2eea3e9634aebcc2f6b","636b47f8d80482492c7040d9","256.7999999523163","","","","39","","","","key","16.74269333333359","621","298.5","true","1","150","30","0","-1","-1","","","","","","","","","","","","",""
"psychophysics","51","180738","0.0-8.0-0.4","5f30a3aafe3e9550d0b8333d","6368f2eea3e9634aebcc2f6b","636b47f8d80482492c7040d9","691","","","","39","","","","key","16.742719999999974","621","298.5","true","-1","129","24","1","1","-1","","","","","","","","","","","","",""
"psychophysics","52","181782","0.0-8.0-0.5","5f30a3aafe3e9550d0b8333d","6368f2eea3e9634aebcc2f6b","636b47f8d80482492c7040d9","41","","","","37","","","","key","16.741580645161335","621","298.5","true","-1","153","24","1","-1","1","","","","","","","","","","","","",""
"psychophysics","53","182946","0.0-8.0-0.6","5f30a3aafe3e9550d0b8333d","6368f2eea3e9634aebcc2f6b","636b47f8d80482492c7040d9","153.60000002384186","","","","37","","","","key","16.7418088235294","621","298.5","true","-1","153","19.2","2","-1","-1","","","","","","","","","","","","",""
"psychophysics","54","184660","0.0-8.0-0.7","5f30a3aafe3e9550d0b8333d","6368f2eea3e9634aebcc2f6b","636b47f8d80482492c7040d9","709.2000000476837","","","","37","","","","key","16.742480392156935","621","298.5","true","-1","133.8","19.2","2","-1","-1","","","","","","","","","","","","",""
"psychophysics","55","186267","0.0-8.0-0.8","5f30a3aafe3e9550d0b8333d","6368f2eea3e9634aebcc2f6b","636b47f8d80482492c7040d9","591.8000000715256","","","","37","","","","key","16.7425052631579","621","298.5","true","1","133.8","15.36","3","1","-1","","","","","","","","","","","","",""
"psychophysics","56","187339","0.0-8.0-0.9","5f30a3aafe3e9550d0b8333d","6368f2eea3e9634aebcc2f6b","636b47f8d80482492c7040d9","57.60000002384186","","","","39","","","","key","16.742666666666675","621","298.5","true","1","149.16000000000003","15.36","3","-1","1","","","","","","","","","","","","",""
"psychophysics","57","188424","0.0-8.0-0.10","5f30a3aafe3e9550d0b8333d","6368f2eea3e9634aebcc2f6b","636b47f8d80482492c7040d9","75.79999995231628","","","","37","","","","key","16.743587301587613","621","298.5","true","-1","149.16000000000003","12.287999999999998","4","-1","-1","","","","","","","","","","","","",""
"psychophysics","58","189485","0.0-8.0-0.11","5f30a3aafe3e9550d0b8333d","6368f2eea3e9634aebcc2f6b","636b47f8d80482492c7040d9","56","","","","39","","","","key","16.7426031746034","621","298.5","true","1","136.872","12.287999999999998","4","-1","-1","","","","","","","","","","","","",""
"psychophysics","59","190670","0.0-8.0-0.12","5f30a3aafe3e9550d0b8333d","6368f2eea3e9634aebcc2f6b","636b47f8d80482492c7040d9","177","","","","37","","","","key","16.741214285714005","621","298.5","true","-1","136.872","12.287999999999998","4","-1","-1","","","","","","","","","","","","",""
"psychophysics","60","192153","0.0-8.0-0.13","5f30a3aafe3e9550d0b8333d","6368f2eea3e9634aebcc2f6b","636b47f8d80482492c7040d9","481.2999999523163","","","","37","","","","key","16.743804597701267","621","298.5","true","1","129","9.8304","5","1","-1","","","","","","","","","","","","",""
"psychophysics","61","195041","0.0-8.0-0.14","5f30a3aafe3e9550d0b8333d","6368f2eea3e9634aebcc2f6b","636b47f8d80482492c7040d9","1883.8999999761581","","","","39","","","","key","16.742982558139566","621","298.5","true","1","138.8304","9.8304","5","-1","1","","","","","","","","","","","","",""
"psychophysics","62","196144","0.0-8.0-0.15","5f30a3aafe3e9550d0b8333d","6368f2eea3e9634aebcc2f6b","636b47f8d80482492c7040d9","90.29999995231628","","","","37","","","","key","16.742169230768923","621","298.5","true","-1","138.8304","7.864319999999999","6","-1","-1","","","","","","","","","","","","",""
"psychophysics","63","198487","0.0-8.0-0.16","5f30a3aafe3e9550d0b8333d","6368f2eea3e9634aebcc2f6b","636b47f8d80482492c7040d9","1339.9000000953674","","","","39","","","","key","16.743637681159655","621","298.5","true","1","130.96608","7.864319999999999","6","-1","-1","","","","","","","","","","","","",""
"psychophysics","64","200046","0.0-8.0-0.17","5f30a3aafe3e9550d0b8333d","6368f2eea3e9634aebcc2f6b","636b47f8d80482492c7040d9","555.8999999761581","","","","39","","","","key","16.74260215053738","621","298.5","true","1","130.96608","7.864319999999999","6","-1","-1","","","","","","","","","","","","",""
"psychophysics","65","201541","0.0-8.0-0.18","5f30a3aafe3e9550d0b8333d","6368f2eea3e9634aebcc2f6b","636b47f8d80482492c7040d9","492","","","","39","","","","key","16.741818181817838","621","298.5","true","-1","129","6.291456","7","1","-1","","","","","","","","","","","","",""
"psychophysics","66","202885","0.0-8.0-0.19","5f30a3aafe3e9550d0b8333d","6368f2eea3e9634aebcc2f6b","636b47f8d80482492c7040d9","335.2000000476837","","","","39","","","","key","16.74268354430332","621","298.5","true","1","135.291456","6.291456","7","-1","1","","","","","","","","","","","","",""
"psychophysics","67","204942","0.0-8.0-0.20","5f30a3aafe3e9550d0b8333d","6368f2eea3e9634aebcc2f6b","636b47f8d80482492c7040d9","1050.8999999761581","","","","39","","","","key","16.742942622951023","621","298.5","true","-1","135.291456","5.033164800000001","8","1","-1","","","","","","","","","","","","",""
"psychophysics","68","206137","0.0-8.0-0.21","5f30a3aafe3e9550d0b8333d","6368f2eea3e9634aebcc2f6b","636b47f8d80482492c7040d9","185.19999992847443","","","","39","","","","key","16.74264285714349","621","298.5","true","1","140.32462080000002","5.033164800000001","8","-1","1","","","","","","","","","","","","",""
"psychophysics","69","207198","0.0-8.0-0.22","5f30a3aafe3e9550d0b8333d","6368f2eea3e9634aebcc2f6b","636b47f8d80482492c7040d9","55.299999952316284","","","","39","","","","key","16.742333333334138","621","298.5","true","1","140.32462080000002","4.0265318400000005","9","-1","-1","","","","","","","","","","","","",""
"psychophysics","70","208793","0.0-8.0-0.23","5f30a3aafe3e9550d0b8333d","6368f2eea3e9634aebcc2f6b","636b47f8d80482492c7040d9","586.3000000715256","","","","37","","","","key","16.74193617021306","621","298.5","true","-1","136.29808896000003","4.0265318400000005","9","-1","-1","","","","","","","","","","","","",""
"psychophysics","71","209917","0.0-8.0-0.24","5f30a3aafe3e9550d0b8333d","6368f2eea3e9634aebcc2f6b","636b47f8d80482492c7040d9","115.10000002384186","","","","39","","","","key","16.742666666666715","621","298.5","true","1","136.29808896000003","4.0265318400000005","9","-1","-1","","","","","","","","","","","","",""
"psychophysics","72","211702","0.0-8.0-0.25","5f30a3aafe3e9550d0b8333d","6368f2eea3e9634aebcc2f6b","636b47f8d80482492c7040d9","779.3000000715256","","","","39","","","","key","16.742858490566196","621","298.5","true","-1","132.27155712000004","3.2212254720000004","10","1","-1","","","","","","","","","","","","",""
"psychophysics","73","213307","0.0-8.0-0.26","5f30a3aafe3e9550d0b8333d","6368f2eea3e9634aebcc2f6b","636b47f8d80482492c7040d9","592","","","","39","","","","key","16.741989473684225","621","298.5","true","1","135.49278259200003","3.2212254720000004","10","-1","1","","","","","","","","","","","","",""
"psychophysics","74","215002","0.0-8.0-0.27","5f30a3aafe3e9550d0b8333d","6368f2eea3e9634aebcc2f6b","636b47f8d80482492c7040d9","693.5","","","","39","","","","key","16.74255999999994","621","298.5","true","-1","135.49278259200003","2.5769803776000004","11","1","-1","","","","","","","","","","","","",""
"psychophysics","75","216386","0.0-8.0-0.28","5f30a3aafe3e9550d0b8333d","6368f2eea3e9634aebcc2f6b","636b47f8d80482492c7040d9","373.39999997615814","","","","39","","","","key","16.742963414634264","621","298.5","true","1","138.06976296960002","2.5769803776000004","11","-1","1","","","","","","","","","","","","",""
"psychophysics","76","217520","0.0-8.0-0.29","5f30a3aafe3e9550d0b8333d","6368f2eea3e9634aebcc2f6b","636b47f8d80482492c7040d9","117.70000004768372","","","","37","","","","key","16.74218181818177","621","298.5","true","-1","138.06976296960002","2.0615843020800004","12","-1","-1","","","","","","","","","","","","",""
"psychophysics","77","219435","0.0-8.0-0.30","5f30a3aafe3e9550d0b8333d","6368f2eea3e9634aebcc2f6b","636b47f8d80482492c7040d9","909.8999999761581","","","","37","","","","key","16.742631578947655","621","298.5","true","1","136.00817866752","1.6492674416640005","13","1","-1","","","","","","","","","","","","",""
"psychophysics","78","220629","0.0-8.0-0.31","5f30a3aafe3e9550d0b8333d","6368f2eea3e9634aebcc2f6b","636b47f8d80482492c7040d9","183.30000007152557","","","","37","","","","key","16.74241428571404","621","298.5","true","-1","137.657446109184","1.6492674416640005","13","-1","1","","","","","","","","","","","","",""
"psychophysics","79","222596","0.0-8.0-0.32","5f30a3aafe3e9550d0b8333d","6368f2eea3e9634aebcc2f6b","636b47f8d80482492c7040d9","963.6000000238419","","","","37","","","","key","16.74170085470069","621","298.5","true","-1","137.657446109184","1.3194139533312006","14","-1","-1","","","","","","","","","","","","",""
"psychophysics","80","224423","0.0-8.0-0.33","5f30a3aafe3e9550d0b8333d","6368f2eea3e9634aebcc2f6b","636b47f8d80482492c7040d9","823.3000000715256","","","","39","","","","key","16.74353703703727","621","298.5","true","-1","136.3380321558528","1.0555311626649604","15","1","-1","","","","","","","","","","","","",""
"psychophysics","81","225815","0.0-8.0-0.34","5f30a3aafe3e9550d0b8333d","6368f2eea3e9634aebcc2f6b","636b47f8d80482492c7040d9","389.39999997615814","","","","39","","","","key","16.74281707317029","621","298.5","true","1","137.39356331851775","1.0555311626649604","15","-1","1","","","","","","","","","","","","",""
"psychophysics","82","227209","0.0-8.0-0.35","5f30a3aafe3e9550d0b8333d","6368f2eea3e9634aebcc2f6b","636b47f8d80482492c7040d9","380.5","","","","37","","","","key","16.74328048780515","621","298.5","true","-1","137.39356331851775","1","16","-1","-1","","","","","","","","","","","","",""
"psychophysics","83","228576","0.0-8.0-0.36","5f30a3aafe3e9550d0b8333d","6368f2eea3e9634aebcc2f6b","636b47f8d80482492c7040d9","358.10000002384186","","","","39","","","","key","16.74282716049448","621","298.5","true","1","136.39356331851775","1","16","-1","-1","","","","","","","","","","","","",""
"psychophysics","84","230207","0.0-8.0-0.37","5f30a3aafe3e9550d0b8333d","6368f2eea3e9634aebcc2f6b","636b47f8d80482492c7040d9","628.8999999761581","","","","39","","","","key","16.742239583333383","621","298.5","true","-1","136.39356331851775","1","17","1","-1","","","","","","","","","","","","",""
"psychophysics","85","231755","0.0-8.0-0.38","5f30a3aafe3e9550d0b8333d","6368f2eea3e9634aebcc2f6b","636b47f8d80482492c7040d9","540.2000000476837","","","","37","","","","key","16.742804347825967","621","298.5","true","1","137.39356331851775","1","17","1","1","","","","","","","","","","","","",""
"psychophysics","86","233347","0.0-8.0-0.39","5f30a3aafe3e9550d0b8333d","6368f2eea3e9634aebcc2f6b","636b47f8d80482492c7040d9","589.6000000238419","","","","37","","","","key","16.742521276595344","621","298.5","true","1","138.39356331851775","1","17","1","1","","","","","","","","","","","","",""
"html-keyboard-response","87","235385","0.0-9.0","5f30a3aafe3e9550d0b8333d","6368f2eea3e9634aebcc2f6b","636b47f8d80482492c7040d9","2037","<p>Well Done !</p><p>Prepare for a new block.</p><p>DON'T EXIT THE FULL SCREEN MODE</p><p>Press the Spacebar to start.</p>","","","32","","","","","","","","","","","","","","","true","136.6946087464032","","","","","","","","","","",""
"psychophysics","88","238725","0.0-10.0-0.0","5f30a3aafe3e9550d0b8333d","6368f2eea3e9634aebcc2f6b","636b47f8d80482492c7040d9","2335.3000000715256","","","","37","","","","key","16.703099999999978","621","298.5","true","-1","180","30","0","-1","","","","","","","","","","","","","",""
"psychophysics","89","241565","0.0-10.0-0.1","5f30a3aafe3e9550d0b8333d","6368f2eea3e9634aebcc2f6b","636b47f8d80482492c7040d9","1835.5","","","","39","","","","key","16.742416666666465","621","298.5","true","1","180","30","0","-1","-1","","","","","","","","","","","","",""
"psychophysics","90","243600","0.0-10.0-0.2","5f30a3aafe3e9550d0b8333d","6368f2eea3e9634aebcc2f6b","636b47f8d80482492c7040d9","1028.8999999761581","","","","39","","","","key","16.7427603305786","621","298.5","true","1","150","30","0","-1","-1","","","","","","","","","","","","",""
"psychophysics","91","244766","0.0-10.0-0.3","5f30a3aafe3e9550d0b8333d","6368f2eea3e9634aebcc2f6b","636b47f8d80482492c7040d9","156.5","","","","37","","","","key","16.742927536231708","621","298.5","true","-1","150","30","0","-1","-1","","","","","","","","","","","","",""
"psychophysics","92","246591","0.0-10.0-0.4","5f30a3aafe3e9550d0b8333d","6368f2eea3e9634aebcc2f6b","636b47f8d80482492c7040d9","822","","","","39","","","","key","16.742722222222557","621","298.5","true","-1","129","24","1","1","-1","","","","","","","","","","","","",""
"psychophysics","93","247603","0.0-10.0-0.5","5f30a3aafe3e9550d0b8333d","6368f2eea3e9634aebcc2f6b","636b47f8d80482492c7040d9","1.6999999284744263","","","","37","","","","key","16.74133898305087","621","298.5","true","-1","153","24","1","-1","1","","","","","","","","","","","","",""
"psychophysics","94","248698","0.0-10.0-0.6","5f30a3aafe3e9550d0b8333d","6368f2eea3e9634aebcc2f6b","636b47f8d80482492c7040d9","87.5","","","","39","","","","key","16.74164062499949","621","298.5","true","1","153","19.2","2","-1","-1","","","","","","","","","","","","",""
"psychophysics","95","249829","0.0-10.0-0.7","5f30a3aafe3e9550d0b8333d","6368f2eea3e9634aebcc2f6b","636b47f8d80482492c7040d9","126.80000007152557","","","","37","","","","key","16.74185074626819","621","298.5","true","-1","133.8","19.2","2","-1","-1","","","","","","","","","","","","",""
"psychophysics","96","251327","0.0-10.0-0.8","5f30a3aafe3e9550d0b8333d","6368f2eea3e9634aebcc2f6b","636b47f8d80482492c7040d9","493.39999997615814","","","","37","","","","key","16.742874999999582","621","298.5","true","-1","133.8","19.2","2","-1","-1","","","","","","","","","","","","",""
"psychophysics","97","252857","0.0-10.0-0.9","5f30a3aafe3e9550d0b8333d","6368f2eea3e9634aebcc2f6b","636b47f8d80482492c7040d9","528.5","","","","37","","","","key","16.743120879120998","621","298.5","true","-1","129","19.2","2","-1","-1","","","","","","","","","","","","",""
"psychophysics","98","254352","0.0-10.0-0.10","5f30a3aafe3e9550d0b8333d","6368f2eea3e9634aebcc2f6b","636b47f8d80482492c7040d9","487.2999999523163","","","","37","","","","key","16.741579545454773","621","298.5","true","-1","129","19.2","2","-1","-1","","","","","","","","","","","","",""
"psychophysics","99","255717","0.0-10.0-0.11","5f30a3aafe3e9550d0b8333d","6368f2eea3e9634aebcc2f6b","636b47f8d80482492c7040d9","359.2999999523163","","","","39","","","","key","16.74340740740759","621","298.5","true","1","129","19.2","2","-1","-1","","","","","","","","","","","","",""
"psychophysics","100","257086","0.0-10.0-0.12","5f30a3aafe3e9550d0b8333d","6368f2eea3e9634aebcc2f6b","636b47f8d80482492c7040d9","364.7999999523163","","","","39","","","","key","16.7427125000002","621","298.5","true","1","129","19.2","2","-1","-1","","","","","","","","","","","","",""
"psychophysics","101","258567","0.0-10.0-0.13","5f30a3aafe3e9550d0b8333d","6368f2eea3e9634aebcc2f6b","636b47f8d80482492c7040d9","476.60000002384186","","","","37","","","","key","16.742318181818437","621","298.5","true","1","129","15.36","3","1","-1","","","","","","","","","","","","",""
"psychophysics","102","260040","0.0-10.0-0.14","5f30a3aafe3e9550d0b8333d","6368f2eea3e9634aebcc2f6b","636b47f8d80482492c7040d9","459.60000002384186","","","","37","","","","key","16.742000000000044","621","298.5","true","-1","144.36","15.36","3","-1","1","","","","","","","","","","","","",""
"psychophysics","103","261074","0.0-10.0-0.15","5f30a3aafe3e9550d0b8333d","6368f2eea3e9634aebcc2f6b","636b47f8d80482492c7040d9","25.5","","","","39","","","","key","16.742573770491184","621","298.5","true","1","144.36","12.287999999999998","4","-1","-1","","","","","","","","","","","","",""
"psychophysics","104","262931","0.0-10.0-0.16","5f30a3aafe3e9550d0b8333d","6368f2eea3e9634aebcc2f6b","636b47f8d80482492c7040d9","850.9000000953674","","","","37","","","","key","16.742281818181933","621","298.5","true","-1","132.072","12.287999999999998","4","-1","-1","","","","","","","","","","","","",""
"psychophysics","105","264516","0.0-10.0-0.17","5f30a3aafe3e9550d0b8333d","6368f2eea3e9634aebcc2f6b","636b47f8d80482492c7040d9","581.1999999284744","","","","37","","","","key","16.743118279569742","621","298.5","true","1","132.072","9.8304","5","1","-1","","","","","","","","","","","","",""
"psychophysics","106","266451","0.0-10.0-0.18","5f30a3aafe3e9550d0b8333d","6368f2eea3e9634aebcc2f6b","636b47f8d80482492c7040d9","930.7000000476837","","","","39","","","","key","16.741043478260625","621","298.5","true","1","141.9024","9.8304","5","-1","1","","","","","","","","","","","","",""
"psychophysics","107","267496","0.0-10.0-0.19","5f30a3aafe3e9550d0b8333d","6368f2eea3e9634aebcc2f6b","636b47f8d80482492c7040d9","38.90000009536743","","","","39","","","","key","16.742852459016607","621","298.5","true","1","141.9024","7.864319999999999","6","-1","-1","","","","","","","","","","","","",""
"psychophysics","108","269261","0.0-10.0-0.20","5f30a3aafe3e9550d0b8333d","6368f2eea3e9634aebcc2f6b","636b47f8d80482492c7040d9","759","","","","39","","","","key","16.74244761904757","621","298.5","true","1","134.03808","7.864319999999999","6","-1","-1","","","","","","","","","","","","",""
"psychophysics","109","271327","0.0-10.0-0.21","5f30a3aafe3e9550d0b8333d","6368f2eea3e9634aebcc2f6b","636b47f8d80482492c7040d9","1061","","","","37","","","","key","16.742762295082194","621","298.5","true","1","134.03808","6.291456","7","1","-1","","","","","","","","","","","","",""
"psychophysics","110","272422","0.0-10.0-0.22","5f30a3aafe3e9550d0b8333d","6368f2eea3e9634aebcc2f6b","636b47f8d80482492c7040d9","86","","","","39","","","","key","16.742937499999243","621","298.5","true","1","140.32953600000002","6.291456","7","-1","1","","","","","","","","","","","","",""
"psychophysics","111","274074","0.0-10.0-0.23","5f30a3aafe3e9550d0b8333d","6368f2eea3e9634aebcc2f6b","636b47f8d80482492c7040d9","647.8000000715256","","","","39","","","","key","16.74212244897962","621","298.5","true","1","140.32953600000002","5.033164800000001","8","-1","-1","","","","","","","","","","","","",""
"psychophysics","112","276556","0.0-10.0-0.24","5f30a3aafe3e9550d0b8333d","6368f2eea3e9634aebcc2f6b","636b47f8d80482492c7040d9","1471.7999999523163","","","","39","","","","key","16.742170068027125","621","298.5","true","-1","135.2963712","4.0265318400000005","9","1","-1","","","","","","","","","","","","",""
"psychophysics","113","278030","0.0-10.0-0.25","5f30a3aafe3e9550d0b8333d","6368f2eea3e9634aebcc2f6b","636b47f8d80482492c7040d9","468.8000000715256","","","","39","","","","key","16.742091954023383","621","298.5","true","1","139.32290304","4.0265318400000005","9","-1","1","","","","","","","","","","","","",""
"psychophysics","114","279054","0.0-10.0-0.26","5f30a3aafe3e9550d0b8333d","6368f2eea3e9634aebcc2f6b","636b47f8d80482492c7040d9","18.5","","","","37","","","","key","16.742704918032672","621","298.5","true","-1","139.32290304","3.2212254720000004","10","-1","-1","","","","","","","","","","","","",""
"psychophysics","115","280742","0.0-10.0-0.27","5f30a3aafe3e9550d0b8333d","6368f2eea3e9634aebcc2f6b","636b47f8d80482492c7040d9","677.4000000953674","","","","37","","","","key","16.7423636363637","621","298.5","true","-1","136.101677568","3.2212254720000004","10","-1","-1","","","","","","","","","","","","",""
"psychophysics","116","281781","0.0-10.0-0.28","5f30a3aafe3e9550d0b8333d","6368f2eea3e9634aebcc2f6b","636b47f8d80482492c7040d9","33.60000002384186","","","","39","","","","key","16.742754098360013","621","298.5","true","1","136.101677568","3.2212254720000004","10","-1","-1","","","","","","","","","","","","",""
"psychophysics","117","283588","0.0-10.0-0.29","5f30a3aafe3e9550d0b8333d","6368f2eea3e9634aebcc2f6b","636b47f8d80482492c7040d9","802.3999999761581","","","","37","","","","key","16.742504672897507","621","298.5","true","-1","132.880452096","3.2212254720000004","10","-1","-1","","","","","","","","","","","","",""
"psychophysics","118","284950","0.0-10.0-0.30","5f30a3aafe3e9550d0b8333d","6368f2eea3e9634aebcc2f6b","636b47f8d80482492c7040d9","356.2999999523163","","","","39","","","","key","16.741962962963527","621","298.5","true","1","132.880452096","3.2212254720000004","10","-1","-1","","","","","","","","","","","","",""
"psychophysics","119","286413","0.0-10.0-0.31","5f30a3aafe3e9550d0b8333d","6368f2eea3e9634aebcc2f6b","636b47f8d80482492c7040d9","450.09999990463257","","","","37","","","","key","16.74146511627911","621","298.5","true","-1","129.65922662399998","3.2212254720000004","10","-1","-1","","","","","","","","","","","","",""
"psychophysics","120","288815","0.0-10.0-0.32","5f30a3aafe3e9550d0b8333d","6368f2eea3e9634aebcc2f6b","636b47f8d80482492c7040d9","1395.2999999523163","","","","39","","","","key","16.743181818181576","621","298.5","true","-1","129.65922662399998","2.5769803776000004","11","1","-1","","","","","","","","","","","","",""
"psychophysics","121","290227","0.0-10.0-0.33","5f30a3aafe3e9550d0b8333d","6368f2eea3e9634aebcc2f6b","636b47f8d80482492c7040d9","409.5","","","","37","","","","key","16.742638554216462","621","298.5","true","-1","132.23620700159998","2.5769803776000004","11","-1","1","","","","","","","","","","","","",""
"psychophysics","122","291842","0.0-10.0-0.34","5f30a3aafe3e9550d0b8333d","6368f2eea3e9634aebcc2f6b","636b47f8d80482492c7040d9","605.1999999284744","","","","37","","","","key","16.7415999999999","621","298.5","true","-1","132.23620700159998","2.0615843020800004","12","-1","-1","","","","","","","","","","","","",""
"psychophysics","123","293257","0.0-10.0-0.35","5f30a3aafe3e9550d0b8333d","6368f2eea3e9634aebcc2f6b","636b47f8d80482492c7040d9","410.59999990463257","","","","37","","","","key","16.743571428571677","621","298.5","true","-1","130.17462269951997","2.0615843020800004","12","-1","-1","","","","","","","","","","","","",""
"psychophysics","124","294623","0.0-10.0-0.36","5f30a3aafe3e9550d0b8333d","6368f2eea3e9634aebcc2f6b","636b47f8d80482492c7040d9","356.10000002384186","","","","37","","","","key","16.742312500000118","621","298.5","true","1","130.17462269951997","1.6492674416640005","13","1","-1","","","","","","","","","","","","",""
"psychophysics","125","295998","0.0-10.0-0.37","5f30a3aafe3e9550d0b8333d","6368f2eea3e9634aebcc2f6b","636b47f8d80482492c7040d9","371.3000000715256","","","","37","","","","key","16.74223170731722","621","298.5","true","1","131.82389014118397","1.6492674416640005","13","1","1","","","","","","","","","","","","",""
"psychophysics","126","297521","0.0-10.0-0.38","5f30a3aafe3e9550d0b8333d","6368f2eea3e9634aebcc2f6b","636b47f8d80482492c7040d9","506.59999990463257","","","","37","","","","key","16.74258888888871","621","298.5","true","-1","133.47315758284796","1.6492674416640005","13","-1","1","","","","","","","","","","","","",""
"psychophysics","127","298936","0.0-10.0-0.39","5f30a3aafe3e9550d0b8333d","6368f2eea3e9634aebcc2f6b","636b47f8d80482492c7040d9","411.8000000715256","","","","39","","","","key","16.74262650602382","621","298.5","true","1","133.47315758284796","1.3194139533312006","14","-1","-1","","","","","","","","","","","","",""
"html-keyboard-response","128","301808","0.0-11.0","5f30a3aafe3e9550d0b8333d","6368f2eea3e9634aebcc2f6b","636b47f8d80482492c7040d9","2870.1999999284744","<p>Well Done !</p><p>Prepare for a new block.</p><p>DON'T EXIT THE FULL SCREEN MODE</p><p>Press the Spacebar to start.</p>","","","32","","","","","","","","","","","","","","","true","133.30135889100796","","","","","","","","","","",""
"psychophysics","129","303370","0.0-12.0-0.0","5f30a3aafe3e9550d0b8333d","6368f2eea3e9634aebcc2f6b","636b47f8d80482492c7040d9","553.6000000238419","","","","37","","","","key","16.6978279569891","621","298.5","true","-1","180","30","0","-1","","","","","","","","","","","","","",""
"psychophysics","130","304854","0.0-12.0-0.1","5f30a3aafe3e9550d0b8333d","6368f2eea3e9634aebcc2f6b","636b47f8d80482492c7040d9","477.89999997615814","","","","39","","","","key","16.743613636363246","621","298.5","true","1","180","30","0","-1","-1","","","","","","","","","","","","",""
"psychophysics","131","306049","0.0-12.0-0.2","5f30a3aafe3e9550d0b8333d","6368f2eea3e9634aebcc2f6b","636b47f8d80482492c7040d9","191.70000004768372","","","","37","","","","key","16.743014285714267","621","298.5","true","-1","150","30","0","-1","-1","","","","","","","","","","","","",""
"psychophysics","132","307323","0.0-12.0-0.3","5f30a3aafe3e9550d0b8333d","6368f2eea3e9634aebcc2f6b","636b47f8d80482492c7040d9","266.2000000476837","","","","39","","","","key","16.742399999999908","621","298.5","true","1","150","30","0","-1","-1","","","","","","","","","","","","",""
"psychophysics","133","308907","0.0-12.0-0.4","5f30a3aafe3e9550d0b8333d","6368f2eea3e9634aebcc2f6b","636b47f8d80482492c7040d9","578.7999999523163","","","","37","","","","key","16.742265957446666","621","298.5","true","1","129","24","1","1","-1","","","","","","","","","","","","",""
"psychophysics","134","310263","0.0-12.0-0.5","5f30a3aafe3e9550d0b8333d","6368f2eea3e9634aebcc2f6b","636b47f8d80482492c7040d9","350.5","","","","39","","","","key","16.742362500000308","621","298.5","true","1","153","24","1","-1","1","","","","","","","","","","","","",""
"psychophysics","135","311476","0.0-12.0-0.6","5f30a3aafe3e9550d0b8333d","6368f2eea3e9634aebcc2f6b","636b47f8d80482492c7040d9","203.30000007152557","","","","39","","","","key","16.743253521126054","621","298.5","true","1","153","19.2","2","-1","-1","","","","","","","","","","","","",""
"psychophysics","136","312841","0.0-12.0-0.7","5f30a3aafe3e9550d0b8333d","6368f2eea3e9634aebcc2f6b","636b47f8d80482492c7040d9","360.5","","","","39","","","","key","16.742382716049043","621","298.5","true","1","133.8","19.2","2","-1","-1","","","","","","","","","","","","",""
"psychophysics","137","314279","0.0-12.0-0.8","5f30a3aafe3e9550d0b8333d","6368f2eea3e9634aebcc2f6b","636b47f8d80482492c7040d9","435.6999999284744","","","","39","","","","key","16.743776470588465","621","298.5","true","-1","133.8","15.36","3","1","-1","","","","","","","","","","","","",""
"psychophysics","138","315510","0.0-12.0-0.9","5f30a3aafe3e9550d0b8333d","6368f2eea3e9634aebcc2f6b","636b47f8d80482492c7040d9","226.89999997615814","","","","37","","","","key","16.743416666666842","621","298.5","true","-1","149.16000000000003","15.36","3","-1","1","","","","","","","","","","","","",""
"psychophysics","139","316684","0.0-12.0-0.10","5f30a3aafe3e9550d0b8333d","6368f2eea3e9634aebcc2f6b","636b47f8d80482492c7040d9","171","","","","37","","","","key","16.741811594202865","621","298.5","true","-1","149.16000000000003","12.287999999999998","4","-1","-1","","","","","","","","","","","","",""
"psychophysics","140","318469","0.0-12.0-0.11","5f30a3aafe3e9550d0b8333d","6368f2eea3e9634aebcc2f6b","636b47f8d80482492c7040d9","780.5","","","","37","","","","key","16.742735849056977","621","298.5","true","-1","136.872","12.287999999999998","4","-1","-1","","","","","","","","","","","","",""
"psychophysics","141","319511","0.0-12.0-0.12","5f30a3aafe3e9550d0b8333d","6368f2eea3e9634aebcc2f6b","636b47f8d80482492c7040d9","38.5","","","","39","","","","key","16.742114754098843","621","298.5","true","1","136.872","12.287999999999998","4","-1","-1","","","","","","","","","","","","",""
"psychophysics","142","321490","0.0-12.0-0.13","5f30a3aafe3e9550d0b8333d","6368f2eea3e9634aebcc2f6b","636b47f8d80482492c7040d9","969.8999999761581","","","","39","","","","key","16.743461538461418","621","298.5","true","1","129","12.287999999999998","4","-1","-1","","","","","","","","","","","","",""
"psychophysics","143","322684","0.0-12.0-0.14","5f30a3aafe3e9550d0b8333d","6368f2eea3e9634aebcc2f6b","636b47f8d80482492c7040d9","188.80000007152557","","","","39","","","","key","16.74219718309854","621","298.5","true","-1","129","9.8304","5","1","-1","","","","","","","","","","","","",""
"psychophysics","144","324198","0.0-12.0-0.15","5f30a3aafe3e9550d0b8333d","6368f2eea3e9634aebcc2f6b","636b47f8d80482492c7040d9","508.7999999523163","","","","39","","","","key","16.742775280898428","621","298.5","true","1","138.8304","9.8304","5","-1","1","","","","","","","","","","","","",""
"psychophysics","145","325546","0.0-12.0-0.16","5f30a3aafe3e9550d0b8333d","6368f2eea3e9634aebcc2f6b","636b47f8d80482492c7040d9","344.8000000715256","","","","39","","","","key","16.74305000000022","621","298.5","true","-1","138.8304","7.864319999999999","6","1","-1","","","","","","","","","","","","",""
"psychophysics","146","326890","0.0-12.0-0.17","5f30a3aafe3e9550d0b8333d","6368f2eea3e9634aebcc2f6b","636b47f8d80482492c7040d9","340.8000000715256","","","","37","","","","key","16.74326582278473","621","298.5","true","-1","146.69472","7.864319999999999","6","-1","1","","","","","","","","","","","","",""
"psychophysics","147","327992","0.0-12.0-0.18","5f30a3aafe3e9550d0b8333d","6368f2eea3e9634aebcc2f6b","636b47f8d80482492c7040d9","94.79999995231628","","","","39","","","","key","16.741923076922717","621","298.5","true","1","146.69472","6.291456","7","-1","-1","","","","","","","","","","","","",""
"psychophysics","148","329285","0.0-12.0-0.19","5f30a3aafe3e9550d0b8333d","6368f2eea3e9634aebcc2f6b","636b47f8d80482492c7040d9","290.7999999523163","","","","37","","","","key","16.74293421052617","621","298.5","true","-1","140.40326399999998","6.291456","7","-1","-1","","","","","","","","","","","","",""
"psychophysics","149","330429","0.0-12.0-0.20","5f30a3aafe3e9550d0b8333d","6368f2eea3e9634aebcc2f6b","636b47f8d80482492c7040d9","140.80000007152557","","","","37","","","","key","16.742358208955405","621","298.5","true","-1","140.40326399999998","6.291456","7","-1","-1","","","","","","","","","","","","",""
"psychophysics","150","334749","0.0-12.0-0.21","5f30a3aafe3e9550d0b8333d","6368f2eea3e9634aebcc2f6b","636b47f8d80482492c7040d9","3316.5","","","","37","","","","key","16.742696498054556","621","298.5","true","1","134.11180799999997","5.033164800000001","8","1","-1","","","","","","","","","","","","",""
"psychophysics","151","335827","0.0-12.0-0.22","5f30a3aafe3e9550d0b8333d","6368f2eea3e9634aebcc2f6b","636b47f8d80482492c7040d9","71.70000004768372","","","","37","","","","key","16.742937499999243","621","298.5","true","-1","139.14497279999998","5.033164800000001","8","-1","1","","","","","","","","","","","","",""
"psychophysics","152","337443","0.0-12.0-0.23","5f30a3aafe3e9550d0b8333d","6368f2eea3e9634aebcc2f6b","636b47f8d80482492c7040d9","612.8000000715256","","","","37","","","","key","16.742736842105238","621","298.5","true","1","139.14497279999998","4.0265318400000005","9","1","-1","","","","","","","","","","","","",""
"psychophysics","153","342223","0.0-12.0-0.24","5f30a3aafe3e9550d0b8333d","6368f2eea3e9634aebcc2f6b","636b47f8d80482492c7040d9","3773.6999999284744","","","","37","","","","key","16.74257192982467","621","298.5","true","-1","143.17150463999997","4.0265318400000005","9","-1","1","","","","","","","","","","","","",""
"psychophysics","154","345090","0.0-12.0-0.25","5f30a3aafe3e9550d0b8333d","6368f2eea3e9634aebcc2f6b","636b47f8d80482492c7040d9","1864.5","","","","37","","","","key","16.743105882353163","621","298.5","true","-1","143.17150463999997","3.2212254720000004","10","-1","-1","","","","","","","","","","","","",""
"psychophysics","155","347016","0.0-12.0-0.26","5f30a3aafe3e9550d0b8333d","6368f2eea3e9634aebcc2f6b","636b47f8d80482492c7040d9","922.6999999284744","","","","39","","","","key","16.742728070175712","621","298.5","true","1","139.95027916799995","3.2212254720000004","10","-1","-1","","","","","","","","","","","","",""
"psychophysics","156","348033","0.0-12.0-0.27","5f30a3aafe3e9550d0b8333d","6368f2eea3e9634aebcc2f6b","636b47f8d80482492c7040d9","8.300000071525574","","","","37","","","","key","16.743350000000405","621","298.5","true","-1","139.95027916799995","3.2212254720000004","10","-1","-1","","","","","","","","","","","","",""
"psychophysics","157","349686","0.0-12.0-0.28","5f30a3aafe3e9550d0b8333d","6368f2eea3e9634aebcc2f6b","636b47f8d80482492c7040d9","650.2999999523163","","","","39","","","","key","16.74289690721636","621","298.5","true","1","136.72905369599994","3.2212254720000004","10","-1","-1","","","","","","","","","","","","",""
"psychophysics","158","350799","0.0-12.0-0.29","5f30a3aafe3e9550d0b8333d","6368f2eea3e9634aebcc2f6b","636b47f8d80482492c7040d9","107.39999997615814","","","","37","","","","key","16.74395454545403","621","298.5","true","-1","136.72905369599994","3.2212254720000004","10","-1","-1","","","","","","","","","","","","",""
"psychophysics","159","352537","0.0-12.0-0.30","5f30a3aafe3e9550d0b8333d","6368f2eea3e9634aebcc2f6b","636b47f8d80482492c7040d9","728.2000000476837","","","","37","","","","key","16.742766990291308","621","298.5","true","1","133.50782822399992","2.5769803776000004","11","1","-1","","","","","","","","","","","","",""
"psychophysics","160","353750","0.0-12.0-0.31","5f30a3aafe3e9550d0b8333d","6368f2eea3e9634aebcc2f6b","636b47f8d80482492c7040d9","210.10000002384186","","","","39","","","","key","16.743591549295544","621","298.5","true","1","136.08480860159992","2.5769803776000004","11","-1","1","","","","","","","","","","","","",""
"psychophysics","161","355435","0.0-12.0-0.32","5f30a3aafe3e9550d0b8333d","6368f2eea3e9634aebcc2f6b","636b47f8d80482492c7040d9","682.1000000238419","","","","39","","","","key","16.742150000000255","621","298.5","true","-1","136.08480860159992","2.0615843020800004","12","1","-1","","","","","","","","","","","","",""
"psychophysics","162","356649","0.0-12.0-0.33","5f30a3aafe3e9550d0b8333d","6368f2eea3e9634aebcc2f6b","636b47f8d80482492c7040d9","213.39999997615814","","","","37","","","","key","16.74322535211227","621","298.5","true","-1","138.14639290367992","2.0615843020800004","12","-1","1","","","","","","","","","","","","",""
"psychophysics","163","357703","0.0-12.0-0.34","5f30a3aafe3e9550d0b8333d","6368f2eea3e9634aebcc2f6b","636b47f8d80482492c7040d9","47.799999952316284","","","","37","","","","key","16.742822580645047","621","298.5","true","-1","138.14639290367992","1.6492674416640005","13","-1","-1","","","","","","","","","","","","",""
"psychophysics","164","359440","0.0-12.0-0.35","5f30a3aafe3e9550d0b8333d","6368f2eea3e9634aebcc2f6b","636b47f8d80482492c7040d9","728.3000000715256","","","","37","","","","key","16.742417475727986","621","298.5","true","1","136.49712546201593","1.3194139533312006","14","1","-1","","","","","","","","","","","","",""
"psychophysics","165","360893","0.0-12.0-0.36","5f30a3aafe3e9550d0b8333d","6368f2eea3e9634aebcc2f6b","636b47f8d80482492c7040d9","444.1999999284744","","","","37","","","","key","16.742651162790217","621","298.5","true","-1","137.81653941534714","1.3194139533312006","14","-1","1","","","","","","","","","","","","",""
"psychophysics","166","362641","0.0-12.0-0.37","5f30a3aafe3e9550d0b8333d","6368f2eea3e9634aebcc2f6b","636b47f8d80482492c7040d9","746.7000000476837","","","","37","","","","key","16.742679611650335","621","298.5","true","1","137.81653941534714","1.0555311626649604","15","1","-1","","","","","","","","","","","","",""
"psychophysics","167","363654","0.0-12.0-0.38","5f30a3aafe3e9550d0b8333d","6368f2eea3e9634aebcc2f6b","636b47f8d80482492c7040d9","5.100000023841858","","","","39","","","","key","16.743783333332978","621","298.5","true","1","138.87207057801209","1.0555311626649604","15","-1","1","","","","","","","","","","","","",""
"psychophysics","168","366141","0.0-12.0-0.39","5f30a3aafe3e9550d0b8333d","6368f2eea3e9634aebcc2f6b","636b47f8d80482492c7040d9","1484.1000000238419","","","","39","","","","key","16.741653061224397","621","298.5","true","1","138.87207057801209","1","16","-1","-1","","","","","","","","","","","","",""
"html-keyboard-response","169","368110","0.0-13.0","5f30a3aafe3e9550d0b8333d","6368f2eea3e9634aebcc2f6b","636b47f8d80482492c7040d9","1967.5","<p>Well Done !</p><p>Prepare for a new block.</p><p>DON'T EXIT THE FULL SCREEN MODE</p><p>Press the Spacebar to start.</p>","","","32","","","","","","","","","","","","","","","true","137.89164980341957","","","","","","","","","","",""
"html-keyboard-response","170","368217","0.0-14.0","5f30a3aafe3e9550d0b8333d","6368f2eea3e9634aebcc2f6b","636b47f8d80482492c7040d9","null","","","","null","","","","","","","","","","","","","","","","","136.0950905090512","true","144.1901810181024","","","","","","","",""
"instructions","171","402710","0.0-15.0","5f30a3aafe3e9550d0b8333d","6368f2eea3e9634aebcc2f6b","636b47f8d80482492c7040d9","34491","","","","","","","[{""page_index"":0,""viewing_time"":25594},{""page_index"":1,""viewing_time"":4985.600000023842},{""page_index"":2,""viewing_time"":3910.600000023842}]","","","","","","","","","","","","","","","","","","","","","","","",""
"psychophysics","172","405721","0.0-16.0-0.0","5f30a3aafe3e9550d0b8333d","6368f2eea3e9634aebcc2f6b","636b47f8d80482492c7040d9","null","","","","null","","","","key","16.61288333333311","621","298.5","","","","","","","","","","","","","","","","","","","",""
"psychophysics","173","406228","0.0-16.0-1.0","5f30a3aafe3e9550d0b8333d","6368f2eea3e9634aebcc2f6b","636b47f8d80482492c7040d9","null","","","","null","","","","key","16.745933333334204","621","298.5","","","","","","","","","","","","","144","-1","3","false","","","",""
"psychophysics","174","408029","0.0-16.0-2.0","5f30a3aafe3e9550d0b8333d","6368f2eea3e9634aebcc2f6b","636b47f8d80482492c7040d9","1798.2000000476837","","","","90","","","","key","16.742066037736258","621","298.5","","","","","","","","","","","","","","","","","","","",""
"psychophysics","175","409033","0.0-16.0-0.1","5f30a3aafe3e9550d0b8333d","6368f2eea3e9634aebcc2f6b","636b47f8d80482492c7040d9","null","","","","null","","","","key","16.744254237288505","621","298.5","","","","","","","","","","","","","","","","","","","",""
"psychophysics","176","409536","0.0-16.0-1.1","5f30a3aafe3e9550d0b8333d","6368f2eea3e9634aebcc2f6b","636b47f8d80482492c7040d9","null","","","","null","","","","key","16.74268965517243","621","298.5","","","","","","","","","","","","","144","1","5","false","","","",""
"psychophysics","177","410282","0.0-16.0-2.1","5f30a3aafe3e9550d0b8333d","6368f2eea3e9634aebcc2f6b","636b47f8d80482492c7040d9","743.1999999284744","","","","77","","","","key","16.74249999999963","621","298.5","","","","","","","","","","","","","","","","","","","",""
"psychophysics","178","411285","0.0-16.0-0.2","5f30a3aafe3e9550d0b8333d","6368f2eea3e9634aebcc2f6b","636b47f8d80482492c7040d9","null","","","","null","","","","key","16.741677966102035","621","298.5","","","","","","","","","","","","","","","","","","","",""
"psychophysics","179","411793","0.0-16.0-1.2","5f30a3aafe3e9550d0b8333d","6368f2eea3e9634aebcc2f6b","636b47f8d80482492c7040d9","null","","","","null","","","","key","16.740379310345503","621","298.5","","","","","","","","","","","","","144","1","0","false","","","",""
"psychophysics","180","412408","0.0-16.0-2.2","5f30a3aafe3e9550d0b8333d","6368f2eea3e9634aebcc2f6b","636b47f8d80482492c7040d9","613.7999999523163","","","","90","","","","key","16.742277777778025","621","298.5","","","","","","","","","","","","","","","","","","","",""
"psychophysics","181","413417","0.0-16.0-0.3","5f30a3aafe3e9550d0b8333d","6368f2eea3e9634aebcc2f6b","636b47f8d80482492c7040d9","null","","","","null","","","","key","16.741033898305417","621","298.5","","","","","","","","","","","","","","","","","","","",""
"psychophysics","182","413927","0.0-16.0-1.3","5f30a3aafe3e9550d0b8333d","6368f2eea3e9634aebcc2f6b","636b47f8d80482492c7040d9","null","","","","null","","","","key","16.74472413793134","621","298.5","","","","","","","","","","","","","144","-1","4","false","","","",""
"psychophysics","183","414366","0.0-16.0-2.3","5f30a3aafe3e9550d0b8333d","6368f2eea3e9634aebcc2f6b","636b47f8d80482492c7040d9","431.7999999523163","","","","90","","","","key","16.741680000000635","621","298.5","","","","","","","","","","","","","","","","","","","",""
"psychophysics","184","415370","0.0-16.0-0.4","5f30a3aafe3e9550d0b8333d","6368f2eea3e9634aebcc2f6b","636b47f8d80482492c7040d9","null","","","","null","","","","key","16.743133333333148","621","298.5","","","","","","","","","","","","","","","","","","","",""
"psychophysics","185","415884","0.0-16.0-1.4","5f30a3aafe3e9550d0b8333d","6368f2eea3e9634aebcc2f6b","636b47f8d80482492c7040d9","null","","","","null","","","","key","16.743586206897","621","298.5","","","","","","","","","","","","","144","1","3","false","","","",""
"psychophysics","186","416832","0.0-16.0-2.4","5f30a3aafe3e9550d0b8333d","6368f2eea3e9634aebcc2f6b","636b47f8d80482492c7040d9","943.8000000715256","","","","90","","","","key","16.742285714286222","621","298.5","","","","","","","","","","","","","","","","","","","",""
"psychophysics","187","417845","0.0-16.0-0.5","5f30a3aafe3e9550d0b8333d","6368f2eea3e9634aebcc2f6b","636b47f8d80482492c7040d9","null","","","","null","","","","key","16.74269491525355","621","298.5","","","","","","","","","","","","","","","","","","","",""
"psychophysics","188","418350","0.0-16.0-1.5","5f30a3aafe3e9550d0b8333d","6368f2eea3e9634aebcc2f6b","636b47f8d80482492c7040d9","null","","","","null","","","","key","16.742766666666526","621","298.5","","","","","","","","","","","","","144","-1","5","false","","","",""
"psychophysics","189","419173","0.0-16.0-2.5","5f30a3aafe3e9550d0b8333d","6368f2eea3e9634aebcc2f6b","636b47f8d80482492c7040d9","819.9000000953674","","","","77","","","","key","16.74199999999958","621","298.5","","","","","","","","","","","","","","","","","","","",""
"psychophysics","190","420175","0.0-16.0-0.6","5f30a3aafe3e9550d0b8333d","6368f2eea3e9634aebcc2f6b","636b47f8d80482492c7040d9","null","","","","null","","","","key","16.74294915254192","621","298.5","","","","","","","","","","","","","","","","","","","",""
"psychophysics","191","420691","0.0-16.0-1.6","5f30a3aafe3e9550d0b8333d","6368f2eea3e9634aebcc2f6b","636b47f8d80482492c7040d9","null","","","","null","","","","key","16.73996551724247","621","298.5","","","","","","","","","","","","","144","1","4","false","","","",""
"psychophysics","192","421266","0.0-16.0-2.6","5f30a3aafe3e9550d0b8333d","6368f2eea3e9634aebcc2f6b","636b47f8d80482492c7040d9","568.1000000238419","","","","77","","","","key","16.741000000000522","621","298.5","","","","","","","","","","","","","","","","","","","",""
"psychophysics","193","422268","0.0-16.0-0.7","5f30a3aafe3e9550d0b8333d","6368f2eea3e9634aebcc2f6b","636b47f8d80482492c7040d9","null","","","","null","","","","key","16.74262711864411","621","298.5","","","","","","","","","","","","","","","","","","","",""
"psychophysics","194","422771","0.0-16.0-1.7","5f30a3aafe3e9550d0b8333d","6368f2eea3e9634aebcc2f6b","636b47f8d80482492c7040d9","null","","","","null","","","","key","16.747379310344794","621","298.5","","","","","","","","","","","","","144","-1","2","false","","","",""
"psychophysics","195","423295","0.0-16.0-2.7","5f30a3aafe3e9550d0b8333d","6368f2eea3e9634aebcc2f6b","636b47f8d80482492c7040d9","521.2000000476837","","","","90","","","","key","16.74340000000084","621","298.5","","","","","","","","","","","","","","","","","","","",""
"psychophysics","196","424305","0.0-16.0-0.8","5f30a3aafe3e9550d0b8333d","6368f2eea3e9634aebcc2f6b","636b47f8d80482492c7040d9","null","","","","null","","","","key","16.742372881355735","621","298.5","","","","","","","","","","","","","","","","","","","",""
"psychophysics","197","424810","0.0-16.0-1.8","5f30a3aafe3e9550d0b8333d","6368f2eea3e9634aebcc2f6b","636b47f8d80482492c7040d9","null","","","","null","","","","key","16.743206896552223","621","298.5","","","","","","","","","","","","","144","1","6","false","","","",""
"psychophysics","198","425467","0.0-16.0-2.8","5f30a3aafe3e9550d0b8333d","6368f2eea3e9634aebcc2f6b","636b47f8d80482492c7040d9","650.2999999523163","","","","77","","","","key","16.74426315789491","621","298.5","","","","","","","","","","","","","","","","","","","",""
"psychophysics","199","426469","0.0-16.0-0.9","5f30a3aafe3e9550d0b8333d","6368f2eea3e9634aebcc2f6b","636b47f8d80482492c7040d9","null","","","","null","","","","key","16.74258333333322","621","298.5","","","","","","","","","","","","","","","","","","","",""
"psychophysics","200","426974","0.0-16.0-1.9","5f30a3aafe3e9550d0b8333d","6368f2eea3e9634aebcc2f6b","636b47f8d80482492c7040d9","null","","","","null","","","","key","16.73975862068895","621","298.5","","","","","","","","","","","","","144","-1","6","false","","","",""
"psychophysics","201","427953","0.0-16.0-2.9","5f30a3aafe3e9550d0b8333d","6368f2eea3e9634aebcc2f6b","636b47f8d80482492c7040d9","976.8999999761581","","","","77","","","","key","16.74429824561383","621","298.5","","","","","","","","","","","","","","","","","","","",""
"psychophysics","202","428963","0.0-16.0-0.10","5f30a3aafe3e9550d0b8333d","6368f2eea3e9634aebcc2f6b","636b47f8d80482492c7040d9","null","","","","null","","","","key","16.742389830509083","621","298.5","","","","","","","","","","","","","","","","","","","",""
"psychophysics","203","429473","0.0-16.0-1.10","5f30a3aafe3e9550d0b8333d","6368f2eea3e9634aebcc2f6b","636b47f8d80482492c7040d9","null","","","","null","","","","key","16.741566666667737","621","298.5","","","","","","","","","","","","","144","-1","0","false","","","",""
"psychophysics","204","430172","0.0-16.0-2.10","5f30a3aafe3e9550d0b8333d","6368f2eea3e9634aebcc2f6b","636b47f8d80482492c7040d9","698.3000000715256","","","","90","","","","key","17.16374999999971","621","298.5","","","","","","","","","","","","","","","","","","","",""
"psychophysics","205","431176","0.0-16.0-0.11","5f30a3aafe3e9550d0b8333d","6368f2eea3e9634aebcc2f6b","636b47f8d80482492c7040d9","null","","","","null","","","","key","16.742101694915","621","298.5","","","","","","","","","","","","","","","","","","","",""
"psychophysics","206","431678","0.0-16.0-1.11","5f30a3aafe3e9550d0b8333d","6368f2eea3e9634aebcc2f6b","636b47f8d80482492c7040d9","null","","","","null","","","","key","16.743172413791964","621","298.5","","","","","","","","","","","","","144","1","2","false","","","",""
"psychophysics","207","432239","0.0-16.0-2.11","5f30a3aafe3e9550d0b8333d","6368f2eea3e9634aebcc2f6b","636b47f8d80482492c7040d9","558.1999999284744","","","","90","","","","key","16.742749999999432","621","298.5","","","","","","","","","","","","","","","","","","","",""
"psychophysics","208","433242","0.0-16.0-0.12","5f30a3aafe3e9550d0b8333d","6368f2eea3e9634aebcc2f6b","636b47f8d80482492c7040d9","null","","","","null","","","","key","16.74376271186412","621","298.5","","","","","","","","","","","","","","","","","","","",""
"psychophysics","209","433748","0.0-16.0-1.12","5f30a3aafe3e9550d0b8333d","6368f2eea3e9634aebcc2f6b","636b47f8d80482492c7040d9","null","","","","null","","","","key","16.74396551724178","621","298.5","","","","","","","","","","","","","144","1","3","false","","","",""
"psychophysics","210","434108","0.0-16.0-2.12","5f30a3aafe3e9550d0b8333d","6368f2eea3e9634aebcc2f6b","636b47f8d80482492c7040d9","356.89999997615814","","","","90","","","","key","16.745952380951383","621","298.5","","","","","","","","","","","","","","","","","","","",""
"psychophysics","211","435110","0.0-16.0-0.13","5f30a3aafe3e9550d0b8333d","6368f2eea3e9634aebcc2f6b","636b47f8d80482492c7040d9","null","","","","null","","","","key","16.74284745762677","621","298.5","","","","","","","","","","","","","","","","","","","",""
"psychophysics","212","435613","0.0-16.0-1.13","5f30a3aafe3e9550d0b8333d","6368f2eea3e9634aebcc2f6b","636b47f8d80482492c7040d9","null","","","","null","","","","key","16.740000000000723","621","298.5","","","","","","","","","","","","","144","1","0","false","","","",""
"psychophysics","213","435866","0.0-16.0-2.13","5f30a3aafe3e9550d0b8333d","6368f2eea3e9634aebcc2f6b","636b47f8d80482492c7040d9","250.29999995231628","","","","90","","","","key","16.74199999999837","621","298.5","","","","","","","","","","","","","","","","","","","",""
"psychophysics","214","436868","0.0-16.0-0.14","5f30a3aafe3e9550d0b8333d","6368f2eea3e9634aebcc2f6b","636b47f8d80482492c7040d9","null","","","","null","","","","key","16.74376271186412","621","298.5","","","","","","","","","","","","","","","","","","","",""
"psychophysics","215","437379","0.0-16.0-1.14","5f30a3aafe3e9550d0b8333d","6368f2eea3e9634aebcc2f6b","636b47f8d80482492c7040d9","null","","","","null","","","","key","16.742965517242457","621","298.5","","","","","","","","","","","","","144","1","4","false","","","",""
"psychophysics","216","437993","0.0-16.0-2.14","5f30a3aafe3e9550d0b8333d","6368f2eea3e9634aebcc2f6b","636b47f8d80482492c7040d9","612","","","","90","","","","key","16.74241666666704","621","298.5","","","","","","","","","","","","","","","","","","","",""
"psychophysics","217","439007","0.0-16.0-0.15","5f30a3aafe3e9550d0b8333d","6368f2eea3e9634aebcc2f6b","636b47f8d80482492c7040d9","null","","","","null","","","","key","16.743322033898796","621","298.5","","","","","","","","","","","","","","","","","","","",""
"psychophysics","218","439514","0.0-16.0-1.15","5f30a3aafe3e9550d0b8333d","6368f2eea3e9634aebcc2f6b","636b47f8d80482492c7040d9","null","","","","null","","","","key","16.74336666666592","621","298.5","","","","","","","","","","","","","144","-1","3","false","","","",""
"psychophysics","219","439905","0.0-16.0-2.15","5f30a3aafe3e9550d0b8333d","6368f2eea3e9634aebcc2f6b","636b47f8d80482492c7040d9","389.3000000715256","","","","90","","","","key","16.73918181818127","621","298.5","","","","","","","","","","","","","","","","","","","",""
"psychophysics","220","440917","0.0-16.0-0.16","5f30a3aafe3e9550d0b8333d","6368f2eea3e9634aebcc2f6b","636b47f8d80482492c7040d9","null","","","","null","","","","key","16.743898305084983","621","298.5","","","","","","","","","","","","","","","","","","","",""
"psychophysics","221","441422","0.0-16.0-1.16","5f30a3aafe3e9550d0b8333d","6368f2eea3e9634aebcc2f6b","636b47f8d80482492c7040d9","null","","","","null","","","","key","16.742399999999908","621","298.5","","","","","","","","","","","","","144","-1","5","false","","","",""
"psychophysics","222","441835","0.0-16.0-2.16","5f30a3aafe3e9550d0b8333d","6368f2eea3e9634aebcc2f6b","636b47f8d80482492c7040d9","410.5","","","","77","","","","key","16.743130434782792","621","298.5","","","","","","","","","","","","","","","","","","","",""
"psychophysics","223","442842","0.0-16.0-0.17","5f30a3aafe3e9550d0b8333d","6368f2eea3e9634aebcc2f6b","636b47f8d80482492c7040d9","null","","","","null","","","","key","16.742457627118526","621","298.5","","","","","","","","","","","","","","","","","","","",""
"psychophysics","224","443348","0.0-16.0-1.17","5f30a3aafe3e9550d0b8333d","6368f2eea3e9634aebcc2f6b","636b47f8d80482492c7040d9","null","","","","null","","","","key","16.745233333332","621","298.5","","","","","","","","","","","","","144","-1","4","false","","","",""
"psychophysics","225","443722","0.0-16.0-2.17","5f30a3aafe3e9550d0b8333d","6368f2eea3e9634aebcc2f6b","636b47f8d80482492c7040d9","371.7999999523163","","","","77","","","","key","16.745285714286315","621","298.5","","","","","","","","","","","","","","","","","","","",""
"psychophysics","226","444731","0.0-16.0-0.18","5f30a3aafe3e9550d0b8333d","6368f2eea3e9634aebcc2f6b","636b47f8d80482492c7040d9","null","","","","null","","","","key","16.744033898304856","621","298.5","","","","","","","","","","","","","","","","","","","",""
"psychophysics","227","445237","0.0-16.0-1.18","5f30a3aafe3e9550d0b8333d","6368f2eea3e9634aebcc2f6b","636b47f8d80482492c7040d9","null","","","","null","","","","key","16.742724137930683","621","298.5","","","","","","","","","","","","","144","-1","0","false","","","",""
"psychophysics","228","445629","0.0-16.0-2.18","5f30a3aafe3e9550d0b8333d","6368f2eea3e9634aebcc2f6b","636b47f8d80482492c7040d9","387.2000000476837","","","","90","","","","key","16.748304347826533","621","298.5","","","","","","","","","","","","","","","","","","","",""
"psychophysics","229","446636","0.0-16.0-0.19","5f30a3aafe3e9550d0b8333d","6368f2eea3e9634aebcc2f6b","636b47f8d80482492c7040d9","null","","","","null","","","","key","16.742389830509083","621","298.5","","","","","","","","","","","","","","","","","","","",""
"psychophysics","230","447145","0.0-16.0-1.19","5f30a3aafe3e9550d0b8333d","6368f2eea3e9634aebcc2f6b","636b47f8d80482492c7040d9","null","","","","null","","","","key","17.338857142857574","621","298.5","","","","","","","","","","","","","144","1","6","false","","","",""
"psychophysics","231","447637","0.0-16.0-2.19","5f30a3aafe3e9550d0b8333d","6368f2eea3e9634aebcc2f6b","636b47f8d80482492c7040d9","485.10000002384186","","","","77","","","","key","16.74268965517243","621","298.5","","","","","","","","","","","","","","","","","","","",""
"psychophysics","232","448651","0.0-16.0-0.20","5f30a3aafe3e9550d0b8333d","6368f2eea3e9634aebcc2f6b","636b47f8d80482492c7040d9","null","","","","null","","","","key","16.74262711864411","621","298.5","","","","","","","","","","","","","","","","","","","",""
"psychophysics","233","449156","0.0-16.0-1.20","5f30a3aafe3e9550d0b8333d","6368f2eea3e9634aebcc2f6b","636b47f8d80482492c7040d9","null","","","","null","","","","key","16.74476666666645","621","298.5","","","","","","","","","","","","","144","-1","2","false","","","",""
"psychophysics","234","449294","0.0-16.0-2.20","5f30a3aafe3e9550d0b8333d","6368f2eea3e9634aebcc2f6b","636b47f8d80482492c7040d9","134.70000004768372","","","","90","","","","key","16.744571428571362","621","298.5","","","","","","","","","","","","","","","","","","","",""
"psychophysics","235","450296","0.0-16.0-0.21","5f30a3aafe3e9550d0b8333d","6368f2eea3e9634aebcc2f6b","636b47f8d80482492c7040d9","null","","","","null","","","","key","16.742796610169687","621","298.5","","","","","","","","","","","","","","","","","","","",""
"psychophysics","236","450806","0.0-16.0-1.21","5f30a3aafe3e9550d0b8333d","6368f2eea3e9634aebcc2f6b","636b47f8d80482492c7040d9","null","","","","null","","","","key","16.740586206897017","621","298.5","","","","","","","","","","","","","144","-1","6","false","","","",""
"psychophysics","237","451102","0.0-16.0-2.21","5f30a3aafe3e9550d0b8333d","6368f2eea3e9634aebcc2f6b","636b47f8d80482492c7040d9","290.8000000715256","","","","77","","","","key","16.74294117647086","621","298.5","","","","","","","","","","","","","","","","","","","",""
"psychophysics","238","452104","0.0-16.0-0.22","5f30a3aafe3e9550d0b8333d","6368f2eea3e9634aebcc2f6b","636b47f8d80482492c7040d9","null","","","","null","","","","key","16.74267796610119","621","298.5","","","","","","","","","","","","","","","","","","","",""
"psychophysics","239","452619","0.0-16.0-1.22","5f30a3aafe3e9550d0b8333d","6368f2eea3e9634aebcc2f6b","636b47f8d80482492c7040d9","null","","","","null","","","","key","16.74520689655288","621","298.5","","","","","","","","","","","","","144","1","5","false","","","",""
"psychophysics","240","453291","0.0-16.0-2.22","5f30a3aafe3e9550d0b8333d","6368f2eea3e9634aebcc2f6b","636b47f8d80482492c7040d9","662.8999999761581","","","","77","","","","key","16.74092307692328","621","298.5","","","","","","","","","","","","","","","","","","","",""
"psychophysics","241","454295","0.0-16.0-0.23","5f30a3aafe3e9550d0b8333d","6368f2eea3e9634aebcc2f6b","636b47f8d80482492c7040d9","null","","","","null","","","","key","16.741949999999875","621","298.5","","","","","","","","","","","","","","","","","","","",""
"psychophysics","242","454800","0.0-16.0-1.23","5f30a3aafe3e9550d0b8333d","6368f2eea3e9634aebcc2f6b","636b47f8d80482492c7040d9","null","","","","null","","","","key","16.742068965517884","621","298.5","","","","","","","","","","","","","144","1","2","false","","","",""
"psychophysics","243","455187","0.0-16.0-2.23","5f30a3aafe3e9550d0b8333d","6368f2eea3e9634aebcc2f6b","636b47f8d80482492c7040d9","385.10000002384186","","","","90","","","","key","16.742772727273405","621","298.5","","","","","","","","","","","","","","","","","","","",""
"html-keyboard-response","244","457205","0.0-17.0","5f30a3aafe3e9550d0b8333d","6368f2eea3e9634aebcc2f6b","636b47f8d80482492c7040d9","2015.3000000715256","<p>Well Done !</p><p>Training Complete. Press the spacebar to start.</p><p>DON'T EXIT THE FULL SCREEN MODE</p>","","","32","","","","","","","","","","","","","","","","","","","","","","","","","","",""
"psychophysics","245","460221","0.0-18.0-0.0","5f30a3aafe3e9550d0b8333d","6368f2eea3e9634aebcc2f6b","636b47f8d80482492c7040d9","null","","","","null","","","","key","16.756711864405926","621","298.5","","","","","","","","","","","","","","","","","","","",""
"psychophysics","246","460727","0.0-18.0-1.0","5f30a3aafe3e9550d0b8333d","6368f2eea3e9634aebcc2f6b","636b47f8d80482492c7040d9","null","","","","null","","","","key","16.74216666666713","621","298.5","","","","","","","","","","","","","144","1","2","true","","","",""
"psychophysics","247","461188","0.0-18.0-2.0","5f30a3aafe3e9550d0b8333d","6368f2eea3e9634aebcc2f6b","636b47f8d80482492c7040d9","458.10000002384186","","","","90","","","","key","16.739346153846082","621","298.5","","","","","","","","","","","","","","","","","","","",""
"psychophysics","248","462194","0.0-18.0-0.1","5f30a3aafe3e9550d0b8333d","6368f2eea3e9634aebcc2f6b","636b47f8d80482492c7040d9","null","","","","null","","","","key","16.744305084747563","621","298.5","","","","","","","","","","","","","","","","","","","",""
"psychophysics","249","462697","0.0-18.0-1.1","5f30a3aafe3e9550d0b8333d","6368f2eea3e9634aebcc2f6b","636b47f8d80482492c7040d9","null","","","","null","","","","key","16.745275862069384","621","298.5","","","","","","","","","","","","","144","-1","5","true","","","",""
"psychophysics","250","462983","0.0-18.0-2.1","5f30a3aafe3e9550d0b8333d","6368f2eea3e9634aebcc2f6b","636b47f8d80482492c7040d9","283.2000000476837","","","","77","","","","key","16.744062500001746","621","298.5","","","","","","","","","","","","","","","","","","","",""
"psychophysics","251","463987","0.0-18.0-0.2","5f30a3aafe3e9550d0b8333d","6368f2eea3e9634aebcc2f6b","636b47f8d80482492c7040d9","null","","","","null","","","","key","16.742711864405912","621","298.5","","","","","","","","","","","","","","","","","","","",""
"psychophysics","252","464494","0.0-18.0-1.2","5f30a3aafe3e9550d0b8333d","6368f2eea3e9634aebcc2f6b","636b47f8d80482492c7040d9","null","","","","null","","","","key","16.744166666668995","621","298.5","","","","","","","","","","","","","144","-1","0","true","","","",""
"psychophysics","253","464658","0.0-18.0-2.2","5f30a3aafe3e9550d0b8333d","6368f2eea3e9634aebcc2f6b","636b47f8d80482492c7040d9","161.39999997615814","","","","90","","","","key","16.753000000011525","621","298.5","","","","","","","","","","","","","","","","","","","",""
"psychophysics","254","465662","0.0-18.0-0.3","5f30a3aafe3e9550d0b8333d","6368f2eea3e9634aebcc2f6b","636b47f8d80482492c7040d9","null","","","","null","","","","key","16.74225423728921","621","298.5","","","","","","","","","","","","","","","","","","","",""
"psychophysics","255","466169","0.0-18.0-1.3","5f30a3aafe3e9550d0b8333d","6368f2eea3e9634aebcc2f6b","636b47f8d80482492c7040d9","null","","","","null","","","","key","16.7426666666676","621","298.5","","","","","","","","","","","","","144","1","4","true","","","",""
"psychophysics","256","466598","0.0-18.0-2.3","5f30a3aafe3e9550d0b8333d","6368f2eea3e9634aebcc2f6b","636b47f8d80482492c7040d9","426.5","","","","77","","","","key","16.739833333330655","621","298.5","","","","","","","","","","","","","","","","","","","",""
"psychophysics","257","467600","0.0-18.0-0.4","5f30a3aafe3e9550d0b8333d","6368f2eea3e9634aebcc2f6b","636b47f8d80482492c7040d9","null","","","","null","","","","key","16.743355932203517","621","298.5","","","","","","","","","","","","","","","","","","","",""
"psychophysics","258","468105","0.0-18.0-1.4","5f30a3aafe3e9550d0b8333d","6368f2eea3e9634aebcc2f6b","636b47f8d80482492c7040d9","null","","","","null","","","","key","16.744862068962338","621","298.5","","","","","","","","","","","","","144","1","5","true","","","",""
"psychophysics","259","468433","0.0-18.0-2.4","5f30a3aafe3e9550d0b8333d","6368f2eea3e9634aebcc2f6b","636b47f8d80482492c7040d9","326.2999999523163","","","","90","","","","key","16.743578947369794","621","298.5","","","","","","","","","","","","","","","","","","","",""
"psychophysics","260","469441","0.0-18.0-0.5","5f30a3aafe3e9550d0b8333d","6368f2eea3e9634aebcc2f6b","636b47f8d80482492c7040d9","null","","","","null","","","","key","16.74040677966116","621","298.5","","","","","","","","","","","","","","","","","","","",""
"psychophysics","261","469945","0.0-18.0-1.5","5f30a3aafe3e9550d0b8333d","6368f2eea3e9634aebcc2f6b","636b47f8d80482492c7040d9","null","","","","null","","","","key","16.740793103444517","621","298.5","","","","","","","","","","","","","144","1","0","true","","","",""
"psychophysics","262","470097","0.0-18.0-2.5","5f30a3aafe3e9550d0b8333d","6368f2eea3e9634aebcc2f6b","636b47f8d80482492c7040d9","150.89999997615814","","","","90","","","","key","16.733875000005355","621","298.5","","","","","","","","","","","","","","","","","","","",""
"psychophysics","263","471103","0.0-18.0-0.6","5f30a3aafe3e9550d0b8333d","6368f2eea3e9634aebcc2f6b","636b47f8d80482492c7040d9","null","","","","null","","","","key","16.742220338982513","621","298.5","","","","","","","","","","","","","","","","","","","",""
"psychophysics","264","471609","0.0-18.0-1.6","5f30a3aafe3e9550d0b8333d","6368f2eea3e9634aebcc2f6b","636b47f8d80482492c7040d9","null","","","","null","","","","key","16.73950000000186","621","298.5","","","","","","","","","","","","","144","-1","3","true","","","",""
"psychophysics","265","471793","0.0-18.0-2.6","5f30a3aafe3e9550d0b8333d","6368f2eea3e9634aebcc2f6b","636b47f8d80482492c7040d9","182.69999992847443","","","","90","","","","key","16.745111111111733","621","298.5","","","","","","","","","","","","","","","","","","","",""
"psychophysics","266","472798","0.0-18.0-0.7","5f30a3aafe3e9550d0b8333d","6368f2eea3e9634aebcc2f6b","636b47f8d80482492c7040d9","null","","","","null","","","","key","16.74429999999896","621","298.5","","","","","","","","","","","","","","","","","","","",""
"psychophysics","267","473300","0.0-18.0-1.7","5f30a3aafe3e9550d0b8333d","6368f2eea3e9634aebcc2f6b","636b47f8d80482492c7040d9","null","","","","null","","","","key","16.742482758620916","621","298.5","","","","","","","","","","","","","144","-1","2","true","","","",""
"psychophysics","268","473506","0.0-18.0-2.7","5f30a3aafe3e9550d0b8333d","6368f2eea3e9634aebcc2f6b","636b47f8d80482492c7040d9","203.80000007152557","","","","90","","","","key","16.74845454545522","621","298.5","","","","","","","","","","","","","","","","","","","",""
"psychophysics","269","474514","0.0-18.0-0.8","5f30a3aafe3e9550d0b8333d","6368f2eea3e9634aebcc2f6b","636b47f8d80482492c7040d9","null","","","","null","","","","key","16.743525423729096","621","298.5","","","","","","","","","","","","","","","","","","","",""
"psychophysics","270","475021","0.0-18.0-1.8","5f30a3aafe3e9550d0b8333d","6368f2eea3e9634aebcc2f6b","636b47f8d80482492c7040d9","null","","","","null","","","","key","16.742724137930683","621","298.5","","","","","","","","","","","","","144","1","3","true","","","",""
"psychophysics","271","475250","0.0-18.0-2.8","5f30a3aafe3e9550d0b8333d","6368f2eea3e9634aebcc2f6b","636b47f8d80482492c7040d9","222.30000007152557","","","","90","","","","key","16.748076923075132","621","298.5","","","","","","","","","","","","","","","","","","","",""
"psychophysics","272","476260","0.0-18.0-0.9","5f30a3aafe3e9550d0b8333d","6368f2eea3e9634aebcc2f6b","636b47f8d80482492c7040d9","null","","","","null","","","","key","16.740983050847348","621","298.5","","","","","","","","","","","","","","","","","","","",""
"psychophysics","273","476765","0.0-18.0-1.9","5f30a3aafe3e9550d0b8333d","6368f2eea3e9634aebcc2f6b","636b47f8d80482492c7040d9","null","","","","null","","","","key","16.744799999997486","621","298.5","","","","","","","","","","","","","144","-1","6","true","","","",""
"psychophysics","274","476943","0.0-18.0-2.9","5f30a3aafe3e9550d0b8333d","6368f2eea3e9634aebcc2f6b","636b47f8d80482492c7040d9","175.80000007152557","","","","90","","","","key","16.73422222222305","621","298.5","","","","","","","","","","","","","","","","","","","",""
"psychophysics","275","477951","0.0-18.0-0.10","5f30a3aafe3e9550d0b8333d","6368f2eea3e9634aebcc2f6b","636b47f8d80482492c7040d9","null","","","","null","","","","key","16.74289830508484","621","298.5","","","","","","","","","","","","","","","","","","","",""
"psychophysics","276","478457","0.0-18.0-1.10","5f30a3aafe3e9550d0b8333d","6368f2eea3e9634aebcc2f6b","636b47f8d80482492c7040d9","null","","","","null","","","","key","16.74263333333268","621","298.5","","","","","","","","","","","","","144","-1","4","true","","","",""
"psychophysics","277","478591","0.0-18.0-2.10","5f30a3aafe3e9550d0b8333d","6368f2eea3e9634aebcc2f6b","636b47f8d80482492c7040d9","132.60000002384186","","","","77","","","","key","16.7426666666676","621","298.5","","","","","","","","","","","","","","","","","","","",""
"psychophysics","278","479596","0.0-18.0-0.11","5f30a3aafe3e9550d0b8333d","6368f2eea3e9634aebcc2f6b","636b47f8d80482492c7040d9","null","","","","null","","","","key","16.741499999999846","621","298.5","","","","","","","","","","","","","","","","","","","",""
"psychophysics","279","480109","0.0-18.0-1.11","5f30a3aafe3e9550d0b8333d","6368f2eea3e9634aebcc2f6b","636b47f8d80482492c7040d9","null","","","","null","","","","key","16.741241379311823","621","298.5","","","","","","","","","","","","","144","1","6","true","","","",""
"psychophysics","280","480334","0.0-18.0-2.11","5f30a3aafe3e9550d0b8333d","6368f2eea3e9634aebcc2f6b","636b47f8d80482492c7040d9","217.60000002384186","","","","77","","","","key","16.74215384614833","621","298.5","","","","","","","","","","","","","","","","","","","",""
"psychophysics","281","481337","0.0-18.0-0.12","5f30a3aafe3e9550d0b8333d","6368f2eea3e9634aebcc2f6b","636b47f8d80482492c7040d9","null","","","","null","","","","key","16.742779661017327","621","298.5","","","","","","","","","","","","","","","","","","","",""
"psychophysics","282","481839","0.0-18.0-1.12","5f30a3aafe3e9550d0b8333d","6368f2eea3e9634aebcc2f6b","636b47f8d80482492c7040d9","null","","","","null","","","","key","16.74141379310107","621","298.5","","","","","","","","","","","","","144","-1","3","true","","","",""
"psychophysics","283","482029","0.0-18.0-2.12","5f30a3aafe3e9550d0b8333d","6368f2eea3e9634aebcc2f6b","636b47f8d80482492c7040d9","188.70000004768372","","","","90","","","","key","16.750900000007825","621","298.5","","","","","","","","","","","","","","","","","","","",""
"psychophysics","284","483036","0.0-18.0-0.13","5f30a3aafe3e9550d0b8333d","6368f2eea3e9634aebcc2f6b","636b47f8d80482492c7040d9","null","","","","null","","","","key","16.742796610170675","621","298.5","","","","","","","","","","","","","","","","","","","",""
"psychophysics","285","483544","0.0-18.0-1.13","5f30a3aafe3e9550d0b8333d","6368f2eea3e9634aebcc2f6b","636b47f8d80482492c7040d9","null","","","","null","","","","key","16.74234482758791","621","298.5","","","","","","","","","","","","","144","1","4","true","","","",""
"psychophysics","286","483684","0.0-18.0-2.13","5f30a3aafe3e9550d0b8333d","6368f2eea3e9634aebcc2f6b","636b47f8d80482492c7040d9","122.80000007152557","","","","77","","","","key","16.734874999994645","621","298.5","","","","","","","","","","","","","","","","","","","",""
"psychophysics","287","484699","0.0-18.0-0.14","5f30a3aafe3e9550d0b8333d","6368f2eea3e9634aebcc2f6b","636b47f8d80482492c7040d9","null","","","","null","","","","key","16.742406779661444","621","298.5","","","","","","","","","","","","","","","","","","","",""
"psychophysics","288","485204","0.0-18.0-1.14","5f30a3aafe3e9550d0b8333d","6368f2eea3e9634aebcc2f6b","636b47f8d80482492c7040d9","null","","","","null","","","","key","16.743333333334885","621","298.5","","","","","","","","","","","","","144","1","6","true","","","",""
"psychophysics","289","485359","0.0-18.0-2.14","5f30a3aafe3e9550d0b8333d","6368f2eea3e9634aebcc2f6b","636b47f8d80482492c7040d9","151.89999997615814","","","","77","","","","key","16.733250000004773","621","298.5","","","","","","","","","","","","","","","","","","","",""
"psychophysics","290","486364","0.0-18.0-0.15","5f30a3aafe3e9550d0b8333d","6368f2eea3e9634aebcc2f6b","636b47f8d80482492c7040d9","null","","","","null","","","","key","16.74135593220323","621","298.5","","","","","","","","","","","","","","","","","","","",""
"psychophysics","291","486875","0.0-18.0-1.15","5f30a3aafe3e9550d0b8333d","6368f2eea3e9634aebcc2f6b","636b47f8d80482492c7040d9","null","","","","null","","","","key","16.742172413794645","621","298.5","","","","","","","","","","","","","144","1","5","true","","","",""
"psychophysics","292","487054","0.0-18.0-2.15","5f30a3aafe3e9550d0b8333d","6368f2eea3e9634aebcc2f6b","636b47f8d80482492c7040d9","171.80000007152557","","","","77","","","","key","16.74780000000028","621","298.5","","","","","","","","","","","","","","","","","","","",""
"psychophysics","293","488064","0.0-18.0-0.16","5f30a3aafe3e9550d0b8333d","6368f2eea3e9634aebcc2f6b","636b47f8d80482492c7040d9","null","","","","null","","","","key","16.74218644067779","621","298.5","","","","","","","","","","","","","","","","","","","",""
"psychophysics","294","488569","0.0-18.0-1.16","5f30a3aafe3e9550d0b8333d","6368f2eea3e9634aebcc2f6b","636b47f8d80482492c7040d9","null","","","","null","","","","key","16.743233333330135","621","298.5","","","","","","","","","","","","","144","-1","5","true","","","",""
"psychophysics","295","488671","0.0-18.0-2.16","5f30a3aafe3e9550d0b8333d","6368f2eea3e9634aebcc2f6b","636b47f8d80482492c7040d9","99.20000004768372","","","","90","","","","key","16.74660000000149","621","298.5","","","","","","","","","","","","","","","","","","","",""
"psychophysics","296","489675","0.0-18.0-0.17","5f30a3aafe3e9550d0b8333d","6368f2eea3e9634aebcc2f6b","636b47f8d80482492c7040d9","null","","","","null","","","","key","16.74379661017082","621","298.5","","","","","","","","","","","","","","","","","","","",""
"psychophysics","297","490188","0.0-18.0-1.17","5f30a3aafe3e9550d0b8333d","6368f2eea3e9634aebcc2f6b","636b47f8d80482492c7040d9","null","","","","null","","","","key","16.743103448277466","621","298.5","","","","","","","","","","","","","144","-1","2","true","","","",""
"psychophysics","298","490375","0.0-18.0-2.17","5f30a3aafe3e9550d0b8333d","6368f2eea3e9634aebcc2f6b","636b47f8d80482492c7040d9","185.29999995231628","","","","90","","","","key","16.74429999999702","621","298.5","","","","","","","","","","","","","","","","","","","",""
"psychophysics","299","491379","0.0-18.0-0.18","5f30a3aafe3e9550d0b8333d","6368f2eea3e9634aebcc2f6b","636b47f8d80482492c7040d9","null","","","","null","","","","key","16.74300000000098","621","298.5","","","","","","","","","","","","","","","","","","","",""
"psychophysics","300","491885","0.0-18.0-1.18","5f30a3aafe3e9550d0b8333d","6368f2eea3e9634aebcc2f6b","636b47f8d80482492c7040d9","null","","","","null","","","","key","16.740933333333427","621","298.5","","","","","","","","","","","","","144","-1","4","true","","","",""
"psychophysics","301","492038","0.0-18.0-2.18","5f30a3aafe3e9550d0b8333d","6368f2eea3e9634aebcc2f6b","636b47f8d80482492c7040d9","151.29999995231628","","","","77","","","","key","16.74062500000582","621","298.5","","","","","","","","","","","","","","","","","","","",""
"psychophysics","302","493048","0.0-18.0-0.19","5f30a3aafe3e9550d0b8333d","6368f2eea3e9634aebcc2f6b","636b47f8d80482492c7040d9","null","","","","null","","","","key","16.741203389830996","621","298.5","","","","","","","","","","","","","","","","","","","",""
"psychophysics","303","493556","0.0-18.0-1.19","5f30a3aafe3e9550d0b8333d","6368f2eea3e9634aebcc2f6b","636b47f8d80482492c7040d9","null","","","","null","","","","key","16.74682758620876","621","298.5","","","","","","","","","","","","","144","1","3","true","","","",""
"psychophysics","304","493828","0.0-18.0-2.19","5f30a3aafe3e9550d0b8333d","6368f2eea3e9634aebcc2f6b","636b47f8d80482492c7040d9","264.7000000476837","","","","90","","","","key","16.742312500005937","621","298.5","","","","","","","","","","","","","","","","","","","",""
"psychophysics","305","494830","0.0-18.0-0.20","5f30a3aafe3e9550d0b8333d","6368f2eea3e9634aebcc2f6b","636b47f8d80482492c7040d9","null","","","","null","","","","key","16.743949152543053","621","298.5","","","","","","","","","","","","","","","","","","","",""
"psychophysics","306","495333","0.0-18.0-1.20","5f30a3aafe3e9550d0b8333d","6368f2eea3e9634aebcc2f6b","636b47f8d80482492c7040d9","null","","","","null","","","","key","16.742517241377158","621","298.5","","","","","","","","","","","","","144","1","0","true","","","",""
"psychophysics","307","495528","0.0-18.0-2.20","5f30a3aafe3e9550d0b8333d","6368f2eea3e9634aebcc2f6b","636b47f8d80482492c7040d9","192.29999995231628","","","","90","","","","key","18.602222222226878","621","298.5","","","","","","","","","","","","","","","","","","","",""
"psychophysics","308","496535","0.0-18.0-0.21","5f30a3aafe3e9550d0b8333d","6368f2eea3e9634aebcc2f6b","636b47f8d80482492c7040d9","null","","","","null","","","","key","16.74325423728935","621","298.5","","","","","","","","","","","","","","","","","","","",""
"psychophysics","309","497041","0.0-18.0-1.21","5f30a3aafe3e9550d0b8333d","6368f2eea3e9634aebcc2f6b","636b47f8d80482492c7040d9","null","","","","null","","","","key","16.74340000000084","621","298.5","","","","","","","","","","","","","144","-1","0","true","","","",""
"psychophysics","310","497322","0.0-18.0-2.21","5f30a3aafe3e9550d0b8333d","6368f2eea3e9634aebcc2f6b","636b47f8d80482492c7040d9","278.89999997615814","","","","90","","","","key","16.743066666663314","621","298.5","","","","","","","","","","","","","","","","","","","",""
"psychophysics","311","498327","0.0-18.0-0.22","5f30a3aafe3e9550d0b8333d","6368f2eea3e9634aebcc2f6b","636b47f8d80482492c7040d9","null","","","","null","","","","key","16.741237288135718","621","298.5","","","","","","","","","","","","","","","","","","","",""
"psychophysics","312","498833","0.0-18.0-1.22","5f30a3aafe3e9550d0b8333d","6368f2eea3e9634aebcc2f6b","636b47f8d80482492c7040d9","null","","","","null","","","","key","16.744700000000496","621","298.5","","","","","","","","","","","","","144","1","2","true","","","",""
"psychophysics","313","499118","0.0-18.0-2.22","5f30a3aafe3e9550d0b8333d","6368f2eea3e9634aebcc2f6b","636b47f8d80482492c7040d9","282.5","","","","90","","","","key","16.74393333333234","621","298.5","","","","","","","","","","","","","","","","","","","",""
"psychophysics","314","500122","0.0-18.0-0.23","5f30a3aafe3e9550d0b8333d","6368f2eea3e9634aebcc2f6b","636b47f8d80482492c7040d9","null","","","","null","","","","key","16.74246666666586","621","298.5","","","","","","","","","","","","","","","","","","","",""
"psychophysics","315","500625","0.0-18.0-1.23","5f30a3aafe3e9550d0b8333d","6368f2eea3e9634aebcc2f6b","636b47f8d80482492c7040d9","null","","","","null","","","","key","16.742448275860657","621","298.5","","","","","","","","","","","","","144","-1","6","true","","","",""
"psychophysics","316","500869","0.0-18.0-2.23","5f30a3aafe3e9550d0b8333d","6368f2eea3e9634aebcc2f6b","636b47f8d80482492c7040d9","243","","","","77","","","","key","16.739999999999643","621","298.5","","","","","","","","","","","","","","","","","","","",""
"psychophysics","317","501873","0.0-18.0-0.24","5f30a3aafe3e9550d0b8333d","6368f2eea3e9634aebcc2f6b","636b47f8d80482492c7040d9","null","","","","null","","","","key","16.741305084745164","621","298.5","","","","","","","","","","","","","","","","","","","",""
"psychophysics","318","502378","0.0-18.0-1.24","5f30a3aafe3e9550d0b8333d","6368f2eea3e9634aebcc2f6b","636b47f8d80482492c7040d9","null","","","","null","","","","key","16.743103448277466","621","298.5","","","","","","","","","","","","","144","-1","2","true","","","",""
"psychophysics","319","502617","0.0-18.0-2.24","5f30a3aafe3e9550d0b8333d","6368f2eea3e9634aebcc2f6b","636b47f8d80482492c7040d9","235.30000007152557","","","","90","","","","key","16.745307692308696","621","298.5","","","","","","","","","","","","","","","","","","","",""
"psychophysics","320","503621","0.0-18.0-0.25","5f30a3aafe3e9550d0b8333d","6368f2eea3e9634aebcc2f6b","636b47f8d80482492c7040d9","null","","","","null","","","","key","16.741116666665768","621","298.5","","","","","","","","","","","","","","","","","","","",""
"psychophysics","321","504124","0.0-18.0-1.25","5f30a3aafe3e9550d0b8333d","6368f2eea3e9634aebcc2f6b","636b47f8d80482492c7040d9","null","","","","null","","","","key","16.746137931035705","621","298.5","","","","","","","","","","","","","144","1","6","true","","","",""
"psychophysics","322","504829","0.0-18.0-2.25","5f30a3aafe3e9550d0b8333d","6368f2eea3e9634aebcc2f6b","636b47f8d80482492c7040d9","702.5","","","","77","","","","key","17.162275000000953","621","298.5","","","","","","","","","","","","","","","","","","","",""
"psychophysics","323","505831","0.0-18.0-0.26","5f30a3aafe3e9550d0b8333d","6368f2eea3e9634aebcc2f6b","636b47f8d80482492c7040d9","null","","","","null","","","","key","16.7425423728823","621","298.5","","","","","","","","","","","","","","","","","","","",""
"psychophysics","324","506333","0.0-18.0-1.26","5f30a3aafe3e9550d0b8333d","6368f2eea3e9634aebcc2f6b","636b47f8d80482492c7040d9","null","","","","null","","","","key","16.742655172410164","621","298.5","","","","","","","","","","","","","144","-1","6","true","","","",""
"psychophysics","325","506560","0.0-18.0-2.26","5f30a3aafe3e9550d0b8333d","6368f2eea3e9634aebcc2f6b","636b47f8d80482492c7040d9","224.30000007152557","","","","77","","","","key","16.74716666666791","621","298.5","","","","","","","","","","","","","","","","","","","",""
"psychophysics","326","507568","0.0-18.0-0.27","5f30a3aafe3e9550d0b8333d","6368f2eea3e9634aebcc2f6b","636b47f8d80482492c7040d9","null","","","","null","","","","key","16.742745762712605","621","298.5","","","","","","","","","","","","","","","","","","","",""
"psychophysics","327","508073","0.0-18.0-1.27","5f30a3aafe3e9550d0b8333d","6368f2eea3e9634aebcc2f6b","636b47f8d80482492c7040d9","null","","","","null","","","","key","16.742233333333086","621","298.5","","","","","","","","","","","","","144","-1","3","true","","","",""
"psychophysics","328","508305","0.0-18.0-2.27","5f30a3aafe3e9550d0b8333d","6368f2eea3e9634aebcc2f6b","636b47f8d80482492c7040d9","228.70000004768372","","","","90","","","","key","16.74466666666558","621","298.5","","","","","","","","","","","","","","","","","","","",""
"psychophysics","329","509310","0.0-18.0-0.28","5f30a3aafe3e9550d0b8333d","6368f2eea3e9634aebcc2f6b","636b47f8d80482492c7040d9","null","","","","null","","","","key","17.031672413794098","621","298.5","","","","","","","","","","","","","","","","","","","",""
