"trial_type","trial_index","time_elapsed","internal_node_id","PROLIFIC_PID","STUDY_ID","SESSION_ID","rt","stimulus","button_pressed","success","key_press","responses","isData","view_history","response_type","avg_frame_time","center_x","center_y","isSC","stim_side","trial_luminance","step_size","nReversal","correct","prev_ans","isThreshold","SC_threshold","final_threshold","isLuminance","FF_luminance","luminance","stimSide","ISInt","isFF","question_order","isSPQ","isCAPS","isAQ"
"pavlovia","0","20","0.0-0.0","5f0446dd71b11967ef18582b","6368f2eea3e9634aebcc2f6b","636b49c28b178a6fabafa9aa","","","","","","","","","","","","","","","","","","","","","","","","","","","","","","","",""
"html-button-response","1","18317","0.0-1.0","5f0446dd71b11967ef18582b","6368f2eea3e9634aebcc2f6b","636b49c28b178a6fabafa9aa","18292","<div style='background-color: white; width:60%; margin: auto; padding: 50px; text-align: justify; text-justify: inter-word; margin-bottom: 20px;'><h1 style='text-align: center;'>Consent Form</h1><p>Please read this consent form carefully before deciding whether you would like to participate in this study. You have to be 18 years old or older to participate to this study.</p><p style='text-decoration: underline;'>Participation is voluntary:</p><p>It is your choice whether or not to participate in this research. If you choose to participate, you may change your mind and leave the study at any time. Refusal to participate or stopping your participation will involve no penalty or loss of benefits to which you are otherwise entitled.</p><p style='text-decoration: underline;'>Purpose of the Study:</p><p>To understand the mechanisms underlying human perception.</p><p style='text-decoration: underline;'>What you will do in this study:</p><p>You will be presented with a series of visual images and then you will press buttons on the keyboard of your computer to respond to simple questions about the images (e.g. Were one or two images presented?). In addition, you will be asked to complete a questionnaire concerning your beliefs and everyday mental and perceptual experiences.'</p><p style='text-decoration: underline;'> Time Required:</p><p>The study will take 40 minutes to complete. </p><p style='text-decoration: underline;'>Risks:</p><p>There are no anticipated risks associated with participating in this study that are beyond those experienced in everyday life. </p><p style='text-decoration: underline;'>Benefits:</p><p>There are no benefits to you in participating in the study. However, this study may lead to a better understanding of how different kinds of visual information are used.</p><p style='text-decoration: underline;'>Compensation:</p><p>You will be paid US$6.6/hour. </p><p style='text-decoration: underline;'>Privacy and Confidentiality:</p><p>Your participation in this study will be anonymous. No personal information about your name or identity will be asked or recorded. This anonymous data will be stored for several years and may be used for a variety of research purposes. The overall results of the study may be published, or the data files may be shared with other researchers, but your identity will not be revealed in any way. The online services we are using for this study may temporarily store your data, but this data will be downloaded and then promptly deleted from those services.Your data will not be permanently associated with your name, IP address, or any other identifiable information (e.g., your information will only be connected to your payment, not to any of your responses), though they may be temporarily stored together before we download and separate them. Even so, no guarantee of internet survey security can be given because, although unlikely, transmissions can be intercepted and IP addresses can be identified. The anonymous data may be shared publicly (for example, in conjunction with a resulting academic publication).</p><p style='text-decoration: underline;'>Participation and Withdrawal:</p><p>Your participation in this study is completely voluntary. You may stop responding to the stimuli or stop answering questions if you so choose and without penalty by exiting the full screen mode, closing this tab of your browser or redirecting it to a different website.</p><p style='text-decoration: underline;'>Contact Info of the Researcher: </p><p>If you have questions about this study, or if you would like to talk to the research team, please contact David Melcher (david.melcher@nyu.edu, md5050@nyu.edu) at the Perception and Active Cognition Laboratory, New York University Abu Dhabi, Computational Research Building, Saadiyat Island, Abu Dhabi, UAE.This research has been reviewed by the New York University Abu Dhabi Institutional Review Board (NYUAD IRB). To contact about your rights in this research, for questions, suggestions, or complaints that are not addressed by the researchers, please email IRBnyuad@nyu.edu, or call the NYUAD IRB at +971 2 628 4313. </p></div>","0","","","","","","","","","","","","","","","","","","","","","","","","","","","","",""
"fullscreen","2","20748","0.0-2.0","5f0446dd71b11967ef18582b","6368f2eea3e9634aebcc2f6b","636b49c28b178a6fabafa9aa","","","","true","","","","","","","","","","","","","","","","","","","","","","","","","","","",""
"html-keyboard-response","3","39814","0.0-3.0","5f0446dd71b11967ef18582b","6368f2eea3e9634aebcc2f6b","636b49c28b178a6fabafa9aa","19063.30000001192","<p>Welcome !</p><p>READ CAREFULLY THE FOLLOWING INDICATIONS:</p><p>From this moment you have ~40 minutes to complete the experiment.</p><p>During the experiment you will be prompted to take several breaks. Each break should not last longer than 2-3 minutes.</p><p>Make sure that your computer is plugged in and it's not running on battery power, even if the battery is already fully charged.</p><p>Turn off your phone and music, make sure that you are in a quiet room and that you will not be distracted for the next hour.</p><p>Failure to comply with the instructions and indications provided during the experiment will most likely result in the rejection of your data.<p>Press the spacebar to start.</p>","","","32","","","","","","","","","","","","","","","","","","","","","","","","","","",""
"survey-html-form","4","49928","0.0-4.0","5f0446dd71b11967ef18582b","6368f2eea3e9634aebcc2f6b","636b49c28b178a6fabafa9aa","10110.300000011921","","","","","{""age"":""59"",""sex"":""M""}","true","","","","","","","","","","","","","","","","","","","","","","","","",""
"instructions","5","138319","0.0-5.0","5f0446dd71b11967ef18582b","6368f2eea3e9634aebcc2f6b","636b49c28b178a6fabafa9aa","88390.70000001788","","","","","","","[{""page_index"":0,""viewing_time"":48702.90000000596},{""page_index"":1,""viewing_time"":16144.5},{""page_index"":2,""viewing_time"":23542.80000001192}]","","","","","","","","","","","","","","","","","","","","","","","",""
"psychophysics","6","142828","0.0-6.0-0.0","5f0446dd71b11967ef18582b","6368f2eea3e9634aebcc2f6b","636b49c28b178a6fabafa9aa","3500.699999988079","","","","39","","","","key","16.933635338345898","960","473.5","true","-1","180","30","0","1","","","","","","","","","","","","","",""
"psychophysics","7","144496","0.0-6.0-0.1","5f0446dd71b11967ef18582b","6368f2eea3e9634aebcc2f6b","636b49c28b178a6fabafa9aa","665.3000000119209","","","","37","","","","key","16.68463000000018","960","473.5","true","-1","210","30","0","-1","1","","","","","","","","","","","","",""
"psychophysics","8","145700","0.0-6.0-0.2","5f0446dd71b11967ef18582b","6368f2eea3e9634aebcc2f6b","636b49c28b178a6fabafa9aa","201.90000000596046","","","","39","","","","key","16.684211267605605","960","473.5","true","1","210","24","1","-1","-1","","","","","","","","","","","","",""
"psychophysics","9","147464","0.0-6.0-0.3","5f0446dd71b11967ef18582b","6368f2eea3e9634aebcc2f6b","636b49c28b178a6fabafa9aa","756.0999999940395","","","","39","","","","key","16.682067307692286","960","473.5","true","1","186","24","1","-1","-1","","","","","","","","","","","","",""
"psychophysics","10","148784","0.0-6.0-0.4","5f0446dd71b11967ef18582b","6368f2eea3e9634aebcc2f6b","636b49c28b178a6fabafa9aa","317.40000000596046","","","","37","","","","key","16.683126582278533","960","473.5","true","-1","186","24","1","-1","-1","","","","","","","","","","","","",""
"psychophysics","11","150214","0.0-6.0-0.5","5f0446dd71b11967ef18582b","6368f2eea3e9634aebcc2f6b","636b49c28b178a6fabafa9aa","427.09999999403954","","","","37","","","","key","16.68313095238097","960","473.5","true","-1","162","24","1","-1","-1","","","","","","","","","","","","",""
"psychophysics","12","151736","0.0-6.0-0.6","5f0446dd71b11967ef18582b","6368f2eea3e9634aebcc2f6b","636b49c28b178a6fabafa9aa","517.0999999940395","","","","39","","","","key","16.684666666666615","960","473.5","true","1","162","24","1","-1","-1","","","","","","","","","","","","",""
"psychophysics","13","153048","0.0-6.0-0.7","5f0446dd71b11967ef18582b","6368f2eea3e9634aebcc2f6b","636b49c28b178a6fabafa9aa","307.90000000596046","","","","37","","","","key","16.6807179487182","960","473.5","true","-1","138","24","1","-1","-1","","","","","","","","","","","","",""
"psychophysics","14","154430","0.0-6.0-0.8","5f0446dd71b11967ef18582b","6368f2eea3e9634aebcc2f6b","636b49c28b178a6fabafa9aa","372.80000001192093","","","","37","","","","key","16.680512195121903","960","473.5","true","-1","138","24","1","-1","-1","","","","","","","","","","","","",""
"psychophysics","15","159072","0.0-6.0-0.9","5f0446dd71b11967ef18582b","6368f2eea3e9634aebcc2f6b","636b49c28b178a6fabafa9aa","3629.5","","","","39","","","","key","16.68369314079423","960","473.5","true","1","129","24","1","-1","-1","","","","","","","","","","","","",""
"psychophysics","16","161854","0.0-6.0-0.10","5f0446dd71b11967ef18582b","6368f2eea3e9634aebcc2f6b","636b49c28b178a6fabafa9aa","1770.0999999940395","","","","39","","","","key","16.681469879518136","960","473.5","true","1","129","24","1","-1","-1","","","","","","","","","","","","",""
"psychophysics","17","164294","0.0-6.0-0.11","5f0446dd71b11967ef18582b","6368f2eea3e9634aebcc2f6b","636b49c28b178a6fabafa9aa","1435.0999999940395","","","","39","","","","key","16.68319999999989","960","473.5","true","-1","129","19.2","2","1","-1","","","","","","","","","","","","",""
"psychophysics","18","165695","0.0-6.0-0.12","5f0446dd71b11967ef18582b","6368f2eea3e9634aebcc2f6b","636b49c28b178a6fabafa9aa","395.69999998807907","","","","39","","","","key","16.685590361445897","960","473.5","true","1","148.2","19.2","2","-1","1","","","","","","","","","","","","",""
"psychophysics","19","167137","0.0-6.0-0.13","5f0446dd71b11967ef18582b","6368f2eea3e9634aebcc2f6b","636b49c28b178a6fabafa9aa","429.30000001192093","","","","39","","","","key","16.684258823529202","960","473.5","true","1","148.2","15.36","3","-1","-1","","","","","","","","","","","","",""
"psychophysics","20","169112","0.0-6.0-0.14","5f0446dd71b11967ef18582b","6368f2eea3e9634aebcc2f6b","636b49c28b178a6fabafa9aa","964.2999999821186","","","","39","","","","key","16.68364406779672","960","473.5","true","1","132.83999999999997","15.36","3","-1","-1","","","","","","","","","","","","",""
"psychophysics","21","171095","0.0-6.0-0.15","5f0446dd71b11967ef18582b","6368f2eea3e9634aebcc2f6b","636b49c28b178a6fabafa9aa","979.0999999940395","","","","37","","","","key","16.686000000000032","960","473.5","true","1","132.83999999999997","12.287999999999998","4","1","-1","","","","","","","","","","","","",""
"psychophysics","22","172429","0.0-6.0-0.16","5f0446dd71b11967ef18582b","6368f2eea3e9634aebcc2f6b","636b49c28b178a6fabafa9aa","329.40000000596046","","","","39","","","","key","16.684810126582352","960","473.5","true","1","145.128","12.287999999999998","4","-1","1","","","","","","","","","","","","",""
"psychophysics","23","173888","0.0-6.0-0.17","5f0446dd71b11967ef18582b","6368f2eea3e9634aebcc2f6b","636b49c28b178a6fabafa9aa","452.09999999403954","","","","37","","","","key","16.683302325581344","960","473.5","true","-1","145.128","9.8304","5","-1","-1","","","","","","","","","","","","",""
"psychophysics","24","182506","0.0-6.0-0.18","5f0446dd71b11967ef18582b","6368f2eea3e9634aebcc2f6b","636b49c28b178a6fabafa9aa","7610.9000000059605","","","","39","","","","key","16.68340310077519","960","473.5","true","1","135.2976","9.8304","5","-1","-1","","","","","","","","","","","","",""
"psychophysics","25","185164","0.0-6.0-0.19","5f0446dd71b11967ef18582b","6368f2eea3e9634aebcc2f6b","636b49c28b178a6fabafa9aa","1643.0999999940395","","","","39","","","","key","16.683873417721493","960","473.5","true","-1","135.2976","7.864319999999999","6","1","-1","","","","","","","","","","","","",""
"psychophysics","26","186588","0.0-6.0-0.20","5f0446dd71b11967ef18582b","6368f2eea3e9634aebcc2f6b","636b49c28b178a6fabafa9aa","415","","","","37","","","","key","16.68360714285726","960","473.5","true","-1","143.16191999999998","7.864319999999999","6","-1","1","","","","","","","","","","","","",""
"psychophysics","27","187910","0.0-6.0-0.21","5f0446dd71b11967ef18582b","6368f2eea3e9634aebcc2f6b","636b49c28b178a6fabafa9aa","314.59999999403954","","","","39","","","","key","16.68446835443043","960","473.5","true","1","143.16191999999998","6.291456","7","-1","-1","","","","","","","","","","","","",""
"psychophysics","28","189540","0.0-6.0-0.22","5f0446dd71b11967ef18582b","6368f2eea3e9634aebcc2f6b","636b49c28b178a6fabafa9aa","624.6000000238419","","","","37","","","","key","16.682354166666602","960","473.5","true","-1","136.87046399999997","6.291456","7","-1","-1","","","","","","","","","","","","",""
"psychophysics","29","190909","0.0-6.0-0.23","5f0446dd71b11967ef18582b","6368f2eea3e9634aebcc2f6b","636b49c28b178a6fabafa9aa","366.69999998807907","","","","37","","","","key","16.6814878048782","960","473.5","true","-1","136.87046399999997","6.291456","7","-1","-1","","","","","","","","","","","","",""
"psychophysics","30","192530","0.0-6.0-0.24","5f0446dd71b11967ef18582b","6368f2eea3e9634aebcc2f6b","636b49c28b178a6fabafa9aa","620","","","","37","","","","key","16.68332291666684","960","473.5","true","1","130.57900799999996","5.033164800000001","8","1","-1","","","","","","","","","","","","",""
"psychophysics","31","194004","0.0-6.0-0.25","5f0446dd71b11967ef18582b","6368f2eea3e9634aebcc2f6b","636b49c28b178a6fabafa9aa","464.2000000178814","","","","39","","","","key","16.684471264367804","960","473.5","true","1","135.61217279999997","5.033164800000001","8","-1","1","","","","","","","","","","","","",""
"psychophysics","32","195924","0.0-6.0-0.26","5f0446dd71b11967ef18582b","6368f2eea3e9634aebcc2f6b","636b49c28b178a6fabafa9aa","910.3000000119209","","","","39","","","","key","16.681675438596326","960","473.5","true","-1","135.61217279999997","4.0265318400000005","9","1","-1","","","","","","","","","","","","",""
"psychophysics","33","197202","0.0-6.0-0.27","5f0446dd71b11967ef18582b","6368f2eea3e9634aebcc2f6b","636b49c28b178a6fabafa9aa","270.40000000596046","","","","37","","","","key","16.683565789473697","960","473.5","true","-1","139.63870463999996","4.0265318400000005","9","-1","1","","","","","","","","","","","","",""
"psychophysics","34","198585","0.0-6.0-0.28","5f0446dd71b11967ef18582b","6368f2eea3e9634aebcc2f6b","636b49c28b178a6fabafa9aa","372.59999999403954","","","","39","","","","key","16.68454320987659","960","473.5","true","1","139.63870463999996","3.2212254720000004","10","-1","-1","","","","","","","","","","","","",""
"psychophysics","35","200058","0.0-6.0-0.29","5f0446dd71b11967ef18582b","6368f2eea3e9634aebcc2f6b","636b49c28b178a6fabafa9aa","462.69999998807907","","","","37","","","","key","16.67657954545443","960","473.5","true","-1","136.41747916799994","3.2212254720000004","10","-1","-1","","","","","","","","","","","","",""
"psychophysics","36","201707","0.0-6.0-0.30","5f0446dd71b11967ef18582b","6368f2eea3e9634aebcc2f6b","636b49c28b178a6fabafa9aa","637.0999999940395","","","","37","","","","key","16.68465306122439","960","473.5","true","1","136.41747916799994","2.5769803776000004","11","1","-1","","","","","","","","","","","","",""
"psychophysics","37","203092","0.0-6.0-0.31","5f0446dd71b11967ef18582b","6368f2eea3e9634aebcc2f6b","636b49c28b178a6fabafa9aa","371.09999999403954","","","","37","","","","key","16.684512195122007","960","473.5","true","-1","138.99445954559994","2.5769803776000004","11","-1","1","","","","","","","","","","","","",""
"psychophysics","38","204490","0.0-6.0-0.32","5f0446dd71b11967ef18582b","6368f2eea3e9634aebcc2f6b","636b49c28b178a6fabafa9aa","388.19999998807907","","","","37","","","","key","16.885304878048796","960","473.5","true","-1","138.99445954559994","2.0615843020800004","12","-1","-1","","","","","","","","","","","","",""
"psychophysics","39","205899","0.0-6.0-0.33","5f0446dd71b11967ef18582b","6368f2eea3e9634aebcc2f6b","636b49c28b178a6fabafa9aa","397.5","","","","39","","","","key","16.685313253011977","960","473.5","true","1","136.93287524351993","2.0615843020800004","12","-1","-1","","","","","","","","","","","","",""
"psychophysics","40","207337","0.0-6.0-0.34","5f0446dd71b11967ef18582b","6368f2eea3e9634aebcc2f6b","636b49c28b178a6fabafa9aa","431","","","","39","","","","key","16.682752941176297","960","473.5","true","1","136.93287524351993","2.0615843020800004","12","-1","-1","","","","","","","","","","","","",""
"psychophysics","41","208781","0.0-6.0-0.35","5f0446dd71b11967ef18582b","6368f2eea3e9634aebcc2f6b","636b49c28b178a6fabafa9aa","436.30000001192093","","","","39","","","","key","16.68341176470584","960","473.5","true","1","134.87129094143992","2.0615843020800004","12","-1","-1","","","","","","","","","","","","",""
"psychophysics","42","211147","0.0-6.0-0.36","5f0446dd71b11967ef18582b","6368f2eea3e9634aebcc2f6b","636b49c28b178a6fabafa9aa","1350.800000011921","","","","37","","","","key","16.684063829787295","960","473.5","true","-1","134.87129094143992","2.0615843020800004","12","-1","-1","","","","","","","","","","","","",""
"psychophysics","43","213760","0.0-6.0-0.37","5f0446dd71b11967ef18582b","6368f2eea3e9634aebcc2f6b","636b49c28b178a6fabafa9aa","1596.800000011921","","","","37","","","","key","16.68239102564108","960","473.5","true","-1","132.80970663935992","2.0615843020800004","12","-1","-1","","","","","","","","","","","","",""
"psychophysics","44","215502","0.0-6.0-0.38","5f0446dd71b11967ef18582b","6368f2eea3e9634aebcc2f6b","636b49c28b178a6fabafa9aa","734.9000000059605","","","","37","","","","key","16.685788461538323","960","473.5","true","-1","132.80970663935992","2.0615843020800004","12","-1","-1","","","","","","","","","","","","",""
"psychophysics","45","217296","0.0-6.0-0.39","5f0446dd71b11967ef18582b","6368f2eea3e9634aebcc2f6b","636b49c28b178a6fabafa9aa","780.7999999821186","","","","37","","","","key","16.684471698113242","960","473.5","true","1","130.7481223372799","1.6492674416640005","13","1","-1","","","","","","","","","","","","",""
"html-keyboard-response","46","226496","0.0-7.0","5f0446dd71b11967ef18582b","6368f2eea3e9634aebcc2f6b","636b49c28b178a6fabafa9aa","9198.09999999404","<p>Well Done !</p><p>Prepare for a new block.</p><p>DON'T EXIT THE FULL SCREEN MODE</p><p>Press the Spacebar to start.</p>","","","32","","","","","","","","","","","","","","","true","136.08676668620794","","","","","","","","","","",""
"psychophysics","47","227745","0.0-8.0-0.0","5f0446dd71b11967ef18582b","6368f2eea3e9634aebcc2f6b","636b49c28b178a6fabafa9aa","244","","","","39","","","","key","16.684675675675642","960","473.5","true","1","180","30","0","-1","","","","","","","","","","","","","",""
"psychophysics","48","228887","0.0-8.0-0.1","5f0446dd71b11967ef18582b","6368f2eea3e9634aebcc2f6b","636b49c28b178a6fabafa9aa","137.7000000178814","","","","39","","","","key","16.682382352941204","960","473.5","true","1","180","30","0","-1","-1","","","","","","","","","","","","",""
"psychophysics","49","230191","0.0-8.0-0.2","5f0446dd71b11967ef18582b","6368f2eea3e9634aebcc2f6b","636b49c28b178a6fabafa9aa","298.7999999821186","","","","39","","","","key","16.683233766233723","960","473.5","true","1","150","30","0","-1","-1","","","","","","","","","","","","",""
"psychophysics","50","231568","0.0-8.0-0.3","5f0446dd71b11967ef18582b","6368f2eea3e9634aebcc2f6b","636b49c28b178a6fabafa9aa","371.5","","","","39","","","","key","16.680256097561184","960","473.5","true","1","150","30","0","-1","-1","","","","","","","","","","","","",""
"psychophysics","51","233664","0.0-8.0-0.4","5f0446dd71b11967ef18582b","6368f2eea3e9634aebcc2f6b","636b49c28b178a6fabafa9aa","1091.4000000059605","","","","37","","","","key","16.684491935483933","960","473.5","true","1","129","24","1","1","-1","","","","","","","","","","","","",""
"psychophysics","52","234948","0.0-8.0-0.5","5f0446dd71b11967ef18582b","6368f2eea3e9634aebcc2f6b","636b49c28b178a6fabafa9aa","278","","","","37","","","","key","16.68475000000035","960","473.5","true","-1","153","24","1","-1","1","","","","","","","","","","","","",""
"psychophysics","53","236327","0.0-8.0-0.6","5f0446dd71b11967ef18582b","6368f2eea3e9634aebcc2f6b","636b49c28b178a6fabafa9aa","375.90000000596046","","","","37","","","","key","16.684207317073298","960","473.5","true","-1","153","19.2","2","-1","-1","","","","","","","","","","","","",""
"psychophysics","54","238200","0.0-8.0-0.7","5f0446dd71b11967ef18582b","6368f2eea3e9634aebcc2f6b","636b49c28b178a6fabafa9aa","867.5999999940395","","","","37","","","","key","16.683549549549646","960","473.5","true","1","133.8","15.36","3","1","-1","","","","","","","","","","","","",""
"psychophysics","55","239475","0.0-8.0-0.8","5f0446dd71b11967ef18582b","6368f2eea3e9634aebcc2f6b","636b49c28b178a6fabafa9aa","270.2000000178814","","","","37","","","","key","16.684263157894556","960","473.5","true","-1","149.16000000000003","15.36","3","-1","1","","","","","","","","","","","","",""
"psychophysics","56","240811","0.0-8.0-0.9","5f0446dd71b11967ef18582b","6368f2eea3e9634aebcc2f6b","636b49c28b178a6fabafa9aa","326.90000000596046","","","","39","","","","key","16.683506329113964","960","473.5","true","1","149.16000000000003","12.287999999999998","4","-1","-1","","","","","","","","","","","","",""
"psychophysics","57","242187","0.0-8.0-0.10","5f0446dd71b11967ef18582b","6368f2eea3e9634aebcc2f6b","636b49c28b178a6fabafa9aa","367.09999999403954","","","","37","","","","key","16.683271604938287","960","473.5","true","-1","136.872","12.287999999999998","4","-1","-1","","","","","","","","","","","","",""
"psychophysics","58","243539","0.0-8.0-0.11","5f0446dd71b11967ef18582b","6368f2eea3e9634aebcc2f6b","636b49c28b178a6fabafa9aa","346.90000000596046","","","","39","","","","key","16.682437500000013","960","473.5","true","1","136.872","12.287999999999998","4","-1","-1","","","","","","","","","","","","",""
"psychophysics","59","248184","0.0-8.0-0.12","5f0446dd71b11967ef18582b","6368f2eea3e9634aebcc2f6b","636b49c28b178a6fabafa9aa","3638.0999999940395","","","","37","","","","key","16.68387725631772","960","473.5","true","1","129","9.8304","5","1","-1","","","","","","","","","","","","",""
"psychophysics","60","250179","0.0-8.0-0.13","5f0446dd71b11967ef18582b","6368f2eea3e9634aebcc2f6b","636b49c28b178a6fabafa9aa","983.0999999940395","","","","37","","","","key","16.68285714285722","960","473.5","true","-1","138.8304","9.8304","5","-1","1","","","","","","","","","","","","",""
"psychophysics","61","251426","0.0-8.0-0.14","5f0446dd71b11967ef18582b","6368f2eea3e9634aebcc2f6b","636b49c28b178a6fabafa9aa","243.09999999403954","","","","37","","","","key","16.683837837837732","960","473.5","true","-1","138.8304","7.864319999999999","6","-1","-1","","","","","","","","","","","","",""
"psychophysics","62","253067","0.0-8.0-0.15","5f0446dd71b11967ef18582b","6368f2eea3e9634aebcc2f6b","636b49c28b178a6fabafa9aa","639.5","","","","37","","","","key","16.684422680412325","960","473.5","true","-1","130.96608","7.864319999999999","6","-1","-1","","","","","","","","","","","","",""
"psychophysics","63","254931","0.0-8.0-0.16","5f0446dd71b11967ef18582b","6368f2eea3e9634aebcc2f6b","636b49c28b178a6fabafa9aa","859.4000000059605","","","","39","","","","key","16.683702702702732","960","473.5","true","1","130.96608","7.864319999999999","6","-1","-1","","","","","","","","","","","","",""
"psychophysics","64","256740","0.0-8.0-0.17","5f0446dd71b11967ef18582b","6368f2eea3e9634aebcc2f6b","636b49c28b178a6fabafa9aa","801.8999999761581","","","","39","","","","key","16.68426168224286","960","473.5","true","-1","129","6.291456","7","1","-1","","","","","","","","","","","","",""
"psychophysics","65","258161","0.0-8.0-0.18","5f0446dd71b11967ef18582b","6368f2eea3e9634aebcc2f6b","636b49c28b178a6fabafa9aa","410","","","","37","","","","key","16.68483333333314","960","473.5","true","-1","135.291456","6.291456","7","-1","1","","","","","","","","","","","","",""
"psychophysics","66","259523","0.0-8.0-0.19","5f0446dd71b11967ef18582b","6368f2eea3e9634aebcc2f6b","636b49c28b178a6fabafa9aa","348.59999999403954","","","","39","","","","key","16.68004938271644","960","473.5","true","1","135.291456","5.033164800000001","8","-1","-1","","","","","","","","","","","","",""
"psychophysics","67","261307","0.0-8.0-0.20","5f0446dd71b11967ef18582b","6368f2eea3e9634aebcc2f6b","636b49c28b178a6fabafa9aa","781.4000000059605","","","","37","","","","key","16.684283018867784","960","473.5","true","1","130.2582912","4.0265318400000005","9","1","-1","","","","","","","","","","","","",""
"psychophysics","68","262612","0.0-8.0-0.21","5f0446dd71b11967ef18582b","6368f2eea3e9634aebcc2f6b","636b49c28b178a6fabafa9aa","301","","","","39","","","","key","16.684168831168602","960","473.5","true","1","134.28482304","4.0265318400000005","9","-1","1","","","","","","","","","","","","",""
"psychophysics","69","264501","0.0-8.0-0.22","5f0446dd71b11967ef18582b","6368f2eea3e9634aebcc2f6b","636b49c28b178a6fabafa9aa","887","","","","37","","","","key","16.684477876106367","960","473.5","true","1","134.28482304","3.2212254720000004","10","1","-1","","","","","","","","","","","","",""
"psychophysics","70","265859","0.0-8.0-0.23","5f0446dd71b11967ef18582b","6368f2eea3e9634aebcc2f6b","636b49c28b178a6fabafa9aa","345","","","","37","","","","key","16.68287500000006","960","473.5","true","-1","137.506048512","3.2212254720000004","10","-1","1","","","","","","","","","","","","",""
"psychophysics","71","267147","0.0-8.0-0.24","5f0446dd71b11967ef18582b","6368f2eea3e9634aebcc2f6b","636b49c28b178a6fabafa9aa","281","","","","39","","","","key","16.68330263157948","960","473.5","true","1","137.506048512","2.5769803776000004","11","-1","-1","","","","","","","","","","","","",""
"psychophysics","72","269039","0.0-8.0-0.25","5f0446dd71b11967ef18582b","6368f2eea3e9634aebcc2f6b","636b49c28b178a6fabafa9aa","888.7000000178814","","","","37","","","","key","16.682433628318503","960","473.5","true","-1","134.9290681344","2.5769803776000004","11","-1","-1","","","","","","","","","","","","",""
"psychophysics","73","270325","0.0-8.0-0.26","5f0446dd71b11967ef18582b","6368f2eea3e9634aebcc2f6b","636b49c28b178a6fabafa9aa","273.19999998807907","","","","37","","","","key","16.6873947368417","960","473.5","true","-1","134.9290681344","2.5769803776000004","11","-1","-1","","","","","","","","","","","","",""
"psychophysics","74","271847","0.0-8.0-0.27","5f0446dd71b11967ef18582b","6368f2eea3e9634aebcc2f6b","636b49c28b178a6fabafa9aa","510.09999999403954","","","","37","","","","key","16.682744444444285","960","473.5","true","-1","132.35208775680002","2.5769803776000004","11","-1","-1","","","","","","","","","","","","",""
"psychophysics","75","273383","0.0-8.0-0.28","5f0446dd71b11967ef18582b","6368f2eea3e9634aebcc2f6b","636b49c28b178a6fabafa9aa","530.2000000178814","","","","39","","","","key","16.68403296703332","960","473.5","true","1","132.35208775680002","2.5769803776000004","11","-1","-1","","","","","","","","","","","","",""
"psychophysics","76","274871","0.0-8.0-0.29","5f0446dd71b11967ef18582b","6368f2eea3e9634aebcc2f6b","636b49c28b178a6fabafa9aa","482.09999999403954","","","","39","","","","key","16.68246590909125","960","473.5","true","-1","129.77510737920002","2.0615843020800004","12","1","-1","","","","","","","","","","","","",""
"psychophysics","77","277407","0.0-8.0-0.30","5f0446dd71b11967ef18582b","6368f2eea3e9634aebcc2f6b","636b49c28b178a6fabafa9aa","1532.4000000059605","","","","37","","","","key","16.683516556291075","960","473.5","true","-1","131.83669168128003","2.0615843020800004","12","-1","1","","","","","","","","","","","","",""
"psychophysics","78","279439","0.0-8.0-0.31","5f0446dd71b11967ef18582b","6368f2eea3e9634aebcc2f6b","636b49c28b178a6fabafa9aa","1028.9000000059605","","","","37","","","","key","16.683842975206574","960","473.5","true","-1","131.83669168128003","1.6492674416640005","13","-1","-1","","","","","","","","","","","","",""
"psychophysics","79","281871","0.0-8.0-0.32","5f0446dd71b11967ef18582b","6368f2eea3e9634aebcc2f6b","636b49c28b178a6fabafa9aa","1421.3999999761581","","","","39","","","","key","16.68371034482783","960","473.5","true","1","130.18742423961604","1.6492674416640005","13","-1","-1","","","","","","","","","","","","",""
"psychophysics","80","283464","0.0-8.0-0.33","5f0446dd71b11967ef18582b","6368f2eea3e9634aebcc2f6b","636b49c28b178a6fabafa9aa","582.3000000119209","","","","39","","","","key","16.683382978723532","960","473.5","true","1","130.18742423961604","1.6492674416640005","13","-1","-1","","","","","","","","","","","","",""
"psychophysics","81","285304","0.0-8.0-0.34","5f0446dd71b11967ef18582b","6368f2eea3e9634aebcc2f6b","636b49c28b178a6fabafa9aa","837.0999999940395","","","","39","","","","key","16.68360909090896","960","473.5","true","1","129","1.6492674416640005","13","-1","-1","","","","","","","","","","","","",""
"psychophysics","82","286903","0.0-8.0-0.35","5f0446dd71b11967ef18582b","6368f2eea3e9634aebcc2f6b","636b49c28b178a6fabafa9aa","590.5999999940395","","","","37","","","","key","16.68370212765938","960","473.5","true","-1","129","1.6492674416640005","13","-1","-1","","","","","","","","","","","","",""
"psychophysics","83","288632","0.0-8.0-0.36","5f0446dd71b11967ef18582b","6368f2eea3e9634aebcc2f6b","636b49c28b178a6fabafa9aa","724.5","","","","37","","","","key","16.68292233009723","960","473.5","true","-1","129","1.6492674416640005","13","-1","-1","","","","","","","","","","","","",""
"psychophysics","84","290464","0.0-8.0-0.37","5f0446dd71b11967ef18582b","6368f2eea3e9634aebcc2f6b","636b49c28b178a6fabafa9aa","825.6000000238419","","","","37","","","","key","16.68290740740755","960","473.5","true","1","129","1.3194139533312006","14","1","-1","","","","","","","","","","","","",""
"psychophysics","85","292195","0.0-8.0-0.38","5f0446dd71b11967ef18582b","6368f2eea3e9634aebcc2f6b","636b49c28b178a6fabafa9aa","721.5999999940395","","","","37","","","","key","16.684163461538937","960","473.5","true","-1","130.3194139533312","1.3194139533312006","14","-1","1","","","","","","","","","","","","",""
"psychophysics","86","294096","0.0-8.0-0.39","5f0446dd71b11967ef18582b","6368f2eea3e9634aebcc2f6b","636b49c28b178a6fabafa9aa","880.7999999821186","","","","39","","","","key","16.683407079646326","960","473.5","true","-1","130.3194139533312","1.0555311626649604","15","1","-1","","","","","","","","","","","","",""
"html-keyboard-response","87","299778","0.0-9.0","5f0446dd71b11967ef18582b","6368f2eea3e9634aebcc2f6b","636b49c28b178a6fabafa9aa","5680.899999976158","<p>Well Done !</p><p>Prepare for a new block.</p><p>DON'T EXIT THE FULL SCREEN MODE</p><p>Press the Spacebar to start.</p>","","","32","","","","","","","","","","","","","","","true","131.00163192733697","","","","","","","","","","",""
"psychophysics","88","300910","0.0-10.0-0.0","5f0446dd71b11967ef18582b","6368f2eea3e9634aebcc2f6b","636b49c28b178a6fabafa9aa","125.59999999403954","","","","39","","","","key","16.686382352941163","960","473.5","true","1","180","30","0","-1","","","","","","","","","","","","","",""
"psychophysics","89","301931","0.0-10.0-0.1","5f0446dd71b11967ef18582b","6368f2eea3e9634aebcc2f6b","636b49c28b178a6fabafa9aa","14.699999988079071","","","","39","","","","key","16.67976666666703","960","473.5","true","1","180","30","0","-1","-1","","","","","","","","","","","","",""
"psychophysics","90","303269","0.0-10.0-0.2","5f0446dd71b11967ef18582b","6368f2eea3e9634aebcc2f6b","636b49c28b178a6fabafa9aa","333.09999999403954","","","","37","","","","key","16.683886075949392","960","473.5","true","-1","150","30","0","-1","-1","","","","","","","","","","","","",""
"psychophysics","91","304419","0.0-10.0-0.3","5f0446dd71b11967ef18582b","6368f2eea3e9634aebcc2f6b","636b49c28b178a6fabafa9aa","140","","","","37","","","","key","16.683382352940765","960","473.5","true","-1","150","30","0","-1","-1","","","","","","","","","","","","",""
"psychophysics","92","306148","0.0-10.0-0.4","5f0446dd71b11967ef18582b","6368f2eea3e9634aebcc2f6b","636b49c28b178a6fabafa9aa","726.4000000059605","","","","37","","","","key","16.68564077669888","960","473.5","true","1","129","24","1","1","-1","","","","","","","","","","","","",""
"psychophysics","93","307343","0.0-10.0-0.5","5f0446dd71b11967ef18582b","6368f2eea3e9634aebcc2f6b","636b49c28b178a6fabafa9aa","186.80000001192093","","","","39","","","","key","16.683685714285822","960","473.5","true","1","153","24","1","-1","1","","","","","","","","","","","","",""
"psychophysics","94","308644","0.0-10.0-0.6","5f0446dd71b11967ef18582b","6368f2eea3e9634aebcc2f6b","636b49c28b178a6fabafa9aa","287.09999999403954","","","","39","","","","key","16.68264935064952","960","473.5","true","1","153","19.2","2","-1","-1","","","","","","","","","","","","",""
"psychophysics","95","309882","0.0-10.0-0.7","5f0446dd71b11967ef18582b","6368f2eea3e9634aebcc2f6b","636b49c28b178a6fabafa9aa","224.30000001192093","","","","39","","","","key","16.68337837837847","960","473.5","true","1","133.8","19.2","2","-1","-1","","","","","","","","","","","","",""
"psychophysics","96","311282","0.0-10.0-0.8","5f0446dd71b11967ef18582b","6368f2eea3e9634aebcc2f6b","636b49c28b178a6fabafa9aa","385.39999997615814","","","","39","","","","key","16.682939759036245","960","473.5","true","1","133.8","19.2","2","-1","-1","","","","","","","","","","","","",""
"psychophysics","97","312901","0.0-10.0-0.9","5f0446dd71b11967ef18582b","6368f2eea3e9634aebcc2f6b","636b49c28b178a6fabafa9aa","606.6999999880791","","","","37","","","","key","16.682989583333136","960","473.5","true","-1","129","19.2","2","-1","-1","","","","","","","","","","","","",""
"psychophysics","98","314642","0.0-10.0-0.10","5f0446dd71b11967ef18582b","6368f2eea3e9634aebcc2f6b","636b49c28b178a6fabafa9aa","733.5","","","","37","","","","key","16.68312621359189","960","473.5","true","-1","129","19.2","2","-1","-1","","","","","","","","","","","","",""
"psychophysics","99","317507","0.0-10.0-0.11","5f0446dd71b11967ef18582b","6368f2eea3e9634aebcc2f6b","636b49c28b178a6fabafa9aa","1860.5","","","","39","","","","key","16.683017543859492","960","473.5","true","1","129","19.2","2","-1","-1","","","","","","","","","","","","",""
"psychophysics","100","320122","0.0-10.0-0.12","5f0446dd71b11967ef18582b","6368f2eea3e9634aebcc2f6b","636b49c28b178a6fabafa9aa","1605.7999999821186","","","","39","","","","key","16.682955128204924","960","473.5","true","-1","129","15.36","3","1","-1","","","","","","","","","","","","",""
"psychophysics","101","321564","0.0-10.0-0.13","5f0446dd71b11967ef18582b","6368f2eea3e9634aebcc2f6b","636b49c28b178a6fabafa9aa","425.89999997615814","","","","39","","","","key","16.684294117647497","960","473.5","true","1","144.36","15.36","3","-1","1","","","","","","","","","","","","",""
"psychophysics","102","322946","0.0-10.0-0.14","5f0446dd71b11967ef18582b","6368f2eea3e9634aebcc2f6b","636b49c28b178a6fabafa9aa","372.69999998807907","","","","37","","","","key","16.681682926829104","960","473.5","true","-1","144.36","12.287999999999998","4","-1","-1","","","","","","","","","","","","",""
"psychophysics","103","324911","0.0-10.0-0.15","5f0446dd71b11967ef18582b","6368f2eea3e9634aebcc2f6b","636b49c28b178a6fabafa9aa","961.5","","","","37","","","","key","16.683137931034533","960","473.5","true","-1","132.072","12.287999999999998","4","-1","-1","","","","","","","","","","","","",""
"psychophysics","104","327138","0.0-10.0-0.16","5f0446dd71b11967ef18582b","6368f2eea3e9634aebcc2f6b","636b49c28b178a6fabafa9aa","1219.5999999940395","","","","37","","","","key","16.681819548872404","960","473.5","true","-1","132.072","12.287999999999998","4","-1","-1","","","","","","","","","","","","",""
"psychophysics","105","329115","0.0-10.0-0.17","5f0446dd71b11967ef18582b","6368f2eea3e9634aebcc2f6b","636b49c28b178a6fabafa9aa","971.0999999940395","","","","37","","","","key","16.68376923076914","960","473.5","true","-1","129","12.287999999999998","4","-1","-1","","","","","","","","","","","","",""
"psychophysics","106","330597","0.0-10.0-0.18","5f0446dd71b11967ef18582b","6368f2eea3e9634aebcc2f6b","636b49c28b178a6fabafa9aa","469.19999998807907","","","","37","","","","key","16.681954545454406","960","473.5","true","-1","129","12.287999999999998","4","-1","-1","","","","","","","","","","","","",""
"psychophysics","107","332632","0.0-10.0-0.19","5f0446dd71b11967ef18582b","6368f2eea3e9634aebcc2f6b","636b49c28b178a6fabafa9aa","1023","","","","37","","","","key","16.682099173553596","960","473.5","true","-1","129","12.287999999999998","4","-1","-1","","","","","","","","","","","","",""
"psychophysics","108","334030","0.0-10.0-0.20","5f0446dd71b11967ef18582b","6368f2eea3e9634aebcc2f6b","636b49c28b178a6fabafa9aa","393.40000000596046","","","","39","","","","key","16.68127710843411","960","473.5","true","-1","129","9.8304","5","1","-1","","","","","","","","","","","","",""
"psychophysics","109","335390","0.0-10.0-0.21","5f0446dd71b11967ef18582b","6368f2eea3e9634aebcc2f6b","636b49c28b178a6fabafa9aa","357.80000001192093","","","","39","","","","key","16.684234567901356","960","473.5","true","1","138.8304","9.8304","5","-1","1","","","","","","","","","","","","",""
"psychophysics","110","336855","0.0-10.0-0.22","5f0446dd71b11967ef18582b","6368f2eea3e9634aebcc2f6b","636b49c28b178a6fabafa9aa","457.40000000596046","","","","39","","","","key","16.682402298850644","960","473.5","true","1","138.8304","7.864319999999999","6","-1","-1","","","","","","","","","","","","",""
"psychophysics","111","338552","0.0-10.0-0.23","5f0446dd71b11967ef18582b","6368f2eea3e9634aebcc2f6b","636b49c28b178a6fabafa9aa","687.0999999940395","","","","37","","","","key","16.684409999999914","960","473.5","true","-1","130.96608","7.864319999999999","6","-1","-1","","","","","","","","","","","","",""
"psychophysics","112","340262","0.0-10.0-0.24","5f0446dd71b11967ef18582b","6368f2eea3e9634aebcc2f6b","636b49c28b178a6fabafa9aa","693.2999999821186","","","","37","","","","key","16.68364705882371","960","473.5","true","1","130.96608","6.291456","7","1","-1","","","","","","","","","","","","",""
"psychophysics","113","341951","0.0-10.0-0.25","5f0446dd71b11967ef18582b","6368f2eea3e9634aebcc2f6b","636b49c28b178a6fabafa9aa","680.5","","","","37","","","","key","16.683339999999735","960","473.5","true","-1","137.25753600000002","6.291456","7","-1","1","","","","","","","","","","","","",""
"psychophysics","114","343406","0.0-10.0-0.26","5f0446dd71b11967ef18582b","6368f2eea3e9634aebcc2f6b","636b49c28b178a6fabafa9aa","447.19999998807907","","","","37","","","","key","16.680523255813547","960","473.5","true","-1","137.25753600000002","5.033164800000001","8","-1","-1","","","","","","","","","","","","",""
"psychophysics","115","345240","0.0-10.0-0.27","5f0446dd71b11967ef18582b","6368f2eea3e9634aebcc2f6b","636b49c28b178a6fabafa9aa","830.1999999880791","","","","39","","","","key","16.68422018348639","960","473.5","true","-1","132.2243712","4.0265318400000005","9","1","-1","","","","","","","","","","","","",""
"psychophysics","116","347119","0.0-10.0-0.28","5f0446dd71b11967ef18582b","6368f2eea3e9634aebcc2f6b","636b49c28b178a6fabafa9aa","872.1000000238419","","","","39","","","","key","16.683258928571636","960","473.5","true","-1","136.25090304","4.0265318400000005","9","1","1","","","","","","","","","","","","",""
"psychophysics","117","348592","0.0-10.0-0.29","5f0446dd71b11967ef18582b","6368f2eea3e9634aebcc2f6b","636b49c28b178a6fabafa9aa","464.09999999403954","","","","39","","","","key","16.684459770115055","960","473.5","true","1","140.27743488","4.0265318400000005","9","-1","1","","","","","","","","","","","","",""
"psychophysics","118","350046","0.0-10.0-0.30","5f0446dd71b11967ef18582b","6368f2eea3e9634aebcc2f6b","636b49c28b178a6fabafa9aa","448.5","","","","39","","","","key","16.682534883721313","960","473.5","true","1","140.27743488","3.2212254720000004","10","-1","-1","","","","","","","","","","","","",""
"psychophysics","119","351510","0.0-10.0-0.31","5f0446dd71b11967ef18582b","6368f2eea3e9634aebcc2f6b","636b49c28b178a6fabafa9aa","459","","","","39","","","","key","16.684471264367804","960","473.5","true","1","137.05620940799997","3.2212254720000004","10","-1","-1","","","","","","","","","","","","",""
"psychophysics","120","353048","0.0-10.0-0.32","5f0446dd71b11967ef18582b","6368f2eea3e9634aebcc2f6b","636b49c28b178a6fabafa9aa","530.1000000238419","","","","39","","","","key","16.684923076922853","960","473.5","true","-1","137.05620940799997","2.5769803776000004","11","1","-1","","","","","","","","","","","","",""
"psychophysics","121","354482","0.0-10.0-0.33","5f0446dd71b11967ef18582b","6368f2eea3e9634aebcc2f6b","636b49c28b178a6fabafa9aa","429.69999998807907","","","","39","","","","key","16.68414117647061","960","473.5","true","1","139.63318978559997","2.5769803776000004","11","-1","1","","","","","","","","","","","","",""
"psychophysics","122","356064","0.0-10.0-0.34","5f0446dd71b11967ef18582b","6368f2eea3e9634aebcc2f6b","636b49c28b178a6fabafa9aa","576.3999999761581","","","","39","","","","key","16.683202127659783","960","473.5","true","1","139.63318978559997","2.0615843020800004","12","-1","-1","","","","","","","","","","","","",""
"psychophysics","123","357448","0.0-10.0-0.35","5f0446dd71b11967ef18582b","6368f2eea3e9634aebcc2f6b","636b49c28b178a6fabafa9aa","376.2000000178814","","","","39","","","","key","16.68334146341516","960","473.5","true","1","137.57160548351996","2.0615843020800004","12","-1","-1","","","","","","","","","","","","",""
"psychophysics","124","358815","0.0-10.0-0.36","5f0446dd71b11967ef18582b","6368f2eea3e9634aebcc2f6b","636b49c28b178a6fabafa9aa","357.7999999821186","","","","39","","","","key","16.682530864197215","960","473.5","true","1","137.57160548351996","2.0615843020800004","12","-1","-1","","","","","","","","","","","","",""
"psychophysics","125","360464","0.0-10.0-0.37","5f0446dd71b11967ef18582b","6368f2eea3e9634aebcc2f6b","636b49c28b178a6fabafa9aa","643","","","","37","","","","key","16.68245918367341","960","473.5","true","-1","135.51002118143995","2.0615843020800004","12","-1","-1","","","","","","","","","","","","",""
"psychophysics","126","361869","0.0-10.0-0.38","5f0446dd71b11967ef18582b","6368f2eea3e9634aebcc2f6b","636b49c28b178a6fabafa9aa","394.69999998807907","","","","39","","","","key","16.684313253012167","960","473.5","true","1","135.51002118143995","2.0615843020800004","12","-1","-1","","","","","","","","","","","","",""
"psychophysics","127","363860","0.0-10.0-0.39","5f0446dd71b11967ef18582b","6368f2eea3e9634aebcc2f6b","636b49c28b178a6fabafa9aa","981.5","","","","37","","","","key","16.682415254237487","960","473.5","true","-1","133.44843687935995","2.0615843020800004","12","-1","-1","","","","","","","","","","","","",""
"html-keyboard-response","128","366956","0.0-11.0","5f0446dd71b11967ef18582b","6368f2eea3e9634aebcc2f6b","636b49c28b178a6fabafa9aa","3094.4000000059605","<p>Well Done !</p><p>Prepare for a new block.</p><p>DON'T EXIT THE FULL SCREEN MODE</p><p>Press the Spacebar to start.</p>","","","32","","","","","","","","","","","","","","","true","137.10238030643197","","","","","","","","","","",""
"psychophysics","129","368403","0.0-12.0-0.0","5f0446dd71b11967ef18582b","6368f2eea3e9634aebcc2f6b","636b49c28b178a6fabafa9aa","439.2000000178814","","","","37","","","","key","16.682275862068384","960","473.5","true","-1","180","30","0","-1","","","","","","","","","","","","","",""
"psychophysics","130","369498","0.0-12.0-0.1","5f0446dd71b11967ef18582b","6368f2eea3e9634aebcc2f6b","636b49c28b178a6fabafa9aa","86.80000001192093","","","","37","","","","key","16.685812500000793","960","473.5","true","-1","180","30","0","-1","-1","","","","","","","","","","","","",""
"psychophysics","131","370722","0.0-12.0-0.2","5f0446dd71b11967ef18582b","6368f2eea3e9634aebcc2f6b","636b49c28b178a6fabafa9aa","222.59999999403954","","","","39","","","","key","16.68336986301368","960","473.5","true","1","150","30","0","-1","-1","","","","","","","","","","","","",""
"psychophysics","132","372046","0.0-12.0-0.3","5f0446dd71b11967ef18582b","6368f2eea3e9634aebcc2f6b","636b49c28b178a6fabafa9aa","321.59999999403954","","","","39","","","","key","16.68291025641016","960","473.5","true","1","150","30","0","-1","-1","","","","","","","","","","","","",""
"psychophysics","133","374042","0.0-12.0-0.4","5f0446dd71b11967ef18582b","6368f2eea3e9634aebcc2f6b","636b49c28b178a6fabafa9aa","990.5999999940395","","","","39","","","","key","16.679773109243545","960","473.5","true","1","129","30","0","-1","-1","","","","","","","","","","","","",""
"psychophysics","134","375451","0.0-12.0-0.5","5f0446dd71b11967ef18582b","6368f2eea3e9634aebcc2f6b","636b49c28b178a6fabafa9aa","407.19999998807907","","","","39","","","","key","16.68400000000067","960","473.5","true","-1","129","24","1","1","-1","","","","","","","","","","","","",""
"psychophysics","135","376828","0.0-12.0-0.6","5f0446dd71b11967ef18582b","6368f2eea3e9634aebcc2f6b","636b49c28b178a6fabafa9aa","369.80000001192093","","","","39","","","","key","16.683243902439177","960","473.5","true","1","153","24","1","-1","1","","","","","","","","","","","","",""
"psychophysics","136","378339","0.0-12.0-0.7","5f0446dd71b11967ef18582b","6368f2eea3e9634aebcc2f6b","636b49c28b178a6fabafa9aa","502.89999997615814","","","","39","","","","key","16.683134831460663","960","473.5","true","1","153","19.2","2","-1","-1","","","","","","","","","","","","",""
"psychophysics","137","379700","0.0-12.0-0.8","5f0446dd71b11967ef18582b","6368f2eea3e9634aebcc2f6b","636b49c28b178a6fabafa9aa","353.5","","","","37","","","","key","16.683913580247598","960","473.5","true","1","133.8","15.36","3","1","-1","","","","","","","","","","","","",""
"psychophysics","138","380987","0.0-12.0-0.9","5f0446dd71b11967ef18582b","6368f2eea3e9634aebcc2f6b","636b49c28b178a6fabafa9aa","279","","","","39","","","","key","16.684394736841664","960","473.5","true","1","149.16000000000003","15.36","3","-1","1","","","","","","","","","","","","",""
"psychophysics","139","382332","0.0-12.0-0.10","5f0446dd71b11967ef18582b","6368f2eea3e9634aebcc2f6b","636b49c28b178a6fabafa9aa","336.40000000596046","","","","37","","","","key","16.68365822784762","960","473.5","true","-1","149.16000000000003","12.287999999999998","4","-1","-1","","","","","","","","","","","","",""
"psychophysics","140","383539","0.0-12.0-0.11","5f0446dd71b11967ef18582b","6368f2eea3e9634aebcc2f6b","636b49c28b178a6fabafa9aa","205.09999999403954","","","","37","","","","key","16.68451388888853","960","473.5","true","-1","136.872","12.287999999999998","4","-1","-1","","","","","","","","","","","","",""
"psychophysics","141","384836","0.0-12.0-0.12","5f0446dd71b11967ef18582b","6368f2eea3e9634aebcc2f6b","636b49c28b178a6fabafa9aa","285.7000000178814","","","","39","","","","key","16.682618421052833","960","473.5","true","1","136.872","12.287999999999998","4","-1","-1","","","","","","","","","","","","",""
"psychophysics","142","386572","0.0-12.0-0.13","5f0446dd71b11967ef18582b","6368f2eea3e9634aebcc2f6b","636b49c28b178a6fabafa9aa","723.9000000059605","","","","37","","","","key","16.683288461538233","960","473.5","true","-1","129","12.287999999999998","4","-1","-1","","","","","","","","","","","","",""
"psychophysics","143","388274","0.0-12.0-0.14","5f0446dd71b11967ef18582b","6368f2eea3e9634aebcc2f6b","636b49c28b178a6fabafa9aa","688.4000000059605","","","","37","","","","key","16.68439603960349","960","473.5","true","1","129","9.8304","5","1","-1","","","","","","","","","","","","",""
"psychophysics","144","389515","0.0-12.0-0.15","5f0446dd71b11967ef18582b","6368f2eea3e9634aebcc2f6b","636b49c28b178a6fabafa9aa","225.2999999821186","","","","39","","","","key","16.68538356164378","960","473.5","true","1","138.8304","9.8304","5","-1","1","","","","","","","","","","","","",""
"psychophysics","145","390847","0.0-12.0-0.16","5f0446dd71b11967ef18582b","6368f2eea3e9634aebcc2f6b","636b49c28b178a6fabafa9aa","325","","","","39","","","","key","16.68706329113913","960","473.5","true","1","138.8304","7.864319999999999","6","-1","-1","","","","","","","","","","","","",""
"psychophysics","146","392702","0.0-12.0-0.17","5f0446dd71b11967ef18582b","6368f2eea3e9634aebcc2f6b","636b49c28b178a6fabafa9aa","845.5999999940395","","","","37","","","","key","16.681390909091252","960","473.5","true","-1","130.96608","7.864319999999999","6","-1","-1","","","","","","","","","","","","",""
"psychophysics","147","394184","0.0-12.0-0.18","5f0446dd71b11967ef18582b","6368f2eea3e9634aebcc2f6b","636b49c28b178a6fabafa9aa","475.30000001192093","","","","37","","","","key","16.68464772727285","960","473.5","true","-1","130.96608","7.864319999999999","6","-1","-1","","","","","","","","","","","","",""
"psychophysics","148","395929","0.0-12.0-0.19","5f0446dd71b11967ef18582b","6368f2eea3e9634aebcc2f6b","636b49c28b178a6fabafa9aa","734.9000000059605","","","","37","","","","key","16.68299999999988","960","473.5","true","-1","129","7.864319999999999","6","-1","-1","","","","","","","","","","","","",""
"psychophysics","149","397608","0.0-12.0-0.20","5f0446dd71b11967ef18582b","6368f2eea3e9634aebcc2f6b","636b49c28b178a6fabafa9aa","675.2000000178814","","","","39","","","","key","16.68438000000024","960","473.5","true","-1","129","6.291456","7","1","-1","","","","","","","","","","","","",""
"psychophysics","150","399599","0.0-12.0-0.21","5f0446dd71b11967ef18582b","6368f2eea3e9634aebcc2f6b","636b49c28b178a6fabafa9aa","985.6000000238419","","","","39","","","","key","16.681906779661233","960","473.5","true","1","135.291456","6.291456","7","-1","1","","","","","","","","","","","","",""
"psychophysics","151","401888","0.0-12.0-0.22","5f0446dd71b11967ef18582b","6368f2eea3e9634aebcc2f6b","636b49c28b178a6fabafa9aa","1283.4000000059605","","","","39","","","","key","16.682109489051257","960","473.5","true","-1","135.291456","5.033164800000001","8","1","-1","","","","","","","","","","","","",""
"psychophysics","152","403247","0.0-12.0-0.23","5f0446dd71b11967ef18582b","6368f2eea3e9634aebcc2f6b","636b49c28b178a6fabafa9aa","349.90000000596046","","","","39","","","","key","16.683662500000356","960","473.5","true","1","140.32462080000002","5.033164800000001","8","-1","1","","","","","","","","","","","","",""
"psychophysics","153","404696","0.0-12.0-0.24","5f0446dd71b11967ef18582b","6368f2eea3e9634aebcc2f6b","636b49c28b178a6fabafa9aa","442.09999999403954","","","","39","","","","key","16.683406976744706","960","473.5","true","1","140.32462080000002","4.0265318400000005","9","-1","-1","","","","","","","","","","","","",""
"psychophysics","154","406351","0.0-12.0-0.25","5f0446dd71b11967ef18582b","6368f2eea3e9634aebcc2f6b","636b49c28b178a6fabafa9aa","646.9000000059605","","","","37","","","","key","16.678408163265274","960","473.5","true","-1","136.29808896000003","4.0265318400000005","9","-1","-1","","","","","","","","","","","","",""
"psychophysics","155","407952","0.0-12.0-0.26","5f0446dd71b11967ef18582b","6368f2eea3e9634aebcc2f6b","636b49c28b178a6fabafa9aa","592.3000000119209","","","","39","","","","key","16.68372631578976","960","473.5","true","-1","136.29808896000003","3.2212254720000004","10","1","-1","","","","","","","","","","","","",""
"psychophysics","156","409303","0.0-12.0-0.27","5f0446dd71b11967ef18582b","6368f2eea3e9634aebcc2f6b","636b49c28b178a6fabafa9aa","345.7000000178814","","","","39","","","","key","16.681462499999906","960","473.5","true","1","139.51931443200004","3.2212254720000004","10","-1","1","","","","","","","","","","","","",""
"psychophysics","157","410711","0.0-12.0-0.28","5f0446dd71b11967ef18582b","6368f2eea3e9634aebcc2f6b","636b49c28b178a6fabafa9aa","402.30000001192093","","","","37","","","","key","16.68321686747052","960","473.5","true","-1","139.51931443200004","2.5769803776000004","11","-1","-1","","","","","","","","","","","","",""
"psychophysics","158","412080","0.0-12.0-0.29","5f0446dd71b11967ef18582b","6368f2eea3e9634aebcc2f6b","636b49c28b178a6fabafa9aa","361.2999999821186","","","","39","","","","key","16.684234567900635","960","473.5","true","1","136.94233405440005","2.5769803776000004","11","-1","-1","","","","","","","","","","","","",""
"psychophysics","159","413436","0.0-12.0-0.30","5f0446dd71b11967ef18582b","6368f2eea3e9634aebcc2f6b","636b49c28b178a6fabafa9aa","340.30000001192093","","","","37","","","","key","16.682753086419932","960","473.5","true","-1","136.94233405440005","2.5769803776000004","11","-1","-1","","","","","","","","","","","","",""
"psychophysics","160","415217","0.0-12.0-0.31","5f0446dd71b11967ef18582b","6368f2eea3e9634aebcc2f6b","636b49c28b178a6fabafa9aa","766.2000000178814","","","","37","","","","key","16.685266666667026","960","473.5","true","1","134.36535367680005","2.0615843020800004","12","1","-1","","","","","","","","","","","","",""
"psychophysics","161","416590","0.0-12.0-0.32","5f0446dd71b11967ef18582b","6368f2eea3e9634aebcc2f6b","636b49c28b178a6fabafa9aa","359.7999999821186","","","","37","","","","key","16.680512195121548","960","473.5","true","-1","136.42693797888006","2.0615843020800004","12","-1","1","","","","","","","","","","","","",""
"psychophysics","162","418104","0.0-12.0-0.33","5f0446dd71b11967ef18582b","6368f2eea3e9634aebcc2f6b","636b49c28b178a6fabafa9aa","507.2999999821186","","","","37","","","","key","16.68206741573064","960","473.5","true","-1","136.42693797888006","1.6492674416640005","13","-1","-1","","","","","","","","","","","","",""
"psychophysics","163","419574","0.0-12.0-0.34","5f0446dd71b11967ef18582b","6368f2eea3e9634aebcc2f6b","636b49c28b178a6fabafa9aa","464.2999999821186","","","","39","","","","key","16.68304545454554","960","473.5","true","1","134.77767053721607","1.6492674416640005","13","-1","-1","","","","","","","","","","","","",""
"psychophysics","164","421494","0.0-12.0-0.35","5f0446dd71b11967ef18582b","6368f2eea3e9634aebcc2f6b","636b49c28b178a6fabafa9aa","912.2999999821186","","","","39","","","","key","16.683464912280517","960","473.5","true","-1","134.77767053721607","1.3194139533312006","14","1","-1","","","","","","","","","","","","",""
"psychophysics","165","423676","0.0-12.0-0.36","5f0446dd71b11967ef18582b","6368f2eea3e9634aebcc2f6b","636b49c28b178a6fabafa9aa","1174.199999988079","","","","39","","","","key","16.683263565891046","960","473.5","true","1","136.09708449054727","1.3194139533312006","14","-1","1","","","","","","","","","","","","",""
"psychophysics","166","426019","0.0-12.0-0.37","5f0446dd71b11967ef18582b","6368f2eea3e9634aebcc2f6b","636b49c28b178a6fabafa9aa","1335.0999999940395","","","","39","","","","key","16.801956834532437","960","473.5","true","1","136.09708449054727","1.0555311626649604","15","-1","-1","","","","","","","","","","","","",""
"psychophysics","167","427363","0.0-12.0-0.38","5f0446dd71b11967ef18582b","6368f2eea3e9634aebcc2f6b","636b49c28b178a6fabafa9aa","331.90000000596046","","","","37","","","","key","16.68338749999966","960","473.5","true","-1","135.04155332788233","1.0555311626649604","15","-1","-1","","","","","","","","","","","","",""
"psychophysics","168","428830","0.0-12.0-0.39","5f0446dd71b11967ef18582b","6368f2eea3e9634aebcc2f6b","636b49c28b178a6fabafa9aa","457","","","","37","","","","key","16.68363953488378","960","473.5","true","-1","135.04155332788233","1.0555311626649604","15","-1","-1","","","","","","","","","","","","",""
"html-keyboard-response","169","510766","0.0-13.0","5f0446dd71b11967ef18582b","6368f2eea3e9634aebcc2f6b","636b49c28b178a6fabafa9aa","81932.80000001192","<p>Well Done !</p><p>Prepare for a new block.</p><p>DON'T EXIT THE FULL SCREEN MODE</p><p>Press the Spacebar to start.</p>","","","32","","","","","","","","","","","","","","","true","136.30475474924347","","","","","","","","","","",""
"html-keyboard-response","170","510881","0.0-14.0","5f0446dd71b11967ef18582b","6368f2eea3e9634aebcc2f6b","636b49c28b178a6fabafa9aa","null","","","","null","","","","","","","","","","","","","","","","","135.12388341730508","true","142.24776683461016","","","","","","","",""
"instructions","171","561405","0.0-15.0","5f0446dd71b11967ef18582b","6368f2eea3e9634aebcc2f6b","636b49c28b178a6fabafa9aa","50522.10000002384","","","","","","","[{""page_index"":0,""viewing_time"":43963.60000002384},{""page_index"":1,""viewing_time"":3033.5},{""page_index"":2,""viewing_time"":3524.5999999940395}]","","","","","","","","","","","","","","","","","","","","","","","",""
"psychophysics","172","564432","0.0-16.0-0.0","5f0446dd71b11967ef18582b","6368f2eea3e9634aebcc2f6b","636b49c28b178a6fabafa9aa","null","","","","null","","","","key","16.685450000001584","960","473.5","","","","","","","","","","","","","","","","","","","",""
"psychophysics","173","564941","0.0-16.0-1.0","5f0446dd71b11967ef18582b","6368f2eea3e9634aebcc2f6b","636b49c28b178a6fabafa9aa","null","","","","null","","","","key","16.6833793103438","960","473.5","","","","","","","","","","","","","142","1","6","false","","","",""
"psychophysics","174","565824","0.0-16.0-2.0","5f0446dd71b11967ef18582b","6368f2eea3e9634aebcc2f6b","636b49c28b178a6fabafa9aa","880.2999999821186","","","","77","","","","key","16.68144230769338","960","473.5","","","","","","","","","","","","","","","","","","","",""
"psychophysics","175","566829","0.0-16.0-0.1","5f0446dd71b11967ef18582b","6368f2eea3e9634aebcc2f6b","636b49c28b178a6fabafa9aa","null","","","","null","","","","key","16.683050847456443","960","473.5","","","","","","","","","","","","","","","","","","","",""
"psychophysics","176","567335","0.0-16.0-1.1","5f0446dd71b11967ef18582b","6368f2eea3e9634aebcc2f6b","636b49c28b178a6fabafa9aa","null","","","","null","","","","key","16.68159999999916","960","473.5","","","","","","","","","","","","","142","-1","6","false","","","",""
"psychophysics","177","567831","0.0-16.0-2.1","5f0446dd71b11967ef18582b","6368f2eea3e9634aebcc2f6b","636b49c28b178a6fabafa9aa","494.19999998807907","","","","77","","","","key","16.68478571428568","960","473.5","","","","","","","","","","","","","","","","","","","",""
"psychophysics","178","568834","0.0-16.0-0.2","5f0446dd71b11967ef18582b","6368f2eea3e9634aebcc2f6b","636b49c28b178a6fabafa9aa","null","","","","null","","","","key","16.684152542372722","960","473.5","","","","","","","","","","","","","","","","","","","",""
"psychophysics","179","569337","0.0-16.0-1.2","5f0446dd71b11967ef18582b","6368f2eea3e9634aebcc2f6b","636b49c28b178a6fabafa9aa","null","","","","null","","","","key","16.688999999997517","960","473.5","","","","","","","","","","","","","142","-1","0","false","","","",""
"psychophysics","180","570053","0.0-16.0-2.2","5f0446dd71b11967ef18582b","6368f2eea3e9634aebcc2f6b","636b49c28b178a6fabafa9aa","711.3000000119209","","","","77","","","","key","16.680243902439365","960","473.5","","","","","","","","","","","","","","","","","","","",""
"psychophysics","181","571054","0.0-16.0-0.3","5f0446dd71b11967ef18582b","6368f2eea3e9634aebcc2f6b","636b49c28b178a6fabafa9aa","null","","","","null","","","","key","16.685333333333254","960","473.5","","","","","","","","","","","","","","","","","","","",""
"psychophysics","182","571564","0.0-16.0-1.3","5f0446dd71b11967ef18582b","6368f2eea3e9634aebcc2f6b","636b49c28b178a6fabafa9aa","null","","","","null","","","","key","16.680137931036057","960","473.5","","","","","","","","","","","","","142","1","2","false","","","",""
"psychophysics","183","572017","0.0-16.0-2.3","5f0446dd71b11967ef18582b","6368f2eea3e9634aebcc2f6b","636b49c28b178a6fabafa9aa","451.10000002384186","","","","90","","","","key","16.686807692306154","960","473.5","","","","","","","","","","","","","","","","","","","",""
"psychophysics","184","573019","0.0-16.0-0.4","5f0446dd71b11967ef18582b","6368f2eea3e9634aebcc2f6b","636b49c28b178a6fabafa9aa","null","","","","null","","","","key","16.68188135593072","960","473.5","","","","","","","","","","","","","","","","","","","",""
"psychophysics","185","573522","0.0-16.0-1.4","5f0446dd71b11967ef18582b","6368f2eea3e9634aebcc2f6b","636b49c28b178a6fabafa9aa","null","","","","null","","","","key","16.686413793102034","960","473.5","","","","","","","","","","","","","142","-1","4","false","","","",""
"psychophysics","186","574198","0.0-16.0-2.4","5f0446dd71b11967ef18582b","6368f2eea3e9634aebcc2f6b","636b49c28b178a6fabafa9aa","672.8000000119209","","","","77","","","","key","16.682850000000325","960","473.5","","","","","","","","","","","","","","","","","","","",""
"psychophysics","187","575203","0.0-16.0-0.5","5f0446dd71b11967ef18582b","6368f2eea3e9634aebcc2f6b","636b49c28b178a6fabafa9aa","null","","","","null","","","","key","16.684135593219377","960","473.5","","","","","","","","","","","","","","","","","","","",""
"psychophysics","188","575708","0.0-16.0-1.5","5f0446dd71b11967ef18582b","6368f2eea3e9634aebcc2f6b","636b49c28b178a6fabafa9aa","null","","","","null","","","","key","16.686344827585533","960","473.5","","","","","","","","","","","","","142","1","4","false","","","",""
"psychophysics","189","576185","0.0-16.0-2.5","5f0446dd71b11967ef18582b","6368f2eea3e9634aebcc2f6b","636b49c28b178a6fabafa9aa","456.90000000596046","","","","77","","","","key","16.68496428571442","960","473.5","","","","","","","","","","","","","","","","","","","",""
"psychophysics","190","577187","0.0-16.0-0.6","5f0446dd71b11967ef18582b","6368f2eea3e9634aebcc2f6b","636b49c28b178a6fabafa9aa","null","","","","null","","","","key","16.683593220339883","960","473.5","","","","","","","","","","","","","","","","","","","",""
"psychophysics","191","577695","0.0-16.0-1.6","5f0446dd71b11967ef18582b","6368f2eea3e9634aebcc2f6b","636b49c28b178a6fabafa9aa","null","","","","null","","","","key","16.686266666666295","960","473.5","","","","","","","","","","","","","142","1","0","false","","","",""
"psychophysics","192","578335","0.0-16.0-2.6","5f0446dd71b11967ef18582b","6368f2eea3e9634aebcc2f6b","636b49c28b178a6fabafa9aa","636.0999999940395","","","","77","","","","key","16.684567567568298","960","473.5","","","","","","","","","","","","","","","","","","","",""
"psychophysics","193","579339","0.0-16.0-0.7","5f0446dd71b11967ef18582b","6368f2eea3e9634aebcc2f6b","636b49c28b178a6fabafa9aa","null","","","","null","","","","key","16.68706779661036","960","473.5","","","","","","","","","","","","","","","","","","","",""
"psychophysics","194","579844","0.0-16.0-1.7","5f0446dd71b11967ef18582b","6368f2eea3e9634aebcc2f6b","636b49c28b178a6fabafa9aa","null","","","","null","","","","key","16.680137931036057","960","473.5","","","","","","","","","","","","","142","1","3","false","","","",""
"psychophysics","195","580543","0.0-16.0-2.7","5f0446dd71b11967ef18582b","6368f2eea3e9634aebcc2f6b","636b49c28b178a6fabafa9aa","694.2999999821186","","","","90","","","","key","16.68563414634228","960","473.5","","","","","","","","","","","","","","","","","","","",""
"psychophysics","196","581550","0.0-16.0-0.8","5f0446dd71b11967ef18582b","6368f2eea3e9634aebcc2f6b","636b49c28b178a6fabafa9aa","null","","","","null","","","","key","16.68595000000011","960","473.5","","","","","","","","","","","","","","","","","","","",""
"psychophysics","197","582064","0.0-16.0-1.8","5f0446dd71b11967ef18582b","6368f2eea3e9634aebcc2f6b","636b49c28b178a6fabafa9aa","null","","","","null","","","","key","16.685620689656233","960","473.5","","","","","","","","","","","","","142","-1","5","false","","","",""
"psychophysics","198","582471","0.0-16.0-2.8","5f0446dd71b11967ef18582b","6368f2eea3e9634aebcc2f6b","636b49c28b178a6fabafa9aa","401.59999999403954","","","","77","","","","key","16.678458333335584","960","473.5","","","","","","","","","","","","","","","","","","","",""
"psychophysics","199","583482","0.0-16.0-0.9","5f0446dd71b11967ef18582b","6368f2eea3e9634aebcc2f6b","636b49c28b178a6fabafa9aa","null","","","","null","","","","key","16.68538983050789","960","473.5","","","","","","","","","","","","","","","","","","","",""
"psychophysics","200","583986","0.0-16.0-1.9","5f0446dd71b11967ef18582b","6368f2eea3e9634aebcc2f6b","636b49c28b178a6fabafa9aa","null","","","","null","","","","key","16.686999999999536","960","473.5","","","","","","","","","","","","","142","-1","2","false","","","",""
"psychophysics","201","584529","0.0-16.0-2.9","5f0446dd71b11967ef18582b","6368f2eea3e9634aebcc2f6b","636b49c28b178a6fabafa9aa","539","","","","90","","","","key","16.693645161291165","960","473.5","","","","","","","","","","","","","","","","","","","",""
"psychophysics","202","585534","0.0-16.0-0.10","5f0446dd71b11967ef18582b","6368f2eea3e9634aebcc2f6b","636b49c28b178a6fabafa9aa","null","","","","null","","","","key","16.682186440679136","960","473.5","","","","","","","","","","","","","","","","","","","",""
"psychophysics","203","586051","0.0-16.0-1.10","5f0446dd71b11967ef18582b","6368f2eea3e9634aebcc2f6b","636b49c28b178a6fabafa9aa","null","","","","null","","","","key","16.68280000000183","960","473.5","","","","","","","","","","","","","142","-1","3","false","","","",""
"psychophysics","204","586584","0.0-16.0-2.10","5f0446dd71b11967ef18582b","6368f2eea3e9634aebcc2f6b","636b49c28b178a6fabafa9aa","528.1999999880791","","","","90","","","","key","16.686161290324712","960","473.5","","","","","","","","","","","","","","","","","","","",""
"psychophysics","205","587588","0.0-16.0-0.11","5f0446dd71b11967ef18582b","6368f2eea3e9634aebcc2f6b","636b49c28b178a6fabafa9aa","null","","","","null","","","","key","16.685783333333287","960","473.5","","","","","","","","","","","","","","","","","","","",""
"psychophysics","206","588097","0.0-16.0-1.11","5f0446dd71b11967ef18582b","6368f2eea3e9634aebcc2f6b","636b49c28b178a6fabafa9aa","null","","","","null","","","","key","16.68199999999769","960","473.5","","","","","","","","","","","","","142","1","5","false","","","",""
"psychophysics","207","588505","0.0-16.0-2.11","5f0446dd71b11967ef18582b","6368f2eea3e9634aebcc2f6b","636b49c28b178a6fabafa9aa","405.90000000596046","","","","77","","","","key","16.679043478261597","960","473.5","","","","","","","","","","","","","","","","","","","",""
"psychophysics","208","589522","0.0-16.0-0.12","5f0446dd71b11967ef18582b","6368f2eea3e9634aebcc2f6b","636b49c28b178a6fabafa9aa","null","","","","null","","","","key","16.683033333332666","960","473.5","","","","","","","","","","","","","","","","","","","",""
"psychophysics","209","590035","0.0-16.0-1.12","5f0446dd71b11967ef18582b","6368f2eea3e9634aebcc2f6b","636b49c28b178a6fabafa9aa","null","","","","null","","","","key","16.68086666666592","960","473.5","","","","","","","","","","","","","142","1","4","false","","","",""
"psychophysics","210","590642","0.0-16.0-2.12","5f0446dd71b11967ef18582b","6368f2eea3e9634aebcc2f6b","636b49c28b178a6fabafa9aa","602.2999999821186","","","","77","","","","key","16.68514285714565","960","473.5","","","","","","","","","","","","","","","","","","","",""
"psychophysics","211","591657","0.0-16.0-0.13","5f0446dd71b11967ef18582b","6368f2eea3e9634aebcc2f6b","636b49c28b178a6fabafa9aa","null","","","","null","","","","key","16.679533333333286","960","473.5","","","","","","","","","","","","","","","","","","","",""
"psychophysics","212","592175","0.0-16.0-1.13","5f0446dd71b11967ef18582b","6368f2eea3e9634aebcc2f6b","636b49c28b178a6fabafa9aa","null","","","","null","","","","key","16.683199999997548","960","473.5","","","","","","","","","","","","","142","-1","6","false","","","",""
"psychophysics","213","592706","0.0-16.0-2.13","5f0446dd71b11967ef18582b","6368f2eea3e9634aebcc2f6b","636b49c28b178a6fabafa9aa","524.2000000178814","","","","77","","","","key","16.684290322580285","960","473.5","","","","","","","","","","","","","","","","","","","",""
"psychophysics","214","593710","0.0-16.0-0.14","5f0446dd71b11967ef18582b","6368f2eea3e9634aebcc2f6b","636b49c28b178a6fabafa9aa","null","","","","null","","","","key","16.68118644067702","960","473.5","","","","","","","","","","","","","","","","","","","",""
"psychophysics","215","594223","0.0-16.0-1.14","5f0446dd71b11967ef18582b","6368f2eea3e9634aebcc2f6b","636b49c28b178a6fabafa9aa","null","","","","null","","","","key","16.68096666666679","960","473.5","","","","","","","","","","","","","142","1","2","false","","","",""
"psychophysics","216","594680","0.0-16.0-2.14","5f0446dd71b11967ef18582b","6368f2eea3e9634aebcc2f6b","636b49c28b178a6fabafa9aa","453.5","","","","77","","","","key","16.686730769230053","960","473.5","","","","","","","","","","","","","","","","","","","",""
"psychophysics","217","595688","0.0-16.0-0.15","5f0446dd71b11967ef18582b","6368f2eea3e9634aebcc2f6b","636b49c28b178a6fabafa9aa","null","","","","null","","","","key","16.684799999999814","960","473.5","","","","","","","","","","","","","","","","","","","",""
"psychophysics","218","596195","0.0-16.0-1.15","5f0446dd71b11967ef18582b","6368f2eea3e9634aebcc2f6b","636b49c28b178a6fabafa9aa","null","","","","null","","","","key","16.683758620690586","960","473.5","","","","","","","","","","","","","142","-1","4","false","","","",""
"psychophysics","219","596583","0.0-16.0-2.15","5f0446dd71b11967ef18582b","6368f2eea3e9634aebcc2f6b","636b49c28b178a6fabafa9aa","382.59999999403954","","","","77","","","","key","16.676217391307507","960","473.5","","","","","","","","","","","","","","","","","","","",""
"psychophysics","220","597596","0.0-16.0-0.16","5f0446dd71b11967ef18582b","6368f2eea3e9634aebcc2f6b","636b49c28b178a6fabafa9aa","null","","","","null","","","","key","16.68262711864249","960","473.5","","","","","","","","","","","","","","","","","","","",""
"psychophysics","221","598101","0.0-16.0-1.16","5f0446dd71b11967ef18582b","6368f2eea3e9634aebcc2f6b","636b49c28b178a6fabafa9aa","null","","","","null","","","","key","16.683066666665642","960","473.5","","","","","","","","","","","","","142","1","6","false","","","",""
"psychophysics","222","598664","0.0-16.0-2.16","5f0446dd71b11967ef18582b","6368f2eea3e9634aebcc2f6b","636b49c28b178a6fabafa9aa","561","","","","77","","","","key","16.683687500000815","960","473.5","","","","","","","","","","","","","","","","","","","",""
"psychophysics","223","599682","0.0-16.0-0.17","5f0446dd71b11967ef18582b","6368f2eea3e9634aebcc2f6b","636b49c28b178a6fabafa9aa","null","","","","null","","","","key","16.68143333333428","960","473.5","","","","","","","","","","","","","","","","","","","",""
"psychophysics","224","600197","0.0-16.0-1.17","5f0446dd71b11967ef18582b","6368f2eea3e9634aebcc2f6b","636b49c28b178a6fabafa9aa","null","","","","null","","","","key","16.682933333333736","960","473.5","","","","","","","","","","","","","142","-1","3","false","","","",""
"psychophysics","225","600934","0.0-16.0-2.17","5f0446dd71b11967ef18582b","6368f2eea3e9634aebcc2f6b","636b49c28b178a6fabafa9aa","731.5999999940395","","","","77","","","","key","16.686441860464942","960","473.5","","","","","","","","","","","","","","","","","","","",""
"psychophysics","226","601937","0.0-16.0-0.18","5f0446dd71b11967ef18582b","6368f2eea3e9634aebcc2f6b","636b49c28b178a6fabafa9aa","null","","","","null","","","","key","16.684499999999147","960","473.5","","","","","","","","","","","","","","","","","","","",""
"psychophysics","227","602450","0.0-16.0-1.18","5f0446dd71b11967ef18582b","6368f2eea3e9634aebcc2f6b","636b49c28b178a6fabafa9aa","null","","","","null","","","","key","16.67324137930951","960","473.5","","","","","","","","","","","","","142","1","3","false","","","",""
"psychophysics","228","603026","0.0-16.0-2.18","5f0446dd71b11967ef18582b","6368f2eea3e9634aebcc2f6b","636b49c28b178a6fabafa9aa","569.3000000119209","","","","90","","","","key","16.682882352940986","960","473.5","","","","","","","","","","","","","","","","","","","",""
"psychophysics","229","604039","0.0-16.0-0.19","5f0446dd71b11967ef18582b","6368f2eea3e9634aebcc2f6b","636b49c28b178a6fabafa9aa","null","","","","null","","","","key","16.686183333334824","960","473.5","","","","","","","","","","","","","","","","","","","",""
"psychophysics","230","604553","0.0-16.0-1.19","5f0446dd71b11967ef18582b","6368f2eea3e9634aebcc2f6b","636b49c28b178a6fabafa9aa","null","","","","null","","","","key","16.685655172412478","960","473.5","","","","","","","","","","","","","142","-1","0","false","","","",""
"psychophysics","231","605379","0.0-16.0-2.19","5f0446dd71b11967ef18582b","6368f2eea3e9634aebcc2f6b","636b49c28b178a6fabafa9aa","820.9000000059605","","","","77","","","","key","16.68414285714377","960","473.5","","","","","","","","","","","","","","","","","","","",""
"psychophysics","232","606389","0.0-16.0-0.20","5f0446dd71b11967ef18582b","6368f2eea3e9634aebcc2f6b","636b49c28b178a6fabafa9aa","null","","","","null","","","","key","16.68381355932156","960","473.5","","","","","","","","","","","","","","","","","","","",""
"psychophysics","233","606903","0.0-16.0-1.20","5f0446dd71b11967ef18582b","6368f2eea3e9634aebcc2f6b","636b49c28b178a6fabafa9aa","null","","","","null","","","","key","16.679899999999908","960","473.5","","","","","","","","","","","","","142","-1","5","false","","","",""
"psychophysics","234","607363","0.0-16.0-2.20","5f0446dd71b11967ef18582b","6368f2eea3e9634aebcc2f6b","636b49c28b178a6fabafa9aa","457","","","","77","","","","key","16.67937037037013","960","473.5","","","","","","","","","","","","","","","","","","","",""
"psychophysics","235","608374","0.0-16.0-0.21","5f0446dd71b11967ef18582b","6368f2eea3e9634aebcc2f6b","636b49c28b178a6fabafa9aa","null","","","","null","","","","key","16.68276271186335","960","473.5","","","","","","","","","","","","","","","","","","","",""
"psychophysics","236","608884","0.0-16.0-1.21","5f0446dd71b11967ef18582b","6368f2eea3e9634aebcc2f6b","636b49c28b178a6fabafa9aa","null","","","","null","","","","key","16.682400000002236","960","473.5","","","","","","","","","","","","","142","1","5","false","","","",""
"psychophysics","237","609388","0.0-16.0-2.21","5f0446dd71b11967ef18582b","6368f2eea3e9634aebcc2f6b","636b49c28b178a6fabafa9aa","502","","","","77","","","","key","16.68962068965755","960","473.5","","","","","","","","","","","","","","","","","","","",""
"psychophysics","238","610394","0.0-16.0-0.22","5f0446dd71b11967ef18582b","6368f2eea3e9634aebcc2f6b","636b49c28b178a6fabafa9aa","null","","","","null","","","","key","16.685288135593726","960","473.5","","","","","","","","","","","","","","","","","","","",""
"psychophysics","239","610911","0.0-16.0-1.22","5f0446dd71b11967ef18582b","6368f2eea3e9634aebcc2f6b","636b49c28b178a6fabafa9aa","null","","","","null","","","","key","16.677733333331222","960","473.5","","","","","","","","","","","","","142","-1","2","false","","","",""
"psychophysics","240","611414","0.0-16.0-2.22","5f0446dd71b11967ef18582b","6368f2eea3e9634aebcc2f6b","636b49c28b178a6fabafa9aa","500.2000000178814","","","","90","","","","key","16.690724137933636","960","473.5","","","","","","","","","","","","","","","","","","","",""
"psychophysics","241","612428","0.0-16.0-0.23","5f0446dd71b11967ef18582b","6368f2eea3e9634aebcc2f6b","636b49c28b178a6fabafa9aa","null","","","","null","","","","key","16.678183333333195","960","473.5","","","","","","","","","","","","","","","","","","","",""
"psychophysics","242","612930","0.0-16.0-1.23","5f0446dd71b11967ef18582b","6368f2eea3e9634aebcc2f6b","636b49c28b178a6fabafa9aa","null","","","","null","","","","key","16.687793103448147","960","473.5","","","","","","","","","","","","","142","1","0","false","","","",""
"psychophysics","243","613437","0.0-16.0-2.23","5f0446dd71b11967ef18582b","6368f2eea3e9634aebcc2f6b","636b49c28b178a6fabafa9aa","472.19999998807907","","","","90","","","","key","16.679366666668404","960","473.5","","","","","","","","","","","","","","","","","","","",""
"html-keyboard-response","244","617427","0.0-17.0","5f0446dd71b11967ef18582b","6368f2eea3e9634aebcc2f6b","636b49c28b178a6fabafa9aa","3988.0999999940395","<p>Well Done !</p><p>Training Complete. Press the spacebar to start.</p><p>DON'T EXIT THE FULL SCREEN MODE</p>","","","32","","","","","","","","","","","","","","","","","","","","","","","","","","",""
"psychophysics","245","620453","0.0-18.0-0.0","5f0446dd71b11967ef18582b","6368f2eea3e9634aebcc2f6b","636b49c28b178a6fabafa9aa","null","","","","null","","","","key","16.685333333333254","960","473.5","","","","","","","","","","","","","","","","","","","",""
"psychophysics","246","620964","0.0-18.0-1.0","5f0446dd71b11967ef18582b","6368f2eea3e9634aebcc2f6b","636b49c28b178a6fabafa9aa","null","","","","null","","","","key","16.684517241380146","960","473.5","","","","","","","","","","","","","142","-1","6","true","","","",""
"psychophysics","247","621547","0.0-18.0-2.0","5f0446dd71b11967ef18582b","6368f2eea3e9634aebcc2f6b","636b49c28b178a6fabafa9aa","574.6000000238419","","","","77","","","","key","16.685705882353325","960","473.5","","","","","","","","","","","","","","","","","","","",""
"psychophysics","248","622554","0.0-18.0-0.1","5f0446dd71b11967ef18582b","6368f2eea3e9634aebcc2f6b","636b49c28b178a6fabafa9aa","null","","","","null","","","","key","16.68569491525433","960","473.5","","","","","","","","","","","","","","","","","","","",""
"psychophysics","249","623056","0.0-18.0-1.1","5f0446dd71b11967ef18582b","6368f2eea3e9634aebcc2f6b","636b49c28b178a6fabafa9aa","null","","","","null","","","","key","16.68243333333327","960","473.5","","","","","","","","","","","","","142","1","3","true","","","",""
"psychophysics","250","623715","0.0-18.0-2.1","5f0446dd71b11967ef18582b","6368f2eea3e9634aebcc2f6b","636b49c28b178a6fabafa9aa","655.9000000059605","","","","77","","","","key","16.679657894735055","960","473.5","","","","","","","","","","","","","","","","","","","",""
"psychophysics","251","624723","0.0-18.0-0.2","5f0446dd71b11967ef18582b","6368f2eea3e9634aebcc2f6b","636b49c28b178a6fabafa9aa","null","","","","null","","","","key","16.685067796610074","960","473.5","","","","","","","","","","","","","","","","","","","",""
"psychophysics","252","625226","0.0-18.0-1.2","5f0446dd71b11967ef18582b","6368f2eea3e9634aebcc2f6b","636b49c28b178a6fabafa9aa","null","","","","null","","","","key","16.68280000000183","960","473.5","","","","","","","","","","","","","142","1","5","true","","","",""
"psychophysics","253","625787","0.0-18.0-2.2","5f0446dd71b11967ef18582b","6368f2eea3e9634aebcc2f6b","636b49c28b178a6fabafa9aa","556.5999999940395","","","","77","","","","key","16.679843750000146","960","473.5","","","","","","","","","","","","","","","","","","","",""
"psychophysics","254","626793","0.0-18.0-0.3","5f0446dd71b11967ef18582b","6368f2eea3e9634aebcc2f6b","636b49c28b178a6fabafa9aa","null","","","","null","","","","key","16.685627118642916","960","473.5","","","","","","","","","","","","","","","","","","","",""
"psychophysics","255","627297","0.0-18.0-1.3","5f0446dd71b11967ef18582b","6368f2eea3e9634aebcc2f6b","636b49c28b178a6fabafa9aa","null","","","","null","","","","key","16.673833333332247","960","473.5","","","","","","","","","","","","","142","1","0","true","","","",""
"psychophysics","256","628139","0.0-18.0-2.3","5f0446dd71b11967ef18582b","6368f2eea3e9634aebcc2f6b","636b49c28b178a6fabafa9aa","839.4000000059605","","","","77","","","","key","16.68157142857137","960","473.5","","","","","","","","","","","","","","","","","","","",""
"psychophysics","257","629148","0.0-18.0-0.4","5f0446dd71b11967ef18582b","6368f2eea3e9634aebcc2f6b","636b49c28b178a6fabafa9aa","null","","","","null","","","","key","16.683333333333334","960","473.5","","","","","","","","","","","","","","","","","","","",""
"psychophysics","258","629652","0.0-18.0-1.4","5f0446dd71b11967ef18582b","6368f2eea3e9634aebcc2f6b","636b49c28b178a6fabafa9aa","null","","","","null","","","","key","16.682758620687245","960","473.5","","","","","","","","","","","","","142","-1","3","true","","","",""
"psychophysics","259","630243","0.0-18.0-2.4","5f0446dd71b11967ef18582b","6368f2eea3e9634aebcc2f6b","636b49c28b178a6fabafa9aa","589.9000000059605","","","","90","","","","key","16.683588235293215","960","473.5","","","","","","","","","","","","","","","","","","","",""
"psychophysics","260","631249","0.0-18.0-0.5","5f0446dd71b11967ef18582b","6368f2eea3e9634aebcc2f6b","636b49c28b178a6fabafa9aa","null","","","","null","","","","key","16.68466666666791","960","473.5","","","","","","","","","","","","","","","","","","","",""
"psychophysics","261","631752","0.0-18.0-1.5","5f0446dd71b11967ef18582b","6368f2eea3e9634aebcc2f6b","636b49c28b178a6fabafa9aa","null","","","","null","","","","key","16.686310344825273","960","473.5","","","","","","","","","","","","","142","-1","4","true","","","",""
"psychophysics","262","632164","0.0-18.0-2.5","5f0446dd71b11967ef18582b","6368f2eea3e9634aebcc2f6b","636b49c28b178a6fabafa9aa","408.5","","","","77","","","","key","16.6794782608707","960","473.5","","","","","","","","","","","","","","","","","","","",""
"psychophysics","263","633168","0.0-18.0-0.6","5f0446dd71b11967ef18582b","6368f2eea3e9634aebcc2f6b","636b49c28b178a6fabafa9aa","null","","","","null","","","","key","16.684600000000014","960","473.5","","","","","","","","","","","","","","","","","","","",""
"psychophysics","264","633671","0.0-18.0-1.6","5f0446dd71b11967ef18582b","6368f2eea3e9634aebcc2f6b","636b49c28b178a6fabafa9aa","null","","","","null","","","","key","16.686344827589547","960","473.5","","","","","","","","","","","","","142","-1","5","true","","","",""
"psychophysics","265","634255","0.0-18.0-2.6","5f0446dd71b11967ef18582b","6368f2eea3e9634aebcc2f6b","636b49c28b178a6fabafa9aa","581.6000000238419","","","","77","","","","key","16.68327272727126","960","473.5","","","","","","","","","","","","","","","","","","","",""
"psychophysics","266","635259","0.0-18.0-0.7","5f0446dd71b11967ef18582b","6368f2eea3e9634aebcc2f6b","636b49c28b178a6fabafa9aa","null","","","","null","","","","key","16.683666666666976","960","473.5","","","","","","","","","","","","","","","","","","","",""
"psychophysics","267","635763","0.0-18.0-1.7","5f0446dd71b11967ef18582b","6368f2eea3e9634aebcc2f6b","636b49c28b178a6fabafa9aa","null","","","","null","","","","key","16.682172413794966","960","473.5","","","","","","","","","","","","","142","-1","2","true","","","",""
"psychophysics","268","636515","0.0-18.0-2.7","5f0446dd71b11967ef18582b","6368f2eea3e9634aebcc2f6b","636b49c28b178a6fabafa9aa","749.0999999940395","","","","90","","","","key","16.682204545454375","960","473.5","","","","","","","","","","","","","","","","","","","",""
"psychophysics","269","637522","0.0-18.0-0.8","5f0446dd71b11967ef18582b","6368f2eea3e9634aebcc2f6b","636b49c28b178a6fabafa9aa","null","","","","null","","","","key","16.683783333333363","960","473.5","","","","","","","","","","","","","","","","","","","",""
"psychophysics","270","638024","0.0-18.0-1.8","5f0446dd71b11967ef18582b","6368f2eea3e9634aebcc2f6b","636b49c28b178a6fabafa9aa","null","","","","null","","","","key","16.686586206899314","960","473.5","","","","","","","","","","","","","142","1","4","true","","","",""
"psychophysics","271","638435","0.0-18.0-2.8","5f0446dd71b11967ef18582b","6368f2eea3e9634aebcc2f6b","636b49c28b178a6fabafa9aa","407.90000000596046","","","","77","","","","key","16.67960869565444","960","473.5","","","","","","","","","","","","","","","","","","","",""
"psychophysics","272","639440","0.0-18.0-0.9","5f0446dd71b11967ef18582b","6368f2eea3e9634aebcc2f6b","636b49c28b178a6fabafa9aa","null","","","","null","","","","key","16.683300000000358","960","473.5","","","","","","","","","","","","","","","","","","","",""
"psychophysics","273","639948","0.0-18.0-1.9","5f0446dd71b11967ef18582b","6368f2eea3e9634aebcc2f6b","636b49c28b178a6fabafa9aa","null","","","","null","","","","key","16.682724137931004","960","473.5","","","","","","","","","","","","","142","-1","0","true","","","",""
"psychophysics","274","640652","0.0-18.0-2.9","5f0446dd71b11967ef18582b","6368f2eea3e9634aebcc2f6b","636b49c28b178a6fabafa9aa","702.3000000119209","","","","90","","","","key","16.686146341463004","960","473.5","","","","","","","","","","","","","","","","","","","",""
"psychophysics","275","641658","0.0-18.0-0.10","5f0446dd71b11967ef18582b","6368f2eea3e9634aebcc2f6b","636b49c28b178a6fabafa9aa","null","","","","null","","","","key","16.68450847457526","960","473.5","","","","","","","","","","","","","","","","","","","",""
"psychophysics","276","642171","0.0-18.0-1.10","5f0446dd71b11967ef18582b","6368f2eea3e9634aebcc2f6b","636b49c28b178a6fabafa9aa","null","","","","null","","","","key","16.684699999998944","960","473.5","","","","","","","","","","","","","142","1","6","true","","","",""
"psychophysics","277","642544","0.0-18.0-2.10","5f0446dd71b11967ef18582b","6368f2eea3e9634aebcc2f6b","636b49c28b178a6fabafa9aa","366","","","","77","","","","key","16.67959090909095","960","473.5","","","","","","","","","","","","","","","","","","","",""
"psychophysics","278","643548","0.0-18.0-0.11","5f0446dd71b11967ef18582b","6368f2eea3e9634aebcc2f6b","636b49c28b178a6fabafa9aa","null","","","","null","","","","key","16.684101694914656","960","473.5","","","","","","","","","","","","","","","","","","","",""
"psychophysics","279","644051","0.0-18.0-1.11","5f0446dd71b11967ef18582b","6368f2eea3e9634aebcc2f6b","636b49c28b178a6fabafa9aa","null","","","","null","","","","key","16.683655172413825","960","473.5","","","","","","","","","","","","","142","1","2","true","","","",""
"psychophysics","280","644672","0.0-18.0-2.11","5f0446dd71b11967ef18582b","6368f2eea3e9634aebcc2f6b","636b49c28b178a6fabafa9aa","619.2000000178814","","","","90","","","","key","16.685888888889977","960","473.5","","","","","","","","","","","","","","","","","","","",""
"psychophysics","281","645681","0.0-18.0-0.12","5f0446dd71b11967ef18582b","6368f2eea3e9634aebcc2f6b","636b49c28b178a6fabafa9aa","null","","","","null","","","","key","16.6830833333331","960","473.5","","","","","","","","","","","","","","","","","","","",""
"psychophysics","282","646188","0.0-18.0-1.12","5f0446dd71b11967ef18582b","6368f2eea3e9634aebcc2f6b","636b49c28b178a6fabafa9aa","null","","","","null","","","","key","16.680862068965357","960","473.5","","","","","","","","","","","","","142","1","5","true","","","",""
"psychophysics","283","646602","0.0-18.0-2.12","5f0446dd71b11967ef18582b","6368f2eea3e9634aebcc2f6b","636b49c28b178a6fabafa9aa","412.40000000596046","","","","77","","","","key","16.68658333333345","960","473.5","","","","","","","","","","","","","","","","","","","",""
"psychophysics","284","647616","0.0-18.0-0.13","5f0446dd71b11967ef18582b","6368f2eea3e9634aebcc2f6b","636b49c28b178a6fabafa9aa","null","","","","null","","","","key","16.681916666667288","960","473.5","","","","","","","","","","","","","","","","","","","",""
"psychophysics","285","648123","0.0-18.0-1.13","5f0446dd71b11967ef18582b","6368f2eea3e9634aebcc2f6b","636b49c28b178a6fabafa9aa","null","","","","null","","","","key","16.683103448277787","960","473.5","","","","","","","","","","","","","142","-1","6","true","","","",""
"psychophysics","286","648591","0.0-18.0-2.13","5f0446dd71b11967ef18582b","6368f2eea3e9634aebcc2f6b","636b49c28b178a6fabafa9aa","466","","","","77","","","","key","16.683407407409202","960","473.5","","","","","","","","","","","","","","","","","","","",""
"psychophysics","287","649595","0.0-18.0-0.14","5f0446dd71b11967ef18582b","6368f2eea3e9634aebcc2f6b","636b49c28b178a6fabafa9aa","null","","","","null","","","","key","16.683457627119022","960","473.5","","","","","","","","","","","","","","","","","","","",""
"psychophysics","288","650100","0.0-18.0-1.14","5f0446dd71b11967ef18582b","6368f2eea3e9634aebcc2f6b","636b49c28b178a6fabafa9aa","null","","","","null","","","","key","16.688586206897966","960","473.5","","","","","","","","","","","","","142","-1","0","true","","","",""
"psychophysics","289","650631","0.0-18.0-2.14","5f0446dd71b11967ef18582b","6368f2eea3e9634aebcc2f6b","636b49c28b178a6fabafa9aa","524.0999999940395","","","","90","","","","key","16.68051612903289","960","473.5","","","","","","","","","","","","","","","","","","","",""
"psychophysics","290","651637","0.0-18.0-0.15","5f0446dd71b11967ef18582b","6368f2eea3e9634aebcc2f6b","636b49c28b178a6fabafa9aa","null","","","","null","","","","key","16.684616666667473","960","473.5","","","","","","","","","","","","","","","","","","","",""
"psychophysics","291","652140","0.0-18.0-1.15","5f0446dd71b11967ef18582b","6368f2eea3e9634aebcc2f6b","636b49c28b178a6fabafa9aa","null","","","","null","","","","key","16.681724137927663","960","473.5","","","","","","","","","","","","","142","1","2","true","","","",""
"psychophysics","292","652831","0.0-18.0-2.15","5f0446dd71b11967ef18582b","6368f2eea3e9634aebcc2f6b","636b49c28b178a6fabafa9aa","689.6999999880791","","","","77","","","","key","16.679750000001512","960","473.5","","","","","","","","","","","","","","","","","","","",""
"psychophysics","293","653839","0.0-18.0-0.16","5f0446dd71b11967ef18582b","6368f2eea3e9634aebcc2f6b","636b49c28b178a6fabafa9aa","null","","","","null","","","","key","16.684499999999147","960","473.5","","","","","","","","","","","","","","","","","","","",""
"psychophysics","294","654348","0.0-18.0-1.16","5f0446dd71b11967ef18582b","6368f2eea3e9634aebcc2f6b","636b49c28b178a6fabafa9aa","null","","","","null","","","","key","16.686551724139054","960","473.5","","","","","","","","","","","","","142","1","3","true","","","",""
"psychophysics","295","654751","0.0-18.0-2.16","5f0446dd71b11967ef18582b","6368f2eea3e9634aebcc2f6b","636b49c28b178a6fabafa9aa","401.2000000178814","","","","77","","","","key","16.68178260869488","960","473.5","","","","","","","","","","","","","","","","","","","",""
"psychophysics","296","655758","0.0-18.0-0.17","5f0446dd71b11967ef18582b","6368f2eea3e9634aebcc2f6b","636b49c28b178a6fabafa9aa","null","","","","null","","","","key","16.686900000000605","960","473.5","","","","","","","","","","","","","","","","","","","",""
"psychophysics","297","656268","0.0-18.0-1.17","5f0446dd71b11967ef18582b","6368f2eea3e9634aebcc2f6b","636b49c28b178a6fabafa9aa","null","","","","null","","","","key","16.681275862068386","960","473.5","","","","","","","","","","","","","142","-1","2","true","","","",""
"psychophysics","298","656745","0.0-18.0-2.17","5f0446dd71b11967ef18582b","6368f2eea3e9634aebcc2f6b","636b49c28b178a6fabafa9aa","475.19999998807907","","","","90","","","","key","16.683392857139033","960","473.5","","","","","","","","","","","","","","","","","","","",""
"psychophysics","299","657747","0.0-18.0-0.18","5f0446dd71b11967ef18582b","6368f2eea3e9634aebcc2f6b","636b49c28b178a6fabafa9aa","null","","","","null","","","","key","16.684627118644748","960","473.5","","","","","","","","","","","","","","","","","","","",""
"psychophysics","300","658252","0.0-18.0-1.18","5f0446dd71b11967ef18582b","6368f2eea3e9634aebcc2f6b","636b49c28b178a6fabafa9aa","null","","","","null","","","","key","16.68679310344882","960","473.5","","","","","","","","","","","","","142","-1","4","true","","","",""
"psychophysics","301","659464","0.0-18.0-2.18","5f0446dd71b11967ef18582b","6368f2eea3e9634aebcc2f6b","636b49c28b178a6fabafa9aa","1208.5","","","","77","","","","key","16.684527777777273","960","473.5","","","","","","","","","","","","","","","","","","","",""
"psychophysics","302","660468","0.0-18.0-0.19","5f0446dd71b11967ef18582b","6368f2eea3e9634aebcc2f6b","636b49c28b178a6fabafa9aa","null","","","","null","","","","key","16.683559322033187","960","473.5","","","","","","","","","","","","","","","","","","","",""
"psychophysics","303","660971","0.0-18.0-1.19","5f0446dd71b11967ef18582b","6368f2eea3e9634aebcc2f6b","636b49c28b178a6fabafa9aa","null","","","","null","","","","key","16.68234482758823","960","473.5","","","","","","","","","","","","","142","1","6","true","","","",""
"psychophysics","304","661503","0.0-18.0-2.19","5f0446dd71b11967ef18582b","6368f2eea3e9634aebcc2f6b","636b49c28b178a6fabafa9aa","530.5","","","","77","","","","key","16.684806451614527","960","473.5","","","","","","","","","","","","","","","","","","","",""
"psychophysics","305","662508","0.0-18.0-0.20","5f0446dd71b11967ef18582b","6368f2eea3e9634aebcc2f6b","636b49c28b178a6fabafa9aa","null","","","","null","","","","key","16.680728813560318","960","473.5","","","","","","","","","","","","","","","","","","","",""
"psychophysics","306","663015","0.0-18.0-1.20","5f0446dd71b11967ef18582b","6368f2eea3e9634aebcc2f6b","636b49c28b178a6fabafa9aa","null","","","","null","","","","key","16.68969999999972","960","473.5","","","","","","","","","","","","","142","1","0","true","","","",""
"psychophysics","307","663527","0.0-18.0-2.20","5f0446dd71b11967ef18582b","6368f2eea3e9634aebcc2f6b","636b49c28b178a6fabafa9aa","508.2999999821186","","","","77","","","","key","16.68182758620844","960","473.5","","","","","","","","","","","","","","","","","","","",""
"psychophysics","308","664531","0.0-18.0-0.21","5f0446dd71b11967ef18582b","6368f2eea3e9634aebcc2f6b","636b49c28b178a6fabafa9aa","null","","","","null","","","","key","16.682666666666044","960","473.5","","","","","","","","","","","","","","","","","","","",""
"psychophysics","309","665036","0.0-18.0-1.21","5f0446dd71b11967ef18582b","6368f2eea3e9634aebcc2f6b","636b49c28b178a6fabafa9aa","null","","","","null","","","","key","16.68179310344818","960","473.5","","","","","","","","","","","","","142","-1","5","true","","","",""
"psychophysics","310","665503","0.0-18.0-2.21","5f0446dd71b11967ef18582b","6368f2eea3e9634aebcc2f6b","636b49c28b178a6fabafa9aa","465.30000001192093","","","","77","","","","key","16.68737037037068","960","473.5","","","","","","","","","","","","","","","","","","","",""
"psychophysics","311","666508","0.0-18.0-0.22","5f0446dd71b11967ef18582b","6368f2eea3e9634aebcc2f6b","636b49c28b178a6fabafa9aa","null","","","","null","","","","key","16.683610169491256","960","473.5","","","","","","","","","","","","","","","","","","","",""
"psychophysics","312","667012","0.0-18.0-1.22","5f0446dd71b11967ef18582b","6368f2eea3e9634aebcc2f6b","636b49c28b178a6fabafa9aa","null","","","","null","","","","key","16.68341379310406","960","473.5","","","","","","","","","","","","","142","-1","3","true","","","",""
"psychophysics","313","667568","0.0-18.0-2.22","5f0446dd71b11967ef18582b","6368f2eea3e9634aebcc2f6b","636b49c28b178a6fabafa9aa","548.9000000059605","","","","77","","","","key","16.681499999998778","960","473.5","","","","","","","","","","","","","","","","","","","",""
"psychophysics","314","668572","0.0-18.0-0.23","5f0446dd71b11967ef18582b","6368f2eea3e9634aebcc2f6b","636b49c28b178a6fabafa9aa","null","","","","null","","","","key","16.679950000000343","960","473.5","","","","","","","","","","","","","","","","","","","",""
"psychophysics","315","669075","0.0-18.0-1.23","5f0446dd71b11967ef18582b","6368f2eea3e9634aebcc2f6b","636b49c28b178a6fabafa9aa","null","","","","null","","","","key","16.68996551724006","960","473.5","","","","","","","","","","","","","142","1","4","true","","","",""
"psychophysics","316","669524","0.0-18.0-2.23","5f0446dd71b11967ef18582b","6368f2eea3e9634aebcc2f6b","636b49c28b178a6fabafa9aa","444.90000000596046","","","","77","","","","key","16.683519999999554","960","473.5","","","","","","","","","","","","","","","","","","","",""
"psychophysics","317","670532","0.0-18.0-0.24","5f0446dd71b11967ef18582b","6368f2eea3e9634aebcc2f6b","636b49c28b178a6fabafa9aa","null","","","","null","","","","key","16.679733333333086","960","473.5","","","","","","","","","","","","","","","","","","","",""
"psychophysics","318","671039","0.0-18.0-1.24","5f0446dd71b11967ef18582b","6368f2eea3e9634aebcc2f6b","636b49c28b178a6fabafa9aa","null","","","","null","","","","key","16.68510000000242","960","473.5","","","","","","","","","","","","","142","1","2","true","","","",""
"psychophysics","319","671491","0.0-18.0-2.24","5f0446dd71b11967ef18582b","6368f2eea3e9634aebcc2f6b","636b49c28b178a6fabafa9aa","451.30000001192093","","","","90","","","","key","16.68628000000026","960","473.5","","","","","","","","","","","","","","","","","","","",""
"psychophysics","320","672501","0.0-18.0-0.25","5f0446dd71b11967ef18582b","6368f2eea3e9634aebcc2f6b","636b49c28b178a6fabafa9aa","null","","","","null","","","","key","16.676616666665844","960","473.5","","","","","","","","","","","","","","","","","","","",""
"psychophysics","321","673007","0.0-18.0-1.25","5f0446dd71b11967ef18582b","6368f2eea3e9634aebcc2f6b","636b49c28b178a6fabafa9aa","null","","","","null","","","","key","16.686533333330104","960","473.5","","","","","","","","","","","","","142","1","5","true","","","",""
"psychophysics","322","673337","0.0-18.0-2.25","5f0446dd71b11967ef18582b","6368f2eea3e9634aebcc2f6b","636b49c28b178a6fabafa9aa","328.19999998807907","","","","77","","","","key","16.6875","960","473.5","","","","","","","","","","","","","","","","","","","",""
"psychophysics","323","674344","0.0-18.0-0.26","5f0446dd71b11967ef18582b","6368f2eea3e9634aebcc2f6b","636b49c28b178a6fabafa9aa","null","","","","null","","","","key","16.68530000000028","960","473.5","","","","","","","","","","","","","","","","","","","",""
"psychophysics","324","674852","0.0-18.0-1.26","5f0446dd71b11967ef18582b","6368f2eea3e9634aebcc2f6b","636b49c28b178a6fabafa9aa","null","","","","null","","","","key","16.683551724137065","960","473.5","","","","","","","","","","","","","142","-1","0","true","","","",""
"psychophysics","325","675665","0.0-18.0-2.26","5f0446dd71b11967ef18582b","6368f2eea3e9634aebcc2f6b","636b49c28b178a6fabafa9aa","811","","","","90","","","","key","16.683270833331335","960","473.5","","","","","","","","","","","","","","","","","","","",""
"psychophysics","326","676667","0.0-18.0-0.27","5f0446dd71b11967ef18582b","6368f2eea3e9634aebcc2f6b","636b49c28b178a6fabafa9aa","null","","","","null","","","","key","16.68171186440711","960","473.5","","","","","","","","","","","","","","","","","","","",""
"psychophysics","327","677172","0.0-18.0-1.27","5f0446dd71b11967ef18582b","6368f2eea3e9634aebcc2f6b","636b49c28b178a6fabafa9aa","null","","","","null","","","","key","16.682827586207765","960","473.5","","","","","","","","","","","","","142","-1","6","true","","","",""
"psychophysics","328","677639","0.0-18.0-2.27","5f0446dd71b11967ef18582b","6368f2eea3e9634aebcc2f6b","636b49c28b178a6fabafa9aa","465.5","","","","77","","","","key","16.68366666666784","960","473.5","","","","","","","","","","","","","","","","","","","",""
"psychophysics","329","678649","0.0-18.0-0.28","5f0446dd71b11967ef18582b","6368f2eea3e9634aebcc2f6b","636b49c28b178a6fabafa9aa","null","","","","null","","","","key","16.68539999999921","960","473.5","","","","","","","","","","","","","","","","","","","",""
