"trial_type","trial_index","time_elapsed","internal_node_id","PROLIFIC_PID","STUDY_ID","SESSION_ID","rt","stimulus","button_pressed","success","key_press","responses","isData","view_history","response_type","avg_frame_time","center_x","center_y","isSC","stim_side","trial_luminance","step_size","nReversal","correct","prev_ans","isThreshold","SC_threshold","final_threshold","isLuminance","FF_luminance","luminance","stimSide","ISInt","isFF","question_order","isSPQ","isCAPS","isAQ"
"pavlovia","0","9","0.0-0.0","6329c13285c93cafdf51ed77","6368f2eea3e9634aebcc2f6b","636ce93e13700616480bdde5","","","","","","","","","","","","","","","","","","","","","","","","","","","","","","","",""
"html-button-response","1","9987","0.0-1.0","6329c13285c93cafdf51ed77","6368f2eea3e9634aebcc2f6b","636ce93e13700616480bdde5","9975.400000000373","<div style='background-color: white; width:60%; margin: auto; padding: 50px; text-align: justify; text-justify: inter-word; margin-bottom: 20px;'><h1 style='text-align: center;'>Consent Form</h1><p>Please read this consent form carefully before deciding whether you would like to participate in this study. You have to be 18 years old or older to participate to this study.</p><p style='text-decoration: underline;'>Participation is voluntary:</p><p>It is your choice whether or not to participate in this research. If you choose to participate, you may change your mind and leave the study at any time. Refusal to participate or stopping your participation will involve no penalty or loss of benefits to which you are otherwise entitled.</p><p style='text-decoration: underline;'>Purpose of the Study:</p><p>To understand the mechanisms underlying human perception.</p><p style='text-decoration: underline;'>What you will do in this study:</p><p>You will be presented with a series of visual images and then you will press buttons on the keyboard of your computer to respond to simple questions about the images (e.g. Were one or two images presented?). In addition, you will be asked to complete a questionnaire concerning your beliefs and everyday mental and perceptual experiences.'</p><p style='text-decoration: underline;'> Time Required:</p><p>The study will take 40 minutes to complete. </p><p style='text-decoration: underline;'>Risks:</p><p>There are no anticipated risks associated with participating in this study that are beyond those experienced in everyday life. </p><p style='text-decoration: underline;'>Benefits:</p><p>There are no benefits to you in participating in the study. However, this study may lead to a better understanding of how different kinds of visual information are used.</p><p style='text-decoration: underline;'>Compensation:</p><p>You will be paid US$6.6/hour. </p><p style='text-decoration: underline;'>Privacy and Confidentiality:</p><p>Your participation in this study will be anonymous. No personal information about your name or identity will be asked or recorded. This anonymous data will be stored for several years and may be used for a variety of research purposes. The overall results of the study may be published, or the data files may be shared with other researchers, but your identity will not be revealed in any way. The online services we are using for this study may temporarily store your data, but this data will be downloaded and then promptly deleted from those services.Your data will not be permanently associated with your name, IP address, or any other identifiable information (e.g., your information will only be connected to your payment, not to any of your responses), though they may be temporarily stored together before we download and separate them. Even so, no guarantee of internet survey security can be given because, although unlikely, transmissions can be intercepted and IP addresses can be identified. The anonymous data may be shared publicly (for example, in conjunction with a resulting academic publication).</p><p style='text-decoration: underline;'>Participation and Withdrawal:</p><p>Your participation in this study is completely voluntary. You may stop responding to the stimuli or stop answering questions if you so choose and without penalty by exiting the full screen mode, closing this tab of your browser or redirecting it to a different website.</p><p style='text-decoration: underline;'>Contact Info of the Researcher: </p><p>If you have questions about this study, or if you would like to talk to the research team, please contact David Melcher (david.melcher@nyu.edu, md5050@nyu.edu) at the Perception and Active Cognition Laboratory, New York University Abu Dhabi, Computational Research Building, Saadiyat Island, Abu Dhabi, UAE.This research has been reviewed by the New York University Abu Dhabi Institutional Review Board (NYUAD IRB). To contact about your rights in this research, for questions, suggestions, or complaints that are not addressed by the researchers, please email IRBnyuad@nyu.edu, or call the NYUAD IRB at +971 2 628 4313. </p></div>","0","","","","","","","","","","","","","","","","","","","","","","","","","","","","",""
"fullscreen","2","12055","0.0-2.0","6329c13285c93cafdf51ed77","6368f2eea3e9634aebcc2f6b","636ce93e13700616480bdde5","","","","true","","","","","","","","","","","","","","","","","","","","","","","","","","","",""
"html-keyboard-response","3","31790","0.0-3.0","6329c13285c93cafdf51ed77","6368f2eea3e9634aebcc2f6b","636ce93e13700616480bdde5","19733.5","<p>Welcome !</p><p>READ CAREFULLY THE FOLLOWING INDICATIONS:</p><p>From this moment you have ~40 minutes to complete the experiment.</p><p>During the experiment you will be prompted to take several breaks. Each break should not last longer than 2-3 minutes.</p><p>Make sure that your computer is plugged in and it's not running on battery power, even if the battery is already fully charged.</p><p>Turn off your phone and music, make sure that you are in a quiet room and that you will not be distracted for the next hour.</p><p>Failure to comply with the instructions and indications provided during the experiment will most likely result in the rejection of your data.<p>Press the spacebar to start.</p>","","","32","","","","","","","","","","","","","","","","","","","","","","","","","","",""
"survey-html-form","4","37708","0.0-4.0","6329c13285c93cafdf51ed77","6368f2eea3e9634aebcc2f6b","636ce93e13700616480bdde5","5915.5","","","","","{""age"":""42"",""sex"":""m""}","true","","","","","","","","","","","","","","","","","","","","","","","","",""
"instructions","5","114030","0.0-5.0","6329c13285c93cafdf51ed77","6368f2eea3e9634aebcc2f6b","636ce93e13700616480bdde5","76321.10000000056","","","","","","","[{""page_index"":0,""viewing_time"":51316},{""page_index"":1,""viewing_time"":15847.700000000186},{""page_index"":2,""viewing_time"":9156.700000000186}]","","","","","","","","","","","","","","","","","","","","","","","",""
"psychophysics","6","115479","0.0-6.0-0.0","6329c13285c93cafdf51ed77","6368f2eea3e9634aebcc2f6b","636ce93e13700616480bdde5","436.5","","","","39","","","","key","16.651402298850474","683","332.5","true","1","180","30","0","-1","","","","","","","","","","","","","",""
"psychophysics","7","116568","0.0-6.0-0.1","6329c13285c93cafdf51ed77","6368f2eea3e9634aebcc2f6b","636ce93e13700616480bdde5","78.3999999994412","","","","37","","","","key","16.651109375000033","683","332.5","true","-1","180","30","0","-1","-1","","","","","","","","","","","","",""
"psychophysics","8","122131","0.0-6.0-0.2","6329c13285c93cafdf51ed77","6368f2eea3e9634aebcc2f6b","636ce93e13700616480bdde5","4561.200000000186","","","","39","","","","key","16.651207207207246","683","332.5","true","1","150","30","0","-1","-1","","","","","","","","","","","","",""
"psychophysics","9","127042","0.0-6.0-0.3","6329c13285c93cafdf51ed77","6368f2eea3e9634aebcc2f6b","636ce93e13700616480bdde5","3907.2999999998137","","","","37","","","","key","16.65122789115645","683","332.5","true","1","150","24","1","1","-1","","","","","","","","","","","","",""
"psychophysics","10","131683","0.0-6.0-0.4","6329c13285c93cafdf51ed77","6368f2eea3e9634aebcc2f6b","636ce93e13700616480bdde5","3636.399999999441","","","","39","","","","key","16.65121223021587","683","332.5","true","-1","174","24","1","1","1","","","","","","","","","","","","",""
"psychophysics","11","137217","0.0-6.0-0.5","6329c13285c93cafdf51ed77","6368f2eea3e9634aebcc2f6b","636ce93e13700616480bdde5","4520.5","","","","39","","","","key","16.651223564954662","683","332.5","true","1","198","24","1","-1","1","","","","","","","","","","","","",""
"psychophysics","12","139293","0.0-6.0-0.6","6329c13285c93cafdf51ed77","6368f2eea3e9634aebcc2f6b","636ce93e13700616480bdde5","1071.3999999994412","","","","39","","","","key","16.651080645161265","683","332.5","true","1","198","19.2","2","-1","-1","","","","","","","","","","","","",""
"psychophysics","13","141478","0.0-6.0-0.7","6329c13285c93cafdf51ed77","6368f2eea3e9634aebcc2f6b","636ce93e13700616480bdde5","1173.7000000001863","","","","37","","","","key","16.65128461538451","683","332.5","true","-1","178.8","19.2","2","-1","-1","","","","","","","","","","","","",""
"psychophysics","14","142515","0.0-6.0-0.8","6329c13285c93cafdf51ed77","6368f2eea3e9634aebcc2f6b","636ce93e13700616480bdde5","33.10000000055879","","","","39","","","","key","16.651327868852455","683","332.5","true","1","178.8","19.2","2","-1","-1","","","","","","","","","","","","",""
"psychophysics","15","144891","0.0-6.0-0.9","6329c13285c93cafdf51ed77","6368f2eea3e9634aebcc2f6b","636ce93e13700616480bdde5","1369.2999999998137","","","","37","","","","key","16.65115492957731","683","332.5","true","-1","159.60000000000002","19.2","2","-1","-1","","","","","","","","","","","","",""
"psychophysics","16","146696","0.0-6.0-0.10","6329c13285c93cafdf51ed77","6368f2eea3e9634aebcc2f6b","636ce93e13700616480bdde5","798.2000000001863","","","","37","","","","key","16.651214953270962","683","332.5","true","-1","159.60000000000002","19.2","2","-1","-1","","","","","","","","","","","","",""
"psychophysics","17","147708","0.0-6.0-0.11","6329c13285c93cafdf51ed77","6368f2eea3e9634aebcc2f6b","636ce93e13700616480bdde5","2.599999999627471","","","","39","","","","key","16.651250000000193","683","332.5","true","1","140.40000000000003","19.2","2","-1","-1","","","","","","","","","","","","",""
"psychophysics","18","148843","0.0-6.0-0.12","6329c13285c93cafdf51ed77","6368f2eea3e9634aebcc2f6b","636ce93e13700616480bdde5","130.79999999981374","","","","39","","","","key","16.65117910447784","683","332.5","true","1","140.40000000000003","19.2","2","-1","-1","","","","","","","","","","","","",""
"psychophysics","19","151615","0.0-6.0-0.13","6329c13285c93cafdf51ed77","6368f2eea3e9634aebcc2f6b","636ce93e13700616480bdde5","1765.9000000003725","","","","39","","","","key","16.651192771084325","683","332.5","true","1","129","19.2","2","-1","-1","","","","","","","","","","","","",""
"psychophysics","20","153314","0.0-6.0-0.14","6329c13285c93cafdf51ed77","6368f2eea3e9634aebcc2f6b","636ce93e13700616480bdde5","696.7999999998137","","","","39","","","","key","16.651128712871245","683","332.5","true","1","129","19.2","2","-1","-1","","","","","","","","","","","","",""
"psychophysics","21","155257","0.0-6.0-0.15","6329c13285c93cafdf51ed77","6368f2eea3e9634aebcc2f6b","636ce93e13700616480bdde5","935.7000000001863","","","","39","","","","key","16.65116379310348","683","332.5","true","-1","129","15.36","3","1","-1","","","","","","","","","","","","",""
"psychophysics","22","159015","0.0-6.0-0.16","6329c13285c93cafdf51ed77","6368f2eea3e9634aebcc2f6b","636ce93e13700616480bdde5","2749.600000000559","","","","37","","","","key","16.651218749999966","683","332.5","true","-1","144.36","15.36","3","-1","1","","","","","","","","","","","","",""
"psychophysics","23","163125","0.0-6.0-0.17","6329c13285c93cafdf51ed77","6368f2eea3e9634aebcc2f6b","636ce93e13700616480bdde5","3107.7999999998137","","","","37","","","","key","16.651170731707296","683","332.5","true","-1","144.36","12.287999999999998","4","-1","-1","","","","","","","","","","","","",""
"psychophysics","24","164719","0.0-6.0-0.18","6329c13285c93cafdf51ed77","6368f2eea3e9634aebcc2f6b","636ce93e13700616480bdde5","589.1999999992549","","","","37","","","","key","16.651094736842023","683","332.5","true","-1","132.072","12.287999999999998","4","-1","-1","","","","","","","","","","","","",""
"psychophysics","25","166403","0.0-6.0-0.19","6329c13285c93cafdf51ed77","6368f2eea3e9634aebcc2f6b","636ce93e13700616480bdde5","682","","","","37","","","","key","16.651150000000197","683","332.5","true","1","132.072","9.8304","5","1","-1","","","","","","","","","","","","",""
"psychophysics","26","169703","0.0-6.0-0.20","6329c13285c93cafdf51ed77","6368f2eea3e9634aebcc2f6b","636ce93e13700616480bdde5","2292.2999999998137","","","","39","","","","key","16.65124873096448","683","332.5","true","1","141.9024","9.8304","5","-1","1","","","","","","","","","","","","",""
"psychophysics","27","173878","0.0-6.0-0.21","6329c13285c93cafdf51ed77","6368f2eea3e9634aebcc2f6b","636ce93e13700616480bdde5","3172.5","","","","39","","","","key","16.651212000000058","683","332.5","true","-1","141.9024","7.864319999999999","6","1","-1","","","","","","","","","","","","",""
"psychophysics","28","174913","0.0-6.0-0.22","6329c13285c93cafdf51ed77","6368f2eea3e9634aebcc2f6b","636ce93e13700616480bdde5","31.40000000037253","","","","39","","","","key","16.65111475409873","683","332.5","true","1","149.76672","7.864319999999999","6","-1","1","","","","","","","","","","","","",""
"psychophysics","29","175948","0.0-6.0-0.23","6329c13285c93cafdf51ed77","6368f2eea3e9634aebcc2f6b","636ce93e13700616480bdde5","29.899999999441206","","","","37","","","","key","16.651229508196817","683","332.5","true","-1","149.76672","6.291456","7","-1","-1","","","","","","","","","","","","",""
"psychophysics","30","177991","0.0-6.0-0.24","6329c13285c93cafdf51ed77","6368f2eea3e9634aebcc2f6b","636ce93e13700616480bdde5","1040.2999999998137","","","","39","","","","key","16.65126229508195","683","332.5","true","1","143.47526399999998","6.291456","7","-1","-1","","","","","","","","","","","","",""
"psychophysics","31","180652","0.0-6.0-0.25","6329c13285c93cafdf51ed77","6368f2eea3e9634aebcc2f6b","636ce93e13700616480bdde5","1659","","","","37","","","","key","16.65115723270431","683","332.5","true","-1","143.47526399999998","6.291456","7","-1","-1","","","","","","","","","","","","",""
"psychophysics","32","182683","0.0-6.0-0.26","6329c13285c93cafdf51ed77","6368f2eea3e9634aebcc2f6b","636ce93e13700616480bdde5","1026.2999999998137","","","","37","","","","key","16.651264462809795","683","332.5","true","-1","137.18380799999997","6.291456","7","-1","-1","","","","","","","","","","","","",""
"psychophysics","33","185054","0.0-6.0-0.27","6329c13285c93cafdf51ed77","6368f2eea3e9634aebcc2f6b","636ce93e13700616480bdde5","1364.2999999998137","","","","39","","","","key","16.65121276595742","683","332.5","true","1","137.18380799999997","6.291456","7","-1","-1","","","","","","","","","","","","",""
"psychophysics","34","186633","0.0-6.0-0.28","6329c13285c93cafdf51ed77","6368f2eea3e9634aebcc2f6b","636ce93e13700616480bdde5","575","","","","39","","","","key","16.651159574468114","683","332.5","true","-1","130.89235199999996","5.033164800000001","8","1","-1","","","","","","","","","","","","",""
"psychophysics","35","187642","0.0-6.0-0.29","6329c13285c93cafdf51ed77","6368f2eea3e9634aebcc2f6b","636ce93e13700616480bdde5","0.2999999998137355","","","","37","","","","key","16.651283333333172","683","332.5","true","-1","135.92551679999997","5.033164800000001","8","-1","1","","","","","","","","","","","","",""
"psychophysics","36","188729","0.0-6.0-0.30","6329c13285c93cafdf51ed77","6368f2eea3e9634aebcc2f6b","636ce93e13700616480bdde5","79","","","","37","","","","key","16.65106250000008","683","332.5","true","-1","135.92551679999997","4.0265318400000005","9","-1","-1","","","","","","","","","","","","",""
"psychophysics","37","190237","0.0-6.0-0.31","6329c13285c93cafdf51ed77","6368f2eea3e9634aebcc2f6b","636ce93e13700616480bdde5","499.79999999981374","","","","37","","","","key","16.65135955056169","683","332.5","true","-1","131.89898495999998","4.0265318400000005","9","-1","-1","","","","","","","","","","","","",""
"psychophysics","38","191782","0.0-6.0-0.32","6329c13285c93cafdf51ed77","6368f2eea3e9634aebcc2f6b","636ce93e13700616480bdde5","543.1999999992549","","","","37","","","","key","16.651239130434988","683","332.5","true","1","131.89898495999998","3.2212254720000004","10","1","-1","","","","","","","","","","","","",""
"psychophysics","39","194836","0.0-6.0-0.33","6329c13285c93cafdf51ed77","6368f2eea3e9634aebcc2f6b","636ce93e13700616480bdde5","2050.9000000003725","","","","39","","","","key","16.651125683060204","683","332.5","true","1","135.12021043199996","3.2212254720000004","10","-1","1","","","","","","","","","","","","",""
"psychophysics","40","199642","0.0-6.0-0.34","6329c13285c93cafdf51ed77","6368f2eea3e9634aebcc2f6b","636ce93e13700616480bdde5","3800.7999999998137","","","","39","","","","key","16.65116027874565","683","332.5","true","1","135.12021043199996","2.5769803776000004","11","-1","-1","","","","","","","","","","","","",""
"psychophysics","41","203072","0.0-6.0-0.35","6329c13285c93cafdf51ed77","6368f2eea3e9634aebcc2f6b","636ce93e13700616480bdde5","2426.399999999441","","","","37","","","","key","16.651258536585374","683","332.5","true","-1","132.54323005439997","2.5769803776000004","11","-1","-1","","","","","","","","","","","","",""
"psychophysics","42","204890","0.0-6.0-0.36","6329c13285c93cafdf51ed77","6368f2eea3e9634aebcc2f6b","636ce93e13700616480bdde5","812.3000000007451","","","","39","","","","key","16.651203703703587","683","332.5","true","1","132.54323005439997","2.5769803776000004","11","-1","-1","","","","","","","","","","","","",""
"psychophysics","43","206312","0.0-6.0-0.37","6329c13285c93cafdf51ed77","6368f2eea3e9634aebcc2f6b","636ce93e13700616480bdde5","414.90000000037253","","","","39","","","","key","16.65107058823547","683","332.5","true","-1","129.96624967679998","2.0615843020800004","12","1","-1","","","","","","","","","","","","",""
"psychophysics","44","207866","0.0-6.0-0.38","6329c13285c93cafdf51ed77","6368f2eea3e9634aebcc2f6b","636ce93e13700616480bdde5","545.0999999996275","","","","37","","","","key","16.651173913043433","683","332.5","true","-1","132.02783397887998","2.0615843020800004","12","-1","1","","","","","","","","","","","","",""
"psychophysics","45","209658","0.0-6.0-0.39","6329c13285c93cafdf51ed77","6368f2eea3e9634aebcc2f6b","636ce93e13700616480bdde5","786.3999999994412","","","","39","","","","key","16.651168224298956","683","332.5","true","1","132.02783397887998","1.6492674416640005","13","-1","-1","","","","","","","","","","","","",""
"html-keyboard-response","46","213136","0.0-7.0","6329c13285c93cafdf51ed77","6368f2eea3e9634aebcc2f6b","636ce93e13700616480bdde5","3476.2999999998137","<p>Well Done !</p><p>Prepare for a new block.</p><p>DON'T EXIT THE FULL SCREEN MODE</p><p>Press the Spacebar to start.</p>","","","32","","","","","","","","","","","","","","","true","134.24886894182399","","","","","","","","","","",""
"psychophysics","47","216736","0.0-8.0-0.0","6329c13285c93cafdf51ed77","6368f2eea3e9634aebcc2f6b","636ce93e13700616480bdde5","2590.7000000001863","","","","39","","","","key","16.651402777777818","683","332.5","true","1","180","30","0","-1","","","","","","","","","","","","","",""
"psychophysics","48","218407","0.0-8.0-0.1","6329c13285c93cafdf51ed77","6368f2eea3e9634aebcc2f6b","636ce93e13700616480bdde5","661.3999999994412","","","","37","","","","key","16.65132323232323","683","332.5","true","-1","180","30","0","-1","-1","","","","","","","","","","","","",""
"psychophysics","49","219825","0.0-8.0-0.2","6329c13285c93cafdf51ed77","6368f2eea3e9634aebcc2f6b","636ce93e13700616480bdde5","415.69999999925494","","","","37","","","","key","16.651273809523747","683","332.5","true","-1","150","30","0","-1","-1","","","","","","","","","","","","",""
"psychophysics","50","221126","0.0-8.0-0.3","6329c13285c93cafdf51ed77","6368f2eea3e9634aebcc2f6b","636ce93e13700616480bdde5","297.29999999981374","","","","37","","","","key","16.651155844155788","683","332.5","true","-1","150","30","0","-1","-1","","","","","","","","","","","","",""
"psychophysics","51","222920","0.0-8.0-0.4","6329c13285c93cafdf51ed77","6368f2eea3e9634aebcc2f6b","636ce93e13700616480bdde5","793.0999999996275","","","","37","","","","key","16.651261682242968","683","332.5","true","1","129","24","1","1","-1","","","","","","","","","","","","",""
"psychophysics","52","225473","0.0-8.0-0.5","6329c13285c93cafdf51ed77","6368f2eea3e9634aebcc2f6b","636ce93e13700616480bdde5","1548.300000000745","","","","39","","","","key","16.651171052631597","683","332.5","true","-1","153","24","1","1","1","","","","","","","","","","","","",""
"psychophysics","53","227195","0.0-8.0-0.6","6329c13285c93cafdf51ed77","6368f2eea3e9634aebcc2f6b","636ce93e13700616480bdde5","714.2999999998137","","","","39","","","","key","16.651262135922206","683","332.5","true","1","177","24","1","-1","1","","","","","","","","","","","","",""
"psychophysics","54","228629","0.0-8.0-0.7","6329c13285c93cafdf51ed77","6368f2eea3e9634aebcc2f6b","636ce93e13700616480bdde5","428","","","","37","","","","key","16.65127058823504","683","332.5","true","-1","177","19.2","2","-1","-1","","","","","","","","","","","","",""
"psychophysics","55","230831","0.0-8.0-0.8","6329c13285c93cafdf51ed77","6368f2eea3e9634aebcc2f6b","636ce93e13700616480bdde5","1198.199999999255","","","","37","","","","key","16.651206106870152","683","332.5","true","-1","157.8","19.2","2","-1","-1","","","","","","","","","","","","",""
"psychophysics","56","231881","0.0-8.0-0.9","6329c13285c93cafdf51ed77","6368f2eea3e9634aebcc2f6b","636ce93e13700616480bdde5","48.10000000055879","","","","37","","","","key","16.65125806451608","683","332.5","true","-1","157.8","19.2","2","-1","-1","","","","","","","","","","","","",""
"psychophysics","57","234002","0.0-8.0-0.10","6329c13285c93cafdf51ed77","6368f2eea3e9634aebcc2f6b","636ce93e13700616480bdde5","1118.5","","","","37","","","","key","16.651228346456737","683","332.5","true","-1","138.60000000000002","19.2","2","-1","-1","","","","","","","","","","","","",""
"psychophysics","58","236227","0.0-8.0-0.11","6329c13285c93cafdf51ed77","6368f2eea3e9634aebcc2f6b","636ce93e13700616480bdde5","1217.5","","","","39","","","","key","16.651204545454565","683","332.5","true","1","138.60000000000002","19.2","2","-1","-1","","","","","","","","","","","","",""
"psychophysics","59","237867","0.0-8.0-0.12","6329c13285c93cafdf51ed77","6368f2eea3e9634aebcc2f6b","636ce93e13700616480bdde5","635","","","","39","","","","key","16.65131632653059","683","332.5","true","1","129","19.2","2","-1","-1","","","","","","","","","","","","",""
"psychophysics","60","239299","0.0-8.0-0.13","6329c13285c93cafdf51ed77","6368f2eea3e9634aebcc2f6b","636ce93e13700616480bdde5","425.90000000037253","","","","39","","","","key","16.651247058823525","683","332.5","true","1","129","19.2","2","-1","-1","","","","","","","","","","","","",""
"psychophysics","61","241405","0.0-8.0-0.14","6329c13285c93cafdf51ed77","6368f2eea3e9634aebcc2f6b","636ce93e13700616480bdde5","1100.2999999998137","","","","39","","","","key","16.65128799999994","683","332.5","true","1","129","19.2","2","-1","-1","","","","","","","","","","","","",""
"psychophysics","62","242913","0.0-8.0-0.15","6329c13285c93cafdf51ed77","6368f2eea3e9634aebcc2f6b","636ce93e13700616480bdde5","506.19999999925494","","","","39","","","","key","16.651244444444373","683","332.5","true","1","129","19.2","2","-1","-1","","","","","","","","","","","","",""
"psychophysics","63","244500","0.0-8.0-0.16","6329c13285c93cafdf51ed77","6368f2eea3e9634aebcc2f6b","636ce93e13700616480bdde5","578.7999999998137","","","","39","","","","key","16.651127659574527","683","332.5","true","1","129","19.2","2","-1","-1","","","","","","","","","","","","",""
"psychophysics","64","246057","0.0-8.0-0.17","6329c13285c93cafdf51ed77","6368f2eea3e9634aebcc2f6b","636ce93e13700616480bdde5","552.5999999996275","","","","39","","","","key","16.65112903225799","683","332.5","true","-1","129","15.36","3","1","-1","","","","","","","","","","","","",""
"psychophysics","65","247160","0.0-8.0-0.18","6329c13285c93cafdf51ed77","6368f2eea3e9634aebcc2f6b","636ce93e13700616480bdde5","95.09999999962747","","","","37","","","","key","16.651107692307917","683","332.5","true","-1","144.36","15.36","3","-1","1","","","","","","","","","","","","",""
"psychophysics","66","248214","0.0-8.0-0.19","6329c13285c93cafdf51ed77","6368f2eea3e9634aebcc2f6b","636ce93e13700616480bdde5","45.799999999813735","","","","37","","","","key","16.651403225806725","683","332.5","true","-1","144.36","12.287999999999998","4","-1","-1","","","","","","","","","","","","",""
"psychophysics","67","249540","0.0-8.0-0.20","6329c13285c93cafdf51ed77","6368f2eea3e9634aebcc2f6b","636ce93e13700616480bdde5","322.6000000005588","","","","39","","","","key","16.65113924050636","683","332.5","true","1","132.072","12.287999999999998","4","-1","-1","","","","","","","","","","","","",""
"psychophysics","68","251711","0.0-8.0-0.21","6329c13285c93cafdf51ed77","6368f2eea3e9634aebcc2f6b","636ce93e13700616480bdde5","1165.5999999996275","","","","39","","","","key","16.651263565891522","683","332.5","true","1","132.072","12.287999999999998","4","-1","-1","","","","","","","","","","","","",""
"psychophysics","69","253244","0.0-8.0-0.22","6329c13285c93cafdf51ed77","6368f2eea3e9634aebcc2f6b","636ce93e13700616480bdde5","529.7000000001863","","","","37","","","","key","16.651032967033032","683","332.5","true","1","129","9.8304","5","1","-1","","","","","","","","","","","","",""
"psychophysics","70","255530","0.0-8.0-0.23","6329c13285c93cafdf51ed77","6368f2eea3e9634aebcc2f6b","636ce93e13700616480bdde5","1283.2999999998137","","","","37","","","","key","16.65127007299261","683","332.5","true","-1","138.8304","9.8304","5","-1","1","","","","","","","","","","","","",""
"psychophysics","71","258407","0.0-8.0-0.24","6329c13285c93cafdf51ed77","6368f2eea3e9634aebcc2f6b","636ce93e13700616480bdde5","1870.199999999255","","","","37","","","","key","16.65112280701757","683","332.5","true","-1","138.8304","7.864319999999999","6","-1","-1","","","","","","","","","","","","",""
"psychophysics","72","260041","0.0-8.0-0.25","6329c13285c93cafdf51ed77","6368f2eea3e9634aebcc2f6b","636ce93e13700616480bdde5","630.5","","","","37","","","","key","16.651144329897132","683","332.5","true","1","130.96608","6.291456","7","1","-1","","","","","","","","","","","","",""
"psychophysics","73","261134","0.0-8.0-0.26","6329c13285c93cafdf51ed77","6368f2eea3e9634aebcc2f6b","636ce93e13700616480bdde5","89.29999999981374","","","","37","","","","key","16.651153846154024","683","332.5","true","-1","137.25753600000002","6.291456","7","-1","1","","","","","","","","","","","","",""
"psychophysics","74","262691","0.0-8.0-0.27","6329c13285c93cafdf51ed77","6368f2eea3e9634aebcc2f6b","636ce93e13700616480bdde5","553.7000000001863","","","","37","","","","key","16.651096774193192","683","332.5","true","-1","137.25753600000002","5.033164800000001","8","-1","-1","","","","","","","","","","","","",""
"psychophysics","75","265222","0.0-8.0-0.28","6329c13285c93cafdf51ed77","6368f2eea3e9634aebcc2f6b","636ce93e13700616480bdde5","1524.2999999998137","","","","37","","","","key","16.65119205298024","683","332.5","true","1","132.2243712","4.0265318400000005","9","1","-1","","","","","","","","","","","","",""
"psychophysics","76","266282","0.0-8.0-0.29","6329c13285c93cafdf51ed77","6368f2eea3e9634aebcc2f6b","636ce93e13700616480bdde5","57.19999999925494","","","","37","","","","key","16.651306451612804","683","332.5","true","-1","136.25090304","4.0265318400000005","9","-1","1","","","","","","","","","","","","",""
"psychophysics","77","269171","0.0-8.0-0.30","6329c13285c93cafdf51ed77","6368f2eea3e9634aebcc2f6b","636ce93e13700616480bdde5","1885.5","","","","37","","","","key","16.651260115606966","683","332.5","true","-1","136.25090304","3.2212254720000004","10","-1","-1","","","","","","","","","","","","",""
"psychophysics","78","270935","0.0-8.0-0.31","6329c13285c93cafdf51ed77","6368f2eea3e9634aebcc2f6b","636ce93e13700616480bdde5","758.2999999998137","","","","37","","","","key","16.651057142856907","683","332.5","true","1","133.029677568","2.5769803776000004","11","1","-1","","","","","","","","","","","","",""
"psychophysics","79","273844","0.0-8.0-0.32","6329c13285c93cafdf51ed77","6368f2eea3e9634aebcc2f6b","636ce93e13700616480bdde5","1906.6000000005588","","","","37","","","","key","16.6512080924858","683","332.5","true","-1","135.6066579456","2.5769803776000004","11","-1","1","","","","","","","","","","","","",""
"psychophysics","80","275590","0.0-8.0-0.33","6329c13285c93cafdf51ed77","6368f2eea3e9634aebcc2f6b","636ce93e13700616480bdde5","744.6000000005588","","","","39","","","","key","16.651230769230796","683","332.5","true","1","135.6066579456","2.0615843020800004","12","-1","-1","","","","","","","","","","","","",""
"psychophysics","81","276616","0.0-8.0-0.34","6329c13285c93cafdf51ed77","6368f2eea3e9634aebcc2f6b","636ce93e13700616480bdde5","22.40000000037253","","","","37","","","","key","16.651213114753894","683","332.5","true","-1","133.54507364352","2.0615843020800004","12","-1","-1","","","","","","","","","","","","",""
"psychophysics","82","277774","0.0-8.0-0.35","6329c13285c93cafdf51ed77","6368f2eea3e9634aebcc2f6b","636ce93e13700616480bdde5","149","","","","39","","","","key","16.651205882353036","683","332.5","true","1","133.54507364352","2.0615843020800004","12","-1","-1","","","","","","","","","","","","",""
"psychophysics","83","279163","0.0-8.0-0.36","6329c13285c93cafdf51ed77","6368f2eea3e9634aebcc2f6b","636ce93e13700616480bdde5","386.5","","","","37","","","","key","16.65116867469834","683","332.5","true","1","131.48348934144","1.6492674416640005","13","1","-1","","","","","","","","","","","","",""
"psychophysics","84","280850","0.0-8.0-0.37","6329c13285c93cafdf51ed77","6368f2eea3e9634aebcc2f6b","636ce93e13700616480bdde5","680.9000000003725","","","","39","","","","key","16.651149999999905","683","332.5","true","1","133.13275678310399","1.6492674416640005","13","-1","1","","","","","","","","","","","","",""
"psychophysics","85","282478","0.0-8.0-0.38","6329c13285c93cafdf51ed77","6368f2eea3e9634aebcc2f6b","636ce93e13700616480bdde5","623.4000000003725","","","","39","","","","key","16.651216494845414","683","332.5","true","1","133.13275678310399","1.3194139533312006","14","-1","-1","","","","","","","","","","","","",""
"psychophysics","86","283586","0.0-8.0-0.39","6329c13285c93cafdf51ed77","6368f2eea3e9634aebcc2f6b","636ce93e13700616480bdde5","104.70000000018626","","","","37","","","","key","16.651153846154024","683","332.5","true","-1","131.81334282977278","1.3194139533312006","14","-1","-1","","","","","","","","","","","","",""
"html-keyboard-response","87","285774","0.0-9.0","6329c13285c93cafdf51ed77","6368f2eea3e9634aebcc2f6b","636ce93e13700616480bdde5","2186.7000000001863","<p>Well Done !</p><p>Prepare for a new block.</p><p>DON'T EXIT THE FULL SCREEN MODE</p><p>Press the Spacebar to start.</p>","","","32","","","","","","","","","","","","","","","true","134.07352105091073","","","","","","","","","","",""
"psychophysics","88","287928","0.0-10.0-0.0","6329c13285c93cafdf51ed77","6368f2eea3e9634aebcc2f6b","636ce93e13700616480bdde5","1151","","","","37","","","","key","16.65142635658903","683","332.5","true","-1","180","30","0","-1","","","","","","","","","","","","","",""
"psychophysics","89","291191","0.0-10.0-0.1","6329c13285c93cafdf51ed77","6368f2eea3e9634aebcc2f6b","636ce93e13700616480bdde5","2261.2999999998137","","","","37","","","","key","16.65113846153851","683","332.5","true","-1","180","30","0","-1","-1","","","","","","","","","","","","",""
"psychophysics","90","293264","0.0-10.0-0.2","6329c13285c93cafdf51ed77","6368f2eea3e9634aebcc2f6b","636ce93e13700616480bdde5","1069","","","","37","","","","key","16.651306451612804","683","332.5","true","-1","150","30","0","-1","-1","","","","","","","","","","","","",""
"psychophysics","91","296054","0.0-10.0-0.3","6329c13285c93cafdf51ed77","6368f2eea3e9634aebcc2f6b","636ce93e13700616480bdde5","1789","","","","39","","","","key","16.651186746987655","683","332.5","true","1","150","30","0","-1","-1","","","","","","","","","","","","",""
"psychophysics","92","297734","0.0-10.0-0.4","6329c13285c93cafdf51ed77","6368f2eea3e9634aebcc2f6b","636ce93e13700616480bdde5","676.7999999998137","","","","39","","","","key","16.651240000000108","683","332.5","true","-1","129","24","1","1","-1","","","","","","","","","","","","",""
"psychophysics","93","298828","0.0-10.0-0.5","6329c13285c93cafdf51ed77","6368f2eea3e9634aebcc2f6b","636ce93e13700616480bdde5","90.30000000074506","","","","39","","","","key","16.65127692307668","683","332.5","true","1","153","24","1","-1","1","","","","","","","","","","","","",""
"psychophysics","94","300543","0.0-10.0-0.6","6329c13285c93cafdf51ed77","6368f2eea3e9634aebcc2f6b","636ce93e13700616480bdde5","710","","","","39","","","","key","16.65110784313726","683","332.5","true","1","153","19.2","2","-1","-1","","","","","","","","","","","","",""
"psychophysics","95","301719","0.0-10.0-0.7","6329c13285c93cafdf51ed77","6368f2eea3e9634aebcc2f6b","636ce93e13700616480bdde5","174.20000000018626","","","","37","","","","key","16.650985714285966","683","332.5","true","-1","133.8","19.2","2","-1","-1","","","","","","","","","","","","",""
"psychophysics","96","303812","0.0-10.0-0.8","6329c13285c93cafdf51ed77","6368f2eea3e9634aebcc2f6b","636ce93e13700616480bdde5","1091.4000000003725","","","","37","","","","key","16.65122580645144","683","332.5","true","1","133.8","15.36","3","1","-1","","","","","","","","","","","","",""
"psychophysics","97","307005","0.0-10.0-0.9","6329c13285c93cafdf51ed77","6368f2eea3e9634aebcc2f6b","636ce93e13700616480bdde5","2190","","","","39","","","","key","16.65124083769627","683","332.5","true","1","149.16000000000003","15.36","3","-1","1","","","","","","","","","","","","",""
"psychophysics","98","310378","0.0-10.0-0.10","6329c13285c93cafdf51ed77","6368f2eea3e9634aebcc2f6b","636ce93e13700616480bdde5","2368.5","","","","39","","","","key","16.65121890547244","683","332.5","true","1","149.16000000000003","12.287999999999998","4","-1","-1","","","","","","","","","","","","",""
"psychophysics","99","311419","0.0-10.0-0.11","6329c13285c93cafdf51ed77","6368f2eea3e9634aebcc2f6b","636ce93e13700616480bdde5","34.299999999813735","","","","39","","","","key","16.651274193548634","683","332.5","true","1","136.872","12.287999999999998","4","-1","-1","","","","","","","","","","","","",""
"psychophysics","100","313128","0.0-10.0-0.12","6329c13285c93cafdf51ed77","6368f2eea3e9634aebcc2f6b","636ce93e13700616480bdde5","702.5","","","","39","","","","key","16.651137254901652","683","332.5","true","-1","136.872","9.8304","5","1","-1","","","","","","","","","","","","",""
"psychophysics","101","315732","0.0-10.0-0.13","6329c13285c93cafdf51ed77","6368f2eea3e9634aebcc2f6b","636ce93e13700616480bdde5","1603.0999999996275","","","","37","","","","key","16.651309677419597","683","332.5","true","-1","146.7024","9.8304","5","-1","1","","","","","","","","","","","","",""
"psychophysics","102","319483","0.0-10.0-0.14","6329c13285c93cafdf51ed77","6368f2eea3e9634aebcc2f6b","636ce93e13700616480bdde5","2745.0999999996275","","","","39","","","","key","16.651205357142835","683","332.5","true","1","146.7024","7.864319999999999","6","-1","-1","","","","","","","","","","","","",""
"psychophysics","103","321670","0.0-10.0-0.15","6329c13285c93cafdf51ed77","6368f2eea3e9634aebcc2f6b","636ce93e13700616480bdde5","1184.3999999994412","","","","37","","","","key","16.651160305343705","683","332.5","true","-1","138.83808000000002","7.864319999999999","6","-1","-1","","","","","","","","","","","","",""
"psychophysics","104","325679","0.0-10.0-0.16","6329c13285c93cafdf51ed77","6368f2eea3e9634aebcc2f6b","636ce93e13700616480bdde5","3006.2999999998137","","","","39","","","","key","16.65121757322177","683","332.5","true","-1","138.83808000000002","6.291456","7","1","-1","","","","","","","","","","","","",""
"psychophysics","105","328944","0.0-10.0-0.17","6329c13285c93cafdf51ed77","6368f2eea3e9634aebcc2f6b","636ce93e13700616480bdde5","2263.0999999996275","","","","37","","","","key","16.651189743589836","683","332.5","true","-1","145.12953600000003","6.291456","7","-1","1","","","","","","","","","","","","",""
"psychophysics","106","331829","0.0-10.0-0.18","6329c13285c93cafdf51ed77","6368f2eea3e9634aebcc2f6b","636ce93e13700616480bdde5","1876.0999999996275","","","","39","","","","key","16.651231213872833","683","332.5","true","-1","145.12953600000003","5.033164800000001","8","1","-1","","","","","","","","","","","","",""
"psychophysics","107","334807","0.0-10.0-0.19","6329c13285c93cafdf51ed77","6368f2eea3e9634aebcc2f6b","636ce93e13700616480bdde5","1974","","","","37","","","","key","16.651292134831422","683","332.5","true","1","150.16270080000004","5.033164800000001","8","1","1","","","","","","","","","","","","",""
"psychophysics","108","337951","0.0-10.0-0.20","6329c13285c93cafdf51ed77","6368f2eea3e9634aebcc2f6b","636ce93e13700616480bdde5","2133.7999999998137","","","","37","","","","key","16.651128342245983","683","332.5","true","-1","155.19586560000005","5.033164800000001","8","-1","1","","","","","","","","","","","","",""
"psychophysics","109","340740","0.0-10.0-0.21","6329c13285c93cafdf51ed77","6368f2eea3e9634aebcc2f6b","636ce93e13700616480bdde5","1787","","","","39","","","","key","16.651263473053884","683","332.5","true","1","155.19586560000005","4.0265318400000005","9","-1","-1","","","","","","","","","","","","",""
"psychophysics","110","343365","0.0-10.0-0.22","6329c13285c93cafdf51ed77","6368f2eea3e9634aebcc2f6b","636ce93e13700616480bdde5","1620.2000000001863","","","","39","","","","key","16.651216560509425","683","332.5","true","-1","151.16933376000006","3.2212254720000004","10","1","-1","","","","","","","","","","","","",""
"psychophysics","111","347427","0.0-10.0-0.23","6329c13285c93cafdf51ed77","6368f2eea3e9634aebcc2f6b","636ce93e13700616480bdde5","3057.5999999996275","","","","37","","","","key","16.65123140495867","683","332.5","true","1","154.39055923200004","3.2212254720000004","10","1","1","","","","","","","","","","","","",""
"psychophysics","112","350451","0.0-10.0-0.24","6329c13285c93cafdf51ed77","6368f2eea3e9634aebcc2f6b","636ce93e13700616480bdde5","2017.2000000001863","","","","37","","","","key","16.651215469613234","683","332.5","true","1","157.61178470400006","3.2212254720000004","10","1","1","","","","","","","","","","","","",""
"psychophysics","113","354026","0.0-10.0-0.25","6329c13285c93cafdf51ed77","6368f2eea3e9634aebcc2f6b","636ce93e13700616480bdde5","2569.399999999441","","","","37","","","","key","16.65117757009325","683","332.5","true","1","160.83301017600007","3.2212254720000004","10","1","1","","","","","","","","","","","","",""
"psychophysics","114","357009","0.0-10.0-0.26","6329c13285c93cafdf51ed77","6368f2eea3e9634aebcc2f6b","636ce93e13700616480bdde5","1975.7999999998137","","","","39","","","","key","16.651275280899018","683","332.5","true","1","164.0542356480001","3.2212254720000004","10","-1","1","","","","","","","","","","","","",""
"psychophysics","115","361156","0.0-10.0-0.27","6329c13285c93cafdf51ed77","6368f2eea3e9634aebcc2f6b","636ce93e13700616480bdde5","3139.0999999996275","","","","39","","","","key","16.65114919354833","683","332.5","true","-1","164.0542356480001","2.5769803776000004","11","1","-1","","","","","","","","","","","","",""
"psychophysics","116","363792","0.0-10.0-0.28","6329c13285c93cafdf51ed77","6368f2eea3e9634aebcc2f6b","636ce93e13700616480bdde5","1630.4000000003725","","","","37","","","","key","16.651305732484108","683","332.5","true","-1","166.63121602560008","2.5769803776000004","11","-1","1","","","","","","","","","","","","",""
"psychophysics","117","366526","0.0-10.0-0.29","6329c13285c93cafdf51ed77","6368f2eea3e9634aebcc2f6b","636ce93e13700616480bdde5","1731.5","","","","39","","","","key","16.65119018404926","683","332.5","true","1","166.63121602560008","2.0615843020800004","12","-1","-1","","","","","","","","","","","","",""
"psychophysics","118","369312","0.0-10.0-0.30","6329c13285c93cafdf51ed77","6368f2eea3e9634aebcc2f6b","636ce93e13700616480bdde5","1783.0999999996275","","","","37","","","","key","16.651161676646744","683","332.5","true","-1","164.56963172352008","2.0615843020800004","12","-1","-1","","","","","","","","","","","","",""
"psychophysics","119","371990","0.0-10.0-0.31","6329c13285c93cafdf51ed77","6368f2eea3e9634aebcc2f6b","636ce93e13700616480bdde5","1673.7000000001863","","","","39","","","","key","16.65124375000014","683","332.5","true","1","164.56963172352008","2.0615843020800004","12","-1","-1","","","","","","","","","","","","",""
"psychophysics","120","374992","0.0-10.0-0.32","6329c13285c93cafdf51ed77","6368f2eea3e9634aebcc2f6b","636ce93e13700616480bdde5","1999","","","","37","","","","key","16.65122346368725","683","332.5","true","-1","162.50804742144007","2.0615843020800004","12","-1","-1","","","","","","","","","","","","",""
"psychophysics","121","377751","0.0-10.0-0.33","6329c13285c93cafdf51ed77","6368f2eea3e9634aebcc2f6b","636ce93e13700616480bdde5","1749.7999999998137","","","","39","","","","key","16.65110303030321","683","332.5","true","1","162.50804742144007","2.0615843020800004","12","-1","-1","","","","","","","","","","","","",""
"psychophysics","122","381413","0.0-10.0-0.34","6329c13285c93cafdf51ed77","6368f2eea3e9634aebcc2f6b","636ce93e13700616480bdde5","2659.9000000003725","","","","39","","","","key","16.651223744292313","683","332.5","true","1","160.44646311936006","2.0615843020800004","12","-1","-1","","","","","","","","","","","","",""
"psychophysics","123","383910","0.0-10.0-0.35","6329c13285c93cafdf51ed77","6368f2eea3e9634aebcc2f6b","636ce93e13700616480bdde5","1493.4000000003725","","","","39","","","","key","16.651167785234737","683","332.5","true","-1","160.44646311936006","1.6492674416640005","13","1","-1","","","","","","","","","","","","",""
"psychophysics","124","387373","0.0-10.0-0.36","6329c13285c93cafdf51ed77","6368f2eea3e9634aebcc2f6b","636ce93e13700616480bdde5","2459.600000000559","","","","37","","","","key","16.651291262135768","683","332.5","true","-1","162.09573056102406","1.6492674416640005","13","-1","1","","","","","","","","","","","","",""
"psychophysics","125","389593","0.0-10.0-0.37","6329c13285c93cafdf51ed77","6368f2eea3e9634aebcc2f6b","636ce93e13700616480bdde5","1215.7999999998137","","","","39","","","","key","16.651120300751785","683","332.5","true","1","162.09573056102406","1.3194139533312006","14","-1","-1","","","","","","","","","","","","",""
"psychophysics","126","392656","0.0-10.0-0.38","6329c13285c93cafdf51ed77","6368f2eea3e9634aebcc2f6b","636ce93e13700616480bdde5","2055.2000000001863","","","","39","","","","key","16.651158469945415","683","332.5","true","-1","160.77631660769285","1.0555311626649604","15","1","-1","","","","","","","","","","","","",""
"psychophysics","127","395427","0.0-10.0-0.39","6329c13285c93cafdf51ed77","6368f2eea3e9634aebcc2f6b","636ce93e13700616480bdde5","1761.5999999996275","","","","37","","","","key","16.65126060606051","683","332.5","true","1","161.8318477703578","1.0555311626649604","15","1","1","","","","","","","","","","","","",""
"html-keyboard-response","128","397893","0.0-11.0","6329c13285c93cafdf51ed77","6368f2eea3e9634aebcc2f6b","636ce93e13700616480bdde5","2464.2999999998137","<p>Well Done !</p><p>Prepare for a new block.</p><p>DON'T EXIT THE FULL SCREEN MODE</p><p>Press the Spacebar to start.</p>","","","32","","","","","","","","","","","","","","","true","162.936788236796","","","","","","","","","","",""
"psychophysics","129","400618","0.0-12.0-0.0","6329c13285c93cafdf51ed77","6368f2eea3e9634aebcc2f6b","636ce93e13700616480bdde5","1723.5","","","","37","","","","key","16.651378048780494","683","332.5","true","-1","180","30","0","-1","","","","","","","","","","","","","",""
"psychophysics","130","402620","0.0-12.0-0.1","6329c13285c93cafdf51ed77","6368f2eea3e9634aebcc2f6b","636ce93e13700616480bdde5","995","","","","39","","","","key","16.651344537815206","683","332.5","true","1","180","30","0","-1","-1","","","","","","","","","","","","",""
"psychophysics","131","406458","0.0-12.0-0.2","6329c13285c93cafdf51ed77","6368f2eea3e9634aebcc2f6b","636ce93e13700616480bdde5","2832.2999999998137","","","","37","","","","key","16.651200000000056","683","332.5","true","-1","150","30","0","-1","-1","","","","","","","","","","","","",""
"psychophysics","132","408088","0.0-12.0-0.3","6329c13285c93cafdf51ed77","6368f2eea3e9634aebcc2f6b","636ce93e13700616480bdde5","622.9000000003725","","","","39","","","","key","16.651092783505334","683","332.5","true","1","150","30","0","-1","-1","","","","","","","","","","","","",""
"psychophysics","133","409785","0.0-12.0-0.4","6329c13285c93cafdf51ed77","6368f2eea3e9634aebcc2f6b","636ce93e13700616480bdde5","687.5999999996275","","","","39","","","","key","16.65128000000026","683","332.5","true","-1","129","24","1","1","-1","","","","","","","","","","","","",""
"psychophysics","134","412311","0.0-12.0-0.5","6329c13285c93cafdf51ed77","6368f2eea3e9634aebcc2f6b","636ce93e13700616480bdde5","1517.8999999994412","","","","39","","","","key","16.651198675496726","683","332.5","true","1","153","24","1","-1","1","","","","","","","","","","","","",""
"psychophysics","135","415377","0.0-12.0-0.6","6329c13285c93cafdf51ed77","6368f2eea3e9634aebcc2f6b","636ce93e13700616480bdde5","2064.100000000559","","","","37","","","","key","16.651218579235024","683","332.5","true","-1","153","19.2","2","-1","-1","","","","","","","","","","","","",""
"psychophysics","136","417917","0.0-12.0-0.7","6329c13285c93cafdf51ed77","6368f2eea3e9634aebcc2f6b","636ce93e13700616480bdde5","1537.1000000005588","","","","37","","","","key","16.651171052631597","683","332.5","true","-1","133.8","19.2","2","-1","-1","","","","","","","","","","","","",""
"psychophysics","137","419132","0.0-12.0-0.8","6329c13285c93cafdf51ed77","6368f2eea3e9634aebcc2f6b","636ce93e13700616480bdde5","210.1000000005588","","","","37","","","","key","16.651388888889212","683","332.5","true","-1","133.8","19.2","2","-1","-1","","","","","","","","","","","","",""
"psychophysics","138","421276","0.0-12.0-0.9","6329c13285c93cafdf51ed77","6368f2eea3e9634aebcc2f6b","636ce93e13700616480bdde5","1136.9000000003725","","","","37","","","","key","16.651157480315305","683","332.5","true","-1","129","19.2","2","-1","-1","","","","","","","","","","","","",""
"psychophysics","139","422825","0.0-12.0-0.10","6329c13285c93cafdf51ed77","6368f2eea3e9634aebcc2f6b","636ce93e13700616480bdde5","543.8999999994412","","","","37","","","","key","16.65125806451655","683","332.5","true","1","129","15.36","3","1","-1","","","","","","","","","","","","",""
"psychophysics","140","425942","0.0-12.0-0.11","6329c13285c93cafdf51ed77","6368f2eea3e9634aebcc2f6b","636ce93e13700616480bdde5","2108.2000000001863","","","","37","","","","key","16.651198924731297","683","332.5","true","-1","144.36","15.36","3","-1","1","","","","","","","","","","","","",""
"psychophysics","141","430789","0.0-12.0-0.12","6329c13285c93cafdf51ed77","6368f2eea3e9634aebcc2f6b","636ce93e13700616480bdde5","3844","","","","39","","","","key","16.651199999999992","683","332.5","true","1","144.36","12.287999999999998","4","-1","-1","","","","","","","","","","","","",""
"psychophysics","142","433077","0.0-12.0-0.13","6329c13285c93cafdf51ed77","6368f2eea3e9634aebcc2f6b","636ce93e13700616480bdde5","1284.2999999998137","","","","39","","","","key","16.651213235293707","683","332.5","true","-1","132.072","9.8304","5","1","-1","","","","","","","","","","","","",""
"psychophysics","143","436920","0.0-12.0-0.14","6329c13285c93cafdf51ed77","6368f2eea3e9634aebcc2f6b","636ce93e13700616480bdde5","2840","","","","37","","","","key","16.651191304347975","683","332.5","true","-1","141.9024","9.8304","5","-1","1","","","","","","","","","","","","",""
"psychophysics","144","440087","0.0-12.0-0.15","6329c13285c93cafdf51ed77","6368f2eea3e9634aebcc2f6b","636ce93e13700616480bdde5","2160.5999999996275","","","","37","","","","key","16.6512592592592","683","332.5","true","1","141.9024","7.864319999999999","6","1","-1","","","","","","","","","","","","",""
"psychophysics","145","443990","0.0-12.0-0.16","6329c13285c93cafdf51ed77","6368f2eea3e9634aebcc2f6b","636ce93e13700616480bdde5","2899.5","","","","39","","","","key","16.65118376068367","683","332.5","true","-1","149.76672","7.864319999999999","6","1","1","","","","","","","","","","","","",""
"psychophysics","146","446458","0.0-12.0-0.17","6329c13285c93cafdf51ed77","6368f2eea3e9634aebcc2f6b","636ce93e13700616480bdde5","1464.3999999994412","","","","37","","","","key","16.65123129251681","683","332.5","true","-1","157.63103999999998","7.864319999999999","6","-1","1","","","","","","","","","","","","",""
"psychophysics","147","449036","0.0-12.0-0.18","6329c13285c93cafdf51ed77","6368f2eea3e9634aebcc2f6b","636ce93e13700616480bdde5","1571","","","","37","","","","key","16.651240259740433","683","332.5","true","-1","157.63103999999998","6.291456","7","-1","-1","","","","","","","","","","","","",""
"psychophysics","148","451204","0.0-12.0-0.19","6329c13285c93cafdf51ed77","6368f2eea3e9634aebcc2f6b","636ce93e13700616480bdde5","1163","","","","37","","","","key","16.651124031007715","683","332.5","true","1","151.33958399999997","5.033164800000001","8","1","-1","","","","","","","","","","","","",""
"psychophysics","149","453497","0.0-12.0-0.20","6329c13285c93cafdf51ed77","6368f2eea3e9634aebcc2f6b","636ce93e13700616480bdde5","1287.4000000003725","","","","39","","","","key","16.651197080291812","683","332.5","true","-1","156.37274879999998","5.033164800000001","8","1","1","","","","","","","","","","","","",""
"psychophysics","150","456550","0.0-12.0-0.21","6329c13285c93cafdf51ed77","6368f2eea3e9634aebcc2f6b","636ce93e13700616480bdde5","2045.2000000001863","","","","37","","","","key","16.651247252747265","683","332.5","true","1","161.4059136","5.033164800000001","8","1","1","","","","","","","","","","","","",""
"psychophysics","151","459035","0.0-12.0-0.22","6329c13285c93cafdf51ed77","6368f2eea3e9634aebcc2f6b","636ce93e13700616480bdde5","1481.5","","","","37","","","","key","16.65122297297293","683","332.5","true","-1","166.4390784","5.033164800000001","8","-1","1","","","","","","","","","","","","",""
"psychophysics","152","461712","0.0-12.0-0.23","6329c13285c93cafdf51ed77","6368f2eea3e9634aebcc2f6b","636ce93e13700616480bdde5","1672.5999999996275","","","","39","","","","key","16.651137499999823","683","332.5","true","1","166.4390784","4.0265318400000005","9","-1","-1","","","","","","","","","","","","",""
"psychophysics","153","464268","0.0-12.0-0.24","6329c13285c93cafdf51ed77","6368f2eea3e9634aebcc2f6b","636ce93e13700616480bdde5","1547.5999999996275","","","","39","","","","key","16.651230263158045","683","332.5","true","1","162.41254656","4.0265318400000005","9","-1","-1","","","","","","","","","","","","",""
"psychophysics","154","465675","0.0-12.0-0.25","6329c13285c93cafdf51ed77","6368f2eea3e9634aebcc2f6b","636ce93e13700616480bdde5","402.29999999981374","","","","37","","","","key","16.651083333333233","683","332.5","true","-1","162.41254656","4.0265318400000005","9","-1","-1","","","","","","","","","","","","",""
"psychophysics","155","466950","0.0-12.0-0.26","6329c13285c93cafdf51ed77","6368f2eea3e9634aebcc2f6b","636ce93e13700616480bdde5","269","","","","39","","","","key","16.651342105262877","683","332.5","true","1","158.38601472000002","4.0265318400000005","9","-1","-1","","","","","","","","","","","","",""
"psychophysics","156","468229","0.0-12.0-0.27","6329c13285c93cafdf51ed77","6368f2eea3e9634aebcc2f6b","636ce93e13700616480bdde5","275.5","","","","39","","","","key","16.651093333333264","683","332.5","true","1","158.38601472000002","4.0265318400000005","9","-1","-1","","","","","","","","","","","","",""
"psychophysics","157","469826","0.0-12.0-0.28","6329c13285c93cafdf51ed77","6368f2eea3e9634aebcc2f6b","636ce93e13700616480bdde5","594.0999999996275","","","","39","","","","key","16.651063157894992","683","332.5","true","1","154.35948288000003","4.0265318400000005","9","-1","-1","","","","","","","","","","","","",""
"psychophysics","158","472963","0.0-12.0-0.29","6329c13285c93cafdf51ed77","6368f2eea3e9634aebcc2f6b","636ce93e13700616480bdde5","2133.5999999996275","","","","37","","","","key","16.651212765957215","683","332.5","true","-1","154.35948288000003","4.0265318400000005","9","-1","-1","","","","","","","","","","","","",""
"psychophysics","159","473976","0.0-12.0-0.30","6329c13285c93cafdf51ed77","6368f2eea3e9634aebcc2f6b","636ce93e13700616480bdde5","7","","","","37","","","","key","16.65116949152533","683","332.5","true","-1","150.33295104000004","4.0265318400000005","9","-1","-1","","","","","","","","","","","","",""
"psychophysics","160","475096","0.0-12.0-0.31","6329c13285c93cafdf51ed77","6368f2eea3e9634aebcc2f6b","636ce93e13700616480bdde5","111","","","","39","","","","key","16.651253731343584","683","332.5","true","1","150.33295104000004","4.0265318400000005","9","-1","-1","","","","","","","","","","","","",""
"psychophysics","161","476132","0.0-12.0-0.32","6329c13285c93cafdf51ed77","6368f2eea3e9634aebcc2f6b","636ce93e13700616480bdde5","26.40000000037253","","","","37","","","","key","16.651311475409532","683","332.5","true","-1","146.30641920000005","4.0265318400000005","9","-1","-1","","","","","","","","","","","","",""
"psychophysics","162","477196","0.0-12.0-0.33","6329c13285c93cafdf51ed77","6368f2eea3e9634aebcc2f6b","636ce93e13700616480bdde5","58.59999999962747","","","","39","","","","key","16.650999999999637","683","332.5","true","1","146.30641920000005","4.0265318400000005","9","-1","-1","","","","","","","","","","","","",""
"psychophysics","163","480288","0.0-12.0-0.34","6329c13285c93cafdf51ed77","6368f2eea3e9634aebcc2f6b","636ce93e13700616480bdde5","2086.4000000003725","","","","37","","","","key","16.651156756756638","683","332.5","true","-1","142.27988736000006","4.0265318400000005","9","-1","-1","","","","","","","","","","","","",""
"psychophysics","164","482786","0.0-12.0-0.35","6329c13285c93cafdf51ed77","6368f2eea3e9634aebcc2f6b","636ce93e13700616480bdde5","1497.2000000011176","","","","39","","","","key","16.65120805369107","683","332.5","true","1","142.27988736000006","4.0265318400000005","9","-1","-1","","","","","","","","","","","","",""
"psychophysics","165","485284","0.0-12.0-0.36","6329c13285c93cafdf51ed77","6368f2eea3e9634aebcc2f6b","636ce93e13700616480bdde5","1490.5999999996275","","","","39","","","","key","16.65120134228214","683","332.5","true","1","138.25335552000007","4.0265318400000005","9","-1","-1","","","","","","","","","","","","",""
"psychophysics","166","486309","0.0-12.0-0.37","6329c13285c93cafdf51ed77","6368f2eea3e9634aebcc2f6b","636ce93e13700616480bdde5","19.700000001117587","","","","39","","","","key","16.651249999999223","683","332.5","true","1","138.25335552000007","4.0265318400000005","9","-1","-1","","","","","","","","","","","","",""
"psychophysics","167","488002","0.0-12.0-0.38","6329c13285c93cafdf51ed77","6368f2eea3e9634aebcc2f6b","636ce93e13700616480bdde5","687.7999999988824","","","","39","","","","key","16.65120792079205","683","332.5","true","1","134.22682368000008","4.0265318400000005","9","-1","-1","","","","","","","","","","","","",""
"psychophysics","168","489943","0.0-12.0-0.39","6329c13285c93cafdf51ed77","6368f2eea3e9634aebcc2f6b","636ce93e13700616480bdde5","934.0999999996275","","","","39","","","","key","16.65128695652162","683","332.5","true","1","134.22682368000008","4.0265318400000005","9","-1","-1","","","","","","","","","","","","",""
"html-keyboard-response","169","492619","0.0-13.0","6329c13285c93cafdf51ed77","6368f2eea3e9634aebcc2f6b","636ce93e13700616480bdde5","2674.7000000011176","<p>Well Done !</p><p>Prepare for a new block.</p><p>DON'T EXIT THE FULL SCREEN MODE</p><p>Press the Spacebar to start.</p>","","","32","","","","","","","","","","","","","","","true","147.38016102400005","","","","","","","","","","",""
"html-keyboard-response","170","492722","0.0-14.0","6329c13285c93cafdf51ed77","6368f2eea3e9634aebcc2f6b","636ce93e13700616480bdde5","null","","","","null","","","","","","","","","","","","","","","","","144.65983481338267","true","161.31966962676535","","","","","","","",""
"instructions","171","522438","0.0-15.0","6329c13285c93cafdf51ed77","6368f2eea3e9634aebcc2f6b","636ce93e13700616480bdde5","29715","","","","","","","[{""page_index"":0,""viewing_time"":21746.700000001118},{""page_index"":1,""viewing_time"":1711.5},{""page_index"":2,""viewing_time"":6256}]","","","","","","","","","","","","","","","","","","","","","","","",""
"psychophysics","172","525445","0.0-16.0-0.0","6329c13285c93cafdf51ed77","6368f2eea3e9634aebcc2f6b","636ce93e13700616480bdde5","null","","","","null","","","","key","16.651950000001428","683","332.5","","","","","","","","","","","","","","","","","","","",""
"psychophysics","173","525953","0.0-16.0-1.0","6329c13285c93cafdf51ed77","6368f2eea3e9634aebcc2f6b","636ce93e13700616480bdde5","null","","","","null","","","","key","16.651166666667752","683","332.5","","","","","","","","","","","","","161","-1","4","false","","","",""
"psychophysics","174","526604","0.0-16.0-2.0","6329c13285c93cafdf51ed77","6368f2eea3e9634aebcc2f6b","636ce93e13700616480bdde5","639.8000000007451","","","","77","","","","key","16.651105263157085","683","332.5","","","","","","","","","","","","","","","","","","","",""
"psychophysics","175","527610","0.0-16.0-0.1","6329c13285c93cafdf51ed77","6368f2eea3e9634aebcc2f6b","636ce93e13700616480bdde5","null","","","","null","","","","key","16.650999999999748","683","332.5","","","","","","","","","","","","","","","","","","","",""
"psychophysics","176","528113","0.0-16.0-1.1","6329c13285c93cafdf51ed77","6368f2eea3e9634aebcc2f6b","636ce93e13700616480bdde5","null","","","","null","","","","key","16.6515000000014","683","332.5","","","","","","","","","","","","","161","-1","5","false","","","",""
"psychophysics","177","528333","0.0-16.0-2.1","6329c13285c93cafdf51ed77","6368f2eea3e9634aebcc2f6b","636ce93e13700616480bdde5","218.2000000011176","","","","77","","","","key","16.65008333333147","683","332.5","","","","","","","","","","","","","","","","","","","",""
"psychophysics","178","529339","0.0-16.0-0.2","6329c13285c93cafdf51ed77","6368f2eea3e9634aebcc2f6b","636ce93e13700616480bdde5","null","","","","null","","","","key","16.65113559322061","683","332.5","","","","","","","","","","","","","","","","","","","",""
"psychophysics","179","529841","0.0-16.0-1.2","6329c13285c93cafdf51ed77","6368f2eea3e9634aebcc2f6b","636ce93e13700616480bdde5","null","","","","null","","","","key","16.651433333335444","683","332.5","","","","","","","","","","","","","161","1","2","false","","","",""
"psychophysics","180","530030","0.0-16.0-2.2","6329c13285c93cafdf51ed77","6368f2eea3e9634aebcc2f6b","636ce93e13700616480bdde5","188.09999999962747","","","","90","","","","key","16.65030000000261","683","332.5","","","","","","","","","","","","","","","","","","","",""
"psychophysics","181","531033","0.0-16.0-0.3","6329c13285c93cafdf51ed77","6368f2eea3e9634aebcc2f6b","636ce93e13700616480bdde5","null","","","","null","","","","key","16.651271186441466","683","332.5","","","","","","","","","","","","","","","","","","","",""
"psychophysics","182","531538","0.0-16.0-1.3","6329c13285c93cafdf51ed77","6368f2eea3e9634aebcc2f6b","636ce93e13700616480bdde5","null","","","","null","","","","key","16.651000000002536","683","332.5","","","","","","","","","","","","","161","-1","2","false","","","",""
"psychophysics","183","532302","0.0-16.0-2.3","6329c13285c93cafdf51ed77","6368f2eea3e9634aebcc2f6b","636ce93e13700616480bdde5","760.9000000003725","","","","77","","","","key","16.651177777776805","683","332.5","","","","","","","","","","","","","","","","","","","",""
"psychophysics","184","533305","0.0-16.0-0.4","6329c13285c93cafdf51ed77","6368f2eea3e9634aebcc2f6b","636ce93e13700616480bdde5","null","","","","null","","","","key","16.651150000000296","683","332.5","","","","","","","","","","","","","","","","","","","",""
"psychophysics","185","533809","0.0-16.0-1.4","6329c13285c93cafdf51ed77","6368f2eea3e9634aebcc2f6b","636ce93e13700616480bdde5","null","","","","null","","","","key","16.650862068965516","683","332.5","","","","","","","","","","","","","161","-1","3","false","","","",""
"psychophysics","186","534115","0.0-16.0-2.4","6329c13285c93cafdf51ed77","6368f2eea3e9634aebcc2f6b","636ce93e13700616480bdde5","305","","","","77","","","","key","16.65070588235497","683","332.5","","","","","","","","","","","","","","","","","","","",""
"psychophysics","187","535120","0.0-16.0-0.5","6329c13285c93cafdf51ed77","6368f2eea3e9634aebcc2f6b","636ce93e13700616480bdde5","null","","","","null","","","","key","16.65120000000073","683","332.5","","","","","","","","","","","","","","","","","","","",""
"psychophysics","188","535625","0.0-16.0-1.5","6329c13285c93cafdf51ed77","6368f2eea3e9634aebcc2f6b","636ce93e13700616480bdde5","null","","","","null","","","","key","16.65082758620526","683","332.5","","","","","","","","","","","","","161","1","5","false","","","",""
"psychophysics","189","535864","0.0-16.0-2.5","6329c13285c93cafdf51ed77","6368f2eea3e9634aebcc2f6b","636ce93e13700616480bdde5","237.10000000149012","","","","77","","","","key","16.651461538455735","683","332.5","","","","","","","","","","","","","","","","","","","",""
"psychophysics","190","536865","0.0-16.0-0.6","6329c13285c93cafdf51ed77","6368f2eea3e9634aebcc2f6b","636ce93e13700616480bdde5","null","","","","null","","","","key","16.65103389830447","683","332.5","","","","","","","","","","","","","","","","","","","",""
"psychophysics","191","537367","0.0-16.0-1.6","6329c13285c93cafdf51ed77","6368f2eea3e9634aebcc2f6b","636ce93e13700616480bdde5","null","","","","null","","","","key","16.65173333333417","683","332.5","","","","","","","","","","","","","161","1","4","false","","","",""
"psychophysics","192","537598","0.0-16.0-2.6","6329c13285c93cafdf51ed77","6368f2eea3e9634aebcc2f6b","636ce93e13700616480bdde5","229.60000000149012","","","","77","","","","key","16.65100000000287","683","332.5","","","","","","","","","","","","","","","","","","","",""
"psychophysics","193","538605","0.0-16.0-0.7","6329c13285c93cafdf51ed77","6368f2eea3e9634aebcc2f6b","636ce93e13700616480bdde5","null","","","","null","","","","key","16.651233333333707","683","332.5","","","","","","","","","","","","","","","","","","","",""
"psychophysics","194","539113","0.0-16.0-1.7","6329c13285c93cafdf51ed77","6368f2eea3e9634aebcc2f6b","636ce93e13700616480bdde5","null","","","","null","","","","key","16.650965517238266","683","332.5","","","","","","","","","","","","","161","1","3","false","","","",""
"psychophysics","195","539297","0.0-16.0-2.7","6329c13285c93cafdf51ed77","6368f2eea3e9634aebcc2f6b","636ce93e13700616480bdde5","181.90000000037253","","","","77","","","","key","16.65030000000261","683","332.5","","","","","","","","","","","","","","","","","","","",""
"psychophysics","196","540298","0.0-16.0-0.8","6329c13285c93cafdf51ed77","6368f2eea3e9634aebcc2f6b","636ce93e13700616480bdde5","null","","","","null","","","","key","16.65148333333394","683","332.5","","","","","","","","","","","","","","","","","","","",""
"psychophysics","197","540801","0.0-16.0-1.8","6329c13285c93cafdf51ed77","6368f2eea3e9634aebcc2f6b","636ce93e13700616480bdde5","null","","","","null","","","","key","16.65068965517627","683","332.5","","","","","","","","","","","","","161","-1","6","false","","","",""
"psychophysics","198","541095","0.0-16.0-2.8","6329c13285c93cafdf51ed77","6368f2eea3e9634aebcc2f6b","636ce93e13700616480bdde5","292.59999999962747","","","","77","","","","key","16.65137500000128","683","332.5","","","","","","","","","","","","","","","","","","","",""
"psychophysics","199","542097","0.0-16.0-0.9","6329c13285c93cafdf51ed77","6368f2eea3e9634aebcc2f6b","636ce93e13700616480bdde5","null","","","","null","","","","key","16.65120000000073","683","332.5","","","","","","","","","","","","","","","","","","","",""
"psychophysics","200","542601","0.0-16.0-1.9","6329c13285c93cafdf51ed77","6368f2eea3e9634aebcc2f6b","636ce93e13700616480bdde5","null","","","","null","","","","key","16.651413793101554","683","332.5","","","","","","","","","","","","","161","1","0","false","","","",""
"psychophysics","201","542768","0.0-16.0-2.9","6329c13285c93cafdf51ed77","6368f2eea3e9634aebcc2f6b","636ce93e13700616480bdde5","166","","","","90","","","","key","16.650666666669874","683","332.5","","","","","","","","","","","","","","","","","","","",""
"psychophysics","202","543777","0.0-16.0-0.10","6329c13285c93cafdf51ed77","6368f2eea3e9634aebcc2f6b","636ce93e13700616480bdde5","null","","","","null","","","","key","16.651101694915887","683","332.5","","","","","","","","","","","","","","","","","","","",""
"psychophysics","203","544281","0.0-16.0-1.10","6329c13285c93cafdf51ed77","6368f2eea3e9634aebcc2f6b","636ce93e13700616480bdde5","null","","","","null","","","","key","16.651699999999256","683","332.5","","","","","","","","","","","","","161","-1","0","false","","","",""
"psychophysics","204","544471","0.0-16.0-2.10","6329c13285c93cafdf51ed77","6368f2eea3e9634aebcc2f6b","636ce93e13700616480bdde5","189.09999999962747","","","","90","","","","key","16.6512999999919","683","332.5","","","","","","","","","","","","","","","","","","","",""
"psychophysics","205","545473","0.0-16.0-0.11","6329c13285c93cafdf51ed77","6368f2eea3e9634aebcc2f6b","636ce93e13700616480bdde5","null","","","","null","","","","key","16.651322033897564","683","332.5","","","","","","","","","","","","","","","","","","","",""
"psychophysics","206","545976","0.0-16.0-1.11","6329c13285c93cafdf51ed77","6368f2eea3e9634aebcc2f6b","636ce93e13700616480bdde5","null","","","","null","","","","key","16.651266666664743","683","332.5","","","","","","","","","","","","","161","1","6","false","","","",""
"psychophysics","207","546015","0.0-16.0-2.11","6329c13285c93cafdf51ed77","6368f2eea3e9634aebcc2f6b","636ce93e13700616480bdde5","36.90000000037253","","","","77","","","","key","16.650999999954365","683","332.5","","","","","","","","","","","","","","","","","","","",""
"psychophysics","208","547017","0.0-16.0-0.12","6329c13285c93cafdf51ed77","6368f2eea3e9634aebcc2f6b","636ce93e13700616480bdde5","null","","","","null","","","","key","16.65137288135563","683","332.5","","","","","","","","","","","","","","","","","","","",""
"psychophysics","209","547521","0.0-16.0-1.12","6329c13285c93cafdf51ed77","6368f2eea3e9634aebcc2f6b","636ce93e13700616480bdde5","null","","","","null","","","","key","16.651172413791787","683","332.5","","","","","","","","","","","","","161","1","5","false","","","",""
"psychophysics","210","547694","0.0-16.0-2.12","6329c13285c93cafdf51ed77","6368f2eea3e9634aebcc2f6b","636ce93e13700616480bdde5","171.60000000149012","","","","77","","","","key","16.650500000000466","683","332.5","","","","","","","","","","","","","","","","","","","",""
"psychophysics","211","548697","0.0-16.0-0.13","6329c13285c93cafdf51ed77","6368f2eea3e9634aebcc2f6b","636ce93e13700616480bdde5","null","","","","null","","","","key","16.651186440676703","683","332.5","","","","","","","","","","","","","","","","","","","",""
"psychophysics","212","549201","0.0-16.0-1.13","6329c13285c93cafdf51ed77","6368f2eea3e9634aebcc2f6b","636ce93e13700616480bdde5","null","","","","null","","","","key","16.651448275861814","683","332.5","","","","","","","","","","","","","161","-1","2","false","","","",""
"psychophysics","213","549608","0.0-16.0-2.13","6329c13285c93cafdf51ed77","6368f2eea3e9634aebcc2f6b","636ce93e13700616480bdde5","405","","","","90","","","","key","16.65137500000128","683","332.5","","","","","","","","","","","","","","","","","","","",""
"psychophysics","214","550609","0.0-16.0-0.14","6329c13285c93cafdf51ed77","6368f2eea3e9634aebcc2f6b","636ce93e13700616480bdde5","null","","","","null","","","","key","16.65116949152533","683","332.5","","","","","","","","","","","","","","","","","","","",""
"psychophysics","215","551113","0.0-16.0-1.14","6329c13285c93cafdf51ed77","6368f2eea3e9634aebcc2f6b","636ce93e13700616480bdde5","null","","","","null","","","","key","16.650793103449015","683","332.5","","","","","","","","","","","","","161","-1","5","false","","","",""
"psychophysics","216","551392","0.0-16.0-2.14","6329c13285c93cafdf51ed77","6368f2eea3e9634aebcc2f6b","636ce93e13700616480bdde5","277.09999999962747","","","","77","","","","key","16.65143750000425","683","332.5","","","","","","","","","","","","","","","","","","","",""
"psychophysics","217","552401","0.0-16.0-0.15","6329c13285c93cafdf51ed77","6368f2eea3e9634aebcc2f6b","636ce93e13700616480bdde5","null","","","","null","","","","key","16.6514237288137","683","332.5","","","","","","","","","","","","","","","","","","","",""
"psychophysics","218","552903","0.0-16.0-1.15","6329c13285c93cafdf51ed77","6368f2eea3e9634aebcc2f6b","636ce93e13700616480bdde5","null","","","","null","","","","key","16.651299999999658","683","332.5","","","","","","","","","","","","","161","-1","0","false","","","",""
"psychophysics","219","553364","0.0-16.0-2.15","6329c13285c93cafdf51ed77","6368f2eea3e9634aebcc2f6b","636ce93e13700616480bdde5","459.5","","","","77","","","","key","16.65099999999914","683","332.5","","","","","","","","","","","","","","","","","","","",""
"psychophysics","220","554369","0.0-16.0-0.16","6329c13285c93cafdf51ed77","6368f2eea3e9634aebcc2f6b","636ce93e13700616480bdde5","null","","","","null","","","","key","16.650949999998556","683","332.5","","","","","","","","","","","","","","","","","","","",""
"psychophysics","221","554873","0.0-16.0-1.16","6329c13285c93cafdf51ed77","6368f2eea3e9634aebcc2f6b","636ce93e13700616480bdde5","null","","","","null","","","","key","16.65141379310557","683","332.5","","","","","","","","","","","","","161","1","2","false","","","",""
"psychophysics","222","554983","0.0-16.0-2.16","6329c13285c93cafdf51ed77","6368f2eea3e9634aebcc2f6b","636ce93e13700616480bdde5","109.29999999888241","","","","90","","","","key","16.65339999999851","683","332.5","","","","","","","","","","","","","","","","","","","",""
"psychophysics","223","555985","0.0-16.0-0.17","6329c13285c93cafdf51ed77","6368f2eea3e9634aebcc2f6b","636ce93e13700616480bdde5","null","","","","null","","","","key","16.65101666666645","683","332.5","","","","","","","","","","","","","","","","","","","",""
"psychophysics","224","556489","0.0-16.0-1.17","6329c13285c93cafdf51ed77","6368f2eea3e9634aebcc2f6b","636ce93e13700616480bdde5","null","","","","null","","","","key","16.65134482758505","683","332.5","","","","","","","","","","","","","161","1","3","false","","","",""
"psychophysics","225","556752","0.0-16.0-2.17","6329c13285c93cafdf51ed77","6368f2eea3e9634aebcc2f6b","636ce93e13700616480bdde5","261.30000000074506","","","","77","","","","key","16.65153333332855","683","332.5","","","","","","","","","","","","","","","","","","","",""
"psychophysics","226","557753","0.0-16.0-0.18","6329c13285c93cafdf51ed77","6368f2eea3e9634aebcc2f6b","636ce93e13700616480bdde5","null","","","","null","","","","key","16.651271186439494","683","332.5","","","","","","","","","","","","","","","","","","","",""
"psychophysics","227","558257","0.0-16.0-1.18","6329c13285c93cafdf51ed77","6368f2eea3e9634aebcc2f6b","636ce93e13700616480bdde5","null","","","","null","","","","key","16.650896551725776","683","332.5","","","","","","","","","","","","","161","-1","6","false","","","",""
"psychophysics","228","558349","0.0-16.0-2.18","6329c13285c93cafdf51ed77","6368f2eea3e9634aebcc2f6b","636ce93e13700616480bdde5","90.70000000111759","","","","77","","","","key","16.648600000003352","683","332.5","","","","","","","","","","","","","","","","","","","",""
"psychophysics","229","559353","0.0-16.0-0.19","6329c13285c93cafdf51ed77","6368f2eea3e9634aebcc2f6b","636ce93e13700616480bdde5","null","","","","null","","","","key","16.65116949152533","683","332.5","","","","","","","","","","","","","","","","","","","",""
"psychophysics","230","559857","0.0-16.0-1.19","6329c13285c93cafdf51ed77","6368f2eea3e9634aebcc2f6b","636ce93e13700616480bdde5","null","","","","null","","","","key","16.651586206894816","683","332.5","","","","","","","","","","","","","161","1","0","false","","","",""
"psychophysics","231","559979","0.0-16.0-2.19","6329c13285c93cafdf51ed77","6368f2eea3e9634aebcc2f6b","636ce93e13700616480bdde5","120.80000000074506","","","","90","","","","key","16.65183333332728","683","332.5","","","","","","","","","","","","","","","","","","","",""
"psychophysics","232","560985","0.0-16.0-0.20","6329c13285c93cafdf51ed77","6368f2eea3e9634aebcc2f6b","636ce93e13700616480bdde5","null","","","","null","","","","key","16.651116666665377","683","332.5","","","","","","","","","","","","","","","","","","","",""
"psychophysics","233","561489","0.0-16.0-1.20","6329c13285c93cafdf51ed77","6368f2eea3e9634aebcc2f6b","636ce93e13700616480bdde5","null","","","","null","","","","key","16.651448275861814","683","332.5","","","","","","","","","","","","","161","-1","4","false","","","",""
"psychophysics","234","561543","0.0-16.0-2.20","6329c13285c93cafdf51ed77","6368f2eea3e9634aebcc2f6b","636ce93e13700616480bdde5","52.29999999888241","","","","77","","","","key","16.650000000023283","683","332.5","","","","","","","","","","","","","","","","","","","",""
"psychophysics","235","562548","0.0-16.0-0.21","6329c13285c93cafdf51ed77","6368f2eea3e9634aebcc2f6b","636ce93e13700616480bdde5","null","","","","null","","","","key","16.651266666666682","683","332.5","","","","","","","","","","","","","","","","","","","",""
"psychophysics","236","563057","0.0-16.0-1.21","6329c13285c93cafdf51ed77","6368f2eea3e9634aebcc2f6b","636ce93e13700616480bdde5","null","","","","null","","","","key","16.651413793101554","683","332.5","","","","","","","","","","","","","161","1","6","false","","","",""
"psychophysics","237","563184","0.0-16.0-2.21","6329c13285c93cafdf51ed77","6368f2eea3e9634aebcc2f6b","636ce93e13700616480bdde5","124.40000000037253","","","","77","","","","key","16.651000000004256","683","332.5","","","","","","","","","","","","","","","","","","","",""
"psychophysics","238","564191","0.0-16.0-0.22","6329c13285c93cafdf51ed77","6368f2eea3e9634aebcc2f6b","636ce93e13700616480bdde5","null","","","","null","","","","key","16.650915254238928","683","332.5","","","","","","","","","","","","","","","","","","","",""
"psychophysics","239","564693","0.0-16.0-1.22","6329c13285c93cafdf51ed77","6368f2eea3e9634aebcc2f6b","636ce93e13700616480bdde5","null","","","","null","","","","key","16.651433333331564","683","332.5","","","","","","","","","","","","","161","-1","3","false","","","",""
"psychophysics","240","564914","0.0-16.0-2.22","6329c13285c93cafdf51ed77","6368f2eea3e9634aebcc2f6b","636ce93e13700616480bdde5","219","","","","77","","","","key","16.651333333332634","683","332.5","","","","","","","","","","","","","","","","","","","",""
"psychophysics","241","565921","0.0-16.0-0.23","6329c13285c93cafdf51ed77","6368f2eea3e9634aebcc2f6b","636ce93e13700616480bdde5","null","","","","null","","","","key","16.65108474576451","683","332.5","","","","","","","","","","","","","","","","","","","",""
"psychophysics","242","566424","0.0-16.0-1.23","6329c13285c93cafdf51ed77","6368f2eea3e9634aebcc2f6b","636ce93e13700616480bdde5","null","","","","null","","","","key","16.65100000000093","683","332.5","","","","","","","","","","","","","161","1","4","false","","","",""
"psychophysics","243","566508","0.0-16.0-2.23","6329c13285c93cafdf51ed77","6368f2eea3e9634aebcc2f6b","636ce93e13700616480bdde5","83.40000000037253","","","","77","","","","key","16.65425000002142","683","332.5","","","","","","","","","","","","","","","","","","","",""
"html-keyboard-response","244","568647","0.0-17.0","6329c13285c93cafdf51ed77","6368f2eea3e9634aebcc2f6b","636ce93e13700616480bdde5","2137","<p>Well Done !</p><p>Training Complete. Press the spacebar to start.</p><p>DON'T EXIT THE FULL SCREEN MODE</p>","","","32","","","","","","","","","","","","","","","","","","","","","","","","","","",""
"psychophysics","245","571651","0.0-18.0-0.0","6329c13285c93cafdf51ed77","6368f2eea3e9634aebcc2f6b","636ce93e13700616480bdde5","null","","","","null","","","","key","16.651900000000992","683","332.5","","","","","","","","","","","","","","","","","","","",""
"psychophysics","246","572161","0.0-18.0-1.0","6329c13285c93cafdf51ed77","6368f2eea3e9634aebcc2f6b","636ce93e13700616480bdde5","null","","","","null","","","","key","16.651233333333707","683","332.5","","","","","","","","","","","","","161","1","0","true","","","",""
"psychophysics","247","572372","0.0-18.0-2.0","6329c13285c93cafdf51ed77","6368f2eea3e9634aebcc2f6b","636ce93e13700616480bdde5","209.69999999925494","","","","90","","","","key","16.65183333333698","683","332.5","","","","","","","","","","","","","","","","","","","",""
"psychophysics","248","573377","0.0-18.0-0.1","6329c13285c93cafdf51ed77","6368f2eea3e9634aebcc2f6b","636ce93e13700616480bdde5","null","","","","null","","","","key","16.651305084746188","683","332.5","","","","","","","","","","","","","","","","","","","",""
"psychophysics","249","573881","0.0-18.0-1.1","6329c13285c93cafdf51ed77","6368f2eea3e9634aebcc2f6b","636ce93e13700616480bdde5","null","","","","null","","","","key","16.651275862068548","683","332.5","","","","","","","","","","","","","161","1","5","true","","","",""
"psychophysics","250","573884","0.0-18.0-2.1","6329c13285c93cafdf51ed77","6368f2eea3e9634aebcc2f6b","636ce93e13700616480bdde5","0.599999999627471","","","","77","","","","key","NaN","683","332.5","","","","","","","","","","","","","","","","","","","",""
"psychophysics","251","574889","0.0-18.0-0.2","6329c13285c93cafdf51ed77","6368f2eea3e9634aebcc2f6b","636ce93e13700616480bdde5","null","","","","null","","","","key","16.65108333333434","683","332.5","","","","","","","","","","","","","","","","","","","",""
"psychophysics","252","575393","0.0-18.0-1.2","6329c13285c93cafdf51ed77","6368f2eea3e9634aebcc2f6b","636ce93e13700616480bdde5","null","","","","null","","","","key","16.650965517242277","683","332.5","","","","","","","","","","","","","161","-1","2","true","","","",""
"psychophysics","253","575531","0.0-18.0-2.2","6329c13285c93cafdf51ed77","6368f2eea3e9634aebcc2f6b","636ce93e13700616480bdde5","136.80000000074506","","","","90","","","","key","16.650142857139663","683","332.5","","","","","","","","","","","","","","","","","","","",""
"psychophysics","254","576537","0.0-18.0-0.3","6329c13285c93cafdf51ed77","6368f2eea3e9634aebcc2f6b","636ce93e13700616480bdde5","null","","","","null","","","","key","16.65109999999986","683","332.5","","","","","","","","","","","","","","","","","","","",""
"psychophysics","255","577041","0.0-18.0-1.3","6329c13285c93cafdf51ed77","6368f2eea3e9634aebcc2f6b","636ce93e13700616480bdde5","null","","","","null","","","","key","16.651034482754767","683","332.5","","","","","","","","","","","","","161","-1","3","true","","","",""
"psychophysics","256","577047","0.0-18.0-2.3","6329c13285c93cafdf51ed77","6368f2eea3e9634aebcc2f6b","636ce93e13700616480bdde5","4.199999999254942","","","","77","","","","key","NaN","683","332.5","","","","","","","","","","","","","","","","","","","",""
"psychophysics","257","578049","0.0-18.0-0.4","6329c13285c93cafdf51ed77","6368f2eea3e9634aebcc2f6b","636ce93e13700616480bdde5","null","","","","null","","","","key","16.651150000000296","683","332.5","","","","","","","","","","","","","","","","","","","",""
"psychophysics","258","578553","0.0-18.0-1.4","6329c13285c93cafdf51ed77","6368f2eea3e9634aebcc2f6b","636ce93e13700616480bdde5","null","","","","null","","","","key","16.651517241378315","683","332.5","","","","","","","","","","","","","161","1","4","true","","","",""
"psychophysics","259","578631","0.0-18.0-2.4","6329c13285c93cafdf51ed77","6368f2eea3e9634aebcc2f6b","636ce93e13700616480bdde5","77.09999999962747","","","","77","","","","key","16.650250000006054","683","332.5","","","","","","","","","","","","","","","","","","","",""
"psychophysics","260","579633","0.0-18.0-0.5","6329c13285c93cafdf51ed77","6368f2eea3e9634aebcc2f6b","636ce93e13700616480bdde5","null","","","","null","","","","key","16.65111864406726","683","332.5","","","","","","","","","","","","","","","","","","","",""
"psychophysics","261","580137","0.0-18.0-1.5","6329c13285c93cafdf51ed77","6368f2eea3e9634aebcc2f6b","636ce93e13700616480bdde5","null","","","","null","","","","key","16.651103448275283","683","332.5","","","","","","","","","","","","","161","1","2","true","","","",""
"psychophysics","262","580380","0.0-18.0-2.5","6329c13285c93cafdf51ed77","6368f2eea3e9634aebcc2f6b","636ce93e13700616480bdde5","241.09999999962747","","","","90","","","","key","16.65150000000306","683","332.5","","","","","","","","","","","","","","","","","","","",""
"psychophysics","263","581385","0.0-18.0-0.6","6329c13285c93cafdf51ed77","6368f2eea3e9634aebcc2f6b","636ce93e13700616480bdde5","null","","","","null","","","","key","16.651101694915887","683","332.5","","","","","","","","","","","","","","","","","","","",""
"psychophysics","264","581889","0.0-18.0-1.6","6329c13285c93cafdf51ed77","6368f2eea3e9634aebcc2f6b","636ce93e13700616480bdde5","null","","","","null","","","","key","16.65141379310557","683","332.5","","","","","","","","","","","","","161","1","3","true","","","",""
"psychophysics","265","585173","0.0-18.0-2.6","6329c13285c93cafdf51ed77","6368f2eea3e9634aebcc2f6b","636ce93e13700616480bdde5","3282.800000000745","","","","90","","","","key","16.651204081632944","683","332.5","","","","","","","","","","","","","","","","","","","",""
"psychophysics","266","586177","0.0-18.0-0.7","6329c13285c93cafdf51ed77","6368f2eea3e9634aebcc2f6b","636ce93e13700616480bdde5","null","","","","null","","","","key","16.651283333334142","683","332.5","","","","","","","","","","","","","","","","","","","",""
"psychophysics","267","586681","0.0-18.0-1.7","6329c13285c93cafdf51ed77","6368f2eea3e9634aebcc2f6b","636ce93e13700616480bdde5","null","","","","null","","","","key","16.651206896552047","683","332.5","","","","","","","","","","","","","161","-1","5","true","","","",""
"psychophysics","268","586915","0.0-18.0-2.7","6329c13285c93cafdf51ed77","6368f2eea3e9634aebcc2f6b","636ce93e13700616480bdde5","232.30000000074506","","","","77","","","","key","16.651153846151338","683","332.5","","","","","","","","","","","","","","","","","","","",""
"psychophysics","269","587920","0.0-18.0-0.8","6329c13285c93cafdf51ed77","6368f2eea3e9634aebcc2f6b","636ce93e13700616480bdde5","null","","","","null","","","","key","16.651150000000296","683","332.5","","","","","","","","","","","","","","","","","","","",""
"psychophysics","270","588425","0.0-18.0-1.8","6329c13285c93cafdf51ed77","6368f2eea3e9634aebcc2f6b","636ce93e13700616480bdde5","null","","","","null","","","","key","16.651068965515027","683","332.5","","","","","","","","","","","","","161","-1","4","true","","","",""
"psychophysics","271","588591","0.0-18.0-2.8","6329c13285c93cafdf51ed77","6368f2eea3e9634aebcc2f6b","636ce93e13700616480bdde5","162.90000000037253","","","","77","","","","key","16.65155555556218","683","332.5","","","","","","","","","","","","","","","","","","","",""
"psychophysics","272","589593","0.0-18.0-0.9","6329c13285c93cafdf51ed77","6368f2eea3e9634aebcc2f6b","636ce93e13700616480bdde5","null","","","","null","","","","key","16.651220338983396","683","332.5","","","","","","","","","","","","","","","","","","","",""
"psychophysics","273","590097","0.0-18.0-1.9","6329c13285c93cafdf51ed77","6368f2eea3e9634aebcc2f6b","636ce93e13700616480bdde5","null","","","","null","","","","key","16.65082758620526","683","332.5","","","","","","","","","","","","","161","-1","0","true","","","",""
"psychophysics","274","590692","0.0-18.0-2.9","6329c13285c93cafdf51ed77","6368f2eea3e9634aebcc2f6b","636ce93e13700616480bdde5","593.8000000007451","","","","90","","","","key","16.651399999999974","683","332.5","","","","","","","","","","","","","","","","","","","",""
"psychophysics","275","591697","0.0-18.0-0.10","6329c13285c93cafdf51ed77","6368f2eea3e9634aebcc2f6b","636ce93e13700616480bdde5","null","","","","null","","","","key","16.651288135592843","683","332.5","","","","","","","","","","","","","","","","","","","",""
"psychophysics","276","592201","0.0-18.0-1.10","6329c13285c93cafdf51ed77","6368f2eea3e9634aebcc2f6b","636ce93e13700616480bdde5","null","","","","null","","","","key","16.650766666668158","683","332.5","","","","","","","","","","","","","161","-1","6","true","","","",""
"psychophysics","277","592301","0.0-18.0-2.10","6329c13285c93cafdf51ed77","6368f2eea3e9634aebcc2f6b","636ce93e13700616480bdde5","98.29999999888241","","","","77","","","","key","16.651750000019092","683","332.5","","","","","","","","","","","","","","","","","","","",""
"psychophysics","278","593305","0.0-18.0-0.11","6329c13285c93cafdf51ed77","6368f2eea3e9634aebcc2f6b","636ce93e13700616480bdde5","null","","","","null","","","","key","16.651150000000296","683","332.5","","","","","","","","","","","","","","","","","","","",""
"psychophysics","279","593809","0.0-18.0-1.11","6329c13285c93cafdf51ed77","6368f2eea3e9634aebcc2f6b","636ce93e13700616480bdde5","null","","","","null","","","","key","16.65179310344834","683","332.5","","","","","","","","","","","","","161","1","6","true","","","",""
"psychophysics","280","593983","0.0-18.0-2.11","6329c13285c93cafdf51ed77","6368f2eea3e9634aebcc2f6b","636ce93e13700616480bdde5","172.30000000074506","","","","90","","","","key","16.651600000006148","683","332.5","","","","","","","","","","","","","","","","","","","",""
"psychophysics","281","594985","0.0-18.0-0.12","6329c13285c93cafdf51ed77","6368f2eea3e9634aebcc2f6b","636ce93e13700616480bdde5","null","","","","null","","","","key","16.65115254237198","683","332.5","","","","","","","","","","","","","","","","","","","",""
"psychophysics","282","595489","0.0-18.0-1.12","6329c13285c93cafdf51ed77","6368f2eea3e9634aebcc2f6b","636ce93e13700616480bdde5","null","","","","null","","","","key","16.651517241378315","683","332.5","","","","","","","","","","","","","161","1","2","true","","","",""
"psychophysics","283","595653","0.0-18.0-2.12","6329c13285c93cafdf51ed77","6368f2eea3e9634aebcc2f6b","636ce93e13700616480bdde5","162.7999999988824","","","","77","","","","key","16.649444444454275","683","332.5","","","","","","","","","","","","","","","","","","","",""
"psychophysics","284","596657","0.0-18.0-0.13","6329c13285c93cafdf51ed77","6368f2eea3e9634aebcc2f6b","636ce93e13700616480bdde5","null","","","","null","","","","key","16.651186440676703","683","332.5","","","","","","","","","","","","","","","","","","","",""
"psychophysics","285","597162","0.0-18.0-1.13","6329c13285c93cafdf51ed77","6368f2eea3e9634aebcc2f6b","636ce93e13700616480bdde5","null","","","","null","","","","key","16.651600000002265","683","332.5","","","","","","","","","","","","","161","1","3","true","","","",""
"psychophysics","286","597310","0.0-18.0-2.13","6329c13285c93cafdf51ed77","6368f2eea3e9634aebcc2f6b","636ce93e13700616480bdde5","147.09999999962747","","","","77","","","","key","16.651000000004256","683","332.5","","","","","","","","","","","","","","","","","","","",""
"psychophysics","287","598312","0.0-18.0-0.14","6329c13285c93cafdf51ed77","6368f2eea3e9634aebcc2f6b","636ce93e13700616480bdde5","null","","","","null","","","","key","16.651166666665812","683","332.5","","","","","","","","","","","","","","","","","","","",""
"psychophysics","288","598825","0.0-18.0-1.14","6329c13285c93cafdf51ed77","6368f2eea3e9634aebcc2f6b","636ce93e13700616480bdde5","null","","","","null","","","","key","16.651275862072563","683","332.5","","","","","","","","","","","","","161","-1","4","true","","","",""
"psychophysics","289","598965","0.0-18.0-2.14","6329c13285c93cafdf51ed77","6368f2eea3e9634aebcc2f6b","636ce93e13700616480bdde5","136.80000000074506","","","","77","","","","key","16.65037499999744","683","332.5","","","","","","","","","","","","","","","","","","","",""
"psychophysics","290","599970","0.0-18.0-0.15","6329c13285c93cafdf51ed77","6368f2eea3e9634aebcc2f6b","636ce93e13700616480bdde5","null","","","","null","","","","key","16.651118644069232","683","332.5","","","","","","","","","","","","","","","","","","","",""
"psychophysics","291","600474","0.0-18.0-1.15","6329c13285c93cafdf51ed77","6368f2eea3e9634aebcc2f6b","636ce93e13700616480bdde5","null","","","","null","","","","key","16.651068965515027","683","332.5","","","","","","","","","","","","","161","-1","2","true","","","",""
"psychophysics","292","600555","0.0-18.0-2.15","6329c13285c93cafdf51ed77","6368f2eea3e9634aebcc2f6b","636ce93e13700616480bdde5","80.09999999962747","","","","90","","","","key","16.652000000001863","683","332.5","","","","","","","","","","","","","","","","","","","",""
"psychophysics","293","601558","0.0-18.0-0.16","6329c13285c93cafdf51ed77","6368f2eea3e9634aebcc2f6b","636ce93e13700616480bdde5","null","","","","null","","","","key","16.651366666667553","683","332.5","","","","","","","","","","","","","","","","","","","",""
"psychophysics","294","602065","0.0-18.0-1.16","6329c13285c93cafdf51ed77","6368f2eea3e9634aebcc2f6b","636ce93e13700616480bdde5","null","","","","null","","","","key","16.65106896551904","683","332.5","","","","","","","","","","","","","161","1","5","true","","","",""
"psychophysics","295","602093","0.0-18.0-2.16","6329c13285c93cafdf51ed77","6368f2eea3e9634aebcc2f6b","636ce93e13700616480bdde5","27","","","","77","","","","key","16.650999999954365","683","332.5","","","","","","","","","","","","","","","","","","","",""
"psychophysics","296","603097","0.0-18.0-0.17","6329c13285c93cafdf51ed77","6368f2eea3e9634aebcc2f6b","636ce93e13700616480bdde5","null","","","","null","","","","key","16.65101694915112","683","332.5","","","","","","","","","","","","","","","","","","","",""
"psychophysics","297","603601","0.0-18.0-1.17","6329c13285c93cafdf51ed77","6368f2eea3e9634aebcc2f6b","636ce93e13700616480bdde5","null","","","","null","","","","key","16.651172413795802","683","332.5","","","","","","","","","","","","","161","-1","6","true","","","",""
"psychophysics","298","603842","0.0-18.0-2.17","6329c13285c93cafdf51ed77","6368f2eea3e9634aebcc2f6b","636ce93e13700616480bdde5","239.5","","","","77","","","","key","16.651357142861734","683","332.5","","","","","","","","","","","","","","","","","","","",""
"psychophysics","299","604849","0.0-18.0-0.18","6329c13285c93cafdf51ed77","6368f2eea3e9634aebcc2f6b","636ce93e13700616480bdde5","null","","","","null","","","","key","16.65111864406726","683","332.5","","","","","","","","","","","","","","","","","","","",""
"psychophysics","300","605354","0.0-18.0-1.18","6329c13285c93cafdf51ed77","6368f2eea3e9634aebcc2f6b","636ce93e13700616480bdde5","null","","","","null","","","","key","16.65173333333417","683","332.5","","","","","","","","","","","","","161","1","4","true","","","",""
"psychophysics","301","605378","0.0-18.0-2.18","6329c13285c93cafdf51ed77","6368f2eea3e9634aebcc2f6b","636ce93e13700616480bdde5","23","","","","77","","","","key","NaN","683","332.5","","","","","","","","","","","","","","","","","","","",""
"psychophysics","302","606385","0.0-18.0-0.19","6329c13285c93cafdf51ed77","6368f2eea3e9634aebcc2f6b","636ce93e13700616480bdde5","null","","","","null","","","","key","16.650966101695026","683","332.5","","","","","","","","","","","","","","","","","","","",""
"psychophysics","303","606889","0.0-18.0-1.19","6329c13285c93cafdf51ed77","6368f2eea3e9634aebcc2f6b","636ce93e13700616480bdde5","null","","","","null","","","","key","16.651366666665613","683","332.5","","","","","","","","","","","","","161","-1","5","true","","","",""
"psychophysics","304","607038","0.0-18.0-2.19","6329c13285c93cafdf51ed77","6368f2eea3e9634aebcc2f6b","636ce93e13700616480bdde5","147.80000000074506","","","","77","","","","key","16.651624999998603","683","332.5","","","","","","","","","","","","","","","","","","","",""
"psychophysics","305","608041","0.0-18.0-0.20","6329c13285c93cafdf51ed77","6368f2eea3e9634aebcc2f6b","636ce93e13700616480bdde5","null","","","","null","","","","key","16.651271186441466","683","332.5","","","","","","","","","","","","","","","","","","","",""
"psychophysics","306","608545","0.0-18.0-1.20","6329c13285c93cafdf51ed77","6368f2eea3e9634aebcc2f6b","636ce93e13700616480bdde5","null","","","","null","","","","key","16.651000000002536","683","332.5","","","","","","","","","","","","","161","1","6","true","","","",""
"psychophysics","307","609014","0.0-18.0-2.20","6329c13285c93cafdf51ed77","6368f2eea3e9634aebcc2f6b","636ce93e13700616480bdde5","467.7999999988824","","","","77","","","","key","16.65118518518284","683","332.5","","","","","","","","","","","","","","","","","","","",""
"psychophysics","308","610016","0.0-18.0-0.21","6329c13285c93cafdf51ed77","6368f2eea3e9634aebcc2f6b","636ce93e13700616480bdde5","null","","","","null","","","","key","16.651305084744216","683","332.5","","","","","","","","","","","","","","","","","","","",""
"psychophysics","309","610521","0.0-18.0-1.21","6329c13285c93cafdf51ed77","6368f2eea3e9634aebcc2f6b","636ce93e13700616480bdde5","null","","","","null","","","","key","16.65109999999792","683","332.5","","","","","","","","","","","","","161","1","0","true","","","",""
"psychophysics","310","610844","0.0-18.0-2.21","6329c13285c93cafdf51ed77","6368f2eea3e9634aebcc2f6b","636ce93e13700616480bdde5","321.80000000074506","","","","90","","","","key","16.6513333333294","683","332.5","","","","","","","","","","","","","","","","","","","",""
"psychophysics","311","611850","0.0-18.0-0.22","6329c13285c93cafdf51ed77","6368f2eea3e9634aebcc2f6b","636ce93e13700616480bdde5","null","","","","null","","","","key","16.651150000000296","683","332.5","","","","","","","","","","","","","","","","","","","",""
"psychophysics","312","612353","0.0-18.0-1.22","6329c13285c93cafdf51ed77","6368f2eea3e9634aebcc2f6b","636ce93e13700616480bdde5","null","","","","null","","","","key","16.651241379312303","683","332.5","","","","","","","","","","","","","161","-1","3","true","","","",""
"psychophysics","313","612510","0.0-18.0-2.22","6329c13285c93cafdf51ed77","6368f2eea3e9634aebcc2f6b","636ce93e13700616480bdde5","155.69999999925494","","","","77","","","","key","16.652499999996508","683","332.5","","","","","","","","","","","","","","","","","","","",""
"psychophysics","314","613512","0.0-18.0-0.23","6329c13285c93cafdf51ed77","6368f2eea3e9634aebcc2f6b","636ce93e13700616480bdde5","null","","","","null","","","","key","16.65108474576254","683","332.5","","","","","","","","","","","","","","","","","","","",""
"psychophysics","315","614017","0.0-18.0-1.23","6329c13285c93cafdf51ed77","6368f2eea3e9634aebcc2f6b","636ce93e13700616480bdde5","null","","","","null","","","","key","16.65146666666648","683","332.5","","","","","","","","","","","","","161","-1","0","true","","","",""
"psychophysics","316","614205","0.0-18.0-2.23","6329c13285c93cafdf51ed77","6368f2eea3e9634aebcc2f6b","636ce93e13700616480bdde5","186.69999999925494","","","","90","","","","key","16.64989999999525","683","332.5","","","","","","","","","","","","","","","","","","","",""
"psychophysics","317","615209","0.0-18.0-0.24","6329c13285c93cafdf51ed77","6368f2eea3e9634aebcc2f6b","636ce93e13700616480bdde5","null","","","","null","","","","key","16.651186440676703","683","332.5","","","","","","","","","","","","","","","","","","","",""
"psychophysics","318","615713","0.0-18.0-1.24","6329c13285c93cafdf51ed77","6368f2eea3e9634aebcc2f6b","636ce93e13700616480bdde5","null","","","","null","","","","key","16.651499999997515","683","332.5","","","","","","","","","","","","","161","-1","5","true","","","",""
"psychophysics","319","615770","0.0-18.0-2.24","6329c13285c93cafdf51ed77","6368f2eea3e9634aebcc2f6b","636ce93e13700616480bdde5","55.79999999888241","","","","77","","","","key","16.653999999980442","683","332.5","","","","","","","","","","","","","","","","","","","",""
"psychophysics","320","616776","0.0-18.0-0.25","6329c13285c93cafdf51ed77","6368f2eea3e9634aebcc2f6b","636ce93e13700616480bdde5","null","","","","null","","","","key","16.651355932204257","683","332.5","","","","","","","","","","","","","","","","","","","",""
"psychophysics","321","617281","0.0-18.0-1.25","6329c13285c93cafdf51ed77","6368f2eea3e9634aebcc2f6b","636ce93e13700616480bdde5","null","","","","null","","","","key","16.651266666668622","683","332.5","","","","","","","","","","","","","161","-1","6","true","","","",""
"psychophysics","322","617401","0.0-18.0-2.25","6329c13285c93cafdf51ed77","6368f2eea3e9634aebcc2f6b","636ce93e13700616480bdde5","118.69999999925494","","","","77","","","","key","16.649999999984477","683","332.5","","","","","","","","","","","","","","","","","","","",""
"psychophysics","323","618407","0.0-18.0-0.26","6329c13285c93cafdf51ed77","6368f2eea3e9634aebcc2f6b","636ce93e13700616480bdde5","null","","","","null","","","","key","16.65120338983005","683","332.5","","","","","","","","","","","","","","","","","","","",""
"psychophysics","324","618910","0.0-18.0-1.26","6329c13285c93cafdf51ed77","6368f2eea3e9634aebcc2f6b","636ce93e13700616480bdde5","null","","","","null","","","","key","16.651233333333707","683","332.5","","","","","","","","","","","","","161","-1","0","true","","","",""
"psychophysics","325","618915","0.0-18.0-2.26","6329c13285c93cafdf51ed77","6368f2eea3e9634aebcc2f6b","636ce93e13700616480bdde5","3.699999999254942","","","","77","","","","key","NaN","683","332.5","","","","","","","","","","","","","","","","","","","",""
"psychophysics","326","619921","0.0-18.0-0.27","6329c13285c93cafdf51ed77","6368f2eea3e9634aebcc2f6b","636ce93e13700616480bdde5","null","","","","null","","","","key","16.65120338983005","683","332.5","","","","","","","","","","","","","","","","","","","",""
"psychophysics","327","620424","0.0-18.0-1.27","6329c13285c93cafdf51ed77","6368f2eea3e9634aebcc2f6b","636ce93e13700616480bdde5","null","","","","null","","","","key","16.650766666668158","683","332.5","","","","","","","","","","","","","161","-1","3","true","","","",""
"psychophysics","328","621155","0.0-18.0-2.27","6329c13285c93cafdf51ed77","6368f2eea3e9634aebcc2f6b","636ce93e13700616480bdde5","728.8000000007451","","","","77","","","","key","16.651142857142812","683","332.5","","","","","","","","","","","","","","","","","","","",""
"psychophysics","329","622156","0.0-18.0-0.28","6329c13285c93cafdf51ed77","6368f2eea3e9634aebcc2f6b","636ce93e13700616480bdde5","null","","","","null","","","","key","16.65118333333327","683","332.5","","","","","","","","","","","","","","","","","","","",""
"psychophysics","330","622665","0.0-18.0-1.28","6329c13285c93cafdf51ed77","6368f2eea3e9634aebcc2f6b","636ce93e13700616480bdde5","null","","","","null","","","","key","16.650689655172254","683","332.5","","","","","","","","","","","","","161","1","2","true","","","",""
