"trial_type","trial_index","time_elapsed","internal_node_id","PROLIFIC_PID","STUDY_ID","SESSION_ID","rt","stimulus","button_pressed","success","key_press","responses","isData","view_history","response_type","avg_frame_time","center_x","center_y","isSC","stim_side","trial_luminance","step_size","nReversal","correct","prev_ans","isThreshold","SC_threshold","final_threshold","isLuminance","FF_luminance","luminance","stimSide","ISInt","isFF","question_order","isSPQ","isCAPS","isAQ"
"pavlovia","0","4","0.0-0.0","607f441b91a96d298ca2d347","6368f2eea3e9634aebcc2f6b","636cea3b7e86b9d992bb9639","","","","","","","","","","","","","","","","","","","","","","","","","","","","","","","",""
"html-button-response","1","7168","0.0-1.0","607f441b91a96d298ca2d347","6368f2eea3e9634aebcc2f6b","636cea3b7e86b9d992bb9639","7163.199999999255","<div style='background-color: white; width:60%; margin: auto; padding: 50px; text-align: justify; text-justify: inter-word; margin-bottom: 20px;'><h1 style='text-align: center;'>Consent Form</h1><p>Please read this consent form carefully before deciding whether you would like to participate in this study. You have to be 18 years old or older to participate to this study.</p><p style='text-decoration: underline;'>Participation is voluntary:</p><p>It is your choice whether or not to participate in this research. If you choose to participate, you may change your mind and leave the study at any time. Refusal to participate or stopping your participation will involve no penalty or loss of benefits to which you are otherwise entitled.</p><p style='text-decoration: underline;'>Purpose of the Study:</p><p>To understand the mechanisms underlying human perception.</p><p style='text-decoration: underline;'>What you will do in this study:</p><p>You will be presented with a series of visual images and then you will press buttons on the keyboard of your computer to respond to simple questions about the images (e.g. Were one or two images presented?). In addition, you will be asked to complete a questionnaire concerning your beliefs and everyday mental and perceptual experiences.'</p><p style='text-decoration: underline;'> Time Required:</p><p>The study will take 40 minutes to complete. </p><p style='text-decoration: underline;'>Risks:</p><p>There are no anticipated risks associated with participating in this study that are beyond those experienced in everyday life. </p><p style='text-decoration: underline;'>Benefits:</p><p>There are no benefits to you in participating in the study. However, this study may lead to a better understanding of how different kinds of visual information are used.</p><p style='text-decoration: underline;'>Compensation:</p><p>You will be paid US$6.6/hour. </p><p style='text-decoration: underline;'>Privacy and Confidentiality:</p><p>Your participation in this study will be anonymous. No personal information about your name or identity will be asked or recorded. This anonymous data will be stored for several years and may be used for a variety of research purposes. The overall results of the study may be published, or the data files may be shared with other researchers, but your identity will not be revealed in any way. The online services we are using for this study may temporarily store your data, but this data will be downloaded and then promptly deleted from those services.Your data will not be permanently associated with your name, IP address, or any other identifiable information (e.g., your information will only be connected to your payment, not to any of your responses), though they may be temporarily stored together before we download and separate them. Even so, no guarantee of internet survey security can be given because, although unlikely, transmissions can be intercepted and IP addresses can be identified. The anonymous data may be shared publicly (for example, in conjunction with a resulting academic publication).</p><p style='text-decoration: underline;'>Participation and Withdrawal:</p><p>Your participation in this study is completely voluntary. You may stop responding to the stimuli or stop answering questions if you so choose and without penalty by exiting the full screen mode, closing this tab of your browser or redirecting it to a different website.</p><p style='text-decoration: underline;'>Contact Info of the Researcher: </p><p>If you have questions about this study, or if you would like to talk to the research team, please contact David Melcher (david.melcher@nyu.edu, md5050@nyu.edu) at the Perception and Active Cognition Laboratory, New York University Abu Dhabi, Computational Research Building, Saadiyat Island, Abu Dhabi, UAE.This research has been reviewed by the New York University Abu Dhabi Institutional Review Board (NYUAD IRB). To contact about your rights in this research, for questions, suggestions, or complaints that are not addressed by the researchers, please email IRBnyuad@nyu.edu, or call the NYUAD IRB at +971 2 628 4313. </p></div>","0","","","","","","","","","","","","","","","","","","","","","","","","","","","","",""
"fullscreen","2","9615","0.0-2.0","607f441b91a96d298ca2d347","6368f2eea3e9634aebcc2f6b","636cea3b7e86b9d992bb9639","","","","true","","","","","","","","","","","","","","","","","","","","","","","","","","","",""
"html-keyboard-response","3","22556","0.0-3.0","607f441b91a96d298ca2d347","6368f2eea3e9634aebcc2f6b","636cea3b7e86b9d992bb9639","12940.400000000373","<p>Welcome !</p><p>READ CAREFULLY THE FOLLOWING INDICATIONS:</p><p>From this moment you have ~40 minutes to complete the experiment.</p><p>During the experiment you will be prompted to take several breaks. Each break should not last longer than 2-3 minutes.</p><p>Make sure that your computer is plugged in and it's not running on battery power, even if the battery is already fully charged.</p><p>Turn off your phone and music, make sure that you are in a quiet room and that you will not be distracted for the next hour.</p><p>Failure to comply with the instructions and indications provided during the experiment will most likely result in the rejection of your data.<p>Press the spacebar to start.</p>","","","32","","","","","","","","","","","","","","","","","","","","","","","","","","",""
"survey-html-form","4","30973","0.0-4.0","607f441b91a96d298ca2d347","6368f2eea3e9634aebcc2f6b","636cea3b7e86b9d992bb9639","8415.900000000373","","","","","{""age"":""50"",""sex"":""M""}","true","","","","","","","","","","","","","","","","","","","","","","","","",""
"instructions","5","101209","0.0-5.0","607f441b91a96d298ca2d347","6368f2eea3e9634aebcc2f6b","636cea3b7e86b9d992bb9639","70235.09999999963","","","","","","","[{""page_index"":0,""viewing_time"":36415.199999999255},{""page_index"":1,""viewing_time"":24038.700000001118},{""page_index"":2,""viewing_time"":9780.799999998882}]","","","","","","","","","","","","","","","","","","","","","","","",""
"psychophysics","6","103741","0.0-6.0-0.0","607f441b91a96d298ca2d347","6368f2eea3e9634aebcc2f6b","636cea3b7e86b9d992bb9639","1526.9000000003725","","","","37","","","","key","16.683821192052964","960","504.5","true","-1","180","30","0","-1","","","","","","","","","","","","","",""
"psychophysics","7","105276","0.0-6.0-0.1","607f441b91a96d298ca2d347","6368f2eea3e9634aebcc2f6b","636cea3b7e86b9d992bb9639","531.3000000007451","","","","37","","","","key","16.683802197802144","960","504.5","true","-1","180","30","0","-1","-1","","","","","","","","","","","","",""
"psychophysics","8","106360","0.0-6.0-0.2","607f441b91a96d298ca2d347","6368f2eea3e9634aebcc2f6b","636cea3b7e86b9d992bb9639","80.19999999925494","","","","39","","","","key","16.684140625000055","960","504.5","true","1","150","30","0","-1","-1","","","","","","","","","","","","",""
"psychophysics","9","112648","0.0-6.0-0.3","607f441b91a96d298ca2d347","6368f2eea3e9634aebcc2f6b","636cea3b7e86b9d992bb9639","5284.300000000745","","","","39","","","","key","16.684132978723394","960","504.5","true","1","150","30","0","-1","-1","","","","","","","","","","","","",""
"psychophysics","10","117672","0.0-6.0-0.4","607f441b91a96d298ca2d347","6368f2eea3e9634aebcc2f6b","636cea3b7e86b9d992bb9639","4020.0999999996275","","","","39","","","","key","16.684006666666633","960","504.5","true","1","129","30","0","-1","-1","","","","","","","","","","","","",""
"psychophysics","11","120845","0.0-6.0-0.5","607f441b91a96d298ca2d347","6368f2eea3e9634aebcc2f6b","636cea3b7e86b9d992bb9639","2167.5999999996275","","","","39","","","","key","16.684052910052948","960","504.5","true","1","129","30","0","-1","-1","","","","","","","","","","","","",""
"psychophysics","12","125637","0.0-6.0-0.6","607f441b91a96d298ca2d347","6368f2eea3e9634aebcc2f6b","636cea3b7e86b9d992bb9639","3789.5","","","","37","","","","key","16.684111498257828","960","504.5","true","1","129","24","1","1","-1","","","","","","","","","","","","",""
"psychophysics","13","126977","0.0-6.0-0.7","607f441b91a96d298ca2d347","6368f2eea3e9634aebcc2f6b","636cea3b7e86b9d992bb9639","332.1000000014901","","","","37","","","","key","16.684164556962013","960","504.5","true","-1","153","24","1","-1","1","","","","","","","","","","","","",""
"psychophysics","14","128221","0.0-6.0-0.8","607f441b91a96d298ca2d347","6368f2eea3e9634aebcc2f6b","636cea3b7e86b9d992bb9639","240.5","","","","37","","","","key","16.6848513513514","960","504.5","true","-1","153","19.2","2","-1","-1","","","","","","","","","","","","",""
"psychophysics","15","130932","0.0-6.0-0.9","607f441b91a96d298ca2d347","6368f2eea3e9634aebcc2f6b","636cea3b7e86b9d992bb9639","1710.4000000003725","","","","39","","","","key","16.68413664596278","960","504.5","true","1","133.8","19.2","2","-1","-1","","","","","","","","","","","","",""
"psychophysics","16","132944","0.0-6.0-0.10","607f441b91a96d298ca2d347","6368f2eea3e9634aebcc2f6b","636cea3b7e86b9d992bb9639","1004","","","","39","","","","key","16.68451666666685","960","504.5","true","1","133.8","19.2","2","-1","-1","","","","","","","","","","","","",""
"psychophysics","17","135123","0.0-6.0-0.11","607f441b91a96d298ca2d347","6368f2eea3e9634aebcc2f6b","636cea3b7e86b9d992bb9639","1174.800000000745","","","","39","","","","key","16.683604651162774","960","504.5","true","-1","129","15.36","3","1","-1","","","","","","","","","","","","",""
"psychophysics","18","136363","0.0-6.0-0.12","607f441b91a96d298ca2d347","6368f2eea3e9634aebcc2f6b","636cea3b7e86b9d992bb9639","238.80000000074506","","","","37","","","","key","16.68412162162162","960","504.5","true","-1","144.36","15.36","3","-1","1","","","","","","","","","","","","",""
"psychophysics","19","137679","0.0-6.0-0.13","607f441b91a96d298ca2d347","6368f2eea3e9634aebcc2f6b","636cea3b7e86b9d992bb9639","315","","","","39","","","","key","16.684051948051835","960","504.5","true","1","144.36","12.287999999999998","4","-1","-1","","","","","","","","","","","","",""
"psychophysics","20","140059","0.0-6.0-0.14","607f441b91a96d298ca2d347","6368f2eea3e9634aebcc2f6b","636cea3b7e86b9d992bb9639","1378.699999999255","","","","39","","","","key","16.68413380281688","960","504.5","true","-1","132.072","9.8304","5","1","-1","","","","","","","","","","","","",""
"psychophysics","21","141423","0.0-6.0-0.15","607f441b91a96d298ca2d347","6368f2eea3e9634aebcc2f6b","636cea3b7e86b9d992bb9639","356.19999999925494","","","","39","","","","key","16.684135802468877","960","504.5","true","1","141.9024","9.8304","5","-1","1","","","","","","","","","","","","",""
"psychophysics","22","142779","0.0-6.0-0.16","607f441b91a96d298ca2d347","6368f2eea3e9634aebcc2f6b","636cea3b7e86b9d992bb9639","350.2999999988824","","","","39","","","","key","16.6841375","960","504.5","true","1","141.9024","7.864319999999999","6","-1","-1","","","","","","","","","","","","",""
"psychophysics","23","144191","0.0-6.0-0.17","607f441b91a96d298ca2d347","6368f2eea3e9634aebcc2f6b","636cea3b7e86b9d992bb9639","410.19999999925494","","","","39","","","","key","16.68416666666668","960","504.5","true","1","134.03808","7.864319999999999","6","-1","-1","","","","","","","","","","","","",""
"psychophysics","24","145887","0.0-6.0-0.18","607f441b91a96d298ca2d347","6368f2eea3e9634aebcc2f6b","636cea3b7e86b9d992bb9639","690.0999999996275","","","","39","","","","key","16.684249999999885","960","504.5","true","-1","134.03808","6.291456","7","1","-1","","","","","","","","","","","","",""
"psychophysics","25","147195","0.0-6.0-0.19","607f441b91a96d298ca2d347","6368f2eea3e9634aebcc2f6b","636cea3b7e86b9d992bb9639","304.7999999988824","","","","37","","","","key","16.68391025641027","960","504.5","true","-1","140.32953600000002","6.291456","7","-1","1","","","","","","","","","","","","",""
"psychophysics","26","148463","0.0-6.0-0.20","607f441b91a96d298ca2d347","6368f2eea3e9634aebcc2f6b","636cea3b7e86b9d992bb9639","267","","","","39","","","","key","16.684119999999723","960","504.5","true","1","140.32953600000002","5.033164800000001","8","-1","-1","","","","","","","","","","","","",""
"psychophysics","27","149735","0.0-6.0-0.21","607f441b91a96d298ca2d347","6368f2eea3e9634aebcc2f6b","636cea3b7e86b9d992bb9639","266.90000000037253","","","","37","","","","key","16.68426666666676","960","504.5","true","-1","135.2963712","5.033164800000001","8","-1","-1","","","","","","","","","","","","",""
"psychophysics","28","150963","0.0-6.0-0.22","607f441b91a96d298ca2d347","6368f2eea3e9634aebcc2f6b","636cea3b7e86b9d992bb9639","223","","","","37","","","","key","16.684123287671518","960","504.5","true","-1","135.2963712","5.033164800000001","8","-1","-1","","","","","","","","","","","","",""
"psychophysics","29","152799","0.0-6.0-0.23","607f441b91a96d298ca2d347","6368f2eea3e9634aebcc2f6b","636cea3b7e86b9d992bb9639","834.7999999988824","","","","39","","","","key","16.683871559632905","960","504.5","true","-1","130.2632064","4.0265318400000005","9","1","-1","","","","","","","","","","","","",""
"psychophysics","30","154391","0.0-6.0-0.24","607f441b91a96d298ca2d347","6368f2eea3e9634aebcc2f6b","636cea3b7e86b9d992bb9639","586.5999999996275","","","","39","","","","key","16.684425531915004","960","504.5","true","-1","134.28973824","4.0265318400000005","9","1","1","","","","","","","","","","","","",""
"psychophysics","31","155723","0.0-6.0-0.25","607f441b91a96d298ca2d347","6368f2eea3e9634aebcc2f6b","636cea3b7e86b9d992bb9639","326.59999999962747","","","","39","","","","key","16.683594936708687","960","504.5","true","1","138.31627007999998","4.0265318400000005","9","-1","1","","","","","","","","","","","","",""
"psychophysics","32","157063","0.0-6.0-0.26","607f441b91a96d298ca2d347","6368f2eea3e9634aebcc2f6b","636cea3b7e86b9d992bb9639","338.5","","","","37","","","","key","16.683873417721678","960","504.5","true","-1","138.31627007999998","3.2212254720000004","10","-1","-1","","","","","","","","","","","","",""
"psychophysics","33","158291","0.0-6.0-0.27","607f441b91a96d298ca2d347","6368f2eea3e9634aebcc2f6b","636cea3b7e86b9d992bb9639","223.40000000037253","","","","39","","","","key","16.684164383561487","960","504.5","true","1","135.09504460799997","3.2212254720000004","10","-1","-1","","","","","","","","","","","","",""
"psychophysics","34","159583","0.0-6.0-0.28","607f441b91a96d298ca2d347","6368f2eea3e9634aebcc2f6b","636cea3b7e86b9d992bb9639","290.5","","","","39","","","","key","16.6843289473683","960","504.5","true","1","135.09504460799997","3.2212254720000004","10","-1","-1","","","","","","","","","","","","",""
"psychophysics","35","160863","0.0-6.0-0.29","607f441b91a96d298ca2d347","6368f2eea3e9634aebcc2f6b","636cea3b7e86b9d992bb9639","275.09999999962747","","","","37","","","","key","16.684131578947447","960","504.5","true","-1","131.87381913599995","3.2212254720000004","10","-1","-1","","","","","","","","","","","","",""
"psychophysics","36","162270","0.0-6.0-0.30","607f441b91a96d298ca2d347","6368f2eea3e9634aebcc2f6b","636cea3b7e86b9d992bb9639","401.3999999985099","","","","39","","","","key","16.684831325301033","960","504.5","true","1","131.87381913599995","3.2212254720000004","10","-1","-1","","","","","","","","","","","","",""
"psychophysics","37","163702","0.0-6.0-0.31","607f441b91a96d298ca2d347","6368f2eea3e9634aebcc2f6b","636cea3b7e86b9d992bb9639","428.90000000037253","","","","39","","","","key","16.6844470588237","960","504.5","true","-1","129","2.5769803776000004","11","1","-1","","","","","","","","","","","","",""
"psychophysics","38","165466","0.0-6.0-0.32","607f441b91a96d298ca2d347","6368f2eea3e9634aebcc2f6b","636cea3b7e86b9d992bb9639","757.8000000007451","","","","39","","","","key","16.683914285714163","960","504.5","true","1","131.5769803776","2.5769803776000004","11","-1","1","","","","","","","","","","","","",""
"psychophysics","39","166850","0.0-6.0-0.33","607f441b91a96d298ca2d347","6368f2eea3e9634aebcc2f6b","636cea3b7e86b9d992bb9639","381","","","","39","","","","key","16.684268292682756","960","504.5","true","1","131.5769803776","2.0615843020800004","12","-1","-1","","","","","","","","","","","","",""
"psychophysics","40","168374","0.0-6.0-0.34","607f441b91a96d298ca2d347","6368f2eea3e9634aebcc2f6b","636cea3b7e86b9d992bb9639","521.9000000003725","","","","39","","","","key","16.684133333333495","960","504.5","true","-1","129.51539607552","1.6492674416640005","13","1","-1","","","","","","","","","","","","",""
"psychophysics","41","170266","0.0-6.0-0.35","607f441b91a96d298ca2d347","6368f2eea3e9634aebcc2f6b","636cea3b7e86b9d992bb9639","885.8000000007451","","","","39","","","","key","16.684584070796525","960","504.5","true","1","131.16466351718398","1.6492674416640005","13","-1","1","","","","","","","","","","","","",""
"psychophysics","42","172646","0.0-6.0-0.36","607f441b91a96d298ca2d347","6368f2eea3e9634aebcc2f6b","636cea3b7e86b9d992bb9639","1377.9000000003725","","","","37","","","","key","16.68421276595736","960","504.5","true","-1","131.16466351718398","1.3194139533312006","14","-1","-1","","","","","","","","","","","","",""
"psychophysics","43","175362","0.0-6.0-0.37","607f441b91a96d298ca2d347","6368f2eea3e9634aebcc2f6b","636cea3b7e86b9d992bb9639","1710.4000000003725","","","","39","","","","key","16.684135802469235","960","504.5","true","1","129.84524956385278","1.3194139533312006","14","-1","-1","","","","","","","","","","","","",""
"psychophysics","44","176738","0.0-6.0-0.38","607f441b91a96d298ca2d347","6368f2eea3e9634aebcc2f6b","636cea3b7e86b9d992bb9639","373.59999999962747","","","","37","","","","key","16.684378048780562","960","504.5","true","-1","129.84524956385278","1.3194139533312006","14","-1","-1","","","","","","","","","","","","",""
"psychophysics","45","178526","0.0-6.0-0.39","607f441b91a96d298ca2d347","6368f2eea3e9634aebcc2f6b","636cea3b7e86b9d992bb9639","786.8000000007451","","","","39","","","","key","16.684150943396126","960","504.5","true","-1","129","1.0555311626649604","15","1","-1","","","","","","","","","","","","",""
"html-keyboard-response","46","182499","0.0-7.0","607f441b91a96d298ca2d347","6368f2eea3e9634aebcc2f6b","636cea3b7e86b9d992bb9639","3971.4000000003725","<p>Well Done !</p><p>Prepare for a new block.</p><p>DON'T EXIT THE FULL SCREEN MODE</p><p>Press the Spacebar to start.</p>","","","32","","","","","","","","","","","","","","","true","132.2172967093862","","","","","","","","","","",""
"psychophysics","47","183539","0.0-8.0-0.0","607f441b91a96d298ca2d347","6368f2eea3e9634aebcc2f6b","636cea3b7e86b9d992bb9639","37.29999999888241","","","","39","","","","key","16.693177419355056","960","504.5","true","1","180","30","0","-1","","","","","","","","","","","","","",""
"psychophysics","48","186662","0.0-8.0-0.1","607f441b91a96d298ca2d347","6368f2eea3e9634aebcc2f6b","636cea3b7e86b9d992bb9639","2120.9000000003725","","","","39","","","","key","16.68411290322578","960","504.5","true","1","180","30","0","-1","-1","","","","","","","","","","","","",""
"psychophysics","49","187782","0.0-8.0-0.2","607f441b91a96d298ca2d347","6368f2eea3e9634aebcc2f6b","636cea3b7e86b9d992bb9639","115.60000000149012","","","","37","","","","key","16.684378787878703","960","504.5","true","-1","150","30","0","-1","-1","","","","","","","","","","","","",""
"psychophysics","50","188850","0.0-8.0-0.3","607f441b91a96d298ca2d347","6368f2eea3e9634aebcc2f6b","636cea3b7e86b9d992bb9639","66.60000000149012","","","","37","","","","key","16.684000000000065","960","504.5","true","-1","150","30","0","-1","-1","","","","","","","","","","","","",""
"psychophysics","51","190381","0.0-8.0-0.4","607f441b91a96d298ca2d347","6368f2eea3e9634aebcc2f6b","636cea3b7e86b9d992bb9639","529.5","","","","37","","","","key","16.684109890110058","960","504.5","true","1","129","24","1","1","-1","","","","","","","","","","","","",""
"psychophysics","52","191482","0.0-8.0-0.5","607f441b91a96d298ca2d347","6368f2eea3e9634aebcc2f6b","636cea3b7e86b9d992bb9639","95.29999999888241","","","","37","","","","key","16.684123076922976","960","504.5","true","-1","153","24","1","-1","1","","","","","","","","","","","","",""
"psychophysics","53","192629","0.0-8.0-0.6","607f441b91a96d298ca2d347","6368f2eea3e9634aebcc2f6b","636cea3b7e86b9d992bb9639","144.5","","","","37","","","","key","16.68588235294138","960","504.5","true","-1","153","19.2","2","-1","-1","","","","","","","","","","","","",""
"psychophysics","54","193774","0.0-8.0-0.7","607f441b91a96d298ca2d347","6368f2eea3e9634aebcc2f6b","636cea3b7e86b9d992bb9639","136.90000000037253","","","","39","","","","key","16.68433823529417","960","504.5","true","1","133.8","19.2","2","-1","-1","","","","","","","","","","","","",""
"psychophysics","55","195121","0.0-8.0-0.8","607f441b91a96d298ca2d347","6368f2eea3e9634aebcc2f6b","636cea3b7e86b9d992bb9639","346.7000000011176","","","","37","","","","key","16.684189873417807","960","504.5","true","-1","133.8","19.2","2","-1","-1","","","","","","","","","","","","",""
"psychophysics","56","196581","0.0-8.0-0.9","607f441b91a96d298ca2d347","6368f2eea3e9634aebcc2f6b","636cea3b7e86b9d992bb9639","456.19999999925494","","","","37","","","","key","16.684114942528527","960","504.5","true","1","129","15.36","3","1","-1","","","","","","","","","","","","",""
"psychophysics","57","197797","0.0-8.0-0.10","607f441b91a96d298ca2d347","6368f2eea3e9634aebcc2f6b","636cea3b7e86b9d992bb9639","208.30000000074506","","","","37","","","","key","16.68288888888896","960","504.5","true","-1","144.36","15.36","3","-1","1","","","","","","","","","","","","",""
"psychophysics","58","198981","0.0-8.0-0.11","607f441b91a96d298ca2d347","6368f2eea3e9634aebcc2f6b","636cea3b7e86b9d992bb9639","176.09999999962747","","","","39","","","","key","16.68491428571412","960","504.5","true","1","144.36","12.287999999999998","4","-1","-1","","","","","","","","","","","","",""
"psychophysics","59","200249","0.0-8.0-0.12","607f441b91a96d298ca2d347","6368f2eea3e9634aebcc2f6b","636cea3b7e86b9d992bb9639","260.19999999925494","","","","37","","","","key","16.684693333333513","960","504.5","true","-1","132.072","12.287999999999998","4","-1","-1","","","","","","","","","","","","",""
"psychophysics","60","201641","0.0-8.0-0.13","607f441b91a96d298ca2d347","6368f2eea3e9634aebcc2f6b","636cea3b7e86b9d992bb9639","388","","","","39","","","","key","16.683792682926782","960","504.5","true","-1","132.072","9.8304","5","1","-1","","","","","","","","","","","","",""
"psychophysics","61","202837","0.0-8.0-0.14","607f441b91a96d298ca2d347","6368f2eea3e9634aebcc2f6b","636cea3b7e86b9d992bb9639","191.90000000037253","","","","37","","","","key","16.684126760563437","960","504.5","true","-1","141.9024","9.8304","5","-1","1","","","","","","","","","","","","",""
"psychophysics","62","204118","0.0-8.0-0.15","607f441b91a96d298ca2d347","6368f2eea3e9634aebcc2f6b","636cea3b7e86b9d992bb9639","272.5","","","","37","","","","key","16.684144736842043","960","504.5","true","-1","141.9024","7.864319999999999","6","-1","-1","","","","","","","","","","","","",""
"psychophysics","63","205297","0.0-8.0-0.16","607f441b91a96d298ca2d347","6368f2eea3e9634aebcc2f6b","636cea3b7e86b9d992bb9639","178.39999999850988","","","","39","","","","key","16.684623188405816","960","504.5","true","-1","134.03808","6.291456","7","1","-1","","","","","","","","","","","","",""
"psychophysics","64","206461","0.0-8.0-0.17","607f441b91a96d298ca2d347","6368f2eea3e9634aebcc2f6b","636cea3b7e86b9d992bb9639","159.7999999988824","","","","37","","","","key","16.6834202898549","960","504.5","true","-1","140.32953600000002","6.291456","7","-1","1","","","","","","","","","","","","",""
"psychophysics","65","207661","0.0-8.0-0.18","607f441b91a96d298ca2d347","6368f2eea3e9634aebcc2f6b","636cea3b7e86b9d992bb9639","191.59999999962747","","","","37","","","","key","16.684647887324157","960","504.5","true","-1","140.32953600000002","5.033164800000001","8","-1","-1","","","","","","","","","","","","",""
"psychophysics","66","208757","0.0-8.0-0.19","607f441b91a96d298ca2d347","6368f2eea3e9634aebcc2f6b","636cea3b7e86b9d992bb9639","88.40000000037253","","","","37","","","","key","16.68323076923082","960","504.5","true","-1","135.2963712","5.033164800000001","8","-1","-1","","","","","","","","","","","","",""
"psychophysics","67","210169","0.0-8.0-0.20","607f441b91a96d298ca2d347","6368f2eea3e9634aebcc2f6b","636cea3b7e86b9d992bb9639","404.40000000037253","","","","37","","","","key","16.684108433734796","960","504.5","true","-1","135.2963712","5.033164800000001","8","-1","-1","","","","","","","","","","","","",""
"psychophysics","68","211337","0.0-8.0-0.21","607f441b91a96d298ca2d347","6368f2eea3e9634aebcc2f6b","636cea3b7e86b9d992bb9639","164.40000000037253","","","","37","","","","key","16.684637681159707","960","504.5","true","1","130.2632064","4.0265318400000005","9","1","-1","","","","","","","","","","","","",""
"psychophysics","69","212433","0.0-8.0-0.22","607f441b91a96d298ca2d347","6368f2eea3e9634aebcc2f6b","636cea3b7e86b9d992bb9639","92.5","","","","39","","","","key","16.684138461538645","960","504.5","true","1","134.28973824","4.0265318400000005","9","-1","1","","","","","","","","","","","","",""
"psychophysics","70","213805","0.0-8.0-0.23","607f441b91a96d298ca2d347","6368f2eea3e9634aebcc2f6b","636cea3b7e86b9d992bb9639","368.40000000037253","","","","39","","","","key","16.684135802468877","960","504.5","true","1","134.28973824","3.2212254720000004","10","-1","-1","","","","","","","","","","","","",""
"psychophysics","71","215269","0.0-8.0-0.24","607f441b91a96d298ca2d347","6368f2eea3e9634aebcc2f6b","636cea3b7e86b9d992bb9639","458.5","","","","39","","","","key","16.684160919540197","960","504.5","true","1","131.068512768","3.2212254720000004","10","-1","-1","","","","","","","","","","","","",""
"psychophysics","72","217261","0.0-8.0-0.25","607f441b91a96d298ca2d347","6368f2eea3e9634aebcc2f6b","636cea3b7e86b9d992bb9639","984.1999999992549","","","","39","","","","key","16.684008474576178","960","504.5","true","1","131.068512768","3.2212254720000004","10","-1","-1","","","","","","","","","","","","",""
"psychophysics","73","218641","0.0-8.0-0.26","607f441b91a96d298ca2d347","6368f2eea3e9634aebcc2f6b","636cea3b7e86b9d992bb9639","375.90000000037253","","","","39","","","","key","16.684320987654594","960","504.5","true","-1","129","2.5769803776000004","11","1","-1","","","","","","","","","","","","",""
"psychophysics","74","220301","0.0-8.0-0.27","607f441b91a96d298ca2d347","6368f2eea3e9634aebcc2f6b","636cea3b7e86b9d992bb9639","655.9000000003725","","","","39","","","","key","16.684320000000007","960","504.5","true","-1","131.5769803776","2.5769803776000004","11","1","1","","","","","","","","","","","","",""
"psychophysics","75","221668","0.0-8.0-0.28","607f441b91a96d298ca2d347","6368f2eea3e9634aebcc2f6b","636cea3b7e86b9d992bb9639","358.80000000074506","","","","39","","","","key","16.68382500000007","960","504.5","true","1","134.1539607552","2.5769803776000004","11","-1","1","","","","","","","","","","","","",""
"psychophysics","76","223388","0.0-8.0-0.29","607f441b91a96d298ca2d347","6368f2eea3e9634aebcc2f6b","636cea3b7e86b9d992bb9639","718.5999999996275","","","","39","","","","key","16.684135922329958","960","504.5","true","-1","134.1539607552","2.0615843020800004","12","1","-1","","","","","","","","","","","","",""
"psychophysics","77","224612","0.0-8.0-0.30","607f441b91a96d298ca2d347","6368f2eea3e9634aebcc2f6b","636cea3b7e86b9d992bb9639","223.09999999962747","","","","39","","","","key","16.919126760563405","960","504.5","true","1","136.21554505728","2.0615843020800004","12","-1","1","","","","","","","","","","","","",""
"psychophysics","78","225912","0.0-8.0-0.31","607f441b91a96d298ca2d347","6368f2eea3e9634aebcc2f6b","636cea3b7e86b9d992bb9639","292.3999999985099","","","","39","","","","key","16.68416883116898","960","504.5","true","1","136.21554505728","1.6492674416640005","13","-1","-1","","","","","","","","","","","","",""
"psychophysics","79","227400","0.0-8.0-0.32","607f441b91a96d298ca2d347","6368f2eea3e9634aebcc2f6b","636cea3b7e86b9d992bb9639","482.5","","","","39","","","","key","16.684363636363493","960","504.5","true","1","134.566277615616","1.6492674416640005","13","-1","-1","","","","","","","","","","","","",""
"psychophysics","80","229392","0.0-8.0-0.33","607f441b91a96d298ca2d347","6368f2eea3e9634aebcc2f6b","636cea3b7e86b9d992bb9639","986.6999999992549","","","","37","","","","key","16.684008474576178","960","504.5","true","1","134.566277615616","1.3194139533312006","14","1","-1","","","","","","","","","","","","",""
"psychophysics","81","230524","0.0-8.0-0.34","607f441b91a96d298ca2d347","6368f2eea3e9634aebcc2f6b","636cea3b7e86b9d992bb9639","129.30000000074506","","","","39","","","","key","16.684313432835634","960","504.5","true","1","135.8856915689472","1.3194139533312006","14","-1","1","","","","","","","","","","","","",""
"psychophysics","82","231720","0.0-8.0-0.35","607f441b91a96d298ca2d347","6368f2eea3e9634aebcc2f6b","636cea3b7e86b9d992bb9639","195.2000000011176","","","","37","","","","key","16.684295774647772","960","504.5","true","-1","135.8856915689472","1.0555311626649604","15","-1","-1","","","","","","","","","","","","",""
"psychophysics","83","232928","0.0-8.0-0.36","607f441b91a96d298ca2d347","6368f2eea3e9634aebcc2f6b","636cea3b7e86b9d992bb9639","203.2000000011176","","","","37","","","","key","16.6839577464791","960","504.5","true","-1","134.83016040628226","1.0555311626649604","15","-1","-1","","","","","","","","","","","","",""
"psychophysics","84","234088","0.0-8.0-0.37","607f441b91a96d298ca2d347","6368f2eea3e9634aebcc2f6b","636cea3b7e86b9d992bb9639","156","","","","39","","","","key","16.683608695652094","960","504.5","true","1","134.83016040628226","1.0555311626649604","15","-1","-1","","","","","","","","","","","","",""
"psychophysics","85","235320","0.0-8.0-0.38","607f441b91a96d298ca2d347","6368f2eea3e9634aebcc2f6b","636cea3b7e86b9d992bb9639","227","","","","39","","","","key","16.684260273972615","960","504.5","true","1","133.7746292436173","1.0555311626649604","15","-1","-1","","","","","","","","","","","","",""
"psychophysics","86","236544","0.0-8.0-0.39","607f441b91a96d298ca2d347","6368f2eea3e9634aebcc2f6b","636cea3b7e86b9d992bb9639","219.2999999988824","","","","39","","","","key","16.683958333333674","960","504.5","true","1","133.7746292436173","1.0555311626649604","15","-1","-1","","","","","","","","","","","","",""
"html-keyboard-response","87","240609","0.0-9.0","607f441b91a96d298ca2d347","6368f2eea3e9634aebcc2f6b","636cea3b7e86b9d992bb9639","4063.2000000011176","<p>Well Done !</p><p>Prepare for a new block.</p><p>DON'T EXIT THE FULL SCREEN MODE</p><p>Press the Spacebar to start.</p>","","","32","","","","","","","","","","","","","","","true","134.03320149596567","","","","","","","","","","",""
"psychophysics","88","243716","0.0-10.0-0.0","607f441b91a96d298ca2d347","6368f2eea3e9634aebcc2f6b","636cea3b7e86b9d992bb9639","2102.800000000745","","","","37","","","","key","16.681779569892402","960","504.5","true","1","180","30","0","1","","","","","","","","","","","","","",""
"psychophysics","89","246829","0.0-10.0-0.1","607f441b91a96d298ca2d347","6368f2eea3e9634aebcc2f6b","636cea3b7e86b9d992bb9639","2107.9000000003725","","","","37","","","","key","16.684383783783808","960","504.5","true","1","210","30","0","1","1","","","","","","","","","","","","",""
"psychophysics","90","247881","0.0-10.0-0.2","607f441b91a96d298ca2d347","6368f2eea3e9634aebcc2f6b","636cea3b7e86b9d992bb9639","50.5","","","","37","","","","key","16.684158730158945","960","504.5","true","-1","240","30","0","-1","1","","","","","","","","","","","","",""
"psychophysics","91","248920","0.0-10.0-0.3","607f441b91a96d298ca2d347","6368f2eea3e9634aebcc2f6b","636cea3b7e86b9d992bb9639","38.90000000037253","","","","37","","","","key","16.684163934426177","960","504.5","true","-1","240","24","1","-1","-1","","","","","","","","","","","","",""
"psychophysics","92","249960","0.0-10.0-0.4","607f441b91a96d298ca2d347","6368f2eea3e9634aebcc2f6b","636cea3b7e86b9d992bb9639","33.5","","","","37","","","","key","16.68406557377054","960","504.5","true","-1","216","24","1","-1","-1","","","","","","","","","","","","",""
"psychophysics","93","250984","0.0-10.0-0.5","607f441b91a96d298ca2d347","6368f2eea3e9634aebcc2f6b","636cea3b7e86b9d992bb9639","17.59999999962747","","","","37","","","","key","16.684426229508198","960","504.5","true","-1","216","24","1","-1","-1","","","","","","","","","","","","",""
"psychophysics","94","253971","0.0-10.0-0.6","607f441b91a96d298ca2d347","6368f2eea3e9634aebcc2f6b","636cea3b7e86b9d992bb9639","1986.5999999996275","","","","39","","","","key","16.68456179775272","960","504.5","true","1","192","24","1","-1","-1","","","","","","","","","","","","",""
"psychophysics","95","256267","0.0-10.0-0.7","607f441b91a96d298ca2d347","6368f2eea3e9634aebcc2f6b","636cea3b7e86b9d992bb9639","1294","","","","37","","","","key","16.68397794117653","960","504.5","true","-1","192","24","1","-1","-1","","","","","","","","","","","","",""
"psychophysics","96","257580","0.0-10.0-0.8","607f441b91a96d298ca2d347","6368f2eea3e9634aebcc2f6b","636cea3b7e86b9d992bb9639","310.19999999925494","","","","37","","","","key","16.684128205128125","960","504.5","true","-1","168","24","1","-1","-1","","","","","","","","","","","","",""
"psychophysics","97","258903","0.0-10.0-0.9","607f441b91a96d298ca2d347","6368f2eea3e9634aebcc2f6b","636cea3b7e86b9d992bb9639","321.7999999988824","","","","37","","","","key","16.68414102564081","960","504.5","true","-1","168","24","1","-1","-1","","","","","","","","","","","","",""
"psychophysics","98","260279","0.0-10.0-0.10","607f441b91a96d298ca2d347","6368f2eea3e9634aebcc2f6b","636cea3b7e86b9d992bb9639","370.59999999962747","","","","37","","","","key","16.68413414634131","960","504.5","true","-1","144","24","1","-1","-1","","","","","","","","","","","","",""
"psychophysics","99","261523","0.0-10.0-0.11","607f441b91a96d298ca2d347","6368f2eea3e9634aebcc2f6b","636cea3b7e86b9d992bb9639","237.59999999962747","","","","39","","","","key","16.68417808219148","960","504.5","true","1","144","24","1","-1","-1","","","","","","","","","","","","",""
"psychophysics","100","262911","0.0-10.0-0.12","607f441b91a96d298ca2d347","6368f2eea3e9634aebcc2f6b","636cea3b7e86b9d992bb9639","385.59999999962747","","","","39","","","","key","16.68413414634131","960","504.5","true","1","129","24","1","-1","-1","","","","","","","","","","","","",""
"psychophysics","101","264183","0.0-10.0-0.13","607f441b91a96d298ca2d347","6368f2eea3e9634aebcc2f6b","636cea3b7e86b9d992bb9639","270.5","","","","37","","","","key","16.684473684210772","960","504.5","true","-1","129","24","1","-1","-1","","","","","","","","","","","","",""
"psychophysics","102","265503","0.0-10.0-0.14","607f441b91a96d298ca2d347","6368f2eea3e9634aebcc2f6b","636cea3b7e86b9d992bb9639","313.2999999988824","","","","39","","","","key","16.683461538461508","960","504.5","true","1","129","24","1","-1","-1","","","","","","","","","","","","",""
"psychophysics","103","267135","0.0-10.0-0.15","607f441b91a96d298ca2d347","6368f2eea3e9634aebcc2f6b","636cea3b7e86b9d992bb9639","625.2999999988824","","","","37","","","","key","16.684134020618302","960","504.5","true","1","129","19.2","2","1","-1","","","","","","","","","","","","",""
"psychophysics","104","268420","0.0-10.0-0.16","607f441b91a96d298ca2d347","6368f2eea3e9634aebcc2f6b","636cea3b7e86b9d992bb9639","281.19999999925494","","","","37","","","","key","16.684197368421195","960","504.5","true","-1","148.2","19.2","2","-1","1","","","","","","","","","","","","",""
"psychophysics","105","269599","0.0-10.0-0.17","607f441b91a96d298ca2d347","6368f2eea3e9634aebcc2f6b","636cea3b7e86b9d992bb9639","177.19999999925494","","","","39","","","","key","16.684014492753413","960","504.5","true","1","148.2","15.36","3","-1","-1","","","","","","","","","","","","",""
"psychophysics","106","271291","0.0-10.0-0.18","607f441b91a96d298ca2d347","6368f2eea3e9634aebcc2f6b","636cea3b7e86b9d992bb9639","687","","","","39","","","","key","16.684138613861368","960","504.5","true","1","132.83999999999997","15.36","3","-1","-1","","","","","","","","","","","","",""
"psychophysics","107","272867","0.0-10.0-0.19","607f441b91a96d298ca2d347","6368f2eea3e9634aebcc2f6b","636cea3b7e86b9d992bb9639","573.9000000003725","","","","39","","","","key","16.68412903225818","960","504.5","true","1","132.83999999999997","15.36","3","-1","-1","","","","","","","","","","","","",""
"psychophysics","108","275943","0.0-10.0-0.20","607f441b91a96d298ca2d347","6368f2eea3e9634aebcc2f6b","636cea3b7e86b9d992bb9639","2074.2000000011176","","","","39","","","","key","16.684141304347737","960","504.5","true","-1","129","12.287999999999998","4","1","-1","","","","","","","","","","","","",""
"psychophysics","109","277163","0.0-10.0-0.21","607f441b91a96d298ca2d347","6368f2eea3e9634aebcc2f6b","636cea3b7e86b9d992bb9639","218.80000000074506","","","","39","","","","key","16.684124999999767","960","504.5","true","1","141.288","12.287999999999998","4","-1","1","","","","","","","","","","","","",""
"psychophysics","110","278239","0.0-10.0-0.22","607f441b91a96d298ca2d347","6368f2eea3e9634aebcc2f6b","636cea3b7e86b9d992bb9639","73.59999999962747","","","","37","","","","key","16.684126984127538","960","504.5","true","-1","141.288","9.8304","5","-1","-1","","","","","","","","","","","","",""
"psychophysics","111","279902","0.0-10.0-0.23","607f441b91a96d298ca2d347","6368f2eea3e9634aebcc2f6b","636cea3b7e86b9d992bb9639","656.7999999988824","","","","39","","","","key","16.684141414141813","960","504.5","true","1","131.4576","9.8304","5","-1","-1","","","","","","","","","","","","",""
"psychophysics","112","281038","0.0-10.0-0.24","607f441b91a96d298ca2d347","6368f2eea3e9634aebcc2f6b","636cea3b7e86b9d992bb9639","128.5","","","","37","","","","key","16.6841343283582","960","504.5","true","-1","131.4576","9.8304","5","-1","-1","","","","","","","","","","","","",""
"psychophysics","113","282434","0.0-10.0-0.25","607f441b91a96d298ca2d347","6368f2eea3e9634aebcc2f6b","636cea3b7e86b9d992bb9639","388.5","","","","37","","","","key","16.683939759036054","960","504.5","true","1","129","7.864319999999999","6","1","-1","","","","","","","","","","","","",""
"psychophysics","114","283614","0.0-10.0-0.26","607f441b91a96d298ca2d347","6368f2eea3e9634aebcc2f6b","636cea3b7e86b9d992bb9639","176.5","","","","37","","","","key","16.684144927536313","960","504.5","true","-1","136.86432","7.864319999999999","6","-1","1","","","","","","","","","","","","",""
"psychophysics","115","284782","0.0-10.0-0.27","607f441b91a96d298ca2d347","6368f2eea3e9634aebcc2f6b","636cea3b7e86b9d992bb9639","164.19999999925494","","","","39","","","","key","16.684144927536313","960","504.5","true","1","136.86432","6.291456","7","-1","-1","","","","","","","","","","","","",""
"psychophysics","116","286278","0.0-10.0-0.28","607f441b91a96d298ca2d347","6368f2eea3e9634aebcc2f6b","636cea3b7e86b9d992bb9639","491.5","","","","39","","","","key","16.684123595505483","960","504.5","true","-1","130.57286399999998","5.033164800000001","8","1","-1","","","","","","","","","","","","",""
"psychophysics","117","287534","0.0-10.0-0.29","607f441b91a96d298ca2d347","6368f2eea3e9634aebcc2f6b","636cea3b7e86b9d992bb9639","248.09999999962747","","","","37","","","","key","16.68413513513499","960","504.5","true","1","135.6060288","5.033164800000001","8","1","1","","","","","","","","","","","","",""
"psychophysics","118","288730","0.0-10.0-0.30","607f441b91a96d298ca2d347","6368f2eea3e9634aebcc2f6b","636cea3b7e86b9d992bb9639","191","","","","37","","","","key","16.683126760563077","960","504.5","true","-1","140.6391936","5.033164800000001","8","-1","1","","","","","","","","","","","","",""
"psychophysics","119","289854","0.0-10.0-0.31","607f441b91a96d298ca2d347","6368f2eea3e9634aebcc2f6b","636cea3b7e86b9d992bb9639","119.80000000074506","","","","39","","","","key","16.683621212121302","960","504.5","true","1","140.6391936","4.0265318400000005","9","-1","-1","","","","","","","","","","","","",""
"psychophysics","120","291014","0.0-10.0-0.32","607f441b91a96d298ca2d347","6368f2eea3e9634aebcc2f6b","636cea3b7e86b9d992bb9639","156","","","","39","","","","key","16.684130434782844","960","504.5","true","1","136.61266176","4.0265318400000005","9","-1","-1","","","","","","","","","","","","",""
"psychophysics","121","292142","0.0-10.0-0.33","607f441b91a96d298ca2d347","6368f2eea3e9634aebcc2f6b","636cea3b7e86b9d992bb9639","119.90000000037253","","","","39","","","","key","16.68401515151455","960","504.5","true","1","136.61266176","4.0265318400000005","9","-1","-1","","","","","","","","","","","","",""
"psychophysics","122","293814","0.0-10.0-0.34","607f441b91a96d298ca2d347","6368f2eea3e9634aebcc2f6b","636cea3b7e86b9d992bb9639","669.7000000011176","","","","37","","","","key","16.684130000000003","960","504.5","true","-1","132.58612992000002","4.0265318400000005","9","-1","-1","","","","","","","","","","","","",""
"psychophysics","123","295090","0.0-10.0-0.35","607f441b91a96d298ca2d347","6368f2eea3e9634aebcc2f6b","636cea3b7e86b9d992bb9639","268.80000000074506","","","","39","","","","key","16.68437333333306","960","504.5","true","1","132.58612992000002","4.0265318400000005","9","-1","-1","","","","","","","","","","","","",""
"psychophysics","124","296922","0.0-10.0-0.36","607f441b91a96d298ca2d347","6368f2eea3e9634aebcc2f6b","636cea3b7e86b9d992bb9639","828.6000000014901","","","","39","","","","key","16.68379816513748","960","504.5","true","-1","129","3.2212254720000004","10","1","-1","","","","","","","","","","","","",""
"psychophysics","125","299426","0.0-10.0-0.37","607f441b91a96d298ca2d347","6368f2eea3e9634aebcc2f6b","636cea3b7e86b9d992bb9639","1500.5999999996275","","","","37","","","","key","16.684046979865837","960","504.5","true","1","132.22122547200001","3.2212254720000004","10","1","1","","","","","","","","","","","","",""
"psychophysics","126","301103","0.0-10.0-0.38","607f441b91a96d298ca2d347","6368f2eea3e9634aebcc2f6b","636cea3b7e86b9d992bb9639","672.9000000003725","","","","37","","","","key","16.68452525252507","960","504.5","true","-1","135.44245094400003","3.2212254720000004","10","-1","1","","","","","","","","","","","","",""
"psychophysics","127","302467","0.0-10.0-0.39","607f441b91a96d298ca2d347","6368f2eea3e9634aebcc2f6b","636cea3b7e86b9d992bb9639","362.30000000074506","","","","37","","","","key","16.684135802468877","960","504.5","true","-1","135.44245094400003","2.5769803776000004","11","-1","-1","","","","","","","","","","","","",""
"html-keyboard-response","128","305003","0.0-11.0","607f441b91a96d298ca2d347","6368f2eea3e9634aebcc2f6b","636cea3b7e86b9d992bb9639","2535.10000000149","<p>Well Done !</p><p>Prepare for a new block.</p><p>DON'T EXIT THE FULL SCREEN MODE</p><p>Press the Spacebar to start.</p>","","","32","","","","","","","","","","","","","","","true","134.71264204800002","","","","","","","","","","",""
"psychophysics","129","307870","0.0-12.0-0.0","607f441b91a96d298ca2d347","6368f2eea3e9634aebcc2f6b","636cea3b7e86b9d992bb9639","1864.1000000014901","","","","39","","","","key","16.683697674418717","960","504.5","true","-1","180","30","0","1","","","","","","","","","","","","","",""
"psychophysics","130","310129","0.0-12.0-0.1","607f441b91a96d298ca2d347","6368f2eea3e9634aebcc2f6b","636cea3b7e86b9d992bb9639","1251.9000000003725","","","","39","","","","key","16.684103703703645","960","504.5","true","1","210","30","0","-1","1","","","","","","","","","","","","",""
"psychophysics","131","311822","0.0-12.0-0.2","607f441b91a96d298ca2d347","6368f2eea3e9634aebcc2f6b","636cea3b7e86b9d992bb9639","691.5","","","","39","","","","key","16.684139999999896","960","504.5","true","1","210","24","1","-1","-1","","","","","","","","","","","","",""
"psychophysics","132","312969","0.0-12.0-0.3","607f441b91a96d298ca2d347","6368f2eea3e9634aebcc2f6b","636cea3b7e86b9d992bb9639","138.69999999925494","","","","37","","","","key","16.684132352941294","960","504.5","true","-1","186","24","1","-1","-1","","","","","","","","","","","","",""
"psychophysics","133","314373","0.0-12.0-0.4","607f441b91a96d298ca2d347","6368f2eea3e9634aebcc2f6b","636cea3b7e86b9d992bb9639","399.69999999925494","","","","37","","","","key","16.6841807228917","960","504.5","true","-1","186","24","1","-1","-1","","","","","","","","","","","","",""
"psychophysics","134","315645","0.0-12.0-0.5","607f441b91a96d298ca2d347","6368f2eea3e9634aebcc2f6b","636cea3b7e86b9d992bb9639","263.5","","","","39","","","","key","16.683986666666655","960","504.5","true","1","162","24","1","-1","-1","","","","","","","","","","","","",""
"psychophysics","135","316925","0.0-12.0-0.6","607f441b91a96d298ca2d347","6368f2eea3e9634aebcc2f6b","636cea3b7e86b9d992bb9639","272.2999999988824","","","","37","","","","key","16.684631578947453","960","504.5","true","-1","162","24","1","-1","-1","","","","","","","","","","","","",""
"psychophysics","136","318273","0.0-12.0-0.7","607f441b91a96d298ca2d347","6368f2eea3e9634aebcc2f6b","636cea3b7e86b9d992bb9639","339.5","","","","37","","","","key","16.684137499999633","960","504.5","true","-1","138","24","1","-1","-1","","","","","","","","","","","","",""
"psychophysics","137","319517","0.0-12.0-0.8","607f441b91a96d298ca2d347","6368f2eea3e9634aebcc2f6b","636cea3b7e86b9d992bb9639","239.39999999850988","","","","39","","","","key","16.684164383561885","960","504.5","true","1","138","24","1","-1","-1","","","","","","","","","","","","",""
"psychophysics","138","321761","0.0-12.0-0.9","607f441b91a96d298ca2d347","6368f2eea3e9634aebcc2f6b","636cea3b7e86b9d992bb9639","1238.0999999996275","","","","37","","","","key","16.684141791044688","960","504.5","true","1","129","19.2","2","1","-1","","","","","","","","","","","","",""
"psychophysics","139","323010","0.0-12.0-0.10","607f441b91a96d298ca2d347","6368f2eea3e9634aebcc2f6b","636cea3b7e86b9d992bb9639","243.69999999925494","","","","37","","","","key","16.683945945945467","960","504.5","true","-1","148.2","19.2","2","-1","1","","","","","","","","","","","","",""
"psychophysics","140","324145","0.0-12.0-0.11","607f441b91a96d298ca2d347","6368f2eea3e9634aebcc2f6b","636cea3b7e86b9d992bb9639","134.5","","","","39","","","","key","16.6846119402986","960","504.5","true","1","148.2","15.36","3","-1","-1","","","","","","","","","","","","",""
"psychophysics","141","325661","0.0-12.0-0.12","607f441b91a96d298ca2d347","6368f2eea3e9634aebcc2f6b","636cea3b7e86b9d992bb9639","511","","","","37","","","","key","16.68359550561761","960","504.5","true","1","132.83999999999997","12.287999999999998","4","1","-1","","","","","","","","","","","","",""
"psychophysics","142","326761","0.0-12.0-0.13","607f441b91a96d298ca2d347","6368f2eea3e9634aebcc2f6b","636cea3b7e86b9d992bb9639","98.80000000074506","","","","39","","","","key","16.68526153846178","960","504.5","true","1","145.128","12.287999999999998","4","-1","1","","","","","","","","","","","","",""
"psychophysics","143","327981","0.0-12.0-0.14","607f441b91a96d298ca2d347","6368f2eea3e9634aebcc2f6b","636cea3b7e86b9d992bb9639","216.69999999925494","","","","39","","","","key","16.684164383561885","960","504.5","true","1","145.128","9.8304","5","-1","-1","","","","","","","","","","","","",""
"psychophysics","144","329233","0.0-12.0-0.15","607f441b91a96d298ca2d347","6368f2eea3e9634aebcc2f6b","636cea3b7e86b9d992bb9639","251.30000000074506","","","","37","","","","key","16.684094594594885","960","504.5","true","-1","135.2976","9.8304","5","-1","-1","","","","","","","","","","","","",""
"psychophysics","145","330397","0.0-12.0-0.16","607f441b91a96d298ca2d347","6368f2eea3e9634aebcc2f6b","636cea3b7e86b9d992bb9639","163","","","","39","","","","key","16.684279411764958","960","504.5","true","1","135.2976","9.8304","5","-1","-1","","","","","","","","","","","","",""
"psychophysics","146","331989","0.0-12.0-0.17","607f441b91a96d298ca2d347","6368f2eea3e9634aebcc2f6b","636cea3b7e86b9d992bb9639","587.5999999996275","","","","39","","","","key","16.683947368420807","960","504.5","true","-1","129","7.864319999999999","6","1","-1","","","","","","","","","","","","",""
"psychophysics","147","333241","0.0-12.0-0.18","607f441b91a96d298ca2d347","6368f2eea3e9634aebcc2f6b","636cea3b7e86b9d992bb9639","242.80000000074506","","","","39","","","","key","16.68410810810825","960","504.5","true","1","136.86432","7.864319999999999","6","-1","1","","","","","","","","","","","","",""
"psychophysics","148","334497","0.0-12.0-0.19","607f441b91a96d298ca2d347","6368f2eea3e9634aebcc2f6b","636cea3b7e86b9d992bb9639","251.40000000037253","","","","39","","","","key","16.684810810810507","960","504.5","true","1","136.86432","6.291456","7","-1","-1","","","","","","","","","","","","",""
"psychophysics","149","336701","0.0-12.0-0.20","607f441b91a96d298ca2d347","6368f2eea3e9634aebcc2f6b","636cea3b7e86b9d992bb9639","1199.4000000003725","","","","39","","","","key","16.684236641221446","960","504.5","true","-1","130.57286399999998","5.033164800000001","8","1","-1","","","","","","","","","","","","",""
"psychophysics","150","337889","0.0-12.0-0.21","607f441b91a96d298ca2d347","6368f2eea3e9634aebcc2f6b","636cea3b7e86b9d992bb9639","181.09999999962747","","","","37","","","","key","16.684285714286048","960","504.5","true","-1","135.6060288","5.033164800000001","8","-1","1","","","","","","","","","","","","",""
"psychophysics","151","339040","0.0-12.0-0.22","607f441b91a96d298ca2d347","6368f2eea3e9634aebcc2f6b","636cea3b7e86b9d992bb9639","148.09999999962747","","","","39","","","","key","16.68408823529385","960","504.5","true","1","135.6060288","4.0265318400000005","9","-1","-1","","","","","","","","","","","","",""
"psychophysics","152","340896","0.0-12.0-0.23","607f441b91a96d298ca2d347","6368f2eea3e9634aebcc2f6b","636cea3b7e86b9d992bb9639","853","","","","39","","","","key","16.684135135135254","960","504.5","true","-1","131.57949696","3.2212254720000004","10","1","-1","","","","","","","","","","","","",""
"psychophysics","153","342256","0.0-12.0-0.24","607f441b91a96d298ca2d347","6368f2eea3e9634aebcc2f6b","636cea3b7e86b9d992bb9639","354.09999999962747","","","","37","","","","key","16.68413750000036","960","504.5","true","-1","134.800722432","3.2212254720000004","10","-1","1","","","","","","","","","","","","",""
"psychophysics","154","343432","0.0-12.0-0.25","607f441b91a96d298ca2d347","6368f2eea3e9634aebcc2f6b","636cea3b7e86b9d992bb9639","170.19999999925494","","","","37","","","","key","16.68425714285695","960","504.5","true","-1","134.800722432","2.5769803776000004","11","-1","-1","","","","","","","","","","","","",""
"psychophysics","155","344820","0.0-12.0-0.26","607f441b91a96d298ca2d347","6368f2eea3e9634aebcc2f6b","636cea3b7e86b9d992bb9639","381.80000000074506","","","","39","","","","key","16.68396341463369","960","504.5","true","1","132.2237420544","2.5769803776000004","11","-1","-1","","","","","","","","","","","","",""
"psychophysics","156","346216","0.0-12.0-0.27","607f441b91a96d298ca2d347","6368f2eea3e9634aebcc2f6b","636cea3b7e86b9d992bb9639","393.80000000074506","","","","39","","","","key","16.68414634146313","960","504.5","true","-1","132.2237420544","2.0615843020800004","12","1","-1","","","","","","","","","","","","",""
"psychophysics","157","347680","0.0-12.0-0.28","607f441b91a96d298ca2d347","6368f2eea3e9634aebcc2f6b","636cea3b7e86b9d992bb9639","462.59999999962747","","","","39","","","","key","16.684160919540197","960","504.5","true","-1","134.28532635648","2.0615843020800004","12","1","1","","","","","","","","","","","","",""
"psychophysics","158","348876","0.0-12.0-0.29","607f441b91a96d298ca2d347","6368f2eea3e9634aebcc2f6b","636cea3b7e86b9d992bb9639","189.7000000011176","","","","39","","","","key","16.68415492957681","960","504.5","true","1","136.34691065856","2.0615843020800004","12","-1","1","","","","","","","","","","","","",""
"psychophysics","159","350140","0.0-12.0-0.30","607f441b91a96d298ca2d347","6368f2eea3e9634aebcc2f6b","636cea3b7e86b9d992bb9639","261.59999999962747","","","","39","","","","key","16.684200000000033","960","504.5","true","1","136.34691065856","1.6492674416640005","13","-1","-1","","","","","","","","","","","","",""
"psychophysics","160","351620","0.0-12.0-0.31","607f441b91a96d298ca2d347","6368f2eea3e9634aebcc2f6b","636cea3b7e86b9d992bb9639","477.59999999962747","","","","39","","","","key","16.68389655172426","960","504.5","true","-1","134.697643216896","1.3194139533312006","14","1","-1","","","","","","","","","","","","",""
"psychophysics","161","352840","0.0-12.0-0.32","607f441b91a96d298ca2d347","6368f2eea3e9634aebcc2f6b","636cea3b7e86b9d992bb9639","217.5","","","","39","","","","key","16.684263888889593","960","504.5","true","1","136.01705717022722","1.3194139533312006","14","-1","1","","","","","","","","","","","","",""
"psychophysics","162","354136","0.0-12.0-0.33","607f441b91a96d298ca2d347","6368f2eea3e9634aebcc2f6b","636cea3b7e86b9d992bb9639","294.40000000037253","","","","37","","","","key","16.68431168831144","960","504.5","true","-1","136.01705717022722","1.0555311626649604","15","-1","-1","","","","","","","","","","","","",""
"psychophysics","163","355468","0.0-12.0-0.34","607f441b91a96d298ca2d347","6368f2eea3e9634aebcc2f6b","636cea3b7e86b9d992bb9639","326.30000000074506","","","","37","","","","key","16.6844050632915","960","504.5","true","-1","134.96152600756227","1.0555311626649604","15","-1","-1","","","","","","","","","","","","",""
"psychophysics","164","356752","0.0-12.0-0.35","607f441b91a96d298ca2d347","6368f2eea3e9634aebcc2f6b","636cea3b7e86b9d992bb9639","282.2000000011176","","","","39","","","","key","16.6845921052629","960","504.5","true","1","134.96152600756227","1.0555311626649604","15","-1","-1","","","","","","","","","","","","",""
"psychophysics","165","358320","0.0-12.0-0.36","607f441b91a96d298ca2d347","6368f2eea3e9634aebcc2f6b","636cea3b7e86b9d992bb9639","562.5","","","","39","","","","key","16.683935483871277","960","504.5","true","-1","133.90599484489732","1","16","1","-1","","","","","","","","","","","","",""
"psychophysics","166","359496","0.0-12.0-0.37","607f441b91a96d298ca2d347","6368f2eea3e9634aebcc2f6b","636cea3b7e86b9d992bb9639","170","","","","37","","","","key","16.684507246376388","960","504.5","true","-1","134.90599484489732","1","16","-1","1","","","","","","","","","","","","",""
"psychophysics","167","360829","0.0-12.0-0.38","607f441b91a96d298ca2d347","6368f2eea3e9634aebcc2f6b","636cea3b7e86b9d992bb9639","329.90000000037253","","","","39","","","","key","16.684101265822715","960","504.5","true","1","134.90599484489732","1","17","-1","-1","","","","","","","","","","","","",""
"psychophysics","168","362173","0.0-12.0-0.39","607f441b91a96d298ca2d347","6368f2eea3e9634aebcc2f6b","636cea3b7e86b9d992bb9639","342","","","","39","","","","key","16.68397499999992","960","504.5","true","1","133.90599484489732","1","17","-1","-1","","","","","","","","","","","","",""
"html-keyboard-response","169","364525","0.0-13.0","607f441b91a96d298ca2d347","6368f2eea3e9634aebcc2f6b","636cea3b7e86b9d992bb9639","2351.699999999255","<p>Well Done !</p><p>Prepare for a new block.</p><p>DON'T EXIT THE FULL SCREEN MODE</p><p>Press the Spacebar to start.</p>","","","32","","","","","","","","","","","","","","","true","134.70040954443095","","","","","","","","","","",""
"html-keyboard-response","170","364628","0.0-14.0","607f441b91a96d298ca2d347","6368f2eea3e9634aebcc2f6b","636cea3b7e86b9d992bb9639","null","","","","null","","","","","","","","","","","","","","","","","133.9158874494457","true","139.8317748988914","","","","","","","",""
"instructions","171","396357","0.0-15.0","607f441b91a96d298ca2d347","6368f2eea3e9634aebcc2f6b","636cea3b7e86b9d992bb9639","31727.5","","","","","","","[{""page_index"":0,""viewing_time"":25381.699999999255},{""page_index"":1,""viewing_time"":3553.7000000011176},{""page_index"":2,""viewing_time"":2791.7999999988824}]","","","","","","","","","","","","","","","","","","","","","","","",""
"psychophysics","172","399366","0.0-16.0-0.0","607f441b91a96d298ca2d347","6368f2eea3e9634aebcc2f6b","636cea3b7e86b9d992bb9639","null","","","","null","","","","key","16.722683333333894","960","504.5","","","","","","","","","","","","","","","","","","","",""
"psychophysics","173","399870","0.0-16.0-1.0","607f441b91a96d298ca2d347","6368f2eea3e9634aebcc2f6b","636cea3b7e86b9d992bb9639","null","","","","null","","","","key","16.68413793103336","960","504.5","","","","","","","","","","","","","140","1","4","false","","","",""
"psychophysics","174","401798","0.0-16.0-2.0","607f441b91a96d298ca2d347","6368f2eea3e9634aebcc2f6b","636cea3b7e86b9d992bb9639","1927.2000000011176","","","","77","","","","key","16.684217391304326","960","504.5","","","","","","","","","","","","","","","","","","","",""
"psychophysics","175","402806","0.0-16.0-0.1","607f441b91a96d298ca2d347","6368f2eea3e9634aebcc2f6b","636cea3b7e86b9d992bb9639","null","","","","null","","","","key","16.68413559322036","960","504.5","","","","","","","","","","","","","","","","","","","",""
"psychophysics","176","403310","0.0-16.0-1.1","607f441b91a96d298ca2d347","6368f2eea3e9634aebcc2f6b","636cea3b7e86b9d992bb9639","null","","","","null","","","","key","16.68313793103604","960","504.5","","","","","","","","","","","","","140","1","6","false","","","",""
"psychophysics","177","403970","0.0-16.0-2.1","607f441b91a96d298ca2d347","6368f2eea3e9634aebcc2f6b","636cea3b7e86b9d992bb9639","658.1999999992549","","","","77","","","","key","16.684128205127752","960","504.5","","","","","","","","","","","","","","","","","","","",""
"psychophysics","178","404975","0.0-16.0-0.2","607f441b91a96d298ca2d347","6368f2eea3e9634aebcc2f6b","636cea3b7e86b9d992bb9639","null","","","","null","","","","key","16.68413559322036","960","504.5","","","","","","","","","","","","","","","","","","","",""
"psychophysics","179","405479","0.0-16.0-1.2","607f441b91a96d298ca2d347","6368f2eea3e9634aebcc2f6b","636cea3b7e86b9d992bb9639","null","","","","null","","","","key","16.686241379308772","960","504.5","","","","","","","","","","","","","140","1","0","false","","","",""
"psychophysics","180","406114","0.0-16.0-2.2","607f441b91a96d298ca2d347","6368f2eea3e9634aebcc2f6b","636cea3b7e86b9d992bb9639","634.6999999992549","","","","77","","","","key","16.68542105263087","960","504.5","","","","","","","","","","","","","","","","","","","",""
"psychophysics","181","407119","0.0-16.0-0.3","607f441b91a96d298ca2d347","6368f2eea3e9634aebcc2f6b","636cea3b7e86b9d992bb9639","null","","","","null","","","","key","16.68410169491564","960","504.5","","","","","","","","","","","","","","","","","","","",""
"psychophysics","182","407623","0.0-16.0-1.3","607f441b91a96d298ca2d347","6368f2eea3e9634aebcc2f6b","636cea3b7e86b9d992bb9639","null","","","","null","","","","key","16.682413793102725","960","504.5","","","","","","","","","","","","","140","-1","0","false","","","",""
"psychophysics","183","408126","0.0-16.0-2.3","607f441b91a96d298ca2d347","6368f2eea3e9634aebcc2f6b","636cea3b7e86b9d992bb9639","502.59999999962747","","","","90","","","","key","16.682448275862985","960","504.5","","","","","","","","","","","","","","","","","","","",""
"psychophysics","184","409133","0.0-16.0-0.4","607f441b91a96d298ca2d347","6368f2eea3e9634aebcc2f6b","636cea3b7e86b9d992bb9639","null","","","","null","","","","key","16.683694915255035","960","504.5","","","","","","","","","","","","","","","","","","","",""
"psychophysics","185","409634","0.0-16.0-1.4","607f441b91a96d298ca2d347","6368f2eea3e9634aebcc2f6b","636cea3b7e86b9d992bb9639","null","","","","null","","","","key","16.681896551722932","960","504.5","","","","","","","","","","","","","140","-1","4","false","","","",""
"psychophysics","186","410058","0.0-16.0-2.4","607f441b91a96d298ca2d347","6368f2eea3e9634aebcc2f6b","636cea3b7e86b9d992bb9639","422.59999999962747","","","","90","","","","key","16.68412000000011","960","504.5","","","","","","","","","","","","","","","","","","","",""
"psychophysics","187","411063","0.0-16.0-0.5","607f441b91a96d298ca2d347","6368f2eea3e9634aebcc2f6b","636cea3b7e86b9d992bb9639","null","","","","null","","","","key","16.68413559322036","960","504.5","","","","","","","","","","","","","","","","","","","",""
"psychophysics","188","411567","0.0-16.0-1.5","607f441b91a96d298ca2d347","6368f2eea3e9634aebcc2f6b","636cea3b7e86b9d992bb9639","null","","","","null","","","","key","16.684137931035366","960","504.5","","","","","","","","","","","","","140","1","5","false","","","",""
"psychophysics","189","411990","0.0-16.0-2.5","607f441b91a96d298ca2d347","6368f2eea3e9634aebcc2f6b","636cea3b7e86b9d992bb9639","422.59999999962747","","","","77","","","","key","16.68315999999875","960","504.5","","","","","","","","","","","","","","","","","","","",""
"psychophysics","190","412999","0.0-16.0-0.6","607f441b91a96d298ca2d347","6368f2eea3e9634aebcc2f6b","636cea3b7e86b9d992bb9639","null","","","","null","","","","key","16.68413559322036","960","504.5","","","","","","","","","","","","","","","","","","","",""
"psychophysics","191","413503","0.0-16.0-1.6","607f441b91a96d298ca2d347","6368f2eea3e9634aebcc2f6b","636cea3b7e86b9d992bb9639","null","","","","null","","","","key","16.680931034483866","960","504.5","","","","","","","","","","","","","140","1","2","false","","","",""
"psychophysics","192","414826","0.0-16.0-2.6","607f441b91a96d298ca2d347","6368f2eea3e9634aebcc2f6b","636cea3b7e86b9d992bb9639","1322.0999999996275","","","","90","","","","key","16.684481012658512","960","504.5","","","","","","","","","","","","","","","","","","","",""
"psychophysics","193","415831","0.0-16.0-0.7","607f441b91a96d298ca2d347","6368f2eea3e9634aebcc2f6b","636cea3b7e86b9d992bb9639","null","","","","null","","","","key","16.68383050847491","960","504.5","","","","","","","","","","","","","","","","","","","",""
"psychophysics","194","416335","0.0-16.0-1.7","607f441b91a96d298ca2d347","6368f2eea3e9634aebcc2f6b","636cea3b7e86b9d992bb9639","null","","","","null","","","","key","16.68299999999902","960","504.5","","","","","","","","","","","","","140","-1","6","false","","","",""
"psychophysics","195","416890","0.0-16.0-2.7","607f441b91a96d298ca2d347","6368f2eea3e9634aebcc2f6b","636cea3b7e86b9d992bb9639","554.1000000014901","","","","77","","","","key","16.684124999999767","960","504.5","","","","","","","","","","","","","","","","","","","",""
"psychophysics","196","417892","0.0-16.0-0.8","607f441b91a96d298ca2d347","6368f2eea3e9634aebcc2f6b","636cea3b7e86b9d992bb9639","null","","","","null","","","","key","16.684338983050665","960","504.5","","","","","","","","","","","","","","","","","","","",""
"psychophysics","197","418393","0.0-16.0-1.8","607f441b91a96d298ca2d347","6368f2eea3e9634aebcc2f6b","636cea3b7e86b9d992bb9639","null","","","","null","","","","key","16.68353333333313","960","504.5","","","","","","","","","","","","","140","-1","3","false","","","",""
"psychophysics","198","419574","0.0-16.0-2.8","607f441b91a96d298ca2d347","6368f2eea3e9634aebcc2f6b","636cea3b7e86b9d992bb9639","1179.800000000745","","","","77","","","","key","16.684101449275065","960","504.5","","","","","","","","","","","","","","","","","","","",""
"psychophysics","199","420579","0.0-16.0-0.9","607f441b91a96d298ca2d347","6368f2eea3e9634aebcc2f6b","636cea3b7e86b9d992bb9639","null","","","","null","","","","key","16.68413559322036","960","504.5","","","","","","","","","","","","","","","","","","","",""
"psychophysics","200","421087","0.0-16.0-1.9","607f441b91a96d298ca2d347","6368f2eea3e9634aebcc2f6b","636cea3b7e86b9d992bb9639","null","","","","null","","","","key","16.684133333332525","960","504.5","","","","","","","","","","","","","140","-1","2","false","","","",""
"psychophysics","201","421743","0.0-16.0-2.9","607f441b91a96d298ca2d347","6368f2eea3e9634aebcc2f6b","636cea3b7e86b9d992bb9639","654.9000000003725","","","","90","","","","key","16.684421052630857","960","504.5","","","","","","","","","","","","","","","","","","","",""
"psychophysics","202","422748","0.0-16.0-0.10","607f441b91a96d298ca2d347","6368f2eea3e9634aebcc2f6b","636cea3b7e86b9d992bb9639","null","","","","null","","","","key","16.683694915254048","960","504.5","","","","","","","","","","","","","","","","","","","",""
"psychophysics","203","423249","0.0-16.0-1.10","607f441b91a96d298ca2d347","6368f2eea3e9634aebcc2f6b","636cea3b7e86b9d992bb9639","null","","","","null","","","","key","16.684133333334465","960","504.5","","","","","","","","","","","","","140","-1","5","false","","","",""
"psychophysics","204","423683","0.0-16.0-2.10","607f441b91a96d298ca2d347","6368f2eea3e9634aebcc2f6b","636cea3b7e86b9d992bb9639","433.1000000014901","","","","77","","","","key","16.683600000001025","960","504.5","","","","","","","","","","","","","","","","","","","",""
"psychophysics","205","424684","0.0-16.0-0.11","607f441b91a96d298ca2d347","6368f2eea3e9634aebcc2f6b","636cea3b7e86b9d992bb9639","null","","","","null","","","","key","16.684118644067016","960","504.5","","","","","","","","","","","","","","","","","","","",""
"psychophysics","206","425191","0.0-16.0-1.11","607f441b91a96d298ca2d347","6368f2eea3e9634aebcc2f6b","636cea3b7e86b9d992bb9639","null","","","","null","","","","key","16.68255172413774","960","504.5","","","","","","","","","","","","","140","1","3","false","","","",""
"psychophysics","207","425730","0.0-16.0-2.11","607f441b91a96d298ca2d347","6368f2eea3e9634aebcc2f6b","636cea3b7e86b9d992bb9639","537.6000000014901","","","","90","","","","key","16.684354838710505","960","504.5","","","","","","","","","","","","","","","","","","","",""
"psychophysics","208","426735","0.0-16.0-0.12","607f441b91a96d298ca2d347","6368f2eea3e9634aebcc2f6b","636cea3b7e86b9d992bb9639","null","","","","null","","","","key","16.68413559322036","960","504.5","","","","","","","","","","","","","","","","","","","",""
"psychophysics","209","427236","0.0-16.0-1.12","607f441b91a96d298ca2d347","6368f2eea3e9634aebcc2f6b","636cea3b7e86b9d992bb9639","null","","","","null","","","","key","16.684103448275106","960","504.5","","","","","","","","","","","","","140","-1","3","false","","","",""
"psychophysics","210","428058","0.0-16.0-2.12","607f441b91a96d298ca2d347","6368f2eea3e9634aebcc2f6b","636cea3b7e86b9d992bb9639","819.9000000003725","","","","90","","","","key","16.684102040816487","960","504.5","","","","","","","","","","","","","","","","","","","",""
"psychophysics","211","429063","0.0-16.0-0.13","607f441b91a96d298ca2d347","6368f2eea3e9634aebcc2f6b","636cea3b7e86b9d992bb9639","null","","","","null","","","","key","16.68413559322036","960","504.5","","","","","","","","","","","","","","","","","","","",""
"psychophysics","212","429567","0.0-16.0-1.13","607f441b91a96d298ca2d347","6368f2eea3e9634aebcc2f6b","636cea3b7e86b9d992bb9639","null","","","","null","","","","key","16.684103448275106","960","504.5","","","","","","","","","","","","","140","1","6","false","","","",""
"psychophysics","213","429986","0.0-16.0-2.13","607f441b91a96d298ca2d347","6368f2eea3e9634aebcc2f6b","636cea3b7e86b9d992bb9639","417.40000000037253","","","","77","","","","key","16.684125000002194","960","504.5","","","","","","","","","","","","","","","","","","","",""
"psychophysics","214","430989","0.0-16.0-0.14","607f441b91a96d298ca2d347","6368f2eea3e9634aebcc2f6b","636cea3b7e86b9d992bb9639","null","","","","null","","","","key","16.68413559322036","960","504.5","","","","","","","","","","","","","","","","","","","",""
"psychophysics","215","431491","0.0-16.0-1.14","607f441b91a96d298ca2d347","6368f2eea3e9634aebcc2f6b","636cea3b7e86b9d992bb9639","null","","","","null","","","","key","16.686103448275766","960","504.5","","","","","","","","","","","","","140","-1","2","false","","","",""
"psychophysics","216","431862","0.0-16.0-2.14","607f441b91a96d298ca2d347","6368f2eea3e9634aebcc2f6b","636cea3b7e86b9d992bb9639","369.5","","","","90","","","","key","16.68095454545321","960","504.5","","","","","","","","","","","","","","","","","","","",""
"psychophysics","217","432863","0.0-16.0-0.15","607f441b91a96d298ca2d347","6368f2eea3e9634aebcc2f6b","636cea3b7e86b9d992bb9639","null","","","","null","","","","key","16.684966101694922","960","504.5","","","","","","","","","","","","","","","","","","","",""
"psychophysics","218","433368","0.0-16.0-1.15","607f441b91a96d298ca2d347","6368f2eea3e9634aebcc2f6b","636cea3b7e86b9d992bb9639","null","","","","null","","","","key","16.68413793103336","960","504.5","","","","","","","","","","","","","140","1","0","false","","","",""
"psychophysics","219","434698","0.0-16.0-2.15","607f441b91a96d298ca2d347","6368f2eea3e9634aebcc2f6b","636cea3b7e86b9d992bb9639","1329.300000000745","","","","90","","","","key","16.684126582278875","960","504.5","","","","","","","","","","","","","","","","","","","",""
"psychophysics","220","435704","0.0-16.0-0.16","607f441b91a96d298ca2d347","6368f2eea3e9634aebcc2f6b","636cea3b7e86b9d992bb9639","null","","","","null","","","","key","16.684135593219377","960","504.5","","","","","","","","","","","","","","","","","","","",""
"psychophysics","221","436208","0.0-16.0-1.16","607f441b91a96d298ca2d347","6368f2eea3e9634aebcc2f6b","636cea3b7e86b9d992bb9639","null","","","","null","","","","key","16.68472413793166","960","504.5","","","","","","","","","","","","","140","-1","6","false","","","",""
"psychophysics","222","436617","0.0-16.0-2.16","607f441b91a96d298ca2d347","6368f2eea3e9634aebcc2f6b","636cea3b7e86b9d992bb9639","409","","","","77","","","","key","16.682791666666162","960","504.5","","","","","","","","","","","","","","","","","","","",""
"psychophysics","223","437624","0.0-16.0-0.17","607f441b91a96d298ca2d347","6368f2eea3e9634aebcc2f6b","636cea3b7e86b9d992bb9639","null","","","","null","","","","key","16.68413559322036","960","504.5","","","","","","","","","","","","","","","","","","","",""
"psychophysics","224","438127","0.0-16.0-1.17","607f441b91a96d298ca2d347","6368f2eea3e9634aebcc2f6b","636cea3b7e86b9d992bb9639","null","","","","null","","","","key","16.684206896551867","960","504.5","","","","","","","","","","","","","140","1","3","false","","","",""
"psychophysics","225","438773","0.0-16.0-2.17","607f441b91a96d298ca2d347","6368f2eea3e9634aebcc2f6b","636cea3b7e86b9d992bb9639","645.8999999985099","","","","90","","","","key","16.684052631579107","960","504.5","","","","","","","","","","","","","","","","","","","",""
"psychophysics","226","439775","0.0-16.0-0.18","607f441b91a96d298ca2d347","6368f2eea3e9634aebcc2f6b","636cea3b7e86b9d992bb9639","null","","","","null","","","","key","16.68413559322036","960","504.5","","","","","","","","","","","","","","","","","","","",""
"psychophysics","227","440279","0.0-16.0-1.18","607f441b91a96d298ca2d347","6368f2eea3e9634aebcc2f6b","636cea3b7e86b9d992bb9639","null","","","","null","","","","key","16.684137931035366","960","504.5","","","","","","","","","","","","","140","-1","5","false","","","",""
"psychophysics","228","441465","0.0-16.0-2.18","607f441b91a96d298ca2d347","6368f2eea3e9634aebcc2f6b","636cea3b7e86b9d992bb9639","1185.699999999255","","","","90","","","","key","16.684185714285455","960","504.5","","","","","","","","","","","","","","","","","","","",""
"psychophysics","229","442469","0.0-16.0-0.19","607f441b91a96d298ca2d347","6368f2eea3e9634aebcc2f6b","636cea3b7e86b9d992bb9639","null","","","","null","","","","key","16.68420338983079","960","504.5","","","","","","","","","","","","","","","","","","","",""
"psychophysics","230","442970","0.0-16.0-1.19","607f441b91a96d298ca2d347","6368f2eea3e9634aebcc2f6b","636cea3b7e86b9d992bb9639","null","","","","null","","","","key","16.68483333333279","960","504.5","","","","","","","","","","","","","140","-1","0","false","","","",""
"psychophysics","231","443685","0.0-16.0-2.19","607f441b91a96d298ca2d347","6368f2eea3e9634aebcc2f6b","636cea3b7e86b9d992bb9639","714.4000000003725","","","","90","","","","key","16.684073170730787","960","504.5","","","","","","","","","","","","","","","","","","","",""
"psychophysics","232","444688","0.0-16.0-0.20","607f441b91a96d298ca2d347","6368f2eea3e9634aebcc2f6b","636cea3b7e86b9d992bb9639","null","","","","null","","","","key","16.684133333333495","960","504.5","","","","","","","","","","","","","","","","","","","",""
"psychophysics","233","445189","0.0-16.0-1.20","607f441b91a96d298ca2d347","6368f2eea3e9634aebcc2f6b","636cea3b7e86b9d992bb9639","null","","","","null","","","","key","16.686931034483834","960","504.5","","","","","","","","","","","","","140","1","2","false","","","",""
"psychophysics","234","445778","0.0-16.0-2.20","607f441b91a96d298ca2d347","6368f2eea3e9634aebcc2f6b","636cea3b7e86b9d992bb9639","588","","","","90","","","","key","16.684147058823488","960","504.5","","","","","","","","","","","","","","","","","","","",""
"psychophysics","235","446783","0.0-16.0-0.21","607f441b91a96d298ca2d347","6368f2eea3e9634aebcc2f6b","636cea3b7e86b9d992bb9639","null","","","","null","","","","key","16.68416949152607","960","504.5","","","","","","","","","","","","","","","","","","","",""
"psychophysics","236","447287","0.0-16.0-1.21","607f441b91a96d298ca2d347","6368f2eea3e9634aebcc2f6b","636cea3b7e86b9d992bb9639","null","","","","null","","","","key","16.684068965518865","960","504.5","","","","","","","","","","","","","140","-1","4","false","","","",""
"psychophysics","237","447965","0.0-16.0-2.21","607f441b91a96d298ca2d347","6368f2eea3e9634aebcc2f6b","636cea3b7e86b9d992bb9639","677.4000000003725","","","","77","","","","key","16.684100000000036","960","504.5","","","","","","","","","","","","","","","","","","","",""
"psychophysics","238","448967","0.0-16.0-0.22","607f441b91a96d298ca2d347","6368f2eea3e9634aebcc2f6b","636cea3b7e86b9d992bb9639","null","","","","null","","","","key","16.68413559322036","960","504.5","","","","","","","","","","","","","","","","","","","",""
"psychophysics","239","449471","0.0-16.0-1.22","607f441b91a96d298ca2d347","6368f2eea3e9634aebcc2f6b","636cea3b7e86b9d992bb9639","null","","","","null","","","","key","16.68424137931012","960","504.5","","","","","","","","","","","","","140","1","5","false","","","",""
"psychophysics","240","449989","0.0-16.0-2.22","607f441b91a96d298ca2d347","6368f2eea3e9634aebcc2f6b","636cea3b7e86b9d992bb9639","517.3000000007451","","","","77","","","","key","16.684133333332525","960","504.5","","","","","","","","","","","","","","","","","","","",""
"psychophysics","241","450991","0.0-16.0-0.23","607f441b91a96d298ca2d347","6368f2eea3e9634aebcc2f6b","636cea3b7e86b9d992bb9639","null","","","","null","","","","key","16.684389830508735","960","504.5","","","","","","","","","","","","","","","","","","","",""
"psychophysics","242","451494","0.0-16.0-1.23","607f441b91a96d298ca2d347","6368f2eea3e9634aebcc2f6b","636cea3b7e86b9d992bb9639","null","","","","null","","","","key","16.684103448275106","960","504.5","","","","","","","","","","","","","140","1","4","false","","","",""
"psychophysics","243","451749","0.0-16.0-2.23","607f441b91a96d298ca2d347","6368f2eea3e9634aebcc2f6b","636cea3b7e86b9d992bb9639","253.40000000037253","","","","77","","","","key","16.677066666663936","960","504.5","","","","","","","","","","","","","","","","","","","",""
"html-keyboard-response","244","454378","0.0-17.0","607f441b91a96d298ca2d347","6368f2eea3e9634aebcc2f6b","636cea3b7e86b9d992bb9639","2627.4000000003725","<p>Well Done !</p><p>Training Complete. Press the spacebar to start.</p><p>DON'T EXIT THE FULL SCREEN MODE</p>","","","32","","","","","","","","","","","","","","","","","","","","","","","","","","",""
"psychophysics","245","457384","0.0-18.0-0.0","607f441b91a96d298ca2d347","6368f2eea3e9634aebcc2f6b","636cea3b7e86b9d992bb9639","null","","","","null","","","","key","16.71688333333295","960","504.5","","","","","","","","","","","","","","","","","","","",""
"psychophysics","246","457886","0.0-18.0-1.0","607f441b91a96d298ca2d347","6368f2eea3e9634aebcc2f6b","636cea3b7e86b9d992bb9639","null","","","","null","","","","key","16.686206896552527","960","504.5","","","","","","","","","","","","","140","-1","6","true","","","",""
"psychophysics","247","458293","0.0-18.0-2.0","607f441b91a96d298ca2d347","6368f2eea3e9634aebcc2f6b","636cea3b7e86b9d992bb9639","406","","","","77","","","","key","16.684086956521597","960","504.5","","","","","","","","","","","","","","","","","","","",""
"psychophysics","248","459296","0.0-18.0-0.1","607f441b91a96d298ca2d347","6368f2eea3e9634aebcc2f6b","636cea3b7e86b9d992bb9639","null","","","","null","","","","key","16.684118644068","960","504.5","","","","","","","","","","","","","","","","","","","",""
"psychophysics","249","459799","0.0-18.0-1.1","607f441b91a96d298ca2d347","6368f2eea3e9634aebcc2f6b","636cea3b7e86b9d992bb9639","null","","","","null","","","","key","16.685586206895973","960","504.5","","","","","","","","","","","","","140","1","3","true","","","",""
"psychophysics","250","460208","0.0-18.0-2.1","607f441b91a96d298ca2d347","6368f2eea3e9634aebcc2f6b","636cea3b7e86b9d992bb9639","408.5","","","","90","","","","key","16.686166666666395","960","504.5","","","","","","","","","","","","","","","","","","","",""
"psychophysics","251","461215","0.0-18.0-0.2","607f441b91a96d298ca2d347","6368f2eea3e9634aebcc2f6b","636cea3b7e86b9d992bb9639","null","","","","null","","","","key","16.68569491525433","960","504.5","","","","","","","","","","","","","","","","","","","",""
"psychophysics","252","461719","0.0-18.0-1.2","607f441b91a96d298ca2d347","6368f2eea3e9634aebcc2f6b","636cea3b7e86b9d992bb9639","null","","","","null","","","","key","16.68506896551618","960","504.5","","","","","","","","","","","","","140","-1","5","true","","","",""
"psychophysics","253","461852","0.0-18.0-2.2","607f441b91a96d298ca2d347","6368f2eea3e9634aebcc2f6b","636cea3b7e86b9d992bb9639","132.59999999962747","","","","77","","","","key","16.679142857145052","960","504.5","","","","","","","","","","","","","","","","","","","",""
"psychophysics","254","462855","0.0-18.0-0.3","607f441b91a96d298ca2d347","6368f2eea3e9634aebcc2f6b","636cea3b7e86b9d992bb9639","null","","","","null","","","","key","16.68420338983079","960","504.5","","","","","","","","","","","","","","","","","","","",""
"psychophysics","255","463357","0.0-18.0-1.3","607f441b91a96d298ca2d347","6368f2eea3e9634aebcc2f6b","636cea3b7e86b9d992bb9639","null","","","","null","","","","key","16.684206896551867","960","504.5","","","","","","","","","","","","","140","-1","2","true","","","",""
"psychophysics","256","464024","0.0-18.0-2.3","607f441b91a96d298ca2d347","6368f2eea3e9634aebcc2f6b","636cea3b7e86b9d992bb9639","665.8000000007451","","","","90","","","","key","16.683435897435395","960","504.5","","","","","","","","","","","","","","","","","","","",""
"psychophysics","257","465025","0.0-18.0-0.4","607f441b91a96d298ca2d347","6368f2eea3e9634aebcc2f6b","636cea3b7e86b9d992bb9639","null","","","","null","","","","key","16.68413559322036","960","504.5","","","","","","","","","","","","","","","","","","","",""
"psychophysics","258","465526","0.0-18.0-1.4","607f441b91a96d298ca2d347","6368f2eea3e9634aebcc2f6b","636cea3b7e86b9d992bb9639","null","","","","null","","","","key","16.6859310344825","960","504.5","","","","","","","","","","","","","140","1","4","true","","","",""
"psychophysics","259","465656","0.0-18.0-2.4","607f441b91a96d298ca2d347","6368f2eea3e9634aebcc2f6b","636cea3b7e86b9d992bb9639","128.7000000011176","","","","77","","","","key","16.678142857147446","960","504.5","","","","","","","","","","","","","","","","","","","",""
"psychophysics","260","466660","0.0-18.0-0.5","607f441b91a96d298ca2d347","6368f2eea3e9634aebcc2f6b","636cea3b7e86b9d992bb9639","null","","","","null","","","","key","16.68413559322036","960","504.5","","","","","","","","","","","","","","","","","","","",""
"psychophysics","261","467161","0.0-18.0-1.5","607f441b91a96d298ca2d347","6368f2eea3e9634aebcc2f6b","636cea3b7e86b9d992bb9639","null","","","","null","","","","key","16.68413793103336","960","504.5","","","","","","","","","","","","","140","1","5","true","","","",""
"psychophysics","262","467444","0.0-18.0-2.5","607f441b91a96d298ca2d347","6368f2eea3e9634aebcc2f6b","636cea3b7e86b9d992bb9639","281.5","","","","77","","","","key","16.684062500000437","960","504.5","","","","","","","","","","","","","","","","","","","",""
"psychophysics","263","468445","0.0-18.0-0.6","607f441b91a96d298ca2d347","6368f2eea3e9634aebcc2f6b","636cea3b7e86b9d992bb9639","null","","","","null","","","","key","16.68413559322036","960","504.5","","","","","","","","","","","","","","","","","","","",""
"psychophysics","264","468947","0.0-18.0-1.6","607f441b91a96d298ca2d347","6368f2eea3e9634aebcc2f6b","636cea3b7e86b9d992bb9639","null","","","","null","","","","key","16.68409999999955","960","504.5","","","","","","","","","","","","","140","1","6","true","","","",""
"psychophysics","265","469208","0.0-18.0-2.6","607f441b91a96d298ca2d347","6368f2eea3e9634aebcc2f6b","636cea3b7e86b9d992bb9639","260.59999999962747","","","","77","","","","key","16.68600000000359","960","504.5","","","","","","","","","","","","","","","","","","","",""
"psychophysics","266","470214","0.0-18.0-0.7","607f441b91a96d298ca2d347","6368f2eea3e9634aebcc2f6b","636cea3b7e86b9d992bb9639","null","","","","null","","","","key","16.68394915254242","960","504.5","","","","","","","","","","","","","","","","","","","",""
"psychophysics","267","470715","0.0-18.0-1.7","607f441b91a96d298ca2d347","6368f2eea3e9634aebcc2f6b","636cea3b7e86b9d992bb9639","null","","","","null","","","","key","16.682700000000963","960","504.5","","","","","","","","","","","","","140","1","2","true","","","",""
"psychophysics","268","471308","0.0-18.0-2.7","607f441b91a96d298ca2d347","6368f2eea3e9634aebcc2f6b","636cea3b7e86b9d992bb9639","591.9000000003725","","","","90","","","","key","16.684117647059097","960","504.5","","","","","","","","","","","","","","","","","","","",""
"psychophysics","269","472311","0.0-18.0-0.8","607f441b91a96d298ca2d347","6368f2eea3e9634aebcc2f6b","636cea3b7e86b9d992bb9639","null","","","","null","","","","key","16.68547457627167","960","504.5","","","","","","","","","","","","","","","","","","","",""
"psychophysics","270","472815","0.0-18.0-1.8","607f441b91a96d298ca2d347","6368f2eea3e9634aebcc2f6b","636cea3b7e86b9d992bb9639","null","","","","null","","","","key","16.681965517241444","960","504.5","","","","","","","","","","","","","140","-1","0","true","","","",""
"psychophysics","271","473416","0.0-18.0-2.8","607f441b91a96d298ca2d347","6368f2eea3e9634aebcc2f6b","636cea3b7e86b9d992bb9639","599.9000000003725","","","","77","","","","key","16.68411428571479","960","504.5","","","","","","","","","","","","","","","","","","","",""
"psychophysics","272","474419","0.0-18.0-0.9","607f441b91a96d298ca2d347","6368f2eea3e9634aebcc2f6b","636cea3b7e86b9d992bb9639","null","","","","null","","","","key","16.68413559322036","960","504.5","","","","","","","","","","","","","","","","","","","",""
"psychophysics","273","474920","0.0-18.0-1.9","607f441b91a96d298ca2d347","6368f2eea3e9634aebcc2f6b","636cea3b7e86b9d992bb9639","null","","","","null","","","","key","16.68548275862122","960","504.5","","","","","","","","","","","","","140","-1","3","true","","","",""
"psychophysics","274","475872","0.0-18.0-2.9","607f441b91a96d298ca2d347","6368f2eea3e9634aebcc2f6b","636cea3b7e86b9d992bb9639","951.2000000011176","","","","90","","","","key","16.68447368420975","960","504.5","","","","","","","","","","","","","","","","","","","",""
"psychophysics","275","476880","0.0-18.0-0.10","607f441b91a96d298ca2d347","6368f2eea3e9634aebcc2f6b","636cea3b7e86b9d992bb9639","null","","","","null","","","","key","16.68384745762727","960","504.5","","","","","","","","","","","","","","","","","","","",""
"psychophysics","276","477384","0.0-18.0-1.10","607f441b91a96d298ca2d347","6368f2eea3e9634aebcc2f6b","636cea3b7e86b9d992bb9639","null","","","","null","","","","key","16.68503448275793","960","504.5","","","","","","","","","","","","","140","1","0","true","","","",""
"psychophysics","277","477828","0.0-18.0-2.10","607f441b91a96d298ca2d347","6368f2eea3e9634aebcc2f6b","636cea3b7e86b9d992bb9639","443.80000000074506","","","","90","","","","key","16.684076923077765","960","504.5","","","","","","","","","","","","","","","","","","","",""
"psychophysics","278","478832","0.0-18.0-0.11","607f441b91a96d298ca2d347","6368f2eea3e9634aebcc2f6b","636cea3b7e86b9d992bb9639","null","","","","null","","","","key","16.68418644067843","960","504.5","","","","","","","","","","","","","","","","","","","",""
"psychophysics","279","479336","0.0-18.0-1.11","607f441b91a96d298ca2d347","6368f2eea3e9634aebcc2f6b","636cea3b7e86b9d992bb9639","null","","","","null","","","","key","16.68424137931012","960","504.5","","","","","","","","","","","","","140","-1","4","true","","","",""
"psychophysics","280","479552","0.0-18.0-2.11","607f441b91a96d298ca2d347","6368f2eea3e9634aebcc2f6b","636cea3b7e86b9d992bb9639","216","","","","77","","","","key","16.69008333333477","960","504.5","","","","","","","","","","","","","","","","","","","",""
"psychophysics","281","480558","0.0-18.0-0.12","607f441b91a96d298ca2d347","6368f2eea3e9634aebcc2f6b","636cea3b7e86b9d992bb9639","null","","","","null","","","","key","16.68564406779725","960","504.5","","","","","","","","","","","","","","","","","","","",""
"psychophysics","282","481060","0.0-18.0-1.12","607f441b91a96d298ca2d347","6368f2eea3e9634aebcc2f6b","636cea3b7e86b9d992bb9639","null","","","","null","","","","key","16.686206896552527","960","504.5","","","","","","","","","","","","","140","-1","5","true","","","",""
"psychophysics","283","481305","0.0-18.0-2.12","607f441b91a96d298ca2d347","6368f2eea3e9634aebcc2f6b","636cea3b7e86b9d992bb9639","243.60000000149012","","","","77","","","","key","16.68407142857073","960","504.5","","","","","","","","","","","","","","","","","","","",""
"psychophysics","284","482311","0.0-18.0-0.13","607f441b91a96d298ca2d347","6368f2eea3e9634aebcc2f6b","636cea3b7e86b9d992bb9639","null","","","","null","","","","key","16.68413559322036","960","504.5","","","","","","","","","","","","","","","","","","","",""
"psychophysics","285","482812","0.0-18.0-1.13","607f441b91a96d298ca2d347","6368f2eea3e9634aebcc2f6b","636cea3b7e86b9d992bb9639","null","","","","null","","","","key","16.68417241379362","960","504.5","","","","","","","","","","","","","140","1","0","true","","","",""
"psychophysics","286","483465","0.0-18.0-2.13","607f441b91a96d298ca2d347","6368f2eea3e9634aebcc2f6b","636cea3b7e86b9d992bb9639","651.5","","","","90","","","","key","16.684128205129245","960","504.5","","","","","","","","","","","","","","","","","","","",""
"psychophysics","287","484472","0.0-18.0-0.14","607f441b91a96d298ca2d347","6368f2eea3e9634aebcc2f6b","636cea3b7e86b9d992bb9639","null","","","","null","","","","key","16.68410169491564","960","504.5","","","","","","","","","","","","","","","","","","","",""
"psychophysics","288","484976","0.0-18.0-1.14","607f441b91a96d298ca2d347","6368f2eea3e9634aebcc2f6b","636cea3b7e86b9d992bb9639","null","","","","null","","","","key","16.684103448275106","960","504.5","","","","","","","","","","","","","140","1","6","true","","","",""
"psychophysics","289","485528","0.0-18.0-2.14","607f441b91a96d298ca2d347","6368f2eea3e9634aebcc2f6b","636cea3b7e86b9d992bb9639","551.3000000007451","","","","77","","","","key","16.684124999999767","960","504.5","","","","","","","","","","","","","","","","","","","",""
"psychophysics","290","486532","0.0-18.0-0.15","607f441b91a96d298ca2d347","6368f2eea3e9634aebcc2f6b","636cea3b7e86b9d992bb9639","null","","","","null","","","","key","16.682000000000205","960","504.5","","","","","","","","","","","","","","","","","","","",""
"psychophysics","291","487033","0.0-18.0-1.15","607f441b91a96d298ca2d347","6368f2eea3e9634aebcc2f6b","636cea3b7e86b9d992bb9639","null","","","","null","","","","key","16.682344827586224","960","504.5","","","","","","","","","","","","","140","1","3","true","","","",""
"psychophysics","292","487360","0.0-18.0-2.15","607f441b91a96d298ca2d347","6368f2eea3e9634aebcc2f6b","636cea3b7e86b9d992bb9639","325.40000000037253","","","","77","","","","key","16.68321052631731","960","504.5","","","","","","","","","","","","","","","","","","","",""
"psychophysics","293","488367","0.0-18.0-0.16","607f441b91a96d298ca2d347","6368f2eea3e9634aebcc2f6b","636cea3b7e86b9d992bb9639","null","","","","null","","","","key","16.685033898304365","960","504.5","","","","","","","","","","","","","","","","","","","",""
"psychophysics","294","488868","0.0-18.0-1.16","607f441b91a96d298ca2d347","6368f2eea3e9634aebcc2f6b","636cea3b7e86b9d992bb9639","null","","","","null","","","","key","16.684103448275106","960","504.5","","","","","","","","","","","","","140","1","2","true","","","",""
"psychophysics","295","489316","0.0-18.0-2.16","607f441b91a96d298ca2d347","6368f2eea3e9634aebcc2f6b","636cea3b7e86b9d992bb9639","446.2999999988824","","","","90","","","","key","16.6844615384605","960","504.5","","","","","","","","","","","","","","","","","","","",""
"psychophysics","296","490319","0.0-18.0-0.17","607f441b91a96d298ca2d347","6368f2eea3e9634aebcc2f6b","636cea3b7e86b9d992bb9639","null","","","","null","","","","key","16.684118644068","960","504.5","","","","","","","","","","","","","","","","","","","",""
"psychophysics","297","490820","0.0-18.0-1.17","607f441b91a96d298ca2d347","6368f2eea3e9634aebcc2f6b","636cea3b7e86b9d992bb9639","null","","","","null","","","","key","16.684206896551867","960","504.5","","","","","","","","","","","","","140","-1","2","true","","","",""
"psychophysics","298","491300","0.0-18.0-2.17","607f441b91a96d298ca2d347","6368f2eea3e9634aebcc2f6b","636cea3b7e86b9d992bb9639","478.59999999962747","","","","90","","","","key","16.68403571428748","960","504.5","","","","","","","","","","","","","","","","","","","",""
"psychophysics","299","492304","0.0-18.0-0.18","607f441b91a96d298ca2d347","6368f2eea3e9634aebcc2f6b","636cea3b7e86b9d992bb9639","null","","","","null","","","","key","16.68413559322036","960","504.5","","","","","","","","","","","","","","","","","","","",""
"psychophysics","300","492805","0.0-18.0-1.18","607f441b91a96d298ca2d347","6368f2eea3e9634aebcc2f6b","636cea3b7e86b9d992bb9639","null","","","","null","","","","key","16.684448275861634","960","504.5","","","","","","","","","","","","","140","-1","4","true","","","",""
"psychophysics","301","493092","0.0-18.0-2.18","607f441b91a96d298ca2d347","6368f2eea3e9634aebcc2f6b","636cea3b7e86b9d992bb9639","285.19999999925494","","","","77","","","","key","16.683176470588318","960","504.5","","","","","","","","","","","","","","","","","","","",""
"psychophysics","302","494096","0.0-18.0-0.19","607f441b91a96d298ca2d347","6368f2eea3e9634aebcc2f6b","636cea3b7e86b9d992bb9639","null","","","","null","","","","key","16.68413559322036","960","504.5","","","","","","","","","","","","","","","","","","","",""
"psychophysics","303","494600","0.0-18.0-1.19","607f441b91a96d298ca2d347","6368f2eea3e9634aebcc2f6b","636cea3b7e86b9d992bb9639","null","","","","null","","","","key","16.68417241379362","960","504.5","","","","","","","","","","","","","140","1","4","true","","","",""
"psychophysics","304","494804","0.0-18.0-2.19","607f441b91a96d298ca2d347","6368f2eea3e9634aebcc2f6b","636cea3b7e86b9d992bb9639","203.19999999925494","","","","77","","","","key","16.680545454548504","960","504.5","","","","","","","","","","","","","","","","","","","",""
"psychophysics","305","495808","0.0-18.0-0.20","607f441b91a96d298ca2d347","6368f2eea3e9634aebcc2f6b","636cea3b7e86b9d992bb9639","null","","","","null","","","","key","16.684135593219377","960","504.5","","","","","","","","","","","","","","","","","","","",""
"psychophysics","306","496309","0.0-18.0-1.20","607f441b91a96d298ca2d347","6368f2eea3e9634aebcc2f6b","636cea3b7e86b9d992bb9639","null","","","","null","","","","key","16.684103448277114","960","504.5","","","","","","","","","","","","","140","-1","0","true","","","",""
"psychophysics","307","496743","0.0-18.0-2.20","607f441b91a96d298ca2d347","6368f2eea3e9634aebcc2f6b","636cea3b7e86b9d992bb9639","432.90000000037253","","","","77","","","","key","16.68576923076762","960","504.5","","","","","","","","","","","","","","","","","","","",""
"psychophysics","308","497744","0.0-18.0-0.21","607f441b91a96d298ca2d347","6368f2eea3e9634aebcc2f6b","636cea3b7e86b9d992bb9639","null","","","","null","","","","key","16.684338983051653","960","504.5","","","","","","","","","","","","","","","","","","","",""
"psychophysics","309","498245","0.0-18.0-1.21","607f441b91a96d298ca2d347","6368f2eea3e9634aebcc2f6b","636cea3b7e86b9d992bb9639","null","","","","null","","","","key","16.68641379310404","960","504.5","","","","","","","","","","","","","140","-1","3","true","","","",""
"psychophysics","310","498820","0.0-18.0-2.21","607f441b91a96d298ca2d347","6368f2eea3e9634aebcc2f6b","636cea3b7e86b9d992bb9639","573.5999999996275","","","","90","","","","key","16.68412121212124","960","504.5","","","","","","","","","","","","","","","","","","","",""
"psychophysics","311","499824","0.0-18.0-0.22","607f441b91a96d298ca2d347","6368f2eea3e9634aebcc2f6b","636cea3b7e86b9d992bb9639","null","","","","null","","","","key","16.684118644068","960","504.5","","","","","","","","","","","","","","","","","","","",""
"psychophysics","312","500328","0.0-18.0-1.22","607f441b91a96d298ca2d347","6368f2eea3e9634aebcc2f6b","636cea3b7e86b9d992bb9639","null","","","","null","","","","key","16.68303448275928","960","504.5","","","","","","","","","","","","","140","-1","6","true","","","",""
"psychophysics","313","500644","0.0-18.0-2.22","607f441b91a96d298ca2d347","6368f2eea3e9634aebcc2f6b","636cea3b7e86b9d992bb9639","314.5","","","","77","","","","key","16.684166666666798","960","504.5","","","","","","","","","","","","","","","","","","","",""
"psychophysics","314","501647","0.0-18.0-0.23","607f441b91a96d298ca2d347","6368f2eea3e9634aebcc2f6b","636cea3b7e86b9d992bb9639","null","","","","null","","","","key","16.68413559322036","960","504.5","","","","","","","","","","","","","","","","","","","",""
"psychophysics","315","502149","0.0-18.0-1.23","607f441b91a96d298ca2d347","6368f2eea3e9634aebcc2f6b","636cea3b7e86b9d992bb9639","null","","","","null","","","","key","16.684137931035366","960","504.5","","","","","","","","","","","","","140","1","5","true","","","",""
"psychophysics","316","502332","0.0-18.0-2.23","607f441b91a96d298ca2d347","6368f2eea3e9634aebcc2f6b","636cea3b7e86b9d992bb9639","182.40000000037253","","","","77","","","","key","16.68418181818296","960","504.5","","","","","","","","","","","","","","","","","","","",""
"psychophysics","317","503333","0.0-18.0-0.24","607f441b91a96d298ca2d347","6368f2eea3e9634aebcc2f6b","636cea3b7e86b9d992bb9639","null","","","","null","","","","key","16.684186440677447","960","504.5","","","","","","","","","","","","","","","","","","","",""
"psychophysics","318","503834","0.0-18.0-1.24","607f441b91a96d298ca2d347","6368f2eea3e9634aebcc2f6b","636cea3b7e86b9d992bb9639","null","","","","null","","","","key","16.684137931035366","960","504.5","","","","","","","","","","","","","140","1","0","true","","","",""
"psychophysics","319","504211","0.0-18.0-2.24","607f441b91a96d298ca2d347","6368f2eea3e9634aebcc2f6b","636cea3b7e86b9d992bb9639","376.19999999925494","","","","77","","","","key","16.68442857142682","960","504.5","","","","","","","","","","","","","","","","","","","",""
"psychophysics","320","505216","0.0-18.0-0.25","607f441b91a96d298ca2d347","6368f2eea3e9634aebcc2f6b","636cea3b7e86b9d992bb9639","null","","","","null","","","","key","16.68401694915285","960","504.5","","","","","","","","","","","","","","","","","","","",""
"psychophysics","321","505719","0.0-18.0-1.25","607f441b91a96d298ca2d347","6368f2eea3e9634aebcc2f6b","636cea3b7e86b9d992bb9639","null","","","","null","","","","key","16.683724137930326","960","504.5","","","","","","","","","","","","","140","-1","0","true","","","",""
"psychophysics","322","506015","0.0-18.0-2.25","607f441b91a96d298ca2d347","6368f2eea3e9634aebcc2f6b","636cea3b7e86b9d992bb9639","295.30000000074506","","","","90","","","","key","16.682941176469768","960","504.5","","","","","","","","","","","","","","","","","","","",""
"psychophysics","323","507020","0.0-18.0-0.26","607f441b91a96d298ca2d347","6368f2eea3e9634aebcc2f6b","636cea3b7e86b9d992bb9639","null","","","","null","","","","key","16.68413559322036","960","504.5","","","","","","","","","","","","","","","","","","","",""
"psychophysics","324","507521","0.0-18.0-1.26","607f441b91a96d298ca2d347","6368f2eea3e9634aebcc2f6b","636cea3b7e86b9d992bb9639","null","","","","null","","","","key","16.684206896551867","960","504.5","","","","","","","","","","","","","140","1","2","true","","","",""
"psychophysics","325","508339","0.0-18.0-2.26","607f441b91a96d298ca2d347","6368f2eea3e9634aebcc2f6b","636cea3b7e86b9d992bb9639","817.1999999992549","","","","77","","","","key","16.68408163265344","960","504.5","","","","","","","","","","","","","","","","","","","",""
"psychophysics","326","509344","0.0-18.0-0.27","607f441b91a96d298ca2d347","6368f2eea3e9634aebcc2f6b","636cea3b7e86b9d992bb9639","null","","","","null","","","","key","16.68413559322036","960","504.5","","","","","","","","","","","","","","","","","","","",""
"psychophysics","327","509848","0.0-18.0-1.27","607f441b91a96d298ca2d347","6368f2eea3e9634aebcc2f6b","636cea3b7e86b9d992bb9639","null","","","","null","","","","key","16.68417241379362","960","504.5","","","","","","","","","","","","","140","-1","6","true","","","",""
"psychophysics","328","510195","0.0-18.0-2.27","607f441b91a96d298ca2d347","6368f2eea3e9634aebcc2f6b","636cea3b7e86b9d992bb9639","346.90000000037253","","","","77","","","","key","16.68399999999965","960","504.5","","","","","","","","","","","","","","","","","","","",""
"psychophysics","329","511200","0.0-18.0-0.28","607f441b91a96d298ca2d347","6368f2eea3e9634aebcc2f6b","636cea3b7e86b9d992bb9639","null","","","","null","","","","key","16.684000000000488","960","504.5","","","","","","","","","","","","","","","","","","","",""
"psychophysics","330","511704","0.0-18.0-1.28","607f441b91a96d298ca2d347","6368f2eea3e9634aebcc2f6b","636cea3b7e86b9d992bb9639","null","","","","null","","","","key","16.68382758620709","960","504.5","","","","","","","","","","","","","140","-1","4","true","","","",""
"psychophysics","331","512147","0.0-18.0-2.28","607f441b91a96d298ca2d347","6368f2eea3e9634aebcc2f6b","636cea3b7e86b9d992bb9639","442.80000000074506","","","","77","","","","key","16.686076923078733","960","504.5","","","","","","","","","","","","","","","","","","","",""
