"trial_type","trial_index","time_elapsed","internal_node_id","PROLIFIC_PID","STUDY_ID","SESSION_ID","rt","stimulus","button_pressed","success","key_press","responses","isData","view_history","response_type","avg_frame_time","center_x","center_y","isSC","stim_side","trial_luminance","step_size","nReversal","correct","prev_ans","isThreshold","SC_threshold","final_threshold","isLuminance","FF_luminance","luminance","stimSide","ISInt","isFF","question_order","isSPQ","isCAPS","isAQ"
"pavlovia","0","15","0.0-0.0","5f5a07190adc3903dfa338e5","6368f2eea3e9634aebcc2f6b","636ce93fb77b1633f2d43c12","","","","","","","","","","","","","","","","","","","","","","","","","","","","","","","",""
"html-button-response","1","6998","0.0-1.0","5f5a07190adc3903dfa338e5","6368f2eea3e9634aebcc2f6b","636ce93fb77b1633f2d43c12","6976.190000015777","<div style='background-color: white; width:60%; margin: auto; padding: 50px; text-align: justify; text-justify: inter-word; margin-bottom: 20px;'><h1 style='text-align: center;'>Consent Form</h1><p>Please read this consent form carefully before deciding whether you would like to participate in this study. You have to be 18 years old or older to participate to this study.</p><p style='text-decoration: underline;'>Participation is voluntary:</p><p>It is your choice whether or not to participate in this research. If you choose to participate, you may change your mind and leave the study at any time. Refusal to participate or stopping your participation will involve no penalty or loss of benefits to which you are otherwise entitled.</p><p style='text-decoration: underline;'>Purpose of the Study:</p><p>To understand the mechanisms underlying human perception.</p><p style='text-decoration: underline;'>What you will do in this study:</p><p>You will be presented with a series of visual images and then you will press buttons on the keyboard of your computer to respond to simple questions about the images (e.g. Were one or two images presented?). In addition, you will be asked to complete a questionnaire concerning your beliefs and everyday mental and perceptual experiences.'</p><p style='text-decoration: underline;'> Time Required:</p><p>The study will take 40 minutes to complete. </p><p style='text-decoration: underline;'>Risks:</p><p>There are no anticipated risks associated with participating in this study that are beyond those experienced in everyday life. </p><p style='text-decoration: underline;'>Benefits:</p><p>There are no benefits to you in participating in the study. However, this study may lead to a better understanding of how different kinds of visual information are used.</p><p style='text-decoration: underline;'>Compensation:</p><p>You will be paid US$6.6/hour. </p><p style='text-decoration: underline;'>Privacy and Confidentiality:</p><p>Your participation in this study will be anonymous. No personal information about your name or identity will be asked or recorded. This anonymous data will be stored for several years and may be used for a variety of research purposes. The overall results of the study may be published, or the data files may be shared with other researchers, but your identity will not be revealed in any way. The online services we are using for this study may temporarily store your data, but this data will be downloaded and then promptly deleted from those services.Your data will not be permanently associated with your name, IP address, or any other identifiable information (e.g., your information will only be connected to your payment, not to any of your responses), though they may be temporarily stored together before we download and separate them. Even so, no guarantee of internet survey security can be given because, although unlikely, transmissions can be intercepted and IP addresses can be identified. The anonymous data may be shared publicly (for example, in conjunction with a resulting academic publication).</p><p style='text-decoration: underline;'>Participation and Withdrawal:</p><p>Your participation in this study is completely voluntary. You may stop responding to the stimuli or stop answering questions if you so choose and without penalty by exiting the full screen mode, closing this tab of your browser or redirecting it to a different website.</p><p style='text-decoration: underline;'>Contact Info of the Researcher: </p><p>If you have questions about this study, or if you would like to talk to the research team, please contact David Melcher (david.melcher@nyu.edu, md5050@nyu.edu) at the Perception and Active Cognition Laboratory, New York University Abu Dhabi, Computational Research Building, Saadiyat Island, Abu Dhabi, UAE.This research has been reviewed by the New York University Abu Dhabi Institutional Review Board (NYUAD IRB). To contact about your rights in this research, for questions, suggestions, or complaints that are not addressed by the researchers, please email IRBnyuad@nyu.edu, or call the NYUAD IRB at +971 2 628 4313. </p></div>","0","","","","","","","","","","","","","","","","","","","","","","","","","","","","",""
"fullscreen","2","218960","0.0-2.0","5f5a07190adc3903dfa338e5","6368f2eea3e9634aebcc2f6b","636ce93fb77b1633f2d43c12","","","","true","","","","","","","","","","","","","","","","","","","","","","","","","","","",""
"html-keyboard-response","3","226190","0.0-3.0","5f5a07190adc3903dfa338e5","6368f2eea3e9634aebcc2f6b","636ce93fb77b1633f2d43c12","7226.114999997662","<p>Welcome !</p><p>READ CAREFULLY THE FOLLOWING INDICATIONS:</p><p>From this moment you have ~40 minutes to complete the experiment.</p><p>During the experiment you will be prompted to take several breaks. Each break should not last longer than 2-3 minutes.</p><p>Make sure that your computer is plugged in and it's not running on battery power, even if the battery is already fully charged.</p><p>Turn off your phone and music, make sure that you are in a quiet room and that you will not be distracted for the next hour.</p><p>Failure to comply with the instructions and indications provided during the experiment will most likely result in the rejection of your data.<p>Press the spacebar to start.</p>","","","32","","","","","","","","","","","","","","","","","","","","","","","","","","",""
"survey-html-form","4","232707","0.0-4.0","5f5a07190adc3903dfa338e5","6368f2eea3e9634aebcc2f6b","636ce93fb77b1633f2d43c12","6513.804999995045","","","","","{""age"":""53"",""sex"":""M""}","true","","","","","","","","","","","","","","","","","","","","","","","","",""
"instructions","5","277241","0.0-5.0","5f5a07190adc3903dfa338e5","6368f2eea3e9634aebcc2f6b","636ce93fb77b1633f2d43c12","44530.46499998891","","","","","","","[{""page_index"":0,""viewing_time"":28822.354999982053},{""page_index"":1,""viewing_time"":7624.700000014855},{""page_index"":2,""viewing_time"":8082.819999981439}]","","","","","","","","","","","","","","","","","","","","","","","",""
"psychophysics","6","279524","0.0-6.0-0.0","5f5a07190adc3903dfa338e5","6368f2eea3e9634aebcc2f6b","636ce93fb77b1633f2d43c12","1245.374999998603","","","","39","","","","key","34.90320312499989","720","370.5","true","1","180","30","0","-1","","","","","","","","","","","","","",""
"psychophysics","7","281910","0.0-6.0-0.1","5f5a07190adc3903dfa338e5","6368f2eea3e9634aebcc2f6b","636ce93fb77b1633f2d43c12","1355.4049999802373","","","","39","","","","key","34.30020289855041","720","370.5","true","1","180","30","0","-1","-1","","","","","","","","","","","","",""
"psychophysics","8","283625","0.0-6.0-0.2","5f5a07190adc3903dfa338e5","6368f2eea3e9634aebcc2f6b","636ce93fb77b1633f2d43c12","701.4349999953993","","","","39","","","","key","36.59493478260803","720","370.5","true","1","150","30","0","-1","-1","","","","","","","","","","","","",""
"psychophysics","9","285617","0.0-6.0-0.3","5f5a07190adc3903dfa338e5","6368f2eea3e9634aebcc2f6b","636ce93fb77b1633f2d43c12","987.5949999841396","","","","37","","","","key","31.967852459016225","720","370.5","true","-1","150","30","0","-1","-1","","","","","","","","","","","","",""
"psychophysics","10","289790","0.0-6.0-0.4","5f5a07190adc3903dfa338e5","6368f2eea3e9634aebcc2f6b","636ce93fb77b1633f2d43c12","3159.604999993462","","","","39","","","","key","33.60900000000005","720","370.5","true","-1","129","24","1","1","-1","","","","","","","","","","","","",""
"psychophysics","11","292557","0.0-6.0-0.5","5f5a07190adc3903dfa338e5","6368f2eea3e9634aebcc2f6b","636ce93fb77b1633f2d43c12","1721.7150000215042","","","","37","","","","key","56.73872340425473","720","370.5","true","-1","153","24","1","-1","1","","","","","","","","","","","","",""
"psychophysics","12","295349","0.0-6.0-0.6","5f5a07190adc3903dfa338e5","6368f2eea3e9634aebcc2f6b","636ce93fb77b1633f2d43c12","1784.1350000235252","","","","37","","","","key","63.954767441861655","720","370.5","true","-1","153","19.2","2","-1","-1","","","","","","","","","","","","",""
"psychophysics","13","297125","0.0-6.0-0.7","5f5a07190adc3903dfa338e5","6368f2eea3e9634aebcc2f6b","636ce93fb77b1633f2d43c12","760.695000004489","","","","39","","","","key","36.45906249999947","720","370.5","true","1","133.8","19.2","2","-1","-1","","","","","","","","","","","","",""
"psychophysics","14","298805","0.0-6.0-0.8","5f5a07190adc3903dfa338e5","6368f2eea3e9634aebcc2f6b","636ce93fb77b1633f2d43c12","649.0300000004936","","","","39","","","","key","33.343959183673306","720","370.5","true","1","133.8","19.2","2","-1","-1","","","","","","","","","","","","",""
"psychophysics","15","301630","0.0-6.0-0.9","5f5a07190adc3903dfa338e5","6368f2eea3e9634aebcc2f6b","636ce93fb77b1633f2d43c12","1817.1300000103656","","","","39","","","","key","32.184551724138394","720","370.5","true","-1","129","15.36","3","1","-1","","","","","","","","","","","","",""
"psychophysics","16","303294","0.0-6.0-0.10","5f5a07190adc3903dfa338e5","6368f2eea3e9634aebcc2f6b","636ce93fb77b1633f2d43c12","654.6499999822117","","","","39","","","","key","31.41088461538423","720","370.5","true","1","144.36","15.36","3","-1","1","","","","","","","","","","","","",""
"psychophysics","17","305011","0.0-6.0-0.11","5f5a07190adc3903dfa338e5","6368f2eea3e9634aebcc2f6b","636ce93fb77b1633f2d43c12","704.6149999951012","","","","39","","","","key","34.354428571427945","720","370.5","true","1","144.36","12.287999999999998","4","-1","-1","","","","","","","","","","","","",""
"psychophysics","18","307613","0.0-6.0-0.12","5f5a07190adc3903dfa338e5","6368f2eea3e9634aebcc2f6b","636ce93fb77b1633f2d43c12","1590.635000000475","","","","39","","","","key","30.92431325301197","720","370.5","true","-1","132.072","9.8304","5","1","-1","","","","","","","","","","","","",""
"psychophysics","19","309278","0.0-6.0-0.13","5f5a07190adc3903dfa338e5","6368f2eea3e9634aebcc2f6b","636ce93fb77b1633f2d43c12","633.5699999763165","","","","37","","","","key","30.827547169812156","720","370.5","true","-1","141.9024","9.8304","5","-1","1","","","","","","","","","","","","",""
"psychophysics","20","311074","0.0-6.0-0.14","5f5a07190adc3903dfa338e5","6368f2eea3e9634aebcc2f6b","636ce93fb77b1633f2d43c12","779.3999999994412","","","","37","","","","key","29.66161016949109","720","370.5","true","-1","141.9024","7.864319999999999","6","-1","-1","","","","","","","","","","","","",""
"psychophysics","21","312997","0.0-6.0-0.15","5f5a07190adc3903dfa338e5","6368f2eea3e9634aebcc2f6b","636ce93fb77b1633f2d43c12","898.8200000021607","","","","39","","","","key","38.00076000000001","720","370.5","true","1","134.03808","7.864319999999999","6","-1","-1","","","","","","","","","","","","",""
"psychophysics","22","314877","0.0-6.0-0.16","5f5a07190adc3903dfa338e5","6368f2eea3e9634aebcc2f6b","636ce93fb77b1633f2d43c12","863.9599999878556","","","","37","","","","key","30.556166666666588","720","370.5","true","-1","134.03808","7.864319999999999","6","-1","-1","","","","","","","","","","","","",""
"psychophysics","23","317801","0.0-6.0-0.17","5f5a07190adc3903dfa338e5","6368f2eea3e9634aebcc2f6b","636ce93fb77b1633f2d43c12","1913.6249999864958","","","","39","","","","key","30.67960638297843","720","370.5","true","-1","129","6.291456","7","1","-1","","","","","","","","","","","","",""
"psychophysics","24","319487","0.0-6.0-0.18","5f5a07190adc3903dfa338e5","6368f2eea3e9634aebcc2f6b","636ce93fb77b1633f2d43c12","676.0899999935646","","","","39","","","","key","31.132698113207468","720","370.5","true","1","135.291456","6.291456","7","-1","1","","","","","","","","","","","","",""
"psychophysics","25","321107","0.0-6.0-0.19","5f5a07190adc3903dfa338e5","6368f2eea3e9634aebcc2f6b","636ce93fb77b1633f2d43c12","612.5450000108685","","","","39","","","","key","31.046372549019424","720","370.5","true","1","135.291456","5.033164800000001","8","-1","-1","","","","","","","","","","","","",""
"psychophysics","26","323859","0.0-6.0-0.20","5f5a07190adc3903dfa338e5","6368f2eea3e9634aebcc2f6b","636ce93fb77b1633f2d43c12","1734.8000000056345","","","","39","","","","key","46.55265517241386","720","370.5","true","-1","130.2582912","4.0265318400000005","9","1","-1","","","","","","","","","","","","",""
"psychophysics","27","325931","0.0-6.0-0.21","5f5a07190adc3903dfa338e5","6368f2eea3e9634aebcc2f6b","636ce93fb77b1633f2d43c12","994.3849999981467","","","","39","","","","key","66.13035483870866","720","370.5","true","1","134.28482304","4.0265318400000005","9","-1","1","","","","","","","","","","","","",""
"psychophysics","28","328503","0.0-6.0-0.22","5f5a07190adc3903dfa338e5","6368f2eea3e9634aebcc2f6b","636ce93fb77b1633f2d43c12","1535.5949999939185","","","","37","","","","key","51.031489795918475","720","370.5","true","-1","134.28482304","3.2212254720000004","10","-1","-1","","","","","","","","","","","","",""
"psychophysics","29","330587","0.0-6.0-0.23","5f5a07190adc3903dfa338e5","6368f2eea3e9634aebcc2f6b","636ce93fb77b1633f2d43c12","1046.9450000091456","","","","39","","","","key","59.80511764705743","720","370.5","true","-1","131.06359756799998","2.5769803776000004","11","1","-1","","","","","","","","","","","","",""
"psychophysics","30","332829","0.0-6.0-0.24","5f5a07190adc3903dfa338e5","6368f2eea3e9634aebcc2f6b","636ce93fb77b1633f2d43c12","1131.645000015851","","","","37","","","","key","54.16774999999907","720","370.5","true","-1","133.64057794559997","2.5769803776000004","11","-1","1","","","","","","","","","","","","",""
"psychophysics","31","335403","0.0-6.0-0.25","5f5a07190adc3903dfa338e5","6368f2eea3e9634aebcc2f6b","636ce93fb77b1633f2d43c12","1408.2449999987148","","","","37","","","","key","59.92183333333343","720","370.5","true","-1","133.64057794559997","2.0615843020800004","12","-1","-1","","","","","","","","","","","","",""
"psychophysics","32","337266","0.0-6.0-0.26","5f5a07190adc3903dfa338e5","6368f2eea3e9634aebcc2f6b","636ce93fb77b1633f2d43c12","806.1999999918044","","","","37","","","","key","36.66739999999991","720","370.5","true","-1","131.57899364351996","2.0615843020800004","12","-1","-1","","","","","","","","","","","","",""
"psychophysics","33","339393","0.0-6.0-0.27","5f5a07190adc3903dfa338e5","6368f2eea3e9634aebcc2f6b","636ce93fb77b1633f2d43c12","1088.1950000184588","","","","39","","","","key","35.319779661016426","720","370.5","true","1","131.57899364351996","2.0615843020800004","12","-1","-1","","","","","","","","","","","","",""
"psychophysics","34","342375","0.0-6.0-0.28","5f5a07190adc3903dfa338e5","6368f2eea3e9634aebcc2f6b","636ce93fb77b1633f2d43c12","1974.8649999964982","","","","39","","","","key","31.383606382978193","720","370.5","true","1","129.51740934143996","2.0615843020800004","12","-1","-1","","","","","","","","","","","","",""
"psychophysics","35","345456","0.0-6.0-0.29","5f5a07190adc3903dfa338e5","6368f2eea3e9634aebcc2f6b","636ce93fb77b1633f2d43c12","2053.665000014007","","","","39","","","","key","34.65978409090894","720","370.5","true","-1","129.51740934143996","1.6492674416640005","13","1","-1","","","","","","","","","","","","",""
"psychophysics","36","348203","0.0-6.0-0.30","5f5a07190adc3903dfa338e5","6368f2eea3e9634aebcc2f6b","636ce93fb77b1633f2d43c12","1736.2250000005588","","","","39","","","","key","29.534891304347422","720","370.5","true","1","131.16667678310395","1.6492674416640005","13","-1","1","","","","","","","","","","","","",""
"psychophysics","37","351979","0.0-6.0-0.31","5f5a07190adc3903dfa338e5","6368f2eea3e9634aebcc2f6b","636ce93fb77b1633f2d43c12","2764.320000016596","","","","39","","","","key","29.39691338582674","720","370.5","true","-1","131.16667678310395","1.3194139533312006","14","1","-1","","","","","","","","","","","","",""
"psychophysics","38","354911","0.0-6.0-0.32","5f5a07190adc3903dfa338e5","6368f2eea3e9634aebcc2f6b","636ce93fb77b1633f2d43c12","1921.714999974938","","","","39","","","","key","40.2785833333336","720","370.5","true","1","132.48609073643516","1.3194139533312006","14","-1","1","","","","","","","","","","","","",""
"psychophysics","39","357745","0.0-6.0-0.33","5f5a07190adc3903dfa338e5","6368f2eea3e9634aebcc2f6b","636ce93fb77b1633f2d43c12","1766.0549999854993","","","","39","","","","key","53.206192307692476","720","370.5","true","-1","132.48609073643516","1.0555311626649604","15","1","-1","","","","","","","","","","","","",""
"psychophysics","40","360224","0.0-6.0-0.34","5f5a07190adc3903dfa338e5","6368f2eea3e9634aebcc2f6b","636ce93fb77b1633f2d43c12","1457.0200000016484","","","","39","","","","key","50.705687500000444","720","370.5","true","1","133.5416218991001","1.0555311626649604","15","-1","1","","","","","","","","","","","","",""
"psychophysics","41","362782","0.0-6.0-0.35","5f5a07190adc3903dfa338e5","6368f2eea3e9634aebcc2f6b","636ce93fb77b1633f2d43c12","1554.00499998359","","","","39","","","","key","32.90109090909117","720","370.5","true","1","133.5416218991001","1","16","-1","-1","","","","","","","","","","","","",""
"psychophysics","42","364800","0.0-6.0-0.36","5f5a07190adc3903dfa338e5","6368f2eea3e9634aebcc2f6b","636ce93fb77b1633f2d43c12","1001.7799999914132","","","","37","","","","key","31.48211111111145","720","370.5","true","-1","132.5416218991001","1","16","-1","-1","","","","","","","","","","","","",""
"psychophysics","43","366792","0.0-6.0-0.37","5f5a07190adc3903dfa338e5","6368f2eea3e9634aebcc2f6b","636ce93fb77b1633f2d43c12","968.9800000051036","","","","39","","","","key","34.21121052631561","720","370.5","true","1","132.5416218991001","1","16","-1","-1","","","","","","","","","","","","",""
"psychophysics","44","368997","0.0-6.0-0.38","5f5a07190adc3903dfa338e5","6368f2eea3e9634aebcc2f6b","636ce93fb77b1633f2d43c12","1195.7300000067335","","","","39","","","","key","29.28645945945912","720","370.5","true","1","131.5416218991001","1","16","-1","-1","","","","","","","","","","","","",""
"psychophysics","45","370888","0.0-6.0-0.39","5f5a07190adc3903dfa338e5","6368f2eea3e9634aebcc2f6b","636ce93fb77b1633f2d43c12","856.4550000010058","","","","39","","","","key","30.108129032257562","720","370.5","true","1","131.5416218991001","1","16","-1","-1","","","","","","","","","","","","",""
"html-keyboard-response","46","376222","0.0-7.0","5f5a07190adc3903dfa338e5","6368f2eea3e9634aebcc2f6b","636ce93fb77b1633f2d43c12","5332.200000004377","<p>Well Done !</p><p>Prepare for a new block.</p><p>DON'T EXIT THE FULL SCREEN MODE</p><p>Press the Spacebar to start.</p>","","","32","","","","","","","","","","","","","","","true","131.89257668994662","","","","","","","","","","",""
"psychophysics","47","378647","0.0-8.0-0.0","5f5a07190adc3903dfa338e5","6368f2eea3e9634aebcc2f6b","636ce93fb77b1633f2d43c12","1394.9199999915436","","","","37","","","","key","31.58609210526246","720","370.5","true","-1","180","30","0","-1","","","","","","","","","","","","","",""
"psychophysics","48","380271","0.0-8.0-0.1","5f5a07190adc3903dfa338e5","6368f2eea3e9634aebcc2f6b","636ce93fb77b1633f2d43c12","621.1999999941327","","","","39","","","","key","30.76984615384628","720","370.5","true","1","180","30","0","-1","-1","","","","","","","","","","","","",""
"psychophysics","49","382019","0.0-8.0-0.2","5f5a07190adc3903dfa338e5","6368f2eea3e9634aebcc2f6b","636ce93fb77b1633f2d43c12","735.1900000066962","","","","39","","","","key","29.59829310344829","720","370.5","true","1","150","30","0","-1","-1","","","","","","","","","","","","",""
"psychophysics","50","383419","0.0-8.0-0.3","5f5a07190adc3903dfa338e5","6368f2eea3e9634aebcc2f6b","636ce93fb77b1633f2d43c12","374.47499998961575","","","","37","","","","key","29.71073913043517","720","370.5","true","-1","150","30","0","-1","-1","","","","","","","","","","","","",""
"psychophysics","51","385557","0.0-8.0-0.4","5f5a07190adc3903dfa338e5","6368f2eea3e9634aebcc2f6b","636ce93fb77b1633f2d43c12","1133.2750000001397","","","","39","","","","key","30.846388059701255","720","370.5","true","1","129","30","0","-1","-1","","","","","","","","","","","","",""
"psychophysics","52","387740","0.0-8.0-0.5","5f5a07190adc3903dfa338e5","6368f2eea3e9634aebcc2f6b","636ce93fb77b1633f2d43c12","1086.265000019921","","","","39","","","","key","55.702868421053466","720","370.5","true","1","129","30","0","-1","-1","","","","","","","","","","","","",""
"psychophysics","53","389755","0.0-8.0-0.6","5f5a07190adc3903dfa338e5","6368f2eea3e9634aebcc2f6b","636ce93fb77b1633f2d43c12","925.1099999819417","","","","39","","","","key","55.729428571427704","720","370.5","true","1","129","30","0","-1","-1","","","","","","","","","","","","",""
"psychophysics","54","391692","0.0-8.0-0.7","5f5a07190adc3903dfa338e5","6368f2eea3e9634aebcc2f6b","636ce93fb77b1633f2d43c12","917.249999998603","","","","39","","","","key","43.79932558139499","720","370.5","true","1","129","30","0","-1","-1","","","","","","","","","","","","",""
"psychophysics","55","393815","0.0-8.0-0.8","5f5a07190adc3903dfa338e5","6368f2eea3e9634aebcc2f6b","636ce93fb77b1633f2d43c12","1098.0449999915436","","","","39","","","","key","44.327127659574465","720","370.5","true","1","129","30","0","-1","-1","","","","","","","","","","","","",""
"psychophysics","56","396254","0.0-8.0-0.9","5f5a07190adc3903dfa338e5","6368f2eea3e9634aebcc2f6b","636ce93fb77b1633f2d43c12","1412.5849999836646","","","","39","","","","key","40.77462500000028","720","370.5","true","1","129","30","0","-1","-1","","","","","","","","","","","","",""
"psychophysics","57","398854","0.0-8.0-0.10","5f5a07190adc3903dfa338e5","6368f2eea3e9634aebcc2f6b","636ce93fb77b1633f2d43c12","1594.699999986915","","","","39","","","","key","43.51201694915209","720","370.5","true","-1","129","24","1","1","-1","","","","","","","","","","","","",""
"psychophysics","58","401281","0.0-8.0-0.11","5f5a07190adc3903dfa338e5","6368f2eea3e9634aebcc2f6b","636ce93fb77b1633f2d43c12","1406.8949999928009","","","","37","","","","key","31.360276315789395","720","370.5","true","-1","153","24","1","-1","1","","","","","","","","","","","","",""
"psychophysics","59","402914","0.0-8.0-0.12","5f5a07190adc3903dfa338e5","6368f2eea3e9634aebcc2f6b","636ce93fb77b1633f2d43c12","616.2249999761116","","","","39","","","","key","35.556266666665515","720","370.5","true","1","153","19.2","2","-1","-1","","","","","","","","","","","","",""
"psychophysics","60","404518","0.0-8.0-0.13","5f5a07190adc3903dfa338e5","6368f2eea3e9634aebcc2f6b","636ce93fb77b1633f2d43c12","599.1849999991246","","","","39","","","","key","32.98677083333314","720","370.5","true","1","133.8","19.2","2","-1","-1","","","","","","","","","","","","",""
"psychophysics","61","405946","0.0-8.0-0.14","5f5a07190adc3903dfa338e5","6368f2eea3e9634aebcc2f6b","636ce93fb77b1633f2d43c12","403.8699999800883","","","","39","","","","key","31.111733333333138","720","370.5","true","1","133.8","19.2","2","-1","-1","","","","","","","","","","","","",""
"psychophysics","62","407874","0.0-8.0-0.15","5f5a07190adc3903dfa338e5","6368f2eea3e9634aebcc2f6b","636ce93fb77b1633f2d43c12","916.0649999976158","","","","39","","","","key","35.1858888888889","720","370.5","true","-1","129","15.36","3","1","-1","","","","","","","","","","","","",""
"psychophysics","63","409756","0.0-8.0-0.16","5f5a07190adc3903dfa338e5","6368f2eea3e9634aebcc2f6b","636ce93fb77b1633f2d43c12","869.8250000015832","","","","37","","","","key","30.336573770491132","720","370.5","true","-1","144.36","15.36","3","-1","1","","","","","","","","","","","","",""
"psychophysics","64","411655","0.0-8.0-0.17","5f5a07190adc3903dfa338e5","6368f2eea3e9634aebcc2f6b","636ce93fb77b1633f2d43c12","872.9850000236183","","","","37","","","","key","30.108129032257562","720","370.5","true","-1","144.36","12.287999999999998","4","-1","-1","","","","","","","","","","","","",""
"psychophysics","65","413509","0.0-8.0-0.18","5f5a07190adc3903dfa338e5","6368f2eea3e9634aebcc2f6b","636ce93fb77b1633f2d43c12","828.3149999915622","","","","37","","","","key","29.782016393442287","720","370.5","true","-1","132.072","12.287999999999998","4","-1","-1","","","","","","","","","","","","",""
"psychophysics","66","415736","0.0-8.0-0.19","5f5a07190adc3903dfa338e5","6368f2eea3e9634aebcc2f6b","636ce93fb77b1633f2d43c12","1198.6549999855924","","","","39","","","","key","30.324680555555258","720","370.5","true","-1","132.072","9.8304","5","1","-1","","","","","","","","","","","","",""
"psychophysics","67","417672","0.0-8.0-0.20","5f5a07190adc3903dfa338e5","6368f2eea3e9634aebcc2f6b","636ce93fb77b1633f2d43c12","923.5950000002049","","","","39","","","","key","32.18455172413739","720","370.5","true","1","141.9024","9.8304","5","-1","1","","","","","","","","","","","","",""
"psychophysics","68","420389","0.0-8.0-0.21","5f5a07190adc3903dfa338e5","6368f2eea3e9634aebcc2f6b","636ce93fb77b1633f2d43c12","1657.9149999888614","","","","37","","","","key","56.39463829787255","720","370.5","true","-1","141.9024","7.864319999999999","6","-1","-1","","","","","","","","","","","","",""
"psychophysics","69","422474","0.0-8.0-0.22","5f5a07190adc3903dfa338e5","6368f2eea3e9634aebcc2f6b","636ce93fb77b1633f2d43c12","1078.0749999976251","","","","39","","","","key","58.09640000000031","720","370.5","true","1","134.03808","7.864319999999999","6","-1","-1","","","","","","","","","","","","",""
"psychophysics","70","424824","0.0-8.0-0.23","5f5a07190adc3903dfa338e5","6368f2eea3e9634aebcc2f6b","636ce93fb77b1633f2d43c12","1317.4849999777507","","","","39","","","","key","39.2663220338991","720","370.5","true","1","134.03808","7.864319999999999","6","-1","-1","","","","","","","","","","","","",""
"psychophysics","71","426985","0.0-8.0-0.24","5f5a07190adc3903dfa338e5","6368f2eea3e9634aebcc2f6b","636ce93fb77b1633f2d43c12","1149.9100000073668","","","","39","","","","key","32.32387878787863","720","370.5","true","1","129","7.864319999999999","6","-1","-1","","","","","","","","","","","","",""
"psychophysics","72","429511","0.0-8.0-0.25","5f5a07190adc3903dfa338e5","6368f2eea3e9634aebcc2f6b","636ce93fb77b1633f2d43c12","1504.094999982044","","","","39","","","","key","30.870888888889084","720","370.5","true","1","129","7.864319999999999","6","-1","-1","","","","","","","","","","","","",""
"psychophysics","73","432239","0.0-8.0-0.26","5f5a07190adc3903dfa338e5","6368f2eea3e9634aebcc2f6b","636ce93fb77b1633f2d43c12","1699.0000000223517","","","","39","","","","key","32.530771084337395","720","370.5","true","-1","129","6.291456","7","1","-1","","","","","","","","","","","","",""
"psychophysics","74","434092","0.0-8.0-0.27","5f5a07190adc3903dfa338e5","6368f2eea3e9634aebcc2f6b","636ce93fb77b1633f2d43c12","834.8300000070594","","","","37","","","","key","30.791576271186095","720","370.5","true","-1","135.291456","6.291456","7","-1","1","","","","","","","","","","","","",""
"psychophysics","75","436095","0.0-8.0-0.28","5f5a07190adc3903dfa338e5","6368f2eea3e9634aebcc2f6b","636ce93fb77b1633f2d43c12","968.0600000137929","","","","37","","","","key","32.778433333333425","720","370.5","true","-1","135.291456","5.033164800000001","8","-1","-1","","","","","","","","","","","","",""
"psychophysics","76","438180","0.0-8.0-0.29","5f5a07190adc3903dfa338e5","6368f2eea3e9634aebcc2f6b","636ce93fb77b1633f2d43c12","1065.2100000006612","","","","39","","","","key","33.334000000000174","720","370.5","true","1","130.2582912","5.033164800000001","8","-1","-1","","","","","","","","","","","","",""
"psychophysics","77","440291","0.0-8.0-0.30","5f5a07190adc3903dfa338e5","6368f2eea3e9634aebcc2f6b","636ce93fb77b1633f2d43c12","1087.9600000043865","","","","39","","","","key","32.051923076923075","720","370.5","true","-1","130.2582912","4.0265318400000005","9","1","-1","","","","","","","","","","","","",""
"psychophysics","78","442351","0.0-8.0-0.31","5f5a07190adc3903dfa338e5","6368f2eea3e9634aebcc2f6b","636ce93fb77b1633f2d43c12","1044.6700000029523","","","","39","","","","key","31.02626153846146","720","370.5","true","1","134.28482304","4.0265318400000005","9","-1","1","","","","","","","","","","","","",""
"psychophysics","79","444577","0.0-8.0-0.32","5f5a07190adc3903dfa338e5","6368f2eea3e9634aebcc2f6b","636ce93fb77b1633f2d43c12","1201.8950000056066","","","","39","","","","key","30.986535211268347","720","370.5","true","-1","134.28482304","3.2212254720000004","10","1","-1","","","","","","","","","","","","",""
"psychophysics","80","446428","0.0-8.0-0.33","5f5a07190adc3903dfa338e5","6368f2eea3e9634aebcc2f6b","636ce93fb77b1633f2d43c12","818.1049999839161","","","","39","","","","key","30.791576271186095","720","370.5","true","1","137.506048512","3.2212254720000004","10","-1","1","","","","","","","","","","","","",""
"psychophysics","81","450959","0.0-8.0-0.34","5f5a07190adc3903dfa338e5","6368f2eea3e9634aebcc2f6b","636ce93fb77b1633f2d43c12","3498.1900000129826","","","","39","","","","key","36.00492799999984","720","370.5","true","-1","137.506048512","2.5769803776000004","11","1","-1","","","","","","","","","","","","",""
"psychophysics","82","453188","0.0-8.0-0.35","5f5a07190adc3903dfa338e5","6368f2eea3e9634aebcc2f6b","636ce93fb77b1633f2d43c12","1198.9549999998417","","","","39","","","","key","62.382199999999386","720","370.5","true","-1","140.0830288896","2.5769803776000004","11","1","1","","","","","","","","","","","","",""
"psychophysics","83","454543","0.0-8.0-0.36","5f5a07190adc3903dfa338e5","6368f2eea3e9634aebcc2f6b","636ce93fb77b1633f2d43c12","324.32499999413267","","","","37","","","","key","54.862208333334515","720","370.5","true","-1","142.6600092672","2.5769803776000004","11","-1","1","","","","","","","","","","","","",""
"psychophysics","84","457343","0.0-8.0-0.37","5f5a07190adc3903dfa338e5","6368f2eea3e9634aebcc2f6b","636ce93fb77b1633f2d43c12","1791.979999979958","","","","37","","","","key","55.44328571428611","720","370.5","true","-1","142.6600092672","2.0615843020800004","12","-1","-1","","","","","","","","","","","","",""
"psychophysics","85","459644","0.0-8.0-0.38","5f5a07190adc3903dfa338e5","6368f2eea3e9634aebcc2f6b","636ce93fb77b1633f2d43c12","1279.6950000047218","","","","37","","","","key","42.462358490566125","720","370.5","true","-1","140.59842496512","2.0615843020800004","12","-1","-1","","","","","","","","","","","","",""
"psychophysics","86","461525","0.0-8.0-0.39","5f5a07190adc3903dfa338e5","6368f2eea3e9634aebcc2f6b","636ce93fb77b1633f2d43c12","850.2549999975599","","","","39","","","","key","41.66750000000122","720","370.5","true","1","140.59842496512","2.0615843020800004","12","-1","-1","","","","","","","","","","","","",""
"html-keyboard-response","87","467316","0.0-9.0","5f5a07190adc3903dfa338e5","6368f2eea3e9634aebcc2f6b","636ce93fb77b1633f2d43c12","5788.894999976037","<p>Well Done !</p><p>Prepare for a new block.</p><p>DON'T EXIT THE FULL SCREEN MODE</p><p>Press the Spacebar to start.</p>","","","32","","","","","","","","","","","","","","","true","135.952075657216","","","","","","","","","","",""
"psychophysics","88","469269","0.0-10.0-0.0","5f5a07190adc3903dfa338e5","6368f2eea3e9634aebcc2f6b","636ce93fb77b1633f2d43c12","941.1749999853782","","","","37","","","","key","33.635052631579526","720","370.5","true","-1","180","30","0","-1","","","","","","","","","","","","","",""
"psychophysics","89","470927","0.0-10.0-0.1","5f5a07190adc3903dfa338e5","6368f2eea3e9634aebcc2f6b","636ce93fb77b1633f2d43c12","630.1849999872502","","","","37","","","","key","32.333980000000444","720","370.5","true","-1","180","30","0","-1","-1","","","","","","","","","","","","",""
"psychophysics","90","472625","0.0-10.0-0.2","5f5a07190adc3903dfa338e5","6368f2eea3e9634aebcc2f6b","636ce93fb77b1633f2d43c12","689.9800000246614","","","","37","","","","key","31.76164150943448","720","370.5","true","-1","150","30","0","-1","-1","","","","","","","","","","","","",""
"psychophysics","91","474508","0.0-10.0-0.3","5f5a07190adc3903dfa338e5","6368f2eea3e9634aebcc2f6b","636ce93fb77b1633f2d43c12","855.6700000190176","","","","39","","","","key","30.833949999999216","720","370.5","true","1","150","30","0","-1","-1","","","","","","","","","","","","",""
"psychophysics","92","476802","0.0-10.0-0.4","5f5a07190adc3903dfa338e5","6368f2eea3e9634aebcc2f6b","636ce93fb77b1633f2d43c12","1254.784999997355","","","","39","","","","key","33.831522388059696","720","370.5","true","-1","129","24","1","1","-1","","","","","","","","","","","","",""
"psychophysics","93","478501","0.0-10.0-0.5","5f5a07190adc3903dfa338e5","6368f2eea3e9634aebcc2f6b","636ce93fb77b1633f2d43c12","685.5650000215974","","","","39","","","","key","29.771178571429378","720","370.5","true","1","153","24","1","-1","1","","","","","","","","","","","","",""
"psychophysics","94","480276","0.0-10.0-0.6","5f5a07190adc3903dfa338e5","6368f2eea3e9634aebcc2f6b","636ce93fb77b1633f2d43c12","750.3850000211969","","","","37","","","","key","29.885655172414083","720","370.5","true","-1","153","19.2","2","-1","-1","","","","","","","","","","","","",""
"psychophysics","95","481976","0.0-10.0-0.7","5f5a07190adc3903dfa338e5","6368f2eea3e9634aebcc2f6b","636ce93fb77b1633f2d43c12","698.1350000132807","","","","39","","","","key","37.500749999999904","720","370.5","true","1","133.8","19.2","2","-1","-1","","","","","","","","","","","","",""
"psychophysics","96","484102","0.0-10.0-0.8","5f5a07190adc3903dfa338e5","6368f2eea3e9634aebcc2f6b","636ce93fb77b1633f2d43c12","1115.5950000102166","","","","39","","","","key","46.90016279069891","720","370.5","true","1","133.8","19.2","2","-1","-1","","","","","","","","","","","","",""
"psychophysics","97","486251","0.0-10.0-0.9","5f5a07190adc3903dfa338e5","6368f2eea3e9634aebcc2f6b","636ce93fb77b1633f2d43c12","1138.5099999897648","","","","39","","","","key","46.297222222222224","720","370.5","true","1","129","19.2","2","-1","-1","","","","","","","","","","","","",""
"psychophysics","98","488597","0.0-10.0-0.10","5f5a07190adc3903dfa338e5","6368f2eea3e9634aebcc2f6b","636ce93fb77b1633f2d43c12","1340.345000004163","","","","39","","","","key","61.726540540540086","720","370.5","true","-1","129","15.36","3","1","-1","","","","","","","","","","","","",""
"psychophysics","99","490822","0.0-10.0-0.11","5f5a07190adc3903dfa338e5","6368f2eea3e9634aebcc2f6b","636ce93fb77b1633f2d43c12","1205.4899999930058","","","","37","","","","key","46.74006521739142","720","370.5","true","-1","144.36","15.36","3","-1","1","","","","","","","","","","","","",""
"psychophysics","100","492969","0.0-10.0-0.12","5f5a07190adc3903dfa338e5","6368f2eea3e9634aebcc2f6b","636ce93fb77b1633f2d43c12","1105.6450000032783","","","","39","","","","key","45.036361702127095","720","370.5","true","1","144.36","12.287999999999998","4","-1","-1","","","","","","","","","","","","",""
"psychophysics","101","494747","0.0-10.0-0.13","5f5a07190adc3903dfa338e5","6368f2eea3e9634aebcc2f6b","636ce93fb77b1633f2d43c12","764.1900000162423","","","","39","","","","key","35.00070000000065","720","370.5","true","1","132.072","12.287999999999998","4","-1","-1","","","","","","","","","","","","",""
"psychophysics","102","497158","0.0-10.0-0.14","5f5a07190adc3903dfa338e5","6368f2eea3e9634aebcc2f6b","636ce93fb77b1633f2d43c12","1407.6700000150595","","","","39","","","","key","31.982621621622112","720","370.5","true","1","132.072","12.287999999999998","4","-1","-1","","","","","","","","","","","","",""
"psychophysics","103","499504","0.0-10.0-0.15","5f5a07190adc3903dfa338e5","6368f2eea3e9634aebcc2f6b","636ce93fb77b1633f2d43c12","1325.909999985015","","","","39","","","","key","35.10912121212107","720","370.5","true","1","129","12.287999999999998","4","-1","-1","","","","","","","","","","","","",""
"psychophysics","104","501761","0.0-10.0-0.16","5f5a07190adc3903dfa338e5","6368f2eea3e9634aebcc2f6b","636ce93fb77b1633f2d43c12","1243.1099999812432","","","","39","","","","key","31.45602816901363","720","370.5","true","1","129","12.287999999999998","4","-1","-1","","","","","","","","","","","","",""
"psychophysics","105","504194","0.0-10.0-0.17","5f5a07190adc3903dfa338e5","6368f2eea3e9634aebcc2f6b","636ce93fb77b1633f2d43c12","1413.814999978058","","","","39","","","","key","30.000600000000123","720","370.5","true","1","129","12.287999999999998","4","-1","-1","","","","","","","","","","","","",""
"psychophysics","106","507344","0.0-10.0-0.18","5f5a07190adc3903dfa338e5","6368f2eea3e9634aebcc2f6b","636ce93fb77b1633f2d43c12","2135.099999984959","","","","39","","","","key","29.96854807692356","720","370.5","true","-1","129","9.8304","5","1","-1","","","","","","","","","","","","",""
"psychophysics","107","508882","0.0-10.0-0.19","5f5a07190adc3903dfa338e5","6368f2eea3e9634aebcc2f6b","636ce93fb77b1633f2d43c12","517.9050000151619","","","","37","","","","key","32.280617021276875","720","370.5","true","-1","138.8304","9.8304","5","-1","1","","","","","","","","","","","","",""
"psychophysics","108","510893","0.0-10.0-0.20","5f5a07190adc3903dfa338e5","6368f2eea3e9634aebcc2f6b","636ce93fb77b1633f2d43c12","987.5599999795668","","","","37","","","","key","31.217555555555645","720","370.5","true","-1","138.8304","7.864319999999999","6","-1","-1","","","","","","","","","","","","",""
"psychophysics","109","512961","0.0-10.0-0.21","5f5a07190adc3903dfa338e5","6368f2eea3e9634aebcc2f6b","636ce93fb77b1633f2d43c12","1052.1850000077393","","","","39","","","","key","31.53909230769182","720","370.5","true","1","130.96608","7.864319999999999","6","-1","-1","","","","","","","","","","","","",""
"psychophysics","110","515417","0.0-10.0-0.22","5f5a07190adc3903dfa338e5","6368f2eea3e9634aebcc2f6b","636ce93fb77b1633f2d43c12","1378.3750000002328","","","","39","","","","key","46.475288461537836","720","370.5","true","1","130.96608","7.864319999999999","6","-1","-1","","","","","","","","","","","","",""
"psychophysics","111","517305","0.0-10.0-0.23","5f5a07190adc3903dfa338e5","6368f2eea3e9634aebcc2f6b","636ce93fb77b1633f2d43c12","882.7000000164844","","","","37","","","","key","57.292812499999854","720","370.5","true","-1","129","7.864319999999999","6","-1","-1","","","","","","","","","","","","",""
"psychophysics","112","520024","0.0-10.0-0.24","5f5a07190adc3903dfa338e5","6368f2eea3e9634aebcc2f6b","636ce93fb77b1633f2d43c12","1697.6250000006985","","","","39","","","","key","46.43826785714295","720","370.5","true","1","129","7.864319999999999","6","-1","-1","","","","","","","","","","","","",""
"psychophysics","113","522173","0.0-10.0-0.25","5f5a07190adc3903dfa338e5","6368f2eea3e9634aebcc2f6b","636ce93fb77b1633f2d43c12","1121.8499999959022","","","","39","","","","key","60.00120000000045","720","370.5","true","1","129","7.864319999999999","6","-1","-1","","","","","","","","","","","","",""
"psychophysics","114","524212","0.0-10.0-0.26","5f5a07190adc3903dfa338e5","6368f2eea3e9634aebcc2f6b","636ce93fb77b1633f2d43c12","1009.1950000205543","","","","39","","","","key","36.06132727272766","720","370.5","true","-1","129","6.291456","7","1","-1","","","","","","","","","","","","",""
"psychophysics","115","526457","0.0-10.0-0.27","5f5a07190adc3903dfa338e5","6368f2eea3e9634aebcc2f6b","636ce93fb77b1633f2d43c12","1186.4449999993667","","","","39","","","","key","35.753403225806615","720","370.5","true","-1","135.291456","6.291456","7","1","1","","","","","","","","","","","","",""
"psychophysics","116","528327","0.0-10.0-0.28","5f5a07190adc3903dfa338e5","6368f2eea3e9634aebcc2f6b","636ce93fb77b1633f2d43c12","859.2899999930523","","","","39","","","","key","31.609827586206816","720","370.5","true","1","141.58291200000002","6.291456","7","-1","1","","","","","","","","","","","","",""
"psychophysics","117","530103","0.0-10.0-0.29","5f5a07190adc3903dfa338e5","6368f2eea3e9634aebcc2f6b","636ce93fb77b1633f2d43c12","762.0250000036322","","","","37","","","","key","31.828345454545605","720","370.5","true","-1","141.58291200000002","5.033164800000001","8","-1","-1","","","","","","","","","","","","",""
"psychophysics","118","531808","0.0-10.0-0.30","5f5a07190adc3903dfa338e5","6368f2eea3e9634aebcc2f6b","636ce93fb77b1633f2d43c12","691.4950000063982","","","","37","","","","key","31.447169811322073","720","370.5","true","-1","136.5497472","5.033164800000001","8","-1","-1","","","","","","","","","","","","",""
"psychophysics","119","533595","0.0-10.0-0.31","5f5a07190adc3903dfa338e5","6368f2eea3e9634aebcc2f6b","636ce93fb77b1633f2d43c12","772.9399999952875","","","","37","","","","key","31.250625000000582","720","370.5","true","-1","136.5497472","5.033164800000001","8","-1","-1","","","","","","","","","","","","",""
"psychophysics","120","535659","0.0-10.0-0.32","5f5a07190adc3903dfa338e5","6368f2eea3e9634aebcc2f6b","636ce93fb77b1633f2d43c12","1045.7400000013877","","","","39","","","","key","33.33399999999922","720","370.5","true","-1","131.5165824","4.0265318400000005","9","1","-1","","","","","","","","","","","","",""
"psychophysics","121","537396","0.0-10.0-0.33","5f5a07190adc3903dfa338e5","6368f2eea3e9634aebcc2f6b","636ce93fb77b1633f2d43c12","713.1050000025425","","","","39","","","","key","30.90970909090882","720","370.5","true","1","135.54311424","4.0265318400000005","9","-1","1","","","","","","","","","","","","",""
"psychophysics","122","539156","0.0-10.0-0.34","5f5a07190adc3903dfa338e5","6368f2eea3e9634aebcc2f6b","636ce93fb77b1633f2d43c12","741.9349999981932","","","","39","","","","key","30.41852631578998","720","370.5","true","1","135.54311424","3.2212254720000004","10","-1","-1","","","","","","","","","","","","",""
"psychophysics","123","541416","0.0-10.0-0.35","5f5a07190adc3903dfa338e5","6368f2eea3e9634aebcc2f6b","636ce93fb77b1633f2d43c12","1248.3749999955762","","","","39","","","","key","29.556146666666802","720","370.5","true","-1","132.321888768","2.5769803776000004","11","1","-1","","","","","","","","","","","","",""
"psychophysics","124","543136","0.0-10.0-0.36","5f5a07190adc3903dfa338e5","6368f2eea3e9634aebcc2f6b","636ce93fb77b1633f2d43c12","709.3599999789149","","","","37","","","","key","29.82515789473658","720","370.5","true","-1","134.8988691456","2.5769803776000004","11","-1","1","","","","","","","","","","","","",""
"psychophysics","125","546920","0.0-10.0-0.37","5f5a07190adc3903dfa338e5","6368f2eea3e9634aebcc2f6b","636ce93fb77b1633f2d43c12","2755.879999982426","","","","39","","","","key","29.528149606298847","720","370.5","true","-1","134.8988691456","2.0615843020800004","12","1","-1","","","","","","","","","","","","",""
"psychophysics","126","548600","0.0-10.0-0.38","5f5a07190adc3903dfa338e5","6368f2eea3e9634aebcc2f6b","636ce93fb77b1633f2d43c12","651.575000025332","","","","39","","","","key","30.81822641509506","720","370.5","true","1","136.96045344768","2.0615843020800004","12","-1","1","","","","","","","","","","","","",""
"psychophysics","127","550355","0.0-10.0-0.39","5f5a07190adc3903dfa338e5","6368f2eea3e9634aebcc2f6b","636ce93fb77b1633f2d43c12","723.1150000006892","","","","39","","","","key","30.953000000000298","720","370.5","true","1","136.96045344768","1.6492674416640005","13","-1","-1","","","","","","","","","","","","",""
"html-keyboard-response","128","556720","0.0-11.0","5f5a07190adc3903dfa338e5","6368f2eea3e9634aebcc2f6b","636ce93fb77b1633f2d43c12","6364.00999999023","<p>Well Done !</p><p>Prepare for a new block.</p><p>DON'T EXIT THE FULL SCREEN MODE</p><p>Press the Spacebar to start.</p>","","","32","","","","","","","","","","","","","","","true","135.21334128230401","","","","","","","","","","",""
"psychophysics","129","559337","0.0-12.0-0.0","5f5a07190adc3903dfa338e5","6368f2eea3e9634aebcc2f6b","636ce93fb77b1633f2d43c12","1605.4300000250805","","","","39","","","","key","56.30844444444455","720","370.5","true","1","180","30","0","-1","","","","","","","","","","","","","",""
"psychophysics","130","561618","0.0-12.0-0.1","5f5a07190adc3903dfa338e5","6368f2eea3e9634aebcc2f6b","636ce93fb77b1633f2d43c12","1213.8249999843538","","","","39","","","","key","63.33460000000029","720","370.5","true","1","180","30","0","-1","-1","","","","","","","","","","","","",""
"psychophysics","131","564468","0.0-12.0-0.2","5f5a07190adc3903dfa338e5","6368f2eea3e9634aebcc2f6b","636ce93fb77b1633f2d43c12","1781.635000021197","","","","37","","","","key","57.143999999999636","720","370.5","true","-1","150","30","0","-1","-1","","","","","","","","","","","","",""
"psychophysics","132","566259","0.0-12.0-0.3","5f5a07190adc3903dfa338e5","6368f2eea3e9634aebcc2f6b","636ce93fb77b1633f2d43c12","725.3999999957159","","","","37","","","","key","34.64121568627318","720","370.5","true","-1","150","30","0","-1","-1","","","","","","","","","","","","",""
"psychophysics","133","568339","0.0-12.0-0.4","5f5a07190adc3903dfa338e5","6368f2eea3e9634aebcc2f6b","636ce93fb77b1633f2d43c12","1053.9350000035483","","","","39","","","","key","31.061227272726793","720","370.5","true","-1","129","24","1","1","-1","","","","","","","","","","","","",""
"psychophysics","134","570012","0.0-12.0-0.5","5f5a07190adc3903dfa338e5","6368f2eea3e9634aebcc2f6b","636ce93fb77b1633f2d43c12","638.8850000221282","","","","37","","","","key","31.42032692307839","720","370.5","true","-1","153","24","1","-1","1","","","","","","","","","","","","",""
"psychophysics","135","571556","0.0-12.0-0.6","5f5a07190adc3903dfa338e5","6368f2eea3e9634aebcc2f6b","636ce93fb77b1633f2d43c12","539.954999985639","","","","37","","","","key","30.953000000000895","720","370.5","true","-1","153","19.2","2","-1","-1","","","","","","","","","","","","",""
"psychophysics","136","573141","0.0-12.0-0.7","5f5a07190adc3903dfa338e5","6368f2eea3e9634aebcc2f6b","636ce93fb77b1633f2d43c12","566.915000003064","","","","39","","","","key","34.44513333333242","720","370.5","true","1","133.8","19.2","2","-1","-1","","","","","","","","","","","","",""
"psychophysics","137","574658","0.0-12.0-0.8","5f5a07190adc3903dfa338e5","6368f2eea3e9634aebcc2f6b","636ce93fb77b1633f2d43c12","512.1100000105798","","","","37","","","","key","32.96362222222249","720","370.5","true","-1","133.8","19.2","2","-1","-1","","","","","","","","","","","","",""
"psychophysics","138","576686","0.0-12.0-0.9","5f5a07190adc3903dfa338e5","6368f2eea3e9634aebcc2f6b","636ce93fb77b1633f2d43c12","1014.100000000326","","","","39","","","","key","30.990203125000335","720","370.5","true","-1","129","15.36","3","1","-1","","","","","","","","","","","","",""
"psychophysics","139","578229","0.0-12.0-0.10","5f5a07190adc3903dfa338e5","6368f2eea3e9634aebcc2f6b","636ce93fb77b1633f2d43c12","522.1950000268407","","","","39","","","","key","30.953000000000895","720","370.5","true","1","144.36","15.36","3","-1","1","","","","","","","","","","","","",""
"psychophysics","140","579762","0.0-12.0-0.11","5f5a07190adc3903dfa338e5","6368f2eea3e9634aebcc2f6b","636ce93fb77b1633f2d43c12","526.030000008177","","","","39","","","","key","30.622959183673945","720","370.5","true","1","144.36","12.287999999999998","4","-1","-1","","","","","","","","","","","","",""
"psychophysics","141","583960","0.0-12.0-0.12","5f5a07190adc3903dfa338e5","6368f2eea3e9634aebcc2f6b","636ce93fb77b1633f2d43c12","3184.404999978142","","","","39","","","","key","31.32894736842105","720","370.5","true","-1","132.072","9.8304","5","1","-1","","","","","","","","","","","","",""
"psychophysics","142","585566","0.0-12.0-0.13","5f5a07190adc3903dfa338e5","6368f2eea3e9634aebcc2f6b","636ce93fb77b1633f2d43c12","576.8950000056066","","","","39","","","","key","31.333960000001824","720","370.5","true","1","141.9024","9.8304","5","-1","1","","","","","","","","","","","","",""
"psychophysics","143","587128","0.0-12.0-0.14","5f5a07190adc3903dfa338e5","6368f2eea3e9634aebcc2f6b","636ce93fb77b1633f2d43c12","529.5050000131596","","","","37","","","","key","30.667280000001192","720","370.5","true","-1","141.9024","7.864319999999999","6","-1","-1","","","","","","","","","","","","",""
"psychophysics","144","588698","0.0-12.0-0.15","5f5a07190adc3903dfa338e5","6368f2eea3e9634aebcc2f6b","636ce93fb77b1633f2d43c12","544.6050000027753","","","","37","","","","key","30.667279999998865","720","370.5","true","-1","134.03808","7.864319999999999","6","-1","-1","","","","","","","","","","","","",""
"psychophysics","145","590379","0.0-12.0-0.16","5f5a07190adc3903dfa338e5","6368f2eea3e9634aebcc2f6b","636ce93fb77b1633f2d43c12","656.8949999928009","","","","37","","","","key","31.141849056604528","720","370.5","true","-1","134.03808","7.864319999999999","6","-1","-1","","","","","","","","","","","","",""
"psychophysics","146","592528","0.0-12.0-0.17","5f5a07190adc3903dfa338e5","6368f2eea3e9634aebcc2f6b","636ce93fb77b1633f2d43c12","1126.9700000120793","","","","39","","","","key","31.12807352941223","720","370.5","true","1","129","7.864319999999999","6","-1","-1","","","","","","","","","","","","",""
"psychophysics","147","594248","0.0-12.0-0.18","5f5a07190adc3903dfa338e5","6368f2eea3e9634aebcc2f6b","636ce93fb77b1633f2d43c12","705.3500000038184","","","","39","","","","key","30.60667272727217","720","370.5","true","1","129","7.864319999999999","6","-1","-1","","","","","","","","","","","","",""
"psychophysics","148","595843","0.0-12.0-0.19","5f5a07190adc3903dfa338e5","6368f2eea3e9634aebcc2f6b","636ce93fb77b1633f2d43c12","588.530000008177","","","","39","","","","key","31.333959999999497","720","370.5","true","1","129","7.864319999999999","6","-1","-1","","","","","","","","","","","","",""
"psychophysics","149","597789","0.0-12.0-0.20","5f5a07190adc3903dfa338e5","6368f2eea3e9634aebcc2f6b","636ce93fb77b1633f2d43c12","921.3900000031572","","","","39","","","","key","30.914596774192873","720","370.5","true","1","129","7.864319999999999","6","-1","-1","","","","","","","","","","","","",""
"psychophysics","150","599510","0.0-12.0-0.21","5f5a07190adc3903dfa338e5","6368f2eea3e9634aebcc2f6b","636ce93fb77b1633f2d43c12","715.2599999972153","","","","39","","","","key","31.49125925925802","720","370.5","true","-1","129","6.291456","7","1","-1","","","","","","","","","","","","",""
"psychophysics","151","601244","0.0-12.0-0.22","5f5a07190adc3903dfa338e5","6368f2eea3e9634aebcc2f6b","636ce93fb77b1633f2d43c12","715.1799999992363","","","","39","","","","key","30.90970909090882","720","370.5","true","1","135.291456","6.291456","7","-1","1","","","","","","","","","","","","",""
"psychophysics","152","602893","0.0-12.0-0.23","5f5a07190adc3903dfa338e5","6368f2eea3e9634aebcc2f6b","636ce93fb77b1633f2d43c12","646.0099999967497","","","","39","","","","key","31.090365384615815","720","370.5","true","-1","135.291456","5.033164800000001","8","1","-1","","","","","","","","","","","","",""
"psychophysics","153","604536","0.0-12.0-0.24","5f5a07190adc3903dfa338e5","6368f2eea3e9634aebcc2f6b","636ce93fb77b1633f2d43c12","613.5499999800231","","","","39","","","","key","31.667299999999813","720","370.5","true","1","140.32462080000002","5.033164800000001","8","-1","1","","","","","","","","","","","","",""
"psychophysics","154","605987","0.0-12.0-0.25","5f5a07190adc3903dfa338e5","6368f2eea3e9634aebcc2f6b","636ce93fb77b1633f2d43c12","417.47500002384186","","","","39","","","","key","31.48211111111256","720","370.5","true","1","140.32462080000002","4.0265318400000005","9","-1","-1","","","","","","","","","","","","",""
"psychophysics","155","608187","0.0-12.0-0.26","5f5a07190adc3903dfa338e5","6368f2eea3e9634aebcc2f6b","636ce93fb77b1633f2d43c12","1176.9299999868963","","","","39","","","","key","29.680958904110675","720","370.5","true","-1","136.29808896000003","3.2212254720000004","10","1","-1","","","","","","","","","","","","",""
"psychophysics","156","609723","0.0-12.0-0.27","5f5a07190adc3903dfa338e5","6368f2eea3e9634aebcc2f6b","636ce93fb77b1633f2d43c12","509.0249999775551","","","","37","","","","key","29.42205882352987","720","370.5","true","-1","139.51931443200004","3.2212254720000004","10","-1","1","","","","","","","","","","","","",""
"psychophysics","157","611167","0.0-12.0-0.28","5f5a07190adc3903dfa338e5","6368f2eea3e9634aebcc2f6b","636ce93fb77b1633f2d43c12","410.34999999101274","","","","37","","","","key","29.5144791666656","720","370.5","true","-1","139.51931443200004","2.5769803776000004","11","-1","-1","","","","","","","","","","","","",""
"psychophysics","158","612866","0.0-12.0-0.29","5f5a07190adc3903dfa338e5","6368f2eea3e9634aebcc2f6b","636ce93fb77b1633f2d43c12","687.5099999888334","","","","39","","","","key","37.084075000000304","720","370.5","true","1","136.94233405440005","2.5769803776000004","11","-1","-1","","","","","","","","","","","","",""
"psychophysics","159","614813","0.0-12.0-0.30","5f5a07190adc3903dfa338e5","6368f2eea3e9634aebcc2f6b","636ce93fb77b1633f2d43c12","929.6699999831617","","","","39","","","","key","57.57690909091087","720","370.5","true","-1","136.94233405440005","2.0615843020800004","12","1","-1","","","","","","","","","","","","",""
"psychophysics","160","616745","0.0-12.0-0.31","5f5a07190adc3903dfa338e5","6368f2eea3e9634aebcc2f6b","636ce93fb77b1633f2d43c12","901.6849999898113","","","","39","","","","key","48.64962162162379","720","370.5","true","1","139.00391835648006","2.0615843020800004","12","-1","1","","","","","","","","","","","","",""
"psychophysics","161","619592","0.0-12.0-0.32","5f5a07190adc3903dfa338e5","6368f2eea3e9634aebcc2f6b","636ce93fb77b1633f2d43c12","1837.9750000021886","","","","39","","","","key","49.132333333332404","720","370.5","true","1","139.00391835648006","1.6492674416640005","13","-1","-1","","","","","","","","","","","","",""
"psychophysics","162","621130","0.0-12.0-0.33","5f5a07190adc3903dfa338e5","6368f2eea3e9634aebcc2f6b","636ce93fb77b1633f2d43c12","529.6849999867845","","","","37","","","","key","32.27014893616867","720","370.5","true","-1","137.35465091481606","1.6492674416640005","13","-1","-1","","","","","","","","","","","","",""
"psychophysics","163","622639","0.0-12.0-0.34","5f5a07190adc3903dfa338e5","6368f2eea3e9634aebcc2f6b","636ce93fb77b1633f2d43c12","482.10500000277534","","","","37","","","","key","31.206297872340347","720","370.5","true","-1","137.35465091481606","1.6492674416640005","13","-1","-1","","","","","","","","","","","","",""
"psychophysics","164","624211","0.0-12.0-0.35","5f5a07190adc3903dfa338e5","6368f2eea3e9634aebcc2f6b","636ce93fb77b1633f2d43c12","561.1250000074506","","","","39","","","","key","35.22797727272634","720","370.5","true","1","135.70538347315207","1.6492674416640005","13","-1","-1","","","","","","","","","","","","",""
"psychophysics","165","625822","0.0-12.0-0.36","5f5a07190adc3903dfa338e5","6368f2eea3e9634aebcc2f6b","636ce93fb77b1633f2d43c12","574.5400000014342","","","","39","","","","key","34.81551111111055","720","370.5","true","1","135.70538347315207","1.6492674416640005","13","-1","-1","","","","","","","","","","","","",""
"psychophysics","166","627374","0.0-12.0-0.37","5f5a07190adc3903dfa338e5","6368f2eea3e9634aebcc2f6b","636ce93fb77b1633f2d43c12","547.614999988582","","","","39","","","","key","32.27014893617115","720","370.5","true","1","134.05611603148807","1.6492674416640005","13","-1","-1","","","","","","","","","","","","",""
"psychophysics","167","628812","0.0-12.0-0.38","5f5a07190adc3903dfa338e5","6368f2eea3e9634aebcc2f6b","636ce93fb77b1633f2d43c12","432.0849999785423","","","","37","","","","key","30.142446808512027","720","370.5","true","-1","134.05611603148807","1.6492674416640005","13","-1","-1","","","","","","","","","","","","",""
"psychophysics","168","631889","0.0-12.0-0.39","5f5a07190adc3903dfa338e5","6368f2eea3e9634aebcc2f6b","636ce93fb77b1633f2d43c12","2074.434999987716","","","","39","","","","key","30.640343434343144","720","370.5","true","1","132.40684858982408","1.6492674416640005","13","-1","-1","","","","","","","","","","","","",""
"html-keyboard-response","169","636149","0.0-13.0","5f5a07190adc3903dfa338e5","6368f2eea3e9634aebcc2f6b","636ce93fb77b1633f2d43c12","4258.250000013504","<p>Well Done !</p><p>Prepare for a new block.</p><p>DON'T EXIT THE FULL SCREEN MODE</p><p>Press the Spacebar to start.</p>","","","32","","","","","","","","","","","","","","","true","136.9461995249665","","","","","","","","","","",""
"html-keyboard-response","170","636251","0.0-14.0","5f5a07190adc3903dfa338e5","6368f2eea3e9634aebcc2f6b","636ce93fb77b1633f2d43c12","null","","","","null","","","","","","","","","","","","","","","","","135.00104828860827","true","142.00209657721655","","","","","","","",""
"instructions","171","676351","0.0-15.0","5f5a07190adc3903dfa338e5","6368f2eea3e9634aebcc2f6b","636ce93fb77b1633f2d43c12","40097.57500002161","","","","","","","[{""page_index"":0,""viewing_time"":30143.580000003567},{""page_index"":1,""viewing_time"":6368.620000022929},{""page_index"":2,""viewing_time"":3584.899999987101}]","","","","","","","","","","","","","","","","","","","","","","","",""
"psychophysics","172","679371","0.0-16.0-0.0","5f5a07190adc3903dfa338e5","6368f2eea3e9634aebcc2f6b","636ce93fb77b1633f2d43c12","null","","","","null","","","","key","33.90872413793113","720","370.5","","","","","","","","","","","","","","","","","","","",""
"psychophysics","173","679902","0.0-16.0-1.0","5f5a07190adc3903dfa338e5","6368f2eea3e9634aebcc2f6b","636ce93fb77b1633f2d43c12","null","","","","null","","","","key","33.33400000000062","720","370.5","","","","","","","","","","","","","142","-1","3","false","","","",""
"psychophysics","174","681369","0.0-16.0-2.0","5f5a07190adc3903dfa338e5","6368f2eea3e9634aebcc2f6b","636ce93fb77b1633f2d43c12","1435.0050000066403","","","","90","","","","key","32.94639534883873","720","370.5","","","","","","","","","","","","","","","","","","","",""
"psychophysics","175","682383","0.0-16.0-0.1","5f5a07190adc3903dfa338e5","6368f2eea3e9634aebcc2f6b","636ce93fb77b1633f2d43c12","null","","","","null","","","","key","35.1197500000001","720","370.5","","","","","","","","","","","","","","","","","","","",""
"psychophysics","176","682914","0.0-16.0-1.1","5f5a07190adc3903dfa338e5","6368f2eea3e9634aebcc2f6b","636ce93fb77b1633f2d43c12","null","","","","null","","","","key","32.29231250000157","720","370.5","","","","","","","","","","","","","142","-1","0","false","","","",""
"psychophysics","177","683230","0.0-16.0-2.1","5f5a07190adc3903dfa338e5","6368f2eea3e9634aebcc2f6b","636ce93fb77b1633f2d43c12","282.550000003539","","","","90","","","","key","33.33399999999286","720","370.5","","","","","","","","","","","","","","","","","","","",""
"psychophysics","178","684254","0.0-16.0-0.2","5f5a07190adc3903dfa338e5","6368f2eea3e9634aebcc2f6b","636ce93fb77b1633f2d43c12","null","","","","null","","","","key","31.250625000000582","720","370.5","","","","","","","","","","","","","","","","","","","",""
"psychophysics","179","684767","0.0-16.0-1.2","5f5a07190adc3903dfa338e5","6368f2eea3e9634aebcc2f6b","636ce93fb77b1633f2d43c12","null","","","","null","","","","key","32.222866666666235","720","370.5","","","","","","","","","","","","","142","-1","2","false","","","",""
"psychophysics","180","685490","0.0-16.0-2.2","5f5a07190adc3903dfa338e5","6368f2eea3e9634aebcc2f6b","636ce93fb77b1633f2d43c12","689.7750000061933","","","","90","","","","key","34.19184999999707","720","370.5","","","","","","","","","","","","","","","","","","","",""
"psychophysics","181","686521","0.0-16.0-0.3","5f5a07190adc3903dfa338e5","6368f2eea3e9634aebcc2f6b","636ce93fb77b1633f2d43c12","null","","","","null","","","","key","30.729781250000087","720","370.5","","","","","","","","","","","","","","","","","","","",""
"psychophysics","182","687042","0.0-16.0-1.3","5f5a07190adc3903dfa338e5","6368f2eea3e9634aebcc2f6b","636ce93fb77b1633f2d43c12","null","","","","null","","","","key","30.20893750000687","720","370.5","","","","","","","","","","","","","142","1","4","false","","","",""
"psychophysics","183","687515","0.0-16.0-2.3","5f5a07190adc3903dfa338e5","6368f2eea3e9634aebcc2f6b","636ce93fb77b1633f2d43c12","409.1150000167545","","","","77","","","","key","33.3340000000048","720","370.5","","","","","","","","","","","","","","","","","","","",""
"psychophysics","184","688554","0.0-16.0-0.4","5f5a07190adc3903dfa338e5","6368f2eea3e9634aebcc2f6b","636ce93fb77b1633f2d43c12","null","","","","null","","","","key","30.808696969698016","720","370.5","","","","","","","","","","","","","","","","","","","",""
"psychophysics","185","689062","0.0-16.0-1.4","5f5a07190adc3903dfa338e5","6368f2eea3e9634aebcc2f6b","636ce93fb77b1633f2d43c12","null","","","","null","","","","key","31.111733333331845","720","370.5","","","","","","","","","","","","","142","-1","4","false","","","",""
"psychophysics","186","689650","0.0-16.0-2.4","5f5a07190adc3903dfa338e5","6368f2eea3e9634aebcc2f6b","636ce93fb77b1633f2d43c12","557.3999999905936","","","","77","","","","key","30.556166666663355","720","370.5","","","","","","","","","","","","","","","","","","","",""
"psychophysics","187","690664","0.0-16.0-0.5","5f5a07190adc3903dfa338e5","6368f2eea3e9634aebcc2f6b","636ce93fb77b1633f2d43c12","null","","","","null","","","","key","31.250625000000582","720","370.5","","","","","","","","","","","","","","","","","","","",""
"psychophysics","188","691187","0.0-16.0-1.5","5f5a07190adc3903dfa338e5","6368f2eea3e9634aebcc2f6b","636ce93fb77b1633f2d43c12","null","","","","null","","","","key","31.250625000000582","720","370.5","","","","","","","","","","","","","142","1","5","false","","","",""
"psychophysics","189","691718","0.0-16.0-2.5","5f5a07190adc3903dfa338e5","6368f2eea3e9634aebcc2f6b","636ce93fb77b1633f2d43c12","498.01000001025386","","","","77","","","","key","29.41235294117702","720","370.5","","","","","","","","","","","","","","","","","","","",""
"psychophysics","190","692749","0.0-16.0-0.6","5f5a07190adc3903dfa338e5","6368f2eea3e9634aebcc2f6b","636ce93fb77b1633f2d43c12","null","","","","null","","","","key","29.798575757575843","720","370.5","","","","","","","","","","","","","","","","","","","",""
"psychophysics","191","693267","0.0-16.0-1.6","5f5a07190adc3903dfa338e5","6368f2eea3e9634aebcc2f6b","636ce93fb77b1633f2d43c12","null","","","","null","","","","key","31.250625000000582","720","370.5","","","","","","","","","","","","","142","1","2","false","","","",""
"psychophysics","192","693838","0.0-16.0-2.6","5f5a07190adc3903dfa338e5","6368f2eea3e9634aebcc2f6b","636ce93fb77b1633f2d43c12","534.9350000033155","","","","90","","","","key","32.35358823529061","720","370.5","","","","","","","","","","","","","","","","","","","",""
"psychophysics","193","694866","0.0-16.0-0.7","5f5a07190adc3903dfa338e5","6368f2eea3e9634aebcc2f6b","636ce93fb77b1633f2d43c12","null","","","","null","","","","key","30.729781250000087","720","370.5","","","","","","","","","","","","","","","","","","","",""
"psychophysics","194","695376","0.0-16.0-1.7","5f5a07190adc3903dfa338e5","6368f2eea3e9634aebcc2f6b","636ce93fb77b1633f2d43c12","null","","","","null","","","","key","32.257666666673806","720","370.5","","","","","","","","","","","","","142","-1","6","false","","","",""
"psychophysics","195","695744","0.0-16.0-2.7","5f5a07190adc3903dfa338e5","6368f2eea3e9634aebcc2f6b","636ce93fb77b1633f2d43c12","338.20999998715706","","","","77","","","","key","30.303636363643985","720","370.5","","","","","","","","","","","","","","","","","","","",""
"psychophysics","196","696784","0.0-16.0-0.8","5f5a07190adc3903dfa338e5","6368f2eea3e9634aebcc2f6b","636ce93fb77b1633f2d43c12","null","","","","null","","","","key","31.771468750001077","720","370.5","","","","","","","","","","","","","","","","","","","",""
"psychophysics","197","697321","0.0-16.0-1.8","5f5a07190adc3903dfa338e5","6368f2eea3e9634aebcc2f6b","636ce93fb77b1633f2d43c12","null","","","","null","","","","key","32.29231250000157","720","370.5","","","","","","","","","","","","","142","1","0","false","","","",""
"psychophysics","198","698088","0.0-16.0-2.8","5f5a07190adc3903dfa338e5","6368f2eea3e9634aebcc2f6b","636ce93fb77b1633f2d43c12","737.8350000071805","","","","90","","","","key","30.556166666666588","720","370.5","","","","","","","","","","","","","","","","","","","",""
"psychophysics","199","699089","0.0-16.0-0.9","5f5a07190adc3903dfa338e5","6368f2eea3e9634aebcc2f6b","636ce93fb77b1633f2d43c12","null","","","","null","","","","key","30.208937499999593","720","370.5","","","","","","","","","","","","","","","","","","","",""
"psychophysics","200","699614","0.0-16.0-1.9","5f5a07190adc3903dfa338e5","6368f2eea3e9634aebcc2f6b","636ce93fb77b1633f2d43c12","null","","","","null","","","","key","30.208937499999593","720","370.5","","","","","","","","","","","","","142","1","3","false","","","",""
"psychophysics","201","699899","0.0-16.0-2.9","5f5a07190adc3903dfa338e5","6368f2eea3e9634aebcc2f6b","636ce93fb77b1633f2d43c12","253.09999997261912","","","","77","","","","key","31.250625000000582","720","370.5","","","","","","","","","","","","","","","","","","","",""
"psychophysics","202","700923","0.0-16.0-0.10","5f5a07190adc3903dfa338e5","6368f2eea3e9634aebcc2f6b","636ce93fb77b1633f2d43c12","null","","","","null","","","","key","31.250625000000582","720","370.5","","","","","","","","","","","","","","","","","","","",""
"psychophysics","203","701426","0.0-16.0-1.10","5f5a07190adc3903dfa338e5","6368f2eea3e9634aebcc2f6b","636ce93fb77b1633f2d43c12","null","","","","null","","","","key","31.111733333331845","720","370.5","","","","","","","","","","","","","142","-1","5","false","","","",""
"psychophysics","204","701890","0.0-16.0-2.10","5f5a07190adc3903dfa338e5","6368f2eea3e9634aebcc2f6b","636ce93fb77b1633f2d43c12","434.7099999722559","","","","77","","","","key","30.95299999999614","720","370.5","","","","","","","","","","","","","","","","","","","",""
"psychophysics","205","702896","0.0-16.0-0.11","5f5a07190adc3903dfa338e5","6368f2eea3e9634aebcc2f6b","636ce93fb77b1633f2d43c12","null","","","","null","","","","key","30.208937499999593","720","370.5","","","","","","","","","","","","","","","","","","","",""
"psychophysics","206","703420","0.0-16.0-1.11","5f5a07190adc3903dfa338e5","6368f2eea3e9634aebcc2f6b","636ce93fb77b1633f2d43c12","null","","","","null","","","","key","32.222866666666235","720","370.5","","","","","","","","","","","","","142","1","6","false","","","",""
"psychophysics","207","703734","0.0-16.0-2.11","5f5a07190adc3903dfa338e5","6368f2eea3e9634aebcc2f6b","636ce93fb77b1633f2d43c12","283.03500000038184","","","","77","","","","key","33.33399999999286","720","370.5","","","","","","","","","","","","","","","","","","","",""
"psychophysics","208","704748","0.0-16.0-0.12","5f5a07190adc3903dfa338e5","6368f2eea3e9634aebcc2f6b","636ce93fb77b1633f2d43c12","null","","","","null","","","","key","31.721064516129122","720","370.5","","","","","","","","","","","","","","","","","","","",""
"psychophysics","209","705252","0.0-16.0-1.12","5f5a07190adc3903dfa338e5","6368f2eea3e9634aebcc2f6b","636ce93fb77b1633f2d43c12","null","","","","null","","","","key","30.237812499995925","720","370.5","","","","","","","","","","","","","142","1","3","false","","","",""
"psychophysics","210","705565","0.0-16.0-2.12","5f5a07190adc3903dfa338e5","6368f2eea3e9634aebcc2f6b","636ce93fb77b1633f2d43c12","282.33000001637265","","","","77","","","","key","31.482111111115145","720","370.5","","","","","","","","","","","","","","","","","","","",""
"psychophysics","211","706579","0.0-16.0-0.13","5f5a07190adc3903dfa338e5","6368f2eea3e9634aebcc2f6b","636ce93fb77b1633f2d43c12","null","","","","null","","","","key","30.729781250000087","720","370.5","","","","","","","","","","","","","","","","","","","",""
"psychophysics","212","707106","0.0-16.0-1.13","5f5a07190adc3903dfa338e5","6368f2eea3e9634aebcc2f6b","636ce93fb77b1633f2d43c12","null","","","","null","","","","key","33.33400000000062","720","370.5","","","","","","","","","","","","","142","-1","5","false","","","",""
"psychophysics","213","707556","0.0-16.0-2.13","5f5a07190adc3903dfa338e5","6368f2eea3e9634aebcc2f6b","636ce93fb77b1633f2d43c12","414.62999998475425","","","","77","","","","key","29.762500000003325","720","370.5","","","","","","","","","","","","","","","","","","","",""
"psychophysics","214","708559","0.0-16.0-0.14","5f5a07190adc3903dfa338e5","6368f2eea3e9634aebcc2f6b","636ce93fb77b1633f2d43c12","null","","","","null","","","","key","29.293515151514757","720","370.5","","","","","","","","","","","","","","","","","","","",""
"psychophysics","215","709067","0.0-16.0-1.14","5f5a07190adc3903dfa338e5","6368f2eea3e9634aebcc2f6b","636ce93fb77b1633f2d43c12","null","","","","null","","","","key","29.167249999998603","720","370.5","","","","","","","","","","","","","142","-1","2","false","","","",""
"psychophysics","216","709581","0.0-16.0-2.14","5f5a07190adc3903dfa338e5","6368f2eea3e9634aebcc2f6b","636ce93fb77b1633f2d43c12","481.79000001982786","","","","77","","","","key","30.208937499999593","720","370.5","","","","","","","","","","","","","","","","","","","",""
"psychophysics","217","710588","0.0-16.0-0.15","5f5a07190adc3903dfa338e5","6368f2eea3e9634aebcc2f6b","636ce93fb77b1633f2d43c12","null","","","","null","","","","key","30.729781250000087","720","370.5","","","","","","","","","","","","","","","","","","","",""
"psychophysics","218","711111","0.0-16.0-1.15","5f5a07190adc3903dfa338e5","6368f2eea3e9634aebcc2f6b","636ce93fb77b1633f2d43c12","null","","","","null","","","","key","30.208937499999593","720","370.5","","","","","","","","","","","","","142","1","4","false","","","",""
"psychophysics","219","711527","0.0-16.0-2.15","5f5a07190adc3903dfa338e5","6368f2eea3e9634aebcc2f6b","636ce93fb77b1633f2d43c12","386.65000000037253","","","","77","","","","key","29.487769230770375","720","370.5","","","","","","","","","","","","","","","","","","","",""
"psychophysics","220","712533","0.0-16.0-0.16","5f5a07190adc3903dfa338e5","6368f2eea3e9634aebcc2f6b","636ce93fb77b1633f2d43c12","null","","","","null","","","","key","29.293515151514757","720","370.5","","","","","","","","","","","","","","","","","","","",""
"psychophysics","221","713065","0.0-16.0-1.16","5f5a07190adc3903dfa338e5","6368f2eea3e9634aebcc2f6b","636ce93fb77b1633f2d43c12","null","","","","null","","","","key","31.250625000000582","720","370.5","","","","","","","","","","","","","142","-1","4","false","","","",""
"psychophysics","222","713286","0.0-16.0-2.16","5f5a07190adc3903dfa338e5","6368f2eea3e9634aebcc2f6b","636ce93fb77b1633f2d43c12","188.4050000226125","","","","77","","","","key","33.33400000001226","720","370.5","","","","","","","","","","","","","","","","","","","",""
"psychophysics","223","714303","0.0-16.0-0.17","5f5a07190adc3903dfa338e5","6368f2eea3e9634aebcc2f6b","636ce93fb77b1633f2d43c12","null","","","","null","","","","key","31.250625000000582","720","370.5","","","","","","","","","","","","","","","","","","","",""
"psychophysics","224","714831","0.0-16.0-1.17","5f5a07190adc3903dfa338e5","6368f2eea3e9634aebcc2f6b","636ce93fb77b1633f2d43c12","null","","","","null","","","","key","31.250625000000582","720","370.5","","","","","","","","","","","","","142","1","2","false","","","",""
"psychophysics","225","714956","0.0-16.0-2.17","5f5a07190adc3903dfa338e5","6368f2eea3e9634aebcc2f6b","636ce93fb77b1633f2d43c12","89.38499999931082","","","","77","","","","key","33.33399999999286","720","370.5","","","","","","","","","","","","","","","","","","","",""
"psychophysics","226","715987","0.0-16.0-0.18","5f5a07190adc3903dfa338e5","6368f2eea3e9634aebcc2f6b","636ce93fb77b1633f2d43c12","null","","","","null","","","","key","30.31848484848513","720","370.5","","","","","","","","","","","","","","","","","","","",""
"psychophysics","227","716513","0.0-16.0-1.18","5f5a07190adc3903dfa338e5","6368f2eea3e9634aebcc2f6b","636ce93fb77b1633f2d43c12","null","","","","null","","","","key","31.250625000000582","720","370.5","","","","","","","","","","","","","142","-1","3","false","","","",""
"psychophysics","228","716706","0.0-16.0-2.18","5f5a07190adc3903dfa338e5","6368f2eea3e9634aebcc2f6b","636ce93fb77b1633f2d43c12","156.0100000060629","","","","77","","","","key","33.33400000000838","720","370.5","","","","","","","","","","","","","","","","","","","",""
"psychophysics","229","717725","0.0-16.0-0.19","5f5a07190adc3903dfa338e5","6368f2eea3e9634aebcc2f6b","636ce93fb77b1633f2d43c12","null","","","","null","","","","key","30.729781250000087","720","370.5","","","","","","","","","","","","","","","","","","","",""
"psychophysics","230","718255","0.0-16.0-1.19","5f5a07190adc3903dfa338e5","6368f2eea3e9634aebcc2f6b","636ce93fb77b1633f2d43c12","null","","","","null","","","","key","30.20893750000687","720","370.5","","","","","","","","","","","","","142","1","0","false","","","",""
"psychophysics","231","718624","0.0-16.0-2.19","5f5a07190adc3903dfa338e5","6368f2eea3e9634aebcc2f6b","636ce93fb77b1633f2d43c12","339.03999999165535","","","","90","","","","key","30.3036363636334","720","370.5","","","","","","","","","","","","","","","","","","","",""
"psychophysics","232","719636","0.0-16.0-0.20","5f5a07190adc3903dfa338e5","6368f2eea3e9634aebcc2f6b","636ce93fb77b1633f2d43c12","null","","","","null","","","","key","31.18341935483829","720","370.5","","","","","","","","","","","","","","","","","","","",""
"psychophysics","233","720140","0.0-16.0-1.20","5f5a07190adc3903dfa338e5","6368f2eea3e9634aebcc2f6b","636ce93fb77b1633f2d43c12","null","","","","null","","","","key","32.222866666666235","720","370.5","","","","","","","","","","","","","142","1","6","false","","","",""
"psychophysics","234","720484","0.0-16.0-2.20","5f5a07190adc3903dfa338e5","6368f2eea3e9634aebcc2f6b","636ce93fb77b1633f2d43c12","313.6850000009872","","","","77","","","","key","30.000599999993575","720","370.5","","","","","","","","","","","","","","","","","","","",""
"psychophysics","235","721517","0.0-16.0-0.21","5f5a07190adc3903dfa338e5","6368f2eea3e9634aebcc2f6b","636ce93fb77b1633f2d43c12","null","","","","null","","","","key","31.250625000000582","720","370.5","","","","","","","","","","","","","","","","","","","",""
"psychophysics","236","722034","0.0-16.0-1.21","5f5a07190adc3903dfa338e5","6368f2eea3e9634aebcc2f6b","636ce93fb77b1633f2d43c12","null","","","","null","","","","key","32.222866666666235","720","370.5","","","","","","","","","","","","","142","-1","0","false","","","",""
"psychophysics","237","722320","0.0-16.0-2.21","5f5a07190adc3903dfa338e5","6368f2eea3e9634aebcc2f6b","636ce93fb77b1633f2d43c12","250.34499997855164","","","","90","","","","key","33.33400000000256","720","370.5","","","","","","","","","","","","","","","","","","","",""
"psychophysics","238","723344","0.0-16.0-0.22","5f5a07190adc3903dfa338e5","6368f2eea3e9634aebcc2f6b","636ce93fb77b1633f2d43c12","null","","","","null","","","","key","31.250625000000582","720","370.5","","","","","","","","","","","","","","","","","","","",""
"psychophysics","239","723867","0.0-16.0-1.22","5f5a07190adc3903dfa338e5","6368f2eea3e9634aebcc2f6b","636ce93fb77b1633f2d43c12","null","","","","null","","","","key","30.208937499999593","720","370.5","","","","","","","","","","","","","142","-1","6","false","","","",""
"psychophysics","240","724250","0.0-16.0-2.22","5f5a07190adc3903dfa338e5","6368f2eea3e9634aebcc2f6b","636ce93fb77b1633f2d43c12","350.34500001347624","","","","77","","","","key","31.81881818182724","720","370.5","","","","","","","","","","","","","","","","","","","",""
"psychophysics","241","725282","0.0-16.0-0.23","5f5a07190adc3903dfa338e5","6368f2eea3e9634aebcc2f6b","636ce93fb77b1633f2d43c12","null","","","","null","","","","key","31.26599999999962","720","370.5","","","","","","","","","","","","","","","","","","","",""
"psychophysics","242","725823","0.0-16.0-1.23","5f5a07190adc3903dfa338e5","6368f2eea3e9634aebcc2f6b","636ce93fb77b1633f2d43c12","null","","","","null","","","","key","30.39276470588383","720","370.5","","","","","","","","","","","","","142","1","5","false","","","",""
"psychophysics","243","726601","0.0-16.0-2.23","5f5a07190adc3903dfa338e5","6368f2eea3e9634aebcc2f6b","636ce93fb77b1633f2d43c12","749.6650000102818","","","","77","","","","key","30.556166666666588","720","370.5","","","","","","","","","","","","","","","","","","","",""
"html-keyboard-response","244","737132","0.0-17.0","5f5a07190adc3903dfa338e5","6368f2eea3e9634aebcc2f6b","636ce93fb77b1633f2d43c12","10528.53499999037","<p>Well Done !</p><p>Training Complete. Press the spacebar to start.</p><p>DON'T EXIT THE FULL SCREEN MODE</p>","","","32","","","","","","","","","","","","","","","","","","","","","","","","","","",""
"psychophysics","245","740139","0.0-18.0-0.0","5f5a07190adc3903dfa338e5","6368f2eea3e9634aebcc2f6b","636ce93fb77b1633f2d43c12","null","","","","null","","","","key","32.779517241380304","720","370.5","","","","","","","","","","","","","","","","","","","",""
"psychophysics","246","740665","0.0-18.0-1.0","5f5a07190adc3903dfa338e5","6368f2eea3e9634aebcc2f6b","636ce93fb77b1633f2d43c12","null","","","","null","","","","key","29.41235294117702","720","370.5","","","","","","","","","","","","","142","1","3","true","","","",""
"psychophysics","247","740984","0.0-18.0-2.0","5f5a07190adc3903dfa338e5","6368f2eea3e9634aebcc2f6b","636ce93fb77b1633f2d43c12","288.80999999819323","","","","77","","","","key","31.482111111115145","720","370.5","","","","","","","","","","","","","","","","","","","",""
"psychophysics","248","741990","0.0-18.0-0.1","5f5a07190adc3903dfa338e5","6368f2eea3e9634aebcc2f6b","636ce93fb77b1633f2d43c12","null","","","","null","","","","key","35.11974999999594","720","370.5","","","","","","","","","","","","","","","","","","","",""
"psychophysics","249","742509","0.0-18.0-1.1","5f5a07190adc3903dfa338e5","6368f2eea3e9634aebcc2f6b","636ce93fb77b1633f2d43c12","null","","","","null","","","","key","32.222866666666235","720","370.5","","","","","","","","","","","","","142","-1","5","true","","","",""
"psychophysics","250","742836","0.0-18.0-2.1","5f5a07190adc3903dfa338e5","6368f2eea3e9634aebcc2f6b","636ce93fb77b1633f2d43c12","290.97500001080334","","","","77","","","","key","31.482111111115145","720","370.5","","","","","","","","","","","","","","","","","","","",""
"psychophysics","251","743860","0.0-18.0-0.2","5f5a07190adc3903dfa338e5","6368f2eea3e9634aebcc2f6b","636ce93fb77b1633f2d43c12","null","","","","null","","","","key","30.729781250000087","720","370.5","","","","","","","","","","","","","","","","","","","",""
"psychophysics","252","744369","0.0-18.0-1.2","5f5a07190adc3903dfa338e5","6368f2eea3e9634aebcc2f6b","636ce93fb77b1633f2d43c12","null","","","","null","","","","key","31.111733333331845","720","370.5","","","","","","","","","","","","","142","-1","6","true","","","",""
"psychophysics","253","744736","0.0-18.0-2.2","5f5a07190adc3903dfa338e5","6368f2eea3e9634aebcc2f6b","636ce93fb77b1633f2d43c12","335.5250000022352","","","","77","","","","key","33.33399999999674","720","370.5","","","","","","","","","","","","","","","","","","","",""
"psychophysics","254","745749","0.0-18.0-0.3","5f5a07190adc3903dfa338e5","6368f2eea3e9634aebcc2f6b","636ce93fb77b1633f2d43c12","null","","","","null","","","","key","32.778433333333425","720","370.5","","","","","","","","","","","","","","","","","","","",""
"psychophysics","255","746269","0.0-18.0-1.3","5f5a07190adc3903dfa338e5","6368f2eea3e9634aebcc2f6b","636ce93fb77b1633f2d43c12","null","","","","null","","","","key","31.250625000000582","720","370.5","","","","","","","","","","","","","142","1","5","true","","","",""
"psychophysics","256","746592","0.0-18.0-2.3","5f5a07190adc3903dfa338e5","6368f2eea3e9634aebcc2f6b","636ce93fb77b1633f2d43c12","282.7650000108406","","","","77","","","","key","33.334000000005794","720","370.5","","","","","","","","","","","","","","","","","","","",""
"psychophysics","257","747622","0.0-18.0-0.4","5f5a07190adc3903dfa338e5","6368f2eea3e9634aebcc2f6b","636ce93fb77b1633f2d43c12","null","","","","null","","","","key","30.745093749999796","720","370.5","","","","","","","","","","","","","","","","","","","",""
"psychophysics","258","748177","0.0-18.0-1.4","5f5a07190adc3903dfa338e5","6368f2eea3e9634aebcc2f6b","636ce93fb77b1633f2d43c12","null","","","","null","","","","key","32.29231250000157","720","370.5","","","","","","","","","","","","","142","-1","3","true","","","",""
"psychophysics","259","748375","0.0-18.0-2.4","5f5a07190adc3903dfa338e5","6368f2eea3e9634aebcc2f6b","636ce93fb77b1633f2d43c12","154.65499999118038","","","","77","","","","key","33.333999999985096","720","370.5","","","","","","","","","","","","","","","","","","","",""
"psychophysics","260","749388","0.0-18.0-0.5","5f5a07190adc3903dfa338e5","6368f2eea3e9634aebcc2f6b","636ce93fb77b1633f2d43c12","null","","","","null","","","","key","30.729781250000087","720","370.5","","","","","","","","","","","","","","","","","","","",""
"psychophysics","261","749909","0.0-18.0-1.5","5f5a07190adc3903dfa338e5","6368f2eea3e9634aebcc2f6b","636ce93fb77b1633f2d43c12","null","","","","null","","","","key","31.250625000000582","720","370.5","","","","","","","","","","","","","142","1","0","true","","","",""
"psychophysics","262","750340","0.0-18.0-2.5","5f5a07190adc3903dfa338e5","6368f2eea3e9634aebcc2f6b","636ce93fb77b1633f2d43c12","398.0699999956414","","","","90","","","","key","30.769846153839563","720","370.5","","","","","","","","","","","","","","","","","","","",""
"psychophysics","263","751376","0.0-18.0-0.6","5f5a07190adc3903dfa338e5","6368f2eea3e9634aebcc2f6b","636ce93fb77b1633f2d43c12","null","","","","null","","","","key","31.250625000000582","720","370.5","","","","","","","","","","","","","","","","","","","",""
"psychophysics","264","751892","0.0-18.0-1.6","5f5a07190adc3903dfa338e5","6368f2eea3e9634aebcc2f6b","636ce93fb77b1633f2d43c12","null","","","","null","","","","key","32.222866666666235","720","370.5","","","","","","","","","","","","","142","1","4","true","","","",""
"psychophysics","265","752187","0.0-18.0-2.6","5f5a07190adc3903dfa338e5","6368f2eea3e9634aebcc2f6b","636ce93fb77b1633f2d43c12","263.89000000199303","","","","77","","","","key","31.25062499998603","720","370.5","","","","","","","","","","","","","","","","","","","",""
"psychophysics","266","753206","0.0-18.0-0.7","5f5a07190adc3903dfa338e5","6368f2eea3e9634aebcc2f6b","636ce93fb77b1633f2d43c12","null","","","","null","","","","key","30.30363636363693","720","370.5","","","","","","","","","","","","","","","","","","","",""
"psychophysics","267","753727","0.0-18.0-1.7","5f5a07190adc3903dfa338e5","6368f2eea3e9634aebcc2f6b","636ce93fb77b1633f2d43c12","null","","","","null","","","","key","31.250625000000582","720","370.5","","","","","","","","","","","","","142","1","2","true","","","",""
"psychophysics","268","754790","0.0-18.0-2.7","5f5a07190adc3903dfa338e5","6368f2eea3e9634aebcc2f6b","636ce93fb77b1633f2d43c12","1030.8400000212714","","","","77","","","","key","31.313757575755574","720","370.5","","","","","","","","","","","","","","","","","","","",""
"psychophysics","269","755794","0.0-18.0-0.8","5f5a07190adc3903dfa338e5","6368f2eea3e9634aebcc2f6b","636ce93fb77b1633f2d43c12","null","","","","null","","","","key","31.721064516129122","720","370.5","","","","","","","","","","","","","","","","","","","",""
"psychophysics","270","756317","0.0-18.0-1.8","5f5a07190adc3903dfa338e5","6368f2eea3e9634aebcc2f6b","636ce93fb77b1633f2d43c12","null","","","","null","","","","key","32.222866666666235","720","370.5","","","","","","","","","","","","","142","-1","4","true","","","",""
"psychophysics","271","757466","0.0-18.0-2.8","5f5a07190adc3903dfa338e5","6368f2eea3e9634aebcc2f6b","636ce93fb77b1633f2d43c12","1116.3550000055693","","","","77","","","","key","31.03286111111326","720","370.5","","","","","","","","","","","","","","","","","","","",""
"psychophysics","272","758491","0.0-18.0-0.9","5f5a07190adc3903dfa338e5","6368f2eea3e9634aebcc2f6b","636ce93fb77b1633f2d43c12","null","","","","null","","","","key","30.729781250000087","720","370.5","","","","","","","","","","","","","","","","","","","",""
"psychophysics","273","758993","0.0-18.0-1.9","5f5a07190adc3903dfa338e5","6368f2eea3e9634aebcc2f6b","636ce93fb77b1633f2d43c12","null","","","","null","","","","key","32.222866666666235","720","370.5","","","","","","","","","","","","","142","1","6","true","","","",""
"psychophysics","274","759258","0.0-18.0-2.9","5f5a07190adc3903dfa338e5","6368f2eea3e9634aebcc2f6b","636ce93fb77b1633f2d43c12","220.09999997681007","","","","77","","","","key","33.333999999998404","720","370.5","","","","","","","","","","","","","","","","","","","",""
"psychophysics","275","760287","0.0-18.0-0.10","5f5a07190adc3903dfa338e5","6368f2eea3e9634aebcc2f6b","636ce93fb77b1633f2d43c12","null","","","","null","","","","key","30.30363636363693","720","370.5","","","","","","","","","","","","","","","","","","","",""
"psychophysics","276","760800","0.0-18.0-1.10","5f5a07190adc3903dfa338e5","6368f2eea3e9634aebcc2f6b","636ce93fb77b1633f2d43c12","null","","","","null","","","","key","30.208937499999593","720","370.5","","","","","","","","","","","","","142","-1","2","true","","","",""
"psychophysics","277","760966","0.0-18.0-2.10","5f5a07190adc3903dfa338e5","6368f2eea3e9634aebcc2f6b","636ce93fb77b1633f2d43c12","130.92499997583218","","","","90","","","","key","33.33400000000256","720","370.5","","","","","","","","","","","","","","","","","","","",""
"psychophysics","278","761976","0.0-18.0-0.11","5f5a07190adc3903dfa338e5","6368f2eea3e9634aebcc2f6b","636ce93fb77b1633f2d43c12","null","","","","null","","","","key","30.729781250000087","720","370.5","","","","","","","","","","","","","","","","","","","",""
"psychophysics","279","762495","0.0-18.0-1.11","5f5a07190adc3903dfa338e5","6368f2eea3e9634aebcc2f6b","636ce93fb77b1633f2d43c12","null","","","","null","","","","key","30.208937499999593","720","370.5","","","","","","","","","","","","","142","-1","0","true","","","",""
"psychophysics","280","762875","0.0-18.0-2.11","5f5a07190adc3903dfa338e5","6368f2eea3e9634aebcc2f6b","636ce93fb77b1633f2d43c12","349.0999999921769","","","","90","","","","key","31.81881818182724","720","370.5","","","","","","","","","","","","","","","","","","","",""
"psychophysics","281","763902","0.0-18.0-0.12","5f5a07190adc3903dfa338e5","6368f2eea3e9634aebcc2f6b","636ce93fb77b1633f2d43c12","null","","","","null","","","","key","32.25870967741996","720","370.5","","","","","","","","","","","","","","","","","","","",""
"psychophysics","282","764429","0.0-18.0-1.12","5f5a07190adc3903dfa338e5","6368f2eea3e9634aebcc2f6b","636ce93fb77b1633f2d43c12","null","","","","null","","","","key","31.250625000000582","720","370.5","","","","","","","","","","","","","142","1","3","true","","","",""
"psychophysics","283","764743","0.0-18.0-2.12","5f5a07190adc3903dfa338e5","6368f2eea3e9634aebcc2f6b","636ce93fb77b1633f2d43c12","284.2499999969732","","","","77","","","","key","31.482111111102213","720","370.5","","","","","","","","","","","","","","","","","","","",""
"psychophysics","284","765748","0.0-18.0-0.13","5f5a07190adc3903dfa338e5","6368f2eea3e9634aebcc2f6b","636ce93fb77b1633f2d43c12","null","","","","null","","","","key","32.778433333333425","720","370.5","","","","","","","","","","","","","","","","","","","",""
"psychophysics","285","766280","0.0-18.0-1.13","5f5a07190adc3903dfa338e5","6368f2eea3e9634aebcc2f6b","636ce93fb77b1633f2d43c12","null","","","","null","","","","key","31.250625000000582","720","370.5","","","","","","","","","","","","","142","1","4","true","","","",""
"psychophysics","286","766507","0.0-18.0-2.13","5f5a07190adc3903dfa338e5","6368f2eea3e9634aebcc2f6b","636ce93fb77b1633f2d43c12","194.2949999938719","","","","77","","","","key","30.55616666665689","720","370.5","","","","","","","","","","","","","","","","","","","",""
"psychophysics","287","767534","0.0-18.0-0.14","5f5a07190adc3903dfa338e5","6368f2eea3e9634aebcc2f6b","636ce93fb77b1633f2d43c12","null","","","","null","","","","key","31.266812499998196","720","370.5","","","","","","","","","","","","","","","","","","","",""
"psychophysics","288","768147","0.0-18.0-1.14","5f5a07190adc3903dfa338e5","6368f2eea3e9634aebcc2f6b","636ce93fb77b1633f2d43c12","null","","","","null","","","","key","32.143499999997275","720","370.5","","","","","","","","","","","","","142","-1","5","true","","","",""
"psychophysics","289","768364","0.0-18.0-2.14","5f5a07190adc3903dfa338e5","6368f2eea3e9634aebcc2f6b","636ce93fb77b1633f2d43c12","196.84499999857508","","","","77","","","","key","33.33400000001226","720","370.5","","","","","","","","","","","","","","","","","","","",""
"psychophysics","290","769391","0.0-18.0-0.15","5f5a07190adc3903dfa338e5","6368f2eea3e9634aebcc2f6b","636ce93fb77b1633f2d43c12","null","","","","null","","","","key","31.250625000000582","720","370.5","","","","","","","","","","","","","","","","","","","",""
"psychophysics","291","769910","0.0-18.0-1.15","5f5a07190adc3903dfa338e5","6368f2eea3e9634aebcc2f6b","636ce93fb77b1633f2d43c12","null","","","","null","","","","key","31.250625000000582","720","370.5","","","","","","","","","","","","","142","1","2","true","","","",""
"psychophysics","292","770286","0.0-18.0-2.15","5f5a07190adc3903dfa338e5","6368f2eea3e9634aebcc2f6b","636ce93fb77b1633f2d43c12","338.66500001749955","","","","90","","","","key","31.818818181816656","720","370.5","","","","","","","","","","","","","","","","","","","",""
"psychophysics","293","771295","0.0-18.0-0.16","5f5a07190adc3903dfa338e5","6368f2eea3e9634aebcc2f6b","636ce93fb77b1633f2d43c12","null","","","","null","","","","key","31.721064516129122","720","370.5","","","","","","","","","","","","","","","","","","","",""
"psychophysics","294","771810","0.0-18.0-1.16","5f5a07190adc3903dfa338e5","6368f2eea3e9634aebcc2f6b","636ce93fb77b1633f2d43c12","null","","","","null","","","","key","31.111733333339604","720","370.5","","","","","","","","","","","","","142","-1","6","true","","","",""
"psychophysics","295","772091","0.0-18.0-2.16","5f5a07190adc3903dfa338e5","6368f2eea3e9634aebcc2f6b","636ce93fb77b1633f2d43c12","249.28999997791834","","","","77","","","","key","31.250625000000582","720","370.5","","","","","","","","","","","","","","","","","","","",""
"psychophysics","296","773109","0.0-18.0-0.17","5f5a07190adc3903dfa338e5","6368f2eea3e9634aebcc2f6b","636ce93fb77b1633f2d43c12","null","","","","null","","","","key","32.25870967741996","720","370.5","","","","","","","","","","","","","","","","","","","",""
"psychophysics","297","773634","0.0-18.0-1.17","5f5a07190adc3903dfa338e5","6368f2eea3e9634aebcc2f6b","636ce93fb77b1633f2d43c12","null","","","","null","","","","key","31.250625000000582","720","370.5","","","","","","","","","","","","","142","-1","2","true","","","",""
"psychophysics","298","774193","0.0-18.0-2.17","5f5a07190adc3903dfa338e5","6368f2eea3e9634aebcc2f6b","636ce93fb77b1633f2d43c12","528.0349999957252","","","","90","","","","key","31.373176470590646","720","370.5","","","","","","","","","","","","","","","","","","","",""
"psychophysics","299","775208","0.0-18.0-0.18","5f5a07190adc3903dfa338e5","6368f2eea3e9634aebcc2f6b","636ce93fb77b1633f2d43c12","null","","","","null","","","","key","31.721064516129122","720","370.5","","","","","","","","","","","","","","","","","","","",""
"psychophysics","300","775734","0.0-18.0-1.18","5f5a07190adc3903dfa338e5","6368f2eea3e9634aebcc2f6b","636ce93fb77b1633f2d43c12","null","","","","null","","","","key","31.250625000000582","720","370.5","","","","","","","","","","","","","142","-1","4","true","","","",""
"psychophysics","301","776129","0.0-18.0-2.18","5f5a07190adc3903dfa338e5","6368f2eea3e9634aebcc2f6b","636ce93fb77b1633f2d43c12","364.01499999919906","","","","77","","","","key","30.556166666666588","720","370.5","","","","","","","","","","","","","","","","","","","",""
"psychophysics","302","777152","0.0-18.0-0.19","5f5a07190adc3903dfa338e5","6368f2eea3e9634aebcc2f6b","636ce93fb77b1633f2d43c12","null","","","","null","","","","key","30.729781250000087","720","370.5","","","","","","","","","","","","","","","","","","","",""
"psychophysics","303","777674","0.0-18.0-1.19","5f5a07190adc3903dfa338e5","6368f2eea3e9634aebcc2f6b","636ce93fb77b1633f2d43c12","null","","","","null","","","","key","32.25493333332706","720","370.5","","","","","","","","","","","","","142","-1","3","true","","","",""
"psychophysics","304","778379","0.0-18.0-2.19","5f5a07190adc3903dfa338e5","6368f2eea3e9634aebcc2f6b","636ce93fb77b1633f2d43c12","666.3050000206567","","","","90","","","","key","32.54033333333653","720","370.5","","","","","","","","","","","","","","","","","","","",""
"psychophysics","305","779418","0.0-18.0-0.20","5f5a07190adc3903dfa338e5","6368f2eea3e9634aebcc2f6b","636ce93fb77b1633f2d43c12","null","","","","null","","","","key","31.250625000000582","720","370.5","","","","","","","","","","","","","","","","","","","",""
"psychophysics","306","779939","0.0-18.0-1.20","5f5a07190adc3903dfa338e5","6368f2eea3e9634aebcc2f6b","636ce93fb77b1633f2d43c12","null","","","","null","","","","key","30.208937499999593","720","370.5","","","","","","","","","","","","","142","1","0","true","","","",""
"psychophysics","307","780545","0.0-18.0-2.20","5f5a07190adc3903dfa338e5","6368f2eea3e9634aebcc2f6b","636ce93fb77b1633f2d43c12","558.2949999952689","","","","90","","","","key","31.48211111110868","720","370.5","","","","","","","","","","","","","","","","","","","",""
"psychophysics","308","781569","0.0-18.0-0.21","5f5a07190adc3903dfa338e5","6368f2eea3e9634aebcc2f6b","636ce93fb77b1633f2d43c12","null","","","","null","","","","key","31.250625000000582","720","370.5","","","","","","","","","","","","","","","","","","","",""
"psychophysics","309","782095","0.0-18.0-1.21","5f5a07190adc3903dfa338e5","6368f2eea3e9634aebcc2f6b","636ce93fb77b1633f2d43c12","null","","","","null","","","","key","31.250625000000582","720","370.5","","","","","","","","","","","","","142","1","6","true","","","",""
"psychophysics","310","782365","0.0-18.0-2.21","5f5a07190adc3903dfa338e5","6368f2eea3e9634aebcc2f6b","636ce93fb77b1633f2d43c12","240.5049999943003","","","","77","","","","key","29.167249999998603","720","370.5","","","","","","","","","","","","","","","","","","","",""
"psychophysics","311","783397","0.0-18.0-0.22","5f5a07190adc3903dfa338e5","6368f2eea3e9634aebcc2f6b","636ce93fb77b1633f2d43c12","null","","","","null","","","","key","31.721064516129122","720","370.5","","","","","","","","","","","","","","","","","","","",""
"psychophysics","312","783906","0.0-18.0-1.22","5f5a07190adc3903dfa338e5","6368f2eea3e9634aebcc2f6b","636ce93fb77b1633f2d43c12","null","","","","null","","","","key","31.111733333339604","720","370.5","","","","","","","","","","","","","142","1","5","true","","","",""
"psychophysics","313","784362","0.0-18.0-2.22","5f5a07190adc3903dfa338e5","6368f2eea3e9634aebcc2f6b","636ce93fb77b1633f2d43c12","422.4549999926239","","","","77","","","","key","30.953000000004458","720","370.5","","","","","","","","","","","","","","","","","","","",""
"psychophysics","314","785366","0.0-18.0-0.23","5f5a07190adc3903dfa338e5","6368f2eea3e9634aebcc2f6b","636ce93fb77b1633f2d43c12","null","","","","null","","","","key","30.20893750000323","720","370.5","","","","","","","","","","","","","","","","","","","",""
"psychophysics","315","785891","0.0-18.0-1.23","5f5a07190adc3903dfa338e5","6368f2eea3e9634aebcc2f6b","636ce93fb77b1633f2d43c12","null","","","","null","","","","key","30.208937499999593","720","370.5","","","","","","","","","","","","","142","-1","0","true","","","",""
"psychophysics","316","786397","0.0-18.0-2.23","5f5a07190adc3903dfa338e5","6368f2eea3e9634aebcc2f6b","636ce93fb77b1633f2d43c12","474.6300000115298","","","","90","","","","key","32.222866666666235","720","370.5","","","","","","","","","","","","","","","","","","","",""
"psychophysics","317","787421","0.0-18.0-0.24","5f5a07190adc3903dfa338e5","6368f2eea3e9634aebcc2f6b","636ce93fb77b1633f2d43c12","null","","","","null","","","","key","30.744593749997875","720","370.5","","","","","","","","","","","","","","","","","","","",""
"psychophysics","318","787940","0.0-18.0-1.24","5f5a07190adc3903dfa338e5","6368f2eea3e9634aebcc2f6b","636ce93fb77b1633f2d43c12","null","","","","null","","","","key","32.222866666666235","720","370.5","","","","","","","","","","","","","142","-1","3","true","","","",""
"psychophysics","319","788443","0.0-18.0-2.24","5f5a07190adc3903dfa338e5","6368f2eea3e9634aebcc2f6b","636ce93fb77b1633f2d43c12","469.7549999982584","","","","77","","","","key","32.222866666666235","720","370.5","","","","","","","","","","","","","","","","","","","",""
"psychophysics","320","789452","0.0-18.0-0.25","5f5a07190adc3903dfa338e5","6368f2eea3e9634aebcc2f6b","636ce93fb77b1633f2d43c12","null","","","","null","","","","key","31.721064516129122","720","370.5","","","","","","","","","","","","","","","","","","","",""
"psychophysics","321","789977","0.0-18.0-1.25","5f5a07190adc3903dfa338e5","6368f2eea3e9634aebcc2f6b","636ce93fb77b1633f2d43c12","null","","","","null","","","","key","31.250624999993306","720","370.5","","","","","","","","","","","","","142","1","6","true","","","",""
"psychophysics","322","790539","0.0-18.0-2.25","5f5a07190adc3903dfa338e5","6368f2eea3e9634aebcc2f6b","636ce93fb77b1633f2d43c12","531.4349999825936","","","","77","","","","key","31.373176470590646","720","370.5","","","","","","","","","","","","","","","","","","","",""
"psychophysics","323","791569","0.0-18.0-0.26","5f5a07190adc3903dfa338e5","6368f2eea3e9634aebcc2f6b","636ce93fb77b1633f2d43c12","null","","","","null","","","","key","33.33400000000062","720","370.5","","","","","","","","","","","","","","","","","","","",""
"psychophysics","324","792084","0.0-18.0-1.26","5f5a07190adc3903dfa338e5","6368f2eea3e9634aebcc2f6b","636ce93fb77b1633f2d43c12","null","","","","null","","","","key","32.222866666666235","720","370.5","","","","","","","","","","","","","142","1","4","true","","","",""
"psychophysics","325","792570","0.0-18.0-2.26","5f5a07190adc3903dfa338e5","6368f2eea3e9634aebcc2f6b","636ce93fb77b1633f2d43c12","454.74999997531995","","","","77","","","","key","30.3036363636334","720","370.5","","","","","","","","","","","","","","","","","","","",""
"psychophysics","326","793582","0.0-18.0-0.27","5f5a07190adc3903dfa338e5","6368f2eea3e9634aebcc2f6b","636ce93fb77b1633f2d43c12","null","","","","null","","","","key","56.86388235294041","720","370.5","","","","","","","","","","","","","","","","","","","",""
"psychophysics","327","794180","0.0-18.0-1.27","5f5a07190adc3903dfa338e5","6368f2eea3e9634aebcc2f6b","636ce93fb77b1633f2d43c12","null","","","","null","","","","key","48.485818181811325","720","370.5","","","","","","","","","","","","","142","1","5","true","","","",""
"psychophysics","328","794702","0.0-18.0-2.27","5f5a07190adc3903dfa338e5","6368f2eea3e9634aebcc2f6b","636ce93fb77b1633f2d43c12","476.0200000018813","","","","77","","","","key","48.334299999999345","720","370.5","","","","","","","","","","","","","","","","","","","",""
"psychophysics","329","795763","0.0-18.0-0.28","5f5a07190adc3903dfa338e5","6368f2eea3e9634aebcc2f6b","636ce93fb77b1633f2d43c12","null","","","","null","","","","key","56.48261111110656","720","370.5","","","","","","","","","","","","","","","","","","","",""
