"trial_type","trial_index","time_elapsed","internal_node_id","PROLIFIC_PID","STUDY_ID","SESSION_ID","rt","stimulus","button_pressed","success","key_press","responses","isData","view_history","response_type","avg_frame_time","center_x","center_y","isSC","stim_side","trial_luminance","step_size","nReversal","correct","prev_ans","isThreshold","SC_threshold","final_threshold","isLuminance","FF_luminance","luminance","stimSide","ISInt","isFF","question_order","isSPQ","isCAPS","isAQ"
"pavlovia","0","8","0.0-0.0","5b257364a7cee100011d8831","6368f2eea3e9634aebcc2f6b","636ce93c6504c5f01de60f85","","","","","","","","","","","","","","","","","","","","","","","","","","","","","","","",""
"html-button-response","1","3407","0.0-1.0","5b257364a7cee100011d8831","6368f2eea3e9634aebcc2f6b","636ce93c6504c5f01de60f85","3396.6999999955297","<div style='background-color: white; width:60%; margin: auto; padding: 50px; text-align: justify; text-justify: inter-word; margin-bottom: 20px;'><h1 style='text-align: center;'>Consent Form</h1><p>Please read this consent form carefully before deciding whether you would like to participate in this study. You have to be 18 years old or older to participate to this study.</p><p style='text-decoration: underline;'>Participation is voluntary:</p><p>It is your choice whether or not to participate in this research. If you choose to participate, you may change your mind and leave the study at any time. Refusal to participate or stopping your participation will involve no penalty or loss of benefits to which you are otherwise entitled.</p><p style='text-decoration: underline;'>Purpose of the Study:</p><p>To understand the mechanisms underlying human perception.</p><p style='text-decoration: underline;'>What you will do in this study:</p><p>You will be presented with a series of visual images and then you will press buttons on the keyboard of your computer to respond to simple questions about the images (e.g. Were one or two images presented?). In addition, you will be asked to complete a questionnaire concerning your beliefs and everyday mental and perceptual experiences.'</p><p style='text-decoration: underline;'> Time Required:</p><p>The study will take 40 minutes to complete. </p><p style='text-decoration: underline;'>Risks:</p><p>There are no anticipated risks associated with participating in this study that are beyond those experienced in everyday life. </p><p style='text-decoration: underline;'>Benefits:</p><p>There are no benefits to you in participating in the study. However, this study may lead to a better understanding of how different kinds of visual information are used.</p><p style='text-decoration: underline;'>Compensation:</p><p>You will be paid US$6.6/hour. </p><p style='text-decoration: underline;'>Privacy and Confidentiality:</p><p>Your participation in this study will be anonymous. No personal information about your name or identity will be asked or recorded. This anonymous data will be stored for several years and may be used for a variety of research purposes. The overall results of the study may be published, or the data files may be shared with other researchers, but your identity will not be revealed in any way. The online services we are using for this study may temporarily store your data, but this data will be downloaded and then promptly deleted from those services.Your data will not be permanently associated with your name, IP address, or any other identifiable information (e.g., your information will only be connected to your payment, not to any of your responses), though they may be temporarily stored together before we download and separate them. Even so, no guarantee of internet survey security can be given because, although unlikely, transmissions can be intercepted and IP addresses can be identified. The anonymous data may be shared publicly (for example, in conjunction with a resulting academic publication).</p><p style='text-decoration: underline;'>Participation and Withdrawal:</p><p>Your participation in this study is completely voluntary. You may stop responding to the stimuli or stop answering questions if you so choose and without penalty by exiting the full screen mode, closing this tab of your browser or redirecting it to a different website.</p><p style='text-decoration: underline;'>Contact Info of the Researcher: </p><p>If you have questions about this study, or if you would like to talk to the research team, please contact David Melcher (david.melcher@nyu.edu, md5050@nyu.edu) at the Perception and Active Cognition Laboratory, New York University Abu Dhabi, Computational Research Building, Saadiyat Island, Abu Dhabi, UAE.This research has been reviewed by the New York University Abu Dhabi Institutional Review Board (NYUAD IRB). To contact about your rights in this research, for questions, suggestions, or complaints that are not addressed by the researchers, please email IRBnyuad@nyu.edu, or call the NYUAD IRB at +971 2 628 4313. </p></div>","0","","","","","","","","","","","","","","","","","","","","","","","","","","","","",""
"fullscreen","2","4548","0.0-2.0","5b257364a7cee100011d8831","6368f2eea3e9634aebcc2f6b","636ce93c6504c5f01de60f85","","","","true","","","","","","","","","","","","","","","","","","","","","","","","","","","",""
"html-keyboard-response","3","13768","0.0-3.0","5b257364a7cee100011d8831","6368f2eea3e9634aebcc2f6b","636ce93c6504c5f01de60f85","9218.5","<p>Welcome !</p><p>READ CAREFULLY THE FOLLOWING INDICATIONS:</p><p>From this moment you have ~40 minutes to complete the experiment.</p><p>During the experiment you will be prompted to take several breaks. Each break should not last longer than 2-3 minutes.</p><p>Make sure that your computer is plugged in and it's not running on battery power, even if the battery is already fully charged.</p><p>Turn off your phone and music, make sure that you are in a quiet room and that you will not be distracted for the next hour.</p><p>Failure to comply with the instructions and indications provided during the experiment will most likely result in the rejection of your data.<p>Press the spacebar to start.</p>","","","32","","","","","","","","","","","","","","","","","","","","","","","","","","",""
"survey-html-form","4","19720","0.0-4.0","5b257364a7cee100011d8831","6368f2eea3e9634aebcc2f6b","636ce93c6504c5f01de60f85","5951.10000000149","","","","","{""age"":""52"",""sex"":""M""}","true","","","","","","","","","","","","","","","","","","","","","","","","",""
"instructions","5","58769","0.0-5.0","5b257364a7cee100011d8831","6368f2eea3e9634aebcc2f6b","636ce93c6504c5f01de60f85","39048.19999999553","","","","","","","[{""page_index"":0,""viewing_time"":22027.29999999702},{""page_index"":1,""viewing_time"":13141.70000000298},{""page_index"":2,""viewing_time"":3878.89999999851}]","","","","","","","","","","","","","","","","","","","","","","","",""
"psychophysics","6","62034","0.0-6.0-0.0","5b257364a7cee100011d8831","6368f2eea3e9634aebcc2f6b","636ce93c6504c5f01de60f85","2256.39999999851","","","","39","","","","key","16.666372448979576","683","331.5","true","1","180","30","0","-1","","","","","","","","","","","","","",""
"psychophysics","7","63612","0.0-6.0-0.1","5b257364a7cee100011d8831","6368f2eea3e9634aebcc2f6b","636ce93c6504c5f01de60f85","570.3999999985099","","","","39","","","","key","16.665468085106422","683","331.5","true","1","180","30","0","-1","-1","","","","","","","","","","","","",""
"psychophysics","8","64845","0.0-6.0-0.2","5b257364a7cee100011d8831","6368f2eea3e9634aebcc2f6b","636ce93c6504c5f01de60f85","227.09999999403954","","","","39","","","","key","16.66676712328776","683","331.5","true","1","150","30","0","-1","-1","","","","","","","","","","","","",""
"psychophysics","9","65999","0.0-6.0-0.3","5b257364a7cee100011d8831","6368f2eea3e9634aebcc2f6b","636ce93c6504c5f01de60f85","148.60000000149012","","","","37","","","","key","16.666191176470686","683","331.5","true","-1","150","30","0","-1","-1","","","","","","","","","","","","",""
"psychophysics","10","68795","0.0-6.0-0.4","5b257364a7cee100011d8831","6368f2eea3e9634aebcc2f6b","636ce93c6504c5f01de60f85","1793.2999999970198","","","","37","","","","key","16.66626946107789","683","331.5","true","1","129","24","1","1","-1","","","","","","","","","","","","",""
"psychophysics","11","72386","0.0-6.0-0.5","5b257364a7cee100011d8831","6368f2eea3e9634aebcc2f6b","636ce93c6504c5f01de60f85","2584.3000000044703","","","","37","","","","key","16.666093457943965","683","331.5","true","-1","153","24","1","-1","1","","","","","","","","","","","","",""
"psychophysics","12","73618","0.0-6.0-0.6","5b257364a7cee100011d8831","6368f2eea3e9634aebcc2f6b","636ce93c6504c5f01de60f85","226.60000000149012","","","","39","","","","key","16.665630136986305","683","331.5","true","1","153","19.2","2","-1","-1","","","","","","","","","","","","",""
"psychophysics","13","74956","0.0-6.0-0.7","5b257364a7cee100011d8831","6368f2eea3e9634aebcc2f6b","636ce93c6504c5f01de60f85","331","","","","39","","","","key","16.666189873417732","683","331.5","true","1","133.8","19.2","2","-1","-1","","","","","","","","","","","","",""
"psychophysics","14","76621","0.0-6.0-0.8","5b257364a7cee100011d8831","6368f2eea3e9634aebcc2f6b","636ce93c6504c5f01de60f85","659.1999999955297","","","","39","","","","key","16.666898989899","683","331.5","true","1","133.8","19.2","2","-1","-1","","","","","","","","","","","","",""
"psychophysics","15","78594","0.0-6.0-0.9","5b257364a7cee100011d8831","6368f2eea3e9634aebcc2f6b","636ce93c6504c5f01de60f85","969.1000000014901","","","","37","","","","key","16.666720338983012","683","331.5","true","-1","129","19.2","2","-1","-1","","","","","","","","","","","","",""
"psychophysics","16","80565","0.0-6.0-0.10","5b257364a7cee100011d8831","6368f2eea3e9634aebcc2f6b","636ce93c6504c5f01de60f85","961.8999999985099","","","","37","","","","key","16.66618803418806","683","331.5","true","1","129","15.36","3","1","-1","","","","","","","","","","","","",""
"psychophysics","17","81612","0.0-6.0-0.11","5b257364a7cee100011d8831","6368f2eea3e9634aebcc2f6b","636ce93c6504c5f01de60f85","40.399999998509884","","","","39","","","","key","16.666129032258112","683","331.5","true","1","144.36","15.36","3","-1","1","","","","","","","","","","","","",""
"psychophysics","18","82727","0.0-6.0-0.12","5b257364a7cee100011d8831","6368f2eea3e9634aebcc2f6b","636ce93c6504c5f01de60f85","108.60000000149012","","","","39","","","","key","16.666136363636532","683","331.5","true","1","144.36","12.287999999999998","4","-1","-1","","","","","","","","","","","","",""
"psychophysics","19","84736","0.0-6.0-0.13","5b257364a7cee100011d8831","6368f2eea3e9634aebcc2f6b","636ce93c6504c5f01de60f85","1005.8999999985099","","","","37","","","","key","16.666210084033693","683","331.5","true","-1","132.072","12.287999999999998","4","-1","-1","","","","","","","","","","","","",""
"psychophysics","20","86514","0.0-6.0-0.14","5b257364a7cee100011d8831","6368f2eea3e9634aebcc2f6b","636ce93c6504c5f01de60f85","776.5","","","","37","","","","key","16.666641509434005","683","331.5","true","-1","132.072","12.287999999999998","4","-1","-1","","","","","","","","","","","","",""
"psychophysics","21","89759","0.0-6.0-0.15","5b257364a7cee100011d8831","6368f2eea3e9634aebcc2f6b","636ce93c6504c5f01de60f85","2236.5","","","","37","","","","key","16.665860824742246","683","331.5","true","1","129","9.8304","5","1","-1","","","","","","","","","","","","",""
"psychophysics","22","90879","0.0-6.0-0.16","5b257364a7cee100011d8831","6368f2eea3e9634aebcc2f6b","636ce93c6504c5f01de60f85","116.90000000596046","","","","37","","","","key","16.665909090909047","683","331.5","true","-1","138.8304","9.8304","5","-1","1","","","","","","","","","","","","",""
"psychophysics","23","91887","0.0-6.0-0.17","5b257364a7cee100011d8831","6368f2eea3e9634aebcc2f6b","636ce93c6504c5f01de60f85","4.5","","","","37","","","","key","16.666271186440884","683","331.5","true","-1","138.8304","7.864319999999999","6","-1","-1","","","","","","","","","","","","",""
"psychophysics","24","94411","0.0-6.0-0.18","5b257364a7cee100011d8831","6368f2eea3e9634aebcc2f6b","636ce93c6504c5f01de60f85","1520.6000000014901","","","","37","","","","key","16.665788079470197","683","331.5","true","1","130.96608","6.291456","7","1","-1","","","","","","","","","","","","",""
"psychophysics","25","95899","0.0-6.0-0.19","5b257364a7cee100011d8831","6368f2eea3e9634aebcc2f6b","636ce93c6504c5f01de60f85","479.79999999701977","","","","39","","","","key","16.666102272727255","683","331.5","true","1","137.25753600000002","6.291456","7","-1","1","","","","","","","","","","","","",""
"psychophysics","26","97398","0.0-6.0-0.20","5b257364a7cee100011d8831","6368f2eea3e9634aebcc2f6b","636ce93c6504c5f01de60f85","491.09999999403954","","","","37","","","","key","16.667202247190943","683","331.5","true","-1","137.25753600000002","5.033164800000001","8","-1","-1","","","","","","","","","","","","",""
"psychophysics","27","99109","0.0-6.0-0.21","5b257364a7cee100011d8831","6368f2eea3e9634aebcc2f6b","636ce93c6504c5f01de60f85","707.3000000044703","","","","39","","","","key","16.665637254902002","683","331.5","true","1","132.2243712","5.033164800000001","8","-1","-1","","","","","","","","","","","","",""
"psychophysics","28","100865","0.0-6.0-0.22","5b257364a7cee100011d8831","6368f2eea3e9634aebcc2f6b","636ce93c6504c5f01de60f85","750.7000000029802","","","","37","","","","key","16.66482692307699","683","331.5","true","-1","132.2243712","5.033164800000001","8","-1","-1","","","","","","","","","","","","",""
"psychophysics","29","102465","0.0-6.0-0.23","5b257364a7cee100011d8831","6368f2eea3e9634aebcc2f6b","636ce93c6504c5f01de60f85","597.8999999985099","","","","39","","","","key","16.6651157894737","683","331.5","true","1","129","5.033164800000001","8","-1","-1","","","","","","","","","","","","",""
"psychophysics","30","104603","0.0-6.0-0.24","5b257364a7cee100011d8831","6368f2eea3e9634aebcc2f6b","636ce93c6504c5f01de60f85","1137.1000000014901","","","","39","","","","key","16.66691338582669","683","331.5","true","-1","129","4.0265318400000005","9","1","-1","","","","","","","","","","","","",""
"psychophysics","31","106269","0.0-6.0-0.25","5b257364a7cee100011d8831","6368f2eea3e9634aebcc2f6b","636ce93c6504c5f01de60f85","662.2999999970198","","","","39","","","","key","16.666424242424192","683","331.5","true","-1","133.02653184","4.0265318400000005","9","1","1","","","","","","","","","","","","",""
"psychophysics","32","107871","0.0-6.0-0.26","5b257364a7cee100011d8831","6368f2eea3e9634aebcc2f6b","636ce93c6504c5f01de60f85","597.8999999985099","","","","39","","","","key","16.665842105263053","683","331.5","true","1","137.05306367999998","4.0265318400000005","9","-1","1","","","","","","","","","","","","",""
"psychophysics","33","109360","0.0-6.0-0.27","5b257364a7cee100011d8831","6368f2eea3e9634aebcc2f6b","636ce93c6504c5f01de60f85","486.6000000014901","","","","39","","","","key","16.667168539325807","683","331.5","true","1","137.05306367999998","3.2212254720000004","10","-1","-1","","","","","","","","","","","","",""
"psychophysics","34","111470","0.0-6.0-0.28","5b257364a7cee100011d8831","6368f2eea3e9634aebcc2f6b","636ce93c6504c5f01de60f85","1107.7999999970198","","","","37","","","","key","16.666304000000004","683","331.5","true","-1","133.83183820799997","3.2212254720000004","10","-1","-1","","","","","","","","","","","","",""
"psychophysics","35","113258","0.0-6.0-0.29","5b257364a7cee100011d8831","6368f2eea3e9634aebcc2f6b","636ce93c6504c5f01de60f85","785.3999999985099","","","","37","","","","key","16.666327102803795","683","331.5","true","-1","133.83183820799997","3.2212254720000004","10","-1","-1","","","","","","","","","","","","",""
"psychophysics","36","115594","0.0-6.0-0.30","5b257364a7cee100011d8831","6368f2eea3e9634aebcc2f6b","636ce93c6504c5f01de60f85","1326.7000000029802","","","","39","","","","key","16.665856115107836","683","331.5","true","1","130.61061273599995","3.2212254720000004","10","-1","-1","","","","","","","","","","","","",""
"psychophysics","37","117575","0.0-6.0-0.31","5b257364a7cee100011d8831","6368f2eea3e9634aebcc2f6b","636ce93c6504c5f01de60f85","971.7000000029802","","","","39","","","","key","16.66562711864402","683","331.5","true","1","130.61061273599995","3.2212254720000004","10","-1","-1","","","","","","","","","","","","",""
"psychophysics","38","119775","0.0-6.0-0.32","5b257364a7cee100011d8831","6368f2eea3e9634aebcc2f6b","636ce93c6504c5f01de60f85","1197.1000000014901","","","","39","","","","key","16.66647328244267","683","331.5","true","-1","129","2.5769803776000004","11","1","-1","","","","","","","","","","","","",""
"psychophysics","39","122299","0.0-6.0-0.33","5b257364a7cee100011d8831","6368f2eea3e9634aebcc2f6b","636ce93c6504c5f01de60f85","1520.0999999940395","","","","39","","","","key","16.66613333333332","683","331.5","true","-1","131.5769803776","2.5769803776000004","11","1","1","","","","","","","","","","","","",""
"psychophysics","40","124429","0.0-6.0-0.34","5b257364a7cee100011d8831","6368f2eea3e9634aebcc2f6b","636ce93c6504c5f01de60f85","1123","","","","39","","","","key","16.665976377952738","683","331.5","true","-1","134.1539607552","2.5769803776000004","11","1","1","","","","","","","","","","","","",""
"psychophysics","41","125670","0.0-6.0-0.35","5b257364a7cee100011d8831","6368f2eea3e9634aebcc2f6b","636ce93c6504c5f01de60f85","235.69999999552965","","","","39","","","","key","16.665479452054818","683","331.5","true","1","136.73094113279998","2.5769803776000004","11","-1","1","","","","","","","","","","","","",""
"psychophysics","42","127475","0.0-6.0-0.36","5b257364a7cee100011d8831","6368f2eea3e9634aebcc2f6b","636ce93c6504c5f01de60f85","803","","","","37","","","","key","16.66673148148146","683","331.5","true","-1","136.73094113279998","2.0615843020800004","12","-1","-1","","","","","","","","","","","","",""
"psychophysics","43","130044","0.0-6.0-0.37","5b257364a7cee100011d8831","6368f2eea3e9634aebcc2f6b","636ce93c6504c5f01de60f85","1562","","","","39","","","","key","16.666450980392185","683","331.5","true","-1","134.66935683071998","1.6492674416640005","13","1","-1","","","","","","","","","","","","",""
"psychophysics","44","131642","0.0-6.0-0.38","5b257364a7cee100011d8831","6368f2eea3e9634aebcc2f6b","636ce93c6504c5f01de60f85","591.5","","","","37","","","","key","16.666368421052866","683","331.5","true","-1","136.31862427238397","1.6492674416640005","13","-1","1","","","","","","","","","","","","",""
"psychophysics","45","133832","0.0-6.0-0.39","5b257364a7cee100011d8831","6368f2eea3e9634aebcc2f6b","636ce93c6504c5f01de60f85","1181.8999999985099","","","","39","","","","key","16.66609999999995","683","331.5","true","-1","136.31862427238397","1.3194139533312006","14","1","-1","","","","","","","","","","","","",""
"html-keyboard-response","46","137429","0.0-7.0","5b257364a7cee100011d8831","6368f2eea3e9634aebcc2f6b","636ce93c6504c5f01de60f85","3596.5","<p>Well Done !</p><p>Prepare for a new block.</p><p>DON'T EXIT THE FULL SCREEN MODE</p><p>Press the Spacebar to start.</p>","","","32","","","","","","","","","","","","","","","true","134.10113265745915","","","","","","","","","","",""
"psychophysics","47","138486","0.0-8.0-0.0","5b257364a7cee100011d8831","6368f2eea3e9634aebcc2f6b","636ce93c6504c5f01de60f85","50.79999999701977","","","","39","","","","key","16.666920634920686","683","331.5","true","1","180","30","0","-1","","","","","","","","","","","","","",""
"psychophysics","48","139583","0.0-8.0-0.1","5b257364a7cee100011d8831","6368f2eea3e9634aebcc2f6b","636ce93c6504c5f01de60f85","94.60000000149012","","","","39","","","","key","16.66518461538452","683","331.5","true","1","180","30","0","-1","-1","","","","","","","","","","","","",""
"psychophysics","49","140633","0.0-8.0-0.2","5b257364a7cee100011d8831","6368f2eea3e9634aebcc2f6b","636ce93c6504c5f01de60f85","39","","","","37","","","","key","16.66774193548378","683","331.5","true","-1","150","30","0","-1","-1","","","","","","","","","","","","",""
"psychophysics","50","141672","0.0-8.0-0.3","5b257364a7cee100011d8831","6368f2eea3e9634aebcc2f6b","636ce93c6504c5f01de60f85","37.30000000447035","","","","39","","","","key","16.664806451613266","683","331.5","true","1","150","30","0","-1","-1","","","","","","","","","","","","",""
"psychophysics","51","143002","0.0-8.0-0.4","5b257364a7cee100011d8831","6368f2eea3e9634aebcc2f6b","636ce93c6504c5f01de60f85","319.29999999701977","","","","37","","","","key","16.66588461538441","683","331.5","true","1","129","24","1","1","-1","","","","","","","","","","","","",""
"psychophysics","52","144137","0.0-8.0-0.5","5b257364a7cee100011d8831","6368f2eea3e9634aebcc2f6b","636ce93c6504c5f01de60f85","132.39999999850988","","","","39","","","","key","16.66631343283555","683","331.5","true","1","153","24","1","-1","1","","","","","","","","","","","","",""
"psychophysics","53","145203","0.0-8.0-0.6","5b257364a7cee100011d8831","6368f2eea3e9634aebcc2f6b","636ce93c6504c5f01de60f85","64.29999999701977","","","","37","","","","key","16.66739682539686","683","331.5","true","-1","153","19.2","2","-1","-1","","","","","","","","","","","","",""
"psychophysics","54","146235","0.0-8.0-0.7","5b257364a7cee100011d8831","6368f2eea3e9634aebcc2f6b","636ce93c6504c5f01de60f85","30.899999998509884","","","","37","","","","key","16.66785245901594","683","331.5","true","-1","133.8","19.2","2","-1","-1","","","","","","","","","","","","",""
"psychophysics","55","147748","0.0-8.0-0.8","5b257364a7cee100011d8831","6368f2eea3e9634aebcc2f6b","636ce93c6504c5f01de60f85","510.29999999701977","","","","39","","","","key","16.666666666666668","683","331.5","true","1","133.8","19.2","2","-1","-1","","","","","","","","","","","","",""
"psychophysics","56","149101","0.0-8.0-0.9","5b257364a7cee100011d8831","6368f2eea3e9634aebcc2f6b","636ce93c6504c5f01de60f85","347.20000000298023","","","","39","","","","key","16.666425000000164","683","331.5","true","1","129","19.2","2","-1","-1","","","","","","","","","","","","",""
"psychophysics","57","150633","0.0-8.0-0.10","5b257364a7cee100011d8831","6368f2eea3e9634aebcc2f6b","636ce93c6504c5f01de60f85","528.3999999985099","","","","37","","","","key","16.665648351648276","683","331.5","true","-1","129","19.2","2","-1","-1","","","","","","","","","","","","",""
"psychophysics","58","152115","0.0-8.0-0.11","5b257364a7cee100011d8831","6368f2eea3e9634aebcc2f6b","636ce93c6504c5f01de60f85","480.20000000298023","","","","37","","","","key","16.6659204545454","683","331.5","true","1","129","15.36","3","1","-1","","","","","","","","","","","","",""
"psychophysics","59","153420","0.0-8.0-0.12","5b257364a7cee100011d8831","6368f2eea3e9634aebcc2f6b","636ce93c6504c5f01de60f85","299","","","","37","","","","key","16.666545454545744","683","331.5","true","-1","144.36","15.36","3","-1","1","","","","","","","","","","","","",""
"psychophysics","60","154627","0.0-8.0-0.13","5b257364a7cee100011d8831","6368f2eea3e9634aebcc2f6b","636ce93c6504c5f01de60f85","205.79999999701977","","","","39","","","","key","16.667375000000092","683","331.5","true","1","144.36","12.287999999999998","4","-1","-1","","","","","","","","","","","","",""
"psychophysics","61","155966","0.0-8.0-0.14","5b257364a7cee100011d8831","6368f2eea3e9634aebcc2f6b","636ce93c6504c5f01de60f85","330.80000000447035","","","","37","","","","key","16.66470886075934","683","331.5","true","-1","132.072","12.287999999999998","4","-1","-1","","","","","","","","","","","","",""
"psychophysics","62","157678","0.0-8.0-0.15","5b257364a7cee100011d8831","6368f2eea3e9634aebcc2f6b","636ce93c6504c5f01de60f85","708.1000000014901","","","","39","","","","key","16.665764705882598","683","331.5","true","1","132.072","12.287999999999998","4","-1","-1","","","","","","","","","","","","",""
"psychophysics","63","160259","0.0-8.0-0.16","5b257364a7cee100011d8831","6368f2eea3e9634aebcc2f6b","636ce93c6504c5f01de60f85","1576.5","","","","39","","","","key","16.665564935064953","683","331.5","true","1","129","12.287999999999998","4","-1","-1","","","","","","","","","","","","",""
"psychophysics","64","162479","0.0-8.0-0.17","5b257364a7cee100011d8831","6368f2eea3e9634aebcc2f6b","636ce93c6504c5f01de60f85","1211.6000000014901","","","","39","","","","key","16.66561363636367","683","331.5","true","-1","129","9.8304","5","1","-1","","","","","","","","","","","","",""
"psychophysics","65","163849","0.0-8.0-0.18","5b257364a7cee100011d8831","6368f2eea3e9634aebcc2f6b","636ce93c6504c5f01de60f85","366.69999999552965","","","","37","","","","key","16.666086419753192","683","331.5","true","-1","138.8304","9.8304","5","-1","1","","","","","","","","","","","","",""
"psychophysics","66","165081","0.0-8.0-0.19","5b257364a7cee100011d8831","6368f2eea3e9634aebcc2f6b","636ce93c6504c5f01de60f85","227.10000000149012","","","","39","","","","key","16.66716438356176","683","331.5","true","1","138.8304","7.864319999999999","6","-1","-1","","","","","","","","","","","","",""
"psychophysics","67","167374","0.0-8.0-0.20","5b257364a7cee100011d8831","6368f2eea3e9634aebcc2f6b","636ce93c6504c5f01de60f85","1290.8999999985099","","","","37","","","","key","16.665934306569397","683","331.5","true","-1","130.96608","7.864319999999999","6","-1","-1","","","","","","","","","","","","",""
"psychophysics","68","169818","0.0-8.0-0.21","5b257364a7cee100011d8831","6368f2eea3e9634aebcc2f6b","636ce93c6504c5f01de60f85","1439.7999999970198","","","","37","","","","key","16.66628965517237","683","331.5","true","1","130.96608","6.291456","7","1","-1","","","","","","","","","","","","",""
"psychophysics","69","172223","0.0-8.0-0.22","5b257364a7cee100011d8831","6368f2eea3e9634aebcc2f6b","636ce93c6504c5f01de60f85","1403.2999999970198","","","","37","","","","key","16.666652777777724","683","331.5","true","-1","137.25753600000002","6.291456","7","-1","1","","","","","","","","","","","","",""
"psychophysics","70","173294","0.0-8.0-0.23","5b257364a7cee100011d8831","6368f2eea3e9634aebcc2f6b","636ce93c6504c5f01de60f85","68.20000000298023","","","","39","","","","key","16.666999999999664","683","331.5","true","1","137.25753600000002","5.033164800000001","8","-1","-1","","","","","","","","","","","","",""
"psychophysics","71","175076","0.0-8.0-0.24","5b257364a7cee100011d8831","6368f2eea3e9634aebcc2f6b","636ce93c6504c5f01de60f85","777.6000000014901","","","","37","","","","key","16.666216981131857","683","331.5","true","-1","132.2243712","5.033164800000001","8","-1","-1","","","","","","","","","","","","",""
"psychophysics","72","177600","0.0-8.0-0.25","5b257364a7cee100011d8831","6368f2eea3e9634aebcc2f6b","636ce93c6504c5f01de60f85","1518","","","","37","","","","key","16.666326666666816","683","331.5","true","-1","132.2243712","5.033164800000001","8","-1","-1","","","","","","","","","","","","",""
"psychophysics","73","179757","0.0-8.0-0.26","5b257364a7cee100011d8831","6368f2eea3e9634aebcc2f6b","636ce93c6504c5f01de60f85","1154.1999999955297","","","","37","","","","key","16.666069767441712","683","331.5","true","-1","129","5.033164800000001","8","-1","-1","","","","","","","","","","","","",""
"psychophysics","74","182263","0.0-8.0-0.27","5b257364a7cee100011d8831","6368f2eea3e9634aebcc2f6b","636ce93c6504c5f01de60f85","1500.3000000044703","","","","39","","","","key","16.66623489932886","683","331.5","true","1","129","5.033164800000001","8","-1","-1","","","","","","","","","","","","",""
"psychophysics","75","185076","0.0-8.0-0.28","5b257364a7cee100011d8831","6368f2eea3e9634aebcc2f6b","636ce93c6504c5f01de60f85","1809.8000000044703","","","","39","","","","key","16.66614880952381","683","331.5","true","1","129","5.033164800000001","8","-1","-1","","","","","","","","","","","","",""
"psychophysics","76","186952","0.0-8.0-0.29","5b257364a7cee100011d8831","6368f2eea3e9634aebcc2f6b","636ce93c6504c5f01de60f85","869.3999999985099","","","","37","","","","key","16.665954954954973","683","331.5","true","-1","129","5.033164800000001","8","-1","-1","","","","","","","","","","","","",""
"psychophysics","77","189482","0.0-8.0-0.30","5b257364a7cee100011d8831","6368f2eea3e9634aebcc2f6b","636ce93c6504c5f01de60f85","1529.1000000014901","","","","39","","","","key","16.66664900662245","683","331.5","true","1","129","5.033164800000001","8","-1","-1","","","","","","","","","","","","",""
"psychophysics","78","191846","0.0-8.0-0.31","5b257364a7cee100011d8831","6368f2eea3e9634aebcc2f6b","636ce93c6504c5f01de60f85","1359.5999999940395","","","","39","","","","key","16.6660709219858","683","331.5","true","-1","129","4.0265318400000005","9","1","-1","","","","","","","","","","","","",""
"psychophysics","79","193945","0.0-8.0-0.32","5b257364a7cee100011d8831","6368f2eea3e9634aebcc2f6b","636ce93c6504c5f01de60f85","1093.6000000014901","","","","39","","","","key","16.66562400000007","683","331.5","true","1","133.02653184","4.0265318400000005","9","-1","1","","","","","","","","","","","","",""
"psychophysics","80","195998","0.0-8.0-0.33","5b257364a7cee100011d8831","6368f2eea3e9634aebcc2f6b","636ce93c6504c5f01de60f85","1051.8999999985099","","","","37","","","","key","16.665352459016475","683","331.5","true","-1","133.02653184","3.2212254720000004","10","-1","-1","","","","","","","","","","","","",""
"psychophysics","81","198137","0.0-8.0-0.34","5b257364a7cee100011d8831","6368f2eea3e9634aebcc2f6b","636ce93c6504c5f01de60f85","1134.8999999985099","","","","37","","","","key","16.66537500000004","683","331.5","true","-1","129.805306368","3.2212254720000004","10","-1","-1","","","","","","","","","","","","",""
"psychophysics","82","200275","0.0-8.0-0.35","5b257364a7cee100011d8831","6368f2eea3e9634aebcc2f6b","636ce93c6504c5f01de60f85","1128","","","","39","","","","key","16.666433070866045","683","331.5","true","-1","129.805306368","2.5769803776000004","11","1","-1","","","","","","","","","","","","",""
"psychophysics","83","202279","0.0-8.0-0.36","5b257364a7cee100011d8831","6368f2eea3e9634aebcc2f6b","636ce93c6504c5f01de60f85","995.8000000044703","","","","39","","","","key","16.666882352941148","683","331.5","true","1","132.3822867456","2.5769803776000004","11","-1","1","","","","","","","","","","","","",""
"psychophysics","84","204230","0.0-8.0-0.37","5b257364a7cee100011d8831","6368f2eea3e9634aebcc2f6b","636ce93c6504c5f01de60f85","946.6000000014901","","","","37","","","","key","16.666560344827555","683","331.5","true","1","132.3822867456","2.0615843020800004","12","1","-1","","","","","","","","","","","","",""
"psychophysics","85","205926","0.0-8.0-0.38","5b257364a7cee100011d8831","6368f2eea3e9634aebcc2f6b","636ce93c6504c5f01de60f85","690.5","","","","39","","","","key","16.66659405940595","683","331.5","true","-1","134.44387104768","2.0615843020800004","12","1","1","","","","","","","","","","","","",""
"psychophysics","86","207345","0.0-8.0-0.39","5b257364a7cee100011d8831","6368f2eea3e9634aebcc2f6b","636ce93c6504c5f01de60f85","414.59999999403954","","","","37","","","","key","16.66603571428589","683","331.5","true","-1","136.50545534976","2.0615843020800004","12","-1","1","","","","","","","","","","","","",""
"html-keyboard-response","87","209338","0.0-9.0","5b257364a7cee100011d8831","6368f2eea3e9634aebcc2f6b","636ce93c6504c5f01de60f85","1991.8999999985099","<p>Well Done !</p><p>Prepare for a new block.</p><p>DON'T EXIT THE FULL SCREEN MODE</p><p>Press the Spacebar to start.</p>","","","32","","","","","","","","","","","","","","","true","131.17346316697598","","","","","","","","","","",""
"psychophysics","88","212245","0.0-10.0-0.0","5b257364a7cee100011d8831","6368f2eea3e9634aebcc2f6b","636ce93c6504c5f01de60f85","1899","","","","39","","","","key","16.666540229885072","683","331.5","true","1","180","30","0","-1","","","","","","","","","","","","","",""
"psychophysics","89","213879","0.0-10.0-0.1","5b257364a7cee100011d8831","6368f2eea3e9634aebcc2f6b","636ce93c6504c5f01de60f85","629.2999999970198","","","","39","","","","key","16.66617525773202","683","331.5","true","1","180","30","0","-1","-1","","","","","","","","","","","","",""
"psychophysics","90","215203","0.0-10.0-0.2","5b257364a7cee100011d8831","6368f2eea3e9634aebcc2f6b","636ce93c6504c5f01de60f85","320.6000000014901","","","","37","","","","key","16.66530379746846","683","331.5","true","-1","150","30","0","-1","-1","","","","","","","","","","","","",""
"psychophysics","91","216475","0.0-10.0-0.3","5b257364a7cee100011d8831","6368f2eea3e9634aebcc2f6b","636ce93c6504c5f01de60f85","264.80000000447035","","","","37","","","","key","16.665973333333387","683","331.5","true","-1","150","30","0","-1","-1","","","","","","","","","","","","",""
"psychophysics","92","217867","0.0-10.0-0.4","5b257364a7cee100011d8831","6368f2eea3e9634aebcc2f6b","636ce93c6504c5f01de60f85","385.30000000447035","","","","39","","","","key","16.667353658536562","683","331.5","true","-1","129","24","1","1","-1","","","","","","","","","","","","",""
"psychophysics","93","219198","0.0-10.0-0.5","5b257364a7cee100011d8831","6368f2eea3e9634aebcc2f6b","636ce93c6504c5f01de60f85","329","","","","37","","","","key","16.666607594936483","683","331.5","true","-1","153","24","1","-1","1","","","","","","","","","","","","",""
"psychophysics","94","220447","0.0-10.0-0.6","5b257364a7cee100011d8831","6368f2eea3e9634aebcc2f6b","636ce93c6504c5f01de60f85","245.10000000149012","","","","37","","","","key","16.666783783783448","683","331.5","true","-1","153","19.2","2","-1","-1","","","","","","","","","","","","",""
"psychophysics","95","222456","0.0-10.0-0.7","5b257364a7cee100011d8831","6368f2eea3e9634aebcc2f6b","636ce93c6504c5f01de60f85","1006","","","","39","","","","key","16.66604166666657","683","331.5","true","-1","133.8","15.36","3","1","-1","","","","","","","","","","","","",""
"psychophysics","96","223842","0.0-10.0-0.8","5b257364a7cee100011d8831","6368f2eea3e9634aebcc2f6b","636ce93c6504c5f01de60f85","383.69999999552965","","","","39","","","","key","16.66562195121958","683","331.5","true","1","149.16000000000003","15.36","3","-1","1","","","","","","","","","","","","",""
"psychophysics","97","225219","0.0-10.0-0.9","5b257364a7cee100011d8831","6368f2eea3e9634aebcc2f6b","636ce93c6504c5f01de60f85","376.30000000447035","","","","39","","","","key","16.665658536585397","683","331.5","true","1","149.16000000000003","12.287999999999998","4","-1","-1","","","","","","","","","","","","",""
"psychophysics","98","226622","0.0-10.0-0.10","5b257364a7cee100011d8831","6368f2eea3e9634aebcc2f6b","636ce93c6504c5f01de60f85","395.6000000014901","","","","37","","","","key","16.667180722891437","683","331.5","true","-1","136.872","12.287999999999998","4","-1","-1","","","","","","","","","","","","",""
"psychophysics","99","227838","0.0-10.0-0.11","5b257364a7cee100011d8831","6368f2eea3e9634aebcc2f6b","636ce93c6504c5f01de60f85","212.19999999552965","","","","39","","","","key","16.666041666666892","683","331.5","true","1","136.872","12.287999999999998","4","-1","-1","","","","","","","","","","","","",""
"psychophysics","100","229650","0.0-10.0-0.12","5b257364a7cee100011d8831","6368f2eea3e9634aebcc2f6b","636ce93c6504c5f01de60f85","806.8999999985099","","","","37","","","","key","16.665093457944","683","331.5","true","1","129","9.8304","5","1","-1","","","","","","","","","","","","",""
"psychophysics","101","230897","0.0-10.0-0.13","5b257364a7cee100011d8831","6368f2eea3e9634aebcc2f6b","636ce93c6504c5f01de60f85","245.39999999850988","","","","39","","","","key","16.6658378378378","683","331.5","true","1","138.8304","9.8304","5","-1","1","","","","","","","","","","","","",""
"psychophysics","102","232163","0.0-10.0-0.14","5b257364a7cee100011d8831","6368f2eea3e9634aebcc2f6b","636ce93c6504c5f01de60f85","265.1000000014901","","","","37","","","","key","16.666066666666882","683","331.5","true","-1","138.8304","7.864319999999999","6","-1","-1","","","","","","","","","","","","",""
"psychophysics","103","233772","0.0-10.0-0.15","5b257364a7cee100011d8831","6368f2eea3e9634aebcc2f6b","636ce93c6504c5f01de60f85","603.6000000014901","","","","39","","","","key","16.66598958333331","683","331.5","true","-1","130.96608","6.291456","7","1","-1","","","","","","","","","","","","",""
"psychophysics","104","236384","0.0-10.0-0.16","5b257364a7cee100011d8831","6368f2eea3e9634aebcc2f6b","636ce93c6504c5f01de60f85","1605.5","","","","37","","","","key","16.665503225806393","683","331.5","true","-1","137.25753600000002","6.291456","7","-1","1","","","","","","","","","","","","",""
"psychophysics","105","237615","0.0-10.0-0.17","5b257364a7cee100011d8831","6368f2eea3e9634aebcc2f6b","636ce93c6504c5f01de60f85","229.89999999850988","","","","39","","","","key","16.66712328767139","683","331.5","true","1","137.25753600000002","5.033164800000001","8","-1","-1","","","","","","","","","","","","",""
"psychophysics","106","239713","0.0-10.0-0.18","5b257364a7cee100011d8831","6368f2eea3e9634aebcc2f6b","636ce93c6504c5f01de60f85","1088.1999999955297","","","","39","","","","key","16.66531200000015","683","331.5","true","-1","132.2243712","4.0265318400000005","9","1","-1","","","","","","","","","","","","",""
"psychophysics","107","241562","0.0-10.0-0.19","5b257364a7cee100011d8831","6368f2eea3e9634aebcc2f6b","636ce93c6504c5f01de60f85","845.5","","","","39","","","","key","16.66601818181807","683","331.5","true","1","136.25090304","4.0265318400000005","9","-1","1","","","","","","","","","","","","",""
"psychophysics","108","243020","0.0-10.0-0.20","5b257364a7cee100011d8831","6368f2eea3e9634aebcc2f6b","636ce93c6504c5f01de60f85","453.3999999985099","","","","39","","","","key","16.66590804597711","683","331.5","true","-1","136.25090304","3.2212254720000004","10","1","-1","","","","","","","","","","","","",""
"psychophysics","109","244671","0.0-10.0-0.21","5b257364a7cee100011d8831","6368f2eea3e9634aebcc2f6b","636ce93c6504c5f01de60f85","645.1999999955297","","","","37","","","","key","16.666500000000102","683","331.5","true","-1","139.47212851199998","3.2212254720000004","10","-1","1","","","","","","","","","","","","",""
"psychophysics","110","246561","0.0-10.0-0.22","5b257364a7cee100011d8831","6368f2eea3e9634aebcc2f6b","636ce93c6504c5f01de60f85","886.3999999985099","","","","37","","","","key","16.665812499999966","683","331.5","true","-1","139.47212851199998","2.5769803776000004","11","-1","-1","","","","","","","","","","","","",""
"psychophysics","111","247752","0.0-10.0-0.23","5b257364a7cee100011d8831","6368f2eea3e9634aebcc2f6b","636ce93c6504c5f01de60f85","184.79999999701977","","","","39","","","","key","16.666183098591535","683","331.5","true","1","136.8951481344","2.5769803776000004","11","-1","-1","","","","","","","","","","","","",""
"psychophysics","112","249003","0.0-10.0-0.24","5b257364a7cee100011d8831","6368f2eea3e9634aebcc2f6b","636ce93c6504c5f01de60f85","239.69999999552965","","","","37","","","","key","16.66464864864837","683","331.5","true","-1","136.8951481344","2.5769803776000004","11","-1","-1","","","","","","","","","","","","",""
"psychophysics","113","250329","0.0-10.0-0.25","5b257364a7cee100011d8831","6368f2eea3e9634aebcc2f6b","636ce93c6504c5f01de60f85","319.80000000447035","","","","39","","","","key","16.666282051282067","683","331.5","true","1","134.3181677568","2.5769803776000004","11","-1","-1","","","","","","","","","","","","",""
"psychophysics","114","252117","0.0-10.0-0.26","5b257364a7cee100011d8831","6368f2eea3e9634aebcc2f6b","636ce93c6504c5f01de60f85","783.2999999970198","","","","37","","","","key","16.666283018868096","683","331.5","true","-1","134.3181677568","2.5769803776000004","11","-1","-1","","","","","","","","","","","","",""
"psychophysics","115","254389","0.0-10.0-0.27","5b257364a7cee100011d8831","6368f2eea3e9634aebcc2f6b","636ce93c6504c5f01de60f85","1271.8999999985099","","","","39","","","","key","16.66581617647064","683","331.5","true","1","131.7411873792","2.5769803776000004","11","-1","-1","","","","","","","","","","","","",""
"psychophysics","116","256104","0.0-10.0-0.28","5b257364a7cee100011d8831","6368f2eea3e9634aebcc2f6b","636ce93c6504c5f01de60f85","709.2000000029802","","","","39","","","","key","16.66646078431365","683","331.5","true","1","131.7411873792","2.5769803776000004","11","-1","-1","","","","","","","","","","","","",""
"psychophysics","117","257785","0.0-10.0-0.29","5b257364a7cee100011d8831","6368f2eea3e9634aebcc2f6b","636ce93c6504c5f01de60f85","678.7999999970198","","","","39","","","","key","16.666179999999876","683","331.5","true","1","129.1642070016","2.5769803776000004","11","-1","-1","","","","","","","","","","","","",""
"psychophysics","118","260124","0.0-10.0-0.30","5b257364a7cee100011d8831","6368f2eea3e9634aebcc2f6b","636ce93c6504c5f01de60f85","1329.9000000059605","","","","37","","","","key","16.66564028776982","683","331.5","true","-1","129.1642070016","2.5769803776000004","11","-1","-1","","","","","","","","","","","","",""
"psychophysics","119","261822","0.0-10.0-0.31","5b257364a7cee100011d8831","6368f2eea3e9634aebcc2f6b","636ce93c6504c5f01de60f85","692.7000000029802","","","","37","","","","key","16.66564356435654","683","331.5","true","1","129","2.0615843020800004","12","1","-1","","","","","","","","","","","","",""
"psychophysics","120","263536","0.0-10.0-0.32","5b257364a7cee100011d8831","6368f2eea3e9634aebcc2f6b","636ce93c6504c5f01de60f85","709.8000000044703","","","","37","","","","key","16.666039215686716","683","331.5","true","1","131.06158430208","2.0615843020800004","12","1","1","","","","","","","","","","","","",""
"psychophysics","121","265528","0.0-10.0-0.33","5b257364a7cee100011d8831","6368f2eea3e9634aebcc2f6b","636ce93c6504c5f01de60f85","990.5","","","","39","","","","key","16.66598305084705","683","331.5","true","1","133.12316860416","2.0615843020800004","12","-1","1","","","","","","","","","","","","",""
"psychophysics","122","267138","0.0-10.0-0.34","5b257364a7cee100011d8831","6368f2eea3e9634aebcc2f6b","636ce93c6504c5f01de60f85","607.8999999985099","","","","39","","","","key","16.666031250000135","683","331.5","true","-1","133.12316860416","1.6492674416640005","13","1","-1","","","","","","","","","","","","",""
"psychophysics","123","269077","0.0-10.0-0.35","5b257364a7cee100011d8831","6368f2eea3e9634aebcc2f6b","636ce93c6504c5f01de60f85","930.8999999985099","","","","39","","","","key","16.666269565217764","683","331.5","true","-1","134.772436045824","1.6492674416640005","13","1","1","","","","","","","","","","","","",""
"psychophysics","124","270599","0.0-10.0-0.36","5b257364a7cee100011d8831","6368f2eea3e9634aebcc2f6b","636ce93c6504c5f01de60f85","517.1000000014901","","","","39","","","","key","16.666077777778263","683","331.5","true","1","136.421703487488","1.6492674416640005","13","-1","1","","","","","","","","","","","","",""
"psychophysics","125","273005","0.0-10.0-0.37","5b257364a7cee100011d8831","6368f2eea3e9634aebcc2f6b","636ce93c6504c5f01de60f85","1404.7000000029802","","","","37","","","","key","16.66636805555552","683","331.5","true","1","136.421703487488","1.3194139533312006","14","1","-1","","","","","","","","","","","","",""
"psychophysics","126","275136","0.0-10.0-0.38","5b257364a7cee100011d8831","6368f2eea3e9634aebcc2f6b","636ce93c6504c5f01de60f85","1126.5","","","","37","","","","key","16.66676377952759","683","331.5","true","1","137.7411174408192","1.3194139533312006","14","1","1","","","","","","","","","","","","",""
"psychophysics","127","276914","0.0-10.0-0.39","5b257364a7cee100011d8831","6368f2eea3e9634aebcc2f6b","636ce93c6504c5f01de60f85","774.8999999985099","","","","37","","","","key","16.66598095238109","683","331.5","true","-1","139.06053139415042","1.3194139533312006","14","-1","1","","","","","","","","","","","","",""
"html-keyboard-response","128","412706","0.0-11.0","5b257364a7cee100011d8831","6368f2eea3e9634aebcc2f6b","636ce93c6504c5f01de60f85","135791.1000000015","<p>Well Done !</p><p>Prepare for a new block.</p><p>DON'T EXIT THE FULL SCREEN MODE</p><p>Press the Spacebar to start.</p>","","","32","","","","","","","","","","","","","","","true","133.41150250942468","","","","","","","","","","",""
"psychophysics","129","414069","0.0-12.0-0.0","5b257364a7cee100011d8831","6368f2eea3e9634aebcc2f6b","636ce93c6504c5f01de60f85","357.6000000014901","","","","37","","","","key","16.672780487804232","683","331.5","true","-1","180","30","0","-1","","","","","","","","","","","","","",""
"psychophysics","130","417006","0.0-12.0-0.1","5b257364a7cee100011d8831","6368f2eea3e9634aebcc2f6b","636ce93c6504c5f01de60f85","1931.3000000044703","","","","39","","","","key","16.66567428571438","683","331.5","true","-1","180","30","0","1","-1","","","","","","","","","","","","",""
"psychophysics","131","418030","0.0-12.0-0.2","5b257364a7cee100011d8831","6368f2eea3e9634aebcc2f6b","636ce93c6504c5f01de60f85","20.900000005960464","","","","39","","","","key","16.665278688524506","683","331.5","true","1","210","30","0","-1","1","","","","","","","","","","","","",""
"psychophysics","132","420785","0.0-12.0-0.3","5b257364a7cee100011d8831","6368f2eea3e9634aebcc2f6b","636ce93c6504c5f01de60f85","1751.5","","","","39","","","","key","16.666250000000087","683","331.5","true","1","210","24","1","-1","-1","","","","","","","","","","","","",""
"psychophysics","133","424992","0.0-12.0-0.4","5b257364a7cee100011d8831","6368f2eea3e9634aebcc2f6b","636ce93c6504c5f01de60f85","3198.7000000029802","","","","37","","","","key","16.66614342629478","683","331.5","true","-1","186","24","1","-1","-1","","","","","","","","","","","","",""
"psychophysics","134","426498","0.0-12.0-0.5","5b257364a7cee100011d8831","6368f2eea3e9634aebcc2f6b","636ce93c6504c5f01de60f85","502.5","","","","37","","","","key","16.667099999999888","683","331.5","true","-1","186","24","1","-1","-1","","","","","","","","","","","","",""
"psychophysics","135","427812","0.0-12.0-0.6","5b257364a7cee100011d8831","6368f2eea3e9634aebcc2f6b","636ce93c6504c5f01de60f85","305.6000000014901","","","","37","","","","key","16.66578205128257","683","331.5","true","-1","162","24","1","-1","-1","","","","","","","","","","","","",""
"psychophysics","136","429164","0.0-12.0-0.7","5b257364a7cee100011d8831","6368f2eea3e9634aebcc2f6b","636ce93c6504c5f01de60f85","346.3999999985099","","","","37","","","","key","16.666449999999895","683","331.5","true","-1","162","24","1","-1","-1","","","","","","","","","","","","",""
"psychophysics","137","431020","0.0-12.0-0.8","5b257364a7cee100011d8831","6368f2eea3e9634aebcc2f6b","636ce93c6504c5f01de60f85","851","","","","39","","","","key","16.665381818182173","683","331.5","true","-1","138","19.2","2","1","-1","","","","","","","","","","","","",""
"psychophysics","138","432438","0.0-12.0-0.9","5b257364a7cee100011d8831","6368f2eea3e9634aebcc2f6b","636ce93c6504c5f01de60f85","411.3999999985099","","","","39","","","","key","16.666083333333344","683","331.5","true","1","157.2","19.2","2","-1","1","","","","","","","","","","","","",""
"psychophysics","139","433783","0.0-12.0-0.10","5b257364a7cee100011d8831","6368f2eea3e9634aebcc2f6b","636ce93c6504c5f01de60f85","341.1000000014901","","","","39","","","","key","16.66628750000018","683","331.5","true","1","157.2","15.36","3","-1","-1","","","","","","","","","","","","",""
"psychophysics","140","435097","0.0-12.0-0.11","5b257364a7cee100011d8831","6368f2eea3e9634aebcc2f6b","636ce93c6504c5f01de60f85","310.80000000447035","","","","39","","","","key","16.666410256410764","683","331.5","true","1","141.83999999999997","15.36","3","-1","-1","","","","","","","","","","","","",""
"psychophysics","141","436425","0.0-12.0-0.12","5b257364a7cee100011d8831","6368f2eea3e9634aebcc2f6b","636ce93c6504c5f01de60f85","319.8999999985099","","","","39","","","","key","16.665756410256456","683","331.5","true","1","141.83999999999997","15.36","3","-1","-1","","","","","","","","","","","","",""
"psychophysics","142","437948","0.0-12.0-0.13","5b257364a7cee100011d8831","6368f2eea3e9634aebcc2f6b","636ce93c6504c5f01de60f85","521.3000000044703","","","","37","","","","key","16.666318681318785","683","331.5","true","1","129","12.287999999999998","4","1","-1","","","","","","","","","","","","",""
"psychophysics","143","439277","0.0-12.0-0.14","5b257364a7cee100011d8831","6368f2eea3e9634aebcc2f6b","636ce93c6504c5f01de60f85","322.6000000014901","","","","39","","","","key","16.665217948717792","683","331.5","true","1","141.288","12.287999999999998","4","-1","1","","","","","","","","","","","","",""
"psychophysics","144","440597","0.0-12.0-0.15","5b257364a7cee100011d8831","6368f2eea3e9634aebcc2f6b","636ce93c6504c5f01de60f85","318.90000000596046","","","","39","","","","key","16.667658227848044","683","331.5","true","1","141.288","9.8304","5","-1","-1","","","","","","","","","","","","",""
"psychophysics","145","441846","0.0-12.0-0.16","5b257364a7cee100011d8831","6368f2eea3e9634aebcc2f6b","636ce93c6504c5f01de60f85","244.5","","","","39","","","","key","16.665945945946323","683","331.5","true","1","131.4576","9.8304","5","-1","-1","","","","","","","","","","","","",""
"psychophysics","146","443362","0.0-12.0-0.17","5b257364a7cee100011d8831","6368f2eea3e9634aebcc2f6b","636ce93c6504c5f01de60f85","512.2999999970198","","","","37","","","","key","16.66652222222183","683","331.5","true","-1","131.4576","9.8304","5","-1","-1","","","","","","","","","","","","",""
"psychophysics","147","445387","0.0-12.0-0.18","5b257364a7cee100011d8831","6368f2eea3e9634aebcc2f6b","636ce93c6504c5f01de60f85","1016.3999999985099","","","","39","","","","key","16.666841666666247","683","331.5","true","-1","129","7.864319999999999","6","1","-1","","","","","","","","","","","","",""
"psychophysics","148","446941","0.0-12.0-0.19","5b257364a7cee100011d8831","6368f2eea3e9634aebcc2f6b","636ce93c6504c5f01de60f85","547.6000000014901","","","","37","","","","key","16.665684782608878","683","331.5","true","-1","136.86432","7.864319999999999","6","-1","1","","","","","","","","","","","","",""
"psychophysics","149","448303","0.0-12.0-0.20","5b257364a7cee100011d8831","6368f2eea3e9634aebcc2f6b","636ce93c6504c5f01de60f85","359.6000000014901","","","","37","","","","key","16.66711111111138","683","331.5","true","-1","136.86432","6.291456","7","-1","-1","","","","","","","","","","","","",""
"psychophysics","150","450097","0.0-12.0-0.21","5b257364a7cee100011d8831","6368f2eea3e9634aebcc2f6b","636ce93c6504c5f01de60f85","791.4000000059605","","","","37","","","","key","16.666074766355315","683","331.5","true","-1","130.57286399999998","6.291456","7","-1","-1","","","","","","","","","","","","",""
"psychophysics","151","451628","0.0-12.0-0.22","5b257364a7cee100011d8831","6368f2eea3e9634aebcc2f6b","636ce93c6504c5f01de60f85","521.2999999970198","","","","37","","","","key","16.66497802197777","683","331.5","true","-1","130.57286399999998","6.291456","7","-1","-1","","","","","","","","","","","","",""
"psychophysics","152","453406","0.0-12.0-0.23","5b257364a7cee100011d8831","6368f2eea3e9634aebcc2f6b","636ce93c6504c5f01de60f85","770.8999999985099","","","","39","","","","key","16.66635238095242","683","331.5","true","1","129","6.291456","7","-1","-1","","","","","","","","","","","","",""
"psychophysics","153","454869","0.0-12.0-0.24","5b257364a7cee100011d8831","6368f2eea3e9634aebcc2f6b","636ce93c6504c5f01de60f85","459.29999999701977","","","","39","","","","key","16.665540229885078","683","331.5","true","1","129","6.291456","7","-1","-1","","","","","","","","","","","","",""
"psychophysics","154","456748","0.0-12.0-0.25","5b257364a7cee100011d8831","6368f2eea3e9634aebcc2f6b","636ce93c6504c5f01de60f85","872.8000000044703","","","","37","","","","key","16.66666071428543","683","331.5","true","1","129","5.033164800000001","8","1","-1","","","","","","","","","","","","",""
"psychophysics","155","458249","0.0-12.0-0.26","5b257364a7cee100011d8831","6368f2eea3e9634aebcc2f6b","636ce93c6504c5f01de60f85","494.5","","","","39","","","","key","16.664707865169024","683","331.5","true","-1","134.0331648","5.033164800000001","8","1","1","","","","","","","","","","","","",""
"psychophysics","156","459748","0.0-12.0-0.27","5b257364a7cee100011d8831","6368f2eea3e9634aebcc2f6b","636ce93c6504c5f01de60f85","489.90000000596046","","","","37","","","","key","16.666280898876394","683","331.5","true","-1","139.06632960000002","5.033164800000001","8","-1","1","","","","","","","","","","","","",""
"psychophysics","157","461045","0.0-12.0-0.28","5b257364a7cee100011d8831","6368f2eea3e9634aebcc2f6b","636ce93c6504c5f01de60f85","290.3999999985099","","","","39","","","","key","16.666142857142923","683","331.5","true","1","139.06632960000002","4.0265318400000005","9","-1","-1","","","","","","","","","","","","",""
"psychophysics","158","462389","0.0-12.0-0.29","5b257364a7cee100011d8831","6368f2eea3e9634aebcc2f6b","636ce93c6504c5f01de60f85","338.6000000014901","","","","39","","","","key","16.66500000000041","683","331.5","true","1","135.03979776000003","4.0265318400000005","9","-1","-1","","","","","","","","","","","","",""
"psychophysics","159","463711","0.0-12.0-0.30","5b257364a7cee100011d8831","6368f2eea3e9634aebcc2f6b","636ce93c6504c5f01de60f85","317.79999999701977","","","","39","","","","key","16.665430379746322","683","331.5","true","1","135.03979776000003","4.0265318400000005","9","-1","-1","","","","","","","","","","","","",""
"psychophysics","160","465552","0.0-12.0-0.31","5b257364a7cee100011d8831","6368f2eea3e9634aebcc2f6b","636ce93c6504c5f01de60f85","838.2000000029802","","","","39","","","","key","16.666889908256802","683","331.5","true","1","131.01326592000004","4.0265318400000005","9","-1","-1","","","","","","","","","","","","",""
"psychophysics","161","467462","0.0-12.0-0.32","5b257364a7cee100011d8831","6368f2eea3e9634aebcc2f6b","636ce93c6504c5f01de60f85","906.6000000014901","","","","37","","","","key","16.666184210526378","683","331.5","true","1","131.01326592000004","3.2212254720000004","10","1","-1","","","","","","","","","","","","",""
"psychophysics","162","469598","0.0-12.0-0.33","5b257364a7cee100011d8831","6368f2eea3e9634aebcc2f6b","636ce93c6504c5f01de60f85","1131.5","","","","39","","","","key","16.666669291338707","683","331.5","true","-1","134.23449139200005","3.2212254720000004","10","1","1","","","","","","","","","","","","",""
"psychophysics","163","471778","0.0-12.0-0.34","5b257364a7cee100011d8831","6368f2eea3e9634aebcc2f6b","636ce93c6504c5f01de60f85","1175.3000000044703","","","","39","","","","key","16.665976923076848","683","331.5","true","1","137.45571686400007","3.2212254720000004","10","-1","1","","","","","","","","","","","","",""
"psychophysics","164","473163","0.0-12.0-0.35","5b257364a7cee100011d8831","6368f2eea3e9634aebcc2f6b","636ce93c6504c5f01de60f85","377","","","","37","","","","key","16.666097560975555","683","331.5","true","-1","137.45571686400007","2.5769803776000004","11","-1","-1","","","","","","","","","","","","",""
"psychophysics","165","474562","0.0-12.0-0.36","5b257364a7cee100011d8831","6368f2eea3e9634aebcc2f6b","636ce93c6504c5f01de60f85","392.1000000014901","","","","39","","","","key","16.666590361445664","683","331.5","true","1","134.87873648640007","2.5769803776000004","11","-1","-1","","","","","","","","","","","","",""
"psychophysics","166","476132","0.0-12.0-0.37","5b257364a7cee100011d8831","6368f2eea3e9634aebcc2f6b","636ce93c6504c5f01de60f85","561.3999999985099","","","","39","","","","key","16.665365591398015","683","331.5","true","-1","134.87873648640007","2.0615843020800004","12","1","-1","","","","","","","","","","","","",""
"psychophysics","167","477358","0.0-12.0-0.38","5b257364a7cee100011d8831","6368f2eea3e9634aebcc2f6b","636ce93c6504c5f01de60f85","220","","","","37","","","","key","16.666750000000725","683","331.5","true","-1","136.94032078848008","2.0615843020800004","12","-1","1","","","","","","","","","","","","",""
"psychophysics","168","479232","0.0-12.0-0.39","5b257364a7cee100011d8831","6368f2eea3e9634aebcc2f6b","636ce93c6504c5f01de60f85","872","","","","37","","","","key","16.667124999999942","683","331.5","true","-1","136.94032078848008","1.6492674416640005","13","-1","-1","","","","","","","","","","","","",""
"html-keyboard-response","169","480671","0.0-13.0","5b257364a7cee100011d8831","6368f2eea3e9634aebcc2f6b","636ce93c6504c5f01de60f85","1438","<p>Well Done !</p><p>Prepare for a new block.</p><p>DON'T EXIT THE FULL SCREEN MODE</p><p>Press the Spacebar to start.</p>","","","32","","","","","","","","","","","","","","","true","135.07039940198405","","","","","","","","","","",""
"html-keyboard-response","170","480782","0.0-14.0","5b257364a7cee100011d8831","6368f2eea3e9634aebcc2f6b","636ce93c6504c5f01de60f85","null","","","","null","","","","","","","","","","","","","","","","","133.43912443396096","true","138.8782488679219","","","","","","","",""
"instructions","171","499382","0.0-15.0","5b257364a7cee100011d8831","6368f2eea3e9634aebcc2f6b","636ce93c6504c5f01de60f85","18599.69999999553","","","","","","","[{""page_index"":0,""viewing_time"":14491.89999999851},{""page_index"":1,""viewing_time"":2028.6000000014901},{""page_index"":2,""viewing_time"":2079}]","","","","","","","","","","","","","","","","","","","","","","","",""
"psychophysics","172","502402","0.0-16.0-0.0","5b257364a7cee100011d8831","6368f2eea3e9634aebcc2f6b","636ce93c6504c5f01de60f85","null","","","","null","","","","key","16.665683333333195","683","331.5","","","","","","","","","","","","","","","","","","","",""
"psychophysics","173","502906","0.0-16.0-1.0","5b257364a7cee100011d8831","6368f2eea3e9634aebcc2f6b","636ce93c6504c5f01de60f85","null","","","","null","","","","key","16.666103448277212","683","331.5","","","","","","","","","","","","","139","1","0","false","","","",""
"psychophysics","174","504329","0.0-16.0-2.0","5b257364a7cee100011d8831","6368f2eea3e9634aebcc2f6b","636ce93c6504c5f01de60f85","1422.5","","","","90","","","","key","16.666305882352926","683","331.5","","","","","","","","","","","","","","","","","","","",""
"psychophysics","175","505338","0.0-16.0-0.1","5b257364a7cee100011d8831","6368f2eea3e9634aebcc2f6b","636ce93c6504c5f01de60f85","null","","","","null","","","","key","16.666118644067417","683","331.5","","","","","","","","","","","","","","","","","","","",""
"psychophysics","176","505842","0.0-16.0-1.1","5b257364a7cee100011d8831","6368f2eea3e9634aebcc2f6b","636ce93c6504c5f01de60f85","null","","","","null","","","","key","16.665206896550632","683","331.5","","","","","","","","","","","","","139","1","4","false","","","",""
"psychophysics","177","506894","0.0-16.0-2.1","5b257364a7cee100011d8831","6368f2eea3e9634aebcc2f6b","636ce93c6504c5f01de60f85","1040.3000000044703","","","","90","","","","key","16.66719047619041","683","331.5","","","","","","","","","","","","","","","","","","","",""
"psychophysics","178","507898","0.0-16.0-0.2","5b257364a7cee100011d8831","6368f2eea3e9634aebcc2f6b","636ce93c6504c5f01de60f85","null","","","","null","","","","key","16.667406779660652","683","331.5","","","","","","","","","","","","","","","","","","","",""
"psychophysics","179","508402","0.0-16.0-1.2","5b257364a7cee100011d8831","6368f2eea3e9634aebcc2f6b","636ce93c6504c5f01de60f85","null","","","","null","","","","key","16.668586206897402","683","331.5","","","","","","","","","","","","","139","1","6","false","","","",""
"psychophysics","180","508722","0.0-16.0-2.2","5b257364a7cee100011d8831","6368f2eea3e9634aebcc2f6b","636ce93c6504c5f01de60f85","319.8999999985099","","","","77","","","","key","16.667111111112817","683","331.5","","","","","","","","","","","","","","","","","","","",""
"psychophysics","181","509725","0.0-16.0-0.3","5b257364a7cee100011d8831","6368f2eea3e9634aebcc2f6b","636ce93c6504c5f01de60f85","null","","","","null","","","","key","16.66632203389772","683","331.5","","","","","","","","","","","","","","","","","","","",""
"psychophysics","182","510226","0.0-16.0-1.3","5b257364a7cee100011d8831","6368f2eea3e9634aebcc2f6b","636ce93c6504c5f01de60f85","null","","","","null","","","","key","16.666066666667273","683","331.5","","","","","","","","","","","","","139","-1","6","false","","","",""
"psychophysics","183","510787","0.0-16.0-2.3","5b257364a7cee100011d8831","6368f2eea3e9634aebcc2f6b","636ce93c6504c5f01de60f85","560.2999999970198","","","","90","","","","key","16.663718750000044","683","331.5","","","","","","","","","","","","","","","","","","","",""
"psychophysics","184","511792","0.0-16.0-0.4","5b257364a7cee100011d8831","6368f2eea3e9634aebcc2f6b","636ce93c6504c5f01de60f85","null","","","","null","","","","key","16.665711864406813","683","331.5","","","","","","","","","","","","","","","","","","","",""
"psychophysics","185","512293","0.0-16.0-1.4","5b257364a7cee100011d8831","6368f2eea3e9634aebcc2f6b","636ce93c6504c5f01de60f85","null","","","","null","","","","key","16.667200000000108","683","331.5","","","","","","","","","","","","","139","-1","4","false","","","",""
"psychophysics","186","512544","0.0-16.0-2.4","5b257364a7cee100011d8831","6368f2eea3e9634aebcc2f6b","636ce93c6504c5f01de60f85","249.89999999850988","","","","77","","","","key","16.67314285714279","683","331.5","","","","","","","","","","","","","","","","","","","",""
"psychophysics","187","513546","0.0-16.0-0.5","5b257364a7cee100011d8831","6368f2eea3e9634aebcc2f6b","636ce93c6504c5f01de60f85","null","","","","null","","","","key","16.66457627118581","683","331.5","","","","","","","","","","","","","","","","","","","",""
"psychophysics","188","514051","0.0-16.0-1.5","5b257364a7cee100011d8831","6368f2eea3e9634aebcc2f6b","636ce93c6504c5f01de60f85","null","","","","null","","","","key","16.66279310344895","683","331.5","","","","","","","","","","","","","139","1","3","false","","","",""
"psychophysics","189","514713","0.0-16.0-2.5","5b257364a7cee100011d8831","6368f2eea3e9634aebcc2f6b","636ce93c6504c5f01de60f85","661.2000000029802","","","","90","","","","key","16.665948717948943","683","331.5","","","","","","","","","","","","","","","","","","","",""
"psychophysics","190","515714","0.0-16.0-0.6","5b257364a7cee100011d8831","6368f2eea3e9634aebcc2f6b","636ce93c6504c5f01de60f85","null","","","","null","","","","key","16.66733898305121","683","331.5","","","","","","","","","","","","","","","","","","","",""
"psychophysics","191","516219","0.0-16.0-1.6","5b257364a7cee100011d8831","6368f2eea3e9634aebcc2f6b","636ce93c6504c5f01de60f85","null","","","","null","","","","key","16.669344827584954","683","331.5","","","","","","","","","","","","","139","1","2","false","","","",""
"psychophysics","192","516677","0.0-16.0-2.6","5b257364a7cee100011d8831","6368f2eea3e9634aebcc2f6b","636ce93c6504c5f01de60f85","457.70000000298023","","","","77","","","","key","16.669851851852233","683","331.5","","","","","","","","","","","","","","","","","","","",""
"psychophysics","193","517683","0.0-16.0-0.7","5b257364a7cee100011d8831","6368f2eea3e9634aebcc2f6b","636ce93c6504c5f01de60f85","null","","","","null","","","","key","16.667491525423443","683","331.5","","","","","","","","","","","","","","","","","","","",""
"psychophysics","194","518187","0.0-16.0-1.7","5b257364a7cee100011d8831","6368f2eea3e9634aebcc2f6b","636ce93c6504c5f01de60f85","null","","","","null","","","","key","16.667862068966095","683","331.5","","","","","","","","","","","","","139","-1","5","false","","","",""
"psychophysics","195","518640","0.0-16.0-2.7","5b257364a7cee100011d8831","6368f2eea3e9634aebcc2f6b","636ce93c6504c5f01de60f85","452.3999999985099","","","","77","","","","key","16.667346153847085","683","331.5","","","","","","","","","","","","","","","","","","","",""
"psychophysics","196","519642","0.0-16.0-0.8","5b257364a7cee100011d8831","6368f2eea3e9634aebcc2f6b","636ce93c6504c5f01de60f85","null","","","","null","","","","key","16.667249999999573","683","331.5","","","","","","","","","","","","","","","","","","","",""
"psychophysics","197","520147","0.0-16.0-1.8","5b257364a7cee100011d8831","6368f2eea3e9634aebcc2f6b","636ce93c6504c5f01de60f85","null","","","","null","","","","key","16.66717241379304","683","331.5","","","","","","","","","","","","","139","-1","2","false","","","",""
"psychophysics","198","520761","0.0-16.0-2.8","5b257364a7cee100011d8831","6368f2eea3e9634aebcc2f6b","636ce93c6504c5f01de60f85","613.6000000014901","","","","90","","","","key","16.66650000000017","683","331.5","","","","","","","","","","","","","","","","","","","",""
"psychophysics","199","521763","0.0-16.0-0.9","5b257364a7cee100011d8831","6368f2eea3e9634aebcc2f6b","636ce93c6504c5f01de60f85","null","","","","null","","","","key","16.667406779660652","683","331.5","","","","","","","","","","","","","","","","","","","",""
"psychophysics","200","522266","0.0-16.0-1.9","5b257364a7cee100011d8831","6368f2eea3e9634aebcc2f6b","636ce93c6504c5f01de60f85","null","","","","null","","","","key","16.664620689656346","683","331.5","","","","","","","","","","","","","139","1","5","false","","","",""
"psychophysics","201","522469","0.0-16.0-2.9","5b257364a7cee100011d8831","6368f2eea3e9634aebcc2f6b","636ce93c6504c5f01de60f85","202.70000000298023","","","","77","","","","key","16.66290909091053","683","331.5","","","","","","","","","","","","","","","","","","","",""
"psychophysics","202","523475","0.0-16.0-0.10","5b257364a7cee100011d8831","6368f2eea3e9634aebcc2f6b","636ce93c6504c5f01de60f85","null","","","","null","","","","key","16.6658474576257","683","331.5","","","","","","","","","","","","","","","","","","","",""
"psychophysics","203","523976","0.0-16.0-1.10","5b257364a7cee100011d8831","6368f2eea3e9634aebcc2f6b","636ce93c6504c5f01de60f85","null","","","","null","","","","key","16.663733333333706","683","331.5","","","","","","","","","","","","","139","-1","3","false","","","",""
"psychophysics","204","524382","0.0-16.0-2.10","5b257364a7cee100011d8831","6368f2eea3e9634aebcc2f6b","636ce93c6504c5f01de60f85","405.1000000014901","","","","90","","","","key","16.666565217391547","683","331.5","","","","","","","","","","","","","","","","","","","",""
"psychophysics","205","525387","0.0-16.0-0.11","5b257364a7cee100011d8831","6368f2eea3e9634aebcc2f6b","636ce93c6504c5f01de60f85","null","","","","null","","","","key","16.665661016950715","683","331.5","","","","","","","","","","","","","","","","","","","",""
"psychophysics","206","525891","0.0-16.0-1.11","5b257364a7cee100011d8831","6368f2eea3e9634aebcc2f6b","636ce93c6504c5f01de60f85","null","","","","null","","","","key","16.664034482758044","683","331.5","","","","","","","","","","","","","139","-1","0","false","","","",""
"psychophysics","207","526210","0.0-16.0-2.11","5b257364a7cee100011d8831","6368f2eea3e9634aebcc2f6b","636ce93c6504c5f01de60f85","317.20000000298023","","","","90","","","","key","16.66626315789395","683","331.5","","","","","","","","","","","","","","","","","","","",""
"psychophysics","208","527218","0.0-16.0-0.12","5b257364a7cee100011d8831","6368f2eea3e9634aebcc2f6b","636ce93c6504c5f01de60f85","null","","","","null","","","","key","16.66586440678102","683","331.5","","","","","","","","","","","","","","","","","","","",""
"psychophysics","209","527722","0.0-16.0-1.12","5b257364a7cee100011d8831","6368f2eea3e9634aebcc2f6b","636ce93c6504c5f01de60f85","null","","","","null","","","","key","16.669758620687986","683","331.5","","","","","","","","","","","","","139","-1","2","false","","","",""
"psychophysics","210","528678","0.0-16.0-2.12","5b257364a7cee100011d8831","6368f2eea3e9634aebcc2f6b","636ce93c6504c5f01de60f85","955","","","","77","","","","key","16.66742105263269","683","331.5","","","","","","","","","","","","","","","","","","","",""
"psychophysics","211","529683","0.0-16.0-0.13","5b257364a7cee100011d8831","6368f2eea3e9634aebcc2f6b","636ce93c6504c5f01de60f85","null","","","","null","","","","key","16.665644067797366","683","331.5","","","","","","","","","","","","","","","","","","","",""
"psychophysics","212","530187","0.0-16.0-1.13","5b257364a7cee100011d8831","6368f2eea3e9634aebcc2f6b","636ce93c6504c5f01de60f85","null","","","","null","","","","key","16.668310344829386","683","331.5","","","","","","","","","","","","","139","-1","4","false","","","",""
"psychophysics","213","530480","0.0-16.0-2.13","5b257364a7cee100011d8831","6368f2eea3e9634aebcc2f6b","636ce93c6504c5f01de60f85","292.6000000014901","","","","77","","","","key","16.666117647060137","683","331.5","","","","","","","","","","","","","","","","","","","",""
"psychophysics","214","531482","0.0-16.0-0.14","5b257364a7cee100011d8831","6368f2eea3e9634aebcc2f6b","636ce93c6504c5f01de60f85","null","","","","null","","","","key","16.666186440678835","683","331.5","","","","","","","","","","","","","","","","","","","",""
"psychophysics","215","531987","0.0-16.0-1.14","5b257364a7cee100011d8831","6368f2eea3e9634aebcc2f6b","636ce93c6504c5f01de60f85","null","","","","null","","","","key","16.665862068967446","683","331.5","","","","","","","","","","","","","139","1","2","false","","","",""
"psychophysics","216","532393","0.0-16.0-2.14","5b257364a7cee100011d8831","6368f2eea3e9634aebcc2f6b","636ce93c6504c5f01de60f85","405.79999999701977","","","","90","","","","key","16.66433333333407","683","331.5","","","","","","","","","","","","","","","","","","","",""
"psychophysics","217","533402","0.0-16.0-0.15","5b257364a7cee100011d8831","6368f2eea3e9634aebcc2f6b","636ce93c6504c5f01de60f85","null","","","","null","","","","key","16.665694915253464","683","331.5","","","","","","","","","","","","","","","","","","","",""
"psychophysics","218","533907","0.0-16.0-1.15","5b257364a7cee100011d8831","6368f2eea3e9634aebcc2f6b","636ce93c6504c5f01de60f85","null","","","","null","","","","key","16.6661724137897","683","331.5","","","","","","","","","","","","","139","-1","3","false","","","",""
"psychophysics","219","534259","0.0-16.0-2.15","5b257364a7cee100011d8831","6368f2eea3e9634aebcc2f6b","636ce93c6504c5f01de60f85","341.20000000298023","","","","90","","","","key","16.663761904762527","683","331.5","","","","","","","","","","","","","","","","","","","",""
"psychophysics","220","535266","0.0-16.0-0.16","5b257364a7cee100011d8831","6368f2eea3e9634aebcc2f6b","636ce93c6504c5f01de60f85","null","","","","null","","","","key","16.6653559322023","683","331.5","","","","","","","","","","","","","","","","","","","",""
"psychophysics","221","535771","0.0-16.0-1.16","5b257364a7cee100011d8831","6368f2eea3e9634aebcc2f6b","636ce93c6504c5f01de60f85","null","","","","null","","","","key","16.6672068965533","683","331.5","","","","","","","","","","","","","139","1","3","false","","","",""
"psychophysics","222","536063","0.0-16.0-2.16","5b257364a7cee100011d8831","6368f2eea3e9634aebcc2f6b","636ce93c6504c5f01de60f85","292.20000000298023","","","","77","","","","key","16.66235294117702","683","331.5","","","","","","","","","","","","","","","","","","","",""
"psychophysics","223","537066","0.0-16.0-0.17","5b257364a7cee100011d8831","6368f2eea3e9634aebcc2f6b","636ce93c6504c5f01de60f85","null","","","","null","","","","key","16.66594915254381","683","331.5","","","","","","","","","","","","","","","","","","","",""
"psychophysics","224","537569","0.0-16.0-1.17","5b257364a7cee100011d8831","6368f2eea3e9634aebcc2f6b","636ce93c6504c5f01de60f85","null","","","","null","","","","key","16.666172413793714","683","331.5","","","","","","","","","","","","","139","-1","5","false","","","",""
"psychophysics","225","538588","0.0-16.0-2.17","5b257364a7cee100011d8831","6368f2eea3e9634aebcc2f6b","636ce93c6504c5f01de60f85","1017.6000000014901","","","","77","","","","key","16.66579999999958","683","331.5","","","","","","","","","","","","","","","","","","","",""
"psychophysics","226","539590","0.0-16.0-0.18","5b257364a7cee100011d8831","6368f2eea3e9634aebcc2f6b","636ce93c6504c5f01de60f85","null","","","","null","","","","key","16.666355932204414","683","331.5","","","","","","","","","","","","","","","","","","","",""
"psychophysics","227","540091","0.0-16.0-1.18","5b257364a7cee100011d8831","6368f2eea3e9634aebcc2f6b","636ce93c6504c5f01de60f85","null","","","","null","","","","key","16.668533333332743","683","331.5","","","","","","","","","","","","","139","-1","6","false","","","",""
"psychophysics","228","540326","0.0-16.0-2.18","5b257364a7cee100011d8831","6368f2eea3e9634aebcc2f6b","636ce93c6504c5f01de60f85","233.5","","","","77","","","","key","16.66661538461295","683","331.5","","","","","","","","","","","","","","","","","","","",""
"psychophysics","229","541330","0.0-16.0-0.19","5b257364a7cee100011d8831","6368f2eea3e9634aebcc2f6b","636ce93c6504c5f01de60f85","null","","","","null","","","","key","16.66788135593268","683","331.5","","","","","","","","","","","","","","","","","","","",""
"psychophysics","230","541833","0.0-16.0-1.19","5b257364a7cee100011d8831","6368f2eea3e9634aebcc2f6b","636ce93c6504c5f01de60f85","null","","","","null","","","","key","16.666931034483273","683","331.5","","","","","","","","","","","","","139","1","4","false","","","",""
"psychophysics","231","542120","0.0-16.0-2.19","5b257364a7cee100011d8831","6368f2eea3e9634aebcc2f6b","636ce93c6504c5f01de60f85","285.79999999701977","","","","77","","","","key","16.666625000005297","683","331.5","","","","","","","","","","","","","","","","","","","",""
"psychophysics","232","543121","0.0-16.0-0.20","5b257364a7cee100011d8831","6368f2eea3e9634aebcc2f6b","636ce93c6504c5f01de60f85","null","","","","null","","","","key","16.666067796609347","683","331.5","","","","","","","","","","","","","","","","","","","",""
"psychophysics","233","543624","0.0-16.0-1.20","5b257364a7cee100011d8831","6368f2eea3e9634aebcc2f6b","636ce93c6504c5f01de60f85","null","","","","null","","","","key","16.666827586206512","683","331.5","","","","","","","","","","","","","139","1","0","false","","","",""
"psychophysics","234","543649","0.0-16.0-2.20","5b257364a7cee100011d8831","6368f2eea3e9634aebcc2f6b","636ce93c6504c5f01de60f85","24.399999998509884","","","","77","","","","key","16.626000000047497","683","331.5","","","","","","","","","","","","","","","","","","","",""
"psychophysics","235","544657","0.0-16.0-0.21","5b257364a7cee100011d8831","6368f2eea3e9634aebcc2f6b","636ce93c6504c5f01de60f85","null","","","","null","","","","key","16.666305084746348","683","331.5","","","","","","","","","","","","","","","","","","","",""
"psychophysics","236","545158","0.0-16.0-1.21","5b257364a7cee100011d8831","6368f2eea3e9634aebcc2f6b","636ce93c6504c5f01de60f85","null","","","","null","","","","key","16.667933333335288","683","331.5","","","","","","","","","","","","","139","1","6","false","","","",""
"psychophysics","237","545363","0.0-16.0-2.21","5b257364a7cee100011d8831","6368f2eea3e9634aebcc2f6b","636ce93c6504c5f01de60f85","204.39999999850988","","","","77","","","","key","16.66145454546098","683","331.5","","","","","","","","","","","","","","","","","","","",""
"psychophysics","238","546370","0.0-16.0-0.22","5b257364a7cee100011d8831","6368f2eea3e9634aebcc2f6b","636ce93c6504c5f01de60f85","null","","","","null","","","","key","16.666067796611323","683","331.5","","","","","","","","","","","","","","","","","","","",""
"psychophysics","239","546873","0.0-16.0-1.22","5b257364a7cee100011d8831","6368f2eea3e9634aebcc2f6b","636ce93c6504c5f01de60f85","null","","","","null","","","","key","16.664379310348586","683","331.5","","","","","","","","","","","","","139","-1","0","false","","","",""
"psychophysics","240","547211","0.0-16.0-2.22","5b257364a7cee100011d8831","6368f2eea3e9634aebcc2f6b","636ce93c6504c5f01de60f85","327.29999999701977","","","","90","","","","key","16.667999999999303","683","331.5","","","","","","","","","","","","","","","","","","","",""
"psychophysics","241","548218","0.0-16.0-0.23","5b257364a7cee100011d8831","6368f2eea3e9634aebcc2f6b","636ce93c6504c5f01de60f85","null","","","","null","","","","key","16.667118644069532","683","331.5","","","","","","","","","","","","","","","","","","","",""
"psychophysics","242","548723","0.0-16.0-1.23","5b257364a7cee100011d8831","6368f2eea3e9634aebcc2f6b","636ce93c6504c5f01de60f85","null","","","","null","","","","key","16.663241379308225","683","331.5","","","","","","","","","","","","","139","1","5","false","","","",""
"psychophysics","243","548768","0.0-16.0-2.23","5b257364a7cee100011d8831","6368f2eea3e9634aebcc2f6b","636ce93c6504c5f01de60f85","42.899999998509884","","","","77","","","","key","16.669499999959953","683","331.5","","","","","","","","","","","","","","","","","","","",""
"html-keyboard-response","244","549970","0.0-17.0","5b257364a7cee100011d8831","6368f2eea3e9634aebcc2f6b","636ce93c6504c5f01de60f85","1202","<p>Well Done !</p><p>Training Complete. Press the spacebar to start.</p><p>DON'T EXIT THE FULL SCREEN MODE</p>","","","32","","","","","","","","","","","","","","","","","","","","","","","","","","",""
"psychophysics","245","552985","0.0-18.0-0.0","5b257364a7cee100011d8831","6368f2eea3e9634aebcc2f6b","636ce93c6504c5f01de60f85","null","","","","null","","","","key","16.666716666667103","683","331.5","","","","","","","","","","","","","","","","","","","",""
"psychophysics","246","553489","0.0-18.0-1.0","5b257364a7cee100011d8831","6368f2eea3e9634aebcc2f6b","636ce93c6504c5f01de60f85","null","","","","null","","","","key","16.66475862069136","683","331.5","","","","","","","","","","","","","139","-1","6","true","","","",""
"psychophysics","247","553984","0.0-18.0-2.0","5b257364a7cee100011d8831","6368f2eea3e9634aebcc2f6b","636ce93c6504c5f01de60f85","483.8999999985099","","","","77","","","","key","16.665344827587653","683","331.5","","","","","","","","","","","","","","","","","","","",""
"psychophysics","248","554986","0.0-18.0-0.1","5b257364a7cee100011d8831","6368f2eea3e9634aebcc2f6b","636ce93c6504c5f01de60f85","null","","","","null","","","","key","16.6679152542374","683","331.5","","","","","","","","","","","","","","","","","","","",""
"psychophysics","249","555489","0.0-18.0-1.1","5b257364a7cee100011d8831","6368f2eea3e9634aebcc2f6b","636ce93c6504c5f01de60f85","null","","","","null","","","","key","16.666999999999774","683","331.5","","","","","","","","","","","","","139","1","6","true","","","",""
"psychophysics","250","555826","0.0-18.0-2.1","5b257364a7cee100011d8831","6368f2eea3e9634aebcc2f6b","636ce93c6504c5f01de60f85","335.5","","","","77","","","","key","16.66140000000014","683","331.5","","","","","","","","","","","","","","","","","","","",""
"psychophysics","251","556833","0.0-18.0-0.2","5b257364a7cee100011d8831","6368f2eea3e9634aebcc2f6b","636ce93c6504c5f01de60f85","null","","","","null","","","","key","16.664677966099973","683","331.5","","","","","","","","","","","","","","","","","","","",""
"psychophysics","252","557339","0.0-18.0-1.2","5b257364a7cee100011d8831","6368f2eea3e9634aebcc2f6b","636ce93c6504c5f01de60f85","null","","","","null","","","","key","16.666172413793714","683","331.5","","","","","","","","","","","","","139","-1","4","true","","","",""
"psychophysics","253","557436","0.0-18.0-2.2","5b257364a7cee100011d8831","6368f2eea3e9634aebcc2f6b","636ce93c6504c5f01de60f85","95.30000000447035","","","","77","","","","key","16.660800000000744","683","331.5","","","","","","","","","","","","","","","","","","","",""
"psychophysics","254","558439","0.0-18.0-0.3","5b257364a7cee100011d8831","6368f2eea3e9634aebcc2f6b","636ce93c6504c5f01de60f85","null","","","","null","","","","key","16.667135593218934","683","331.5","","","","","","","","","","","","","","","","","","","",""
"psychophysics","255","558945","0.0-18.0-1.3","5b257364a7cee100011d8831","6368f2eea3e9634aebcc2f6b","636ce93c6504c5f01de60f85","null","","","","null","","","","key","16.66626666666707","683","331.5","","","","","","","","","","","","","139","1","3","true","","","",""
"psychophysics","256","561631","0.0-18.0-2.3","5b257364a7cee100011d8831","6368f2eea3e9634aebcc2f6b","636ce93c6504c5f01de60f85","2685.5999999940395","","","","90","","","","key","16.66622500000012","683","331.5","","","","","","","","","","","","","","","","","","","",""
"psychophysics","257","562634","0.0-18.0-0.4","5b257364a7cee100011d8831","6368f2eea3e9634aebcc2f6b","636ce93c6504c5f01de60f85","null","","","","null","","","","key","16.665305084744233","683","331.5","","","","","","","","","","","","","","","","","","","",""
"psychophysics","258","563138","0.0-18.0-1.4","5b257364a7cee100011d8831","6368f2eea3e9634aebcc2f6b","636ce93c6504c5f01de60f85","null","","","","null","","","","key","16.66562068965768","683","331.5","","","","","","","","","","","","","139","1","2","true","","","",""
"psychophysics","259","563235","0.0-18.0-2.4","5b257364a7cee100011d8831","6368f2eea3e9634aebcc2f6b","636ce93c6504c5f01de60f85","95.39999999850988","","","","77","","","","key","16.66799999999348","683","331.5","","","","","","","","","","","","","","","","","","","",""
"psychophysics","260","564238","0.0-18.0-0.5","5b257364a7cee100011d8831","6368f2eea3e9634aebcc2f6b","636ce93c6504c5f01de60f85","null","","","","null","","","","key","16.667457627118722","683","331.5","","","","","","","","","","","","","","","","","","","",""
"psychophysics","261","564739","0.0-18.0-1.5","5b257364a7cee100011d8831","6368f2eea3e9634aebcc2f6b","636ce93c6504c5f01de60f85","null","","","","null","","","","key","16.667799999999502","683","331.5","","","","","","","","","","","","","139","-1","3","true","","","",""
"psychophysics","262","564949","0.0-18.0-2.5","5b257364a7cee100011d8831","6368f2eea3e9634aebcc2f6b","636ce93c6504c5f01de60f85","207.69999999552965","","","","77","","","","key","16.669181818174284","683","331.5","","","","","","","","","","","","","","","","","","","",""
"psychophysics","263","565954","0.0-18.0-0.6","5b257364a7cee100011d8831","6368f2eea3e9634aebcc2f6b","636ce93c6504c5f01de60f85","null","","","","null","","","","key","16.667050847458118","683","331.5","","","","","","","","","","","","","","","","","","","",""
"psychophysics","264","566455","0.0-18.0-1.6","5b257364a7cee100011d8831","6368f2eea3e9634aebcc2f6b","636ce93c6504c5f01de60f85","null","","","","null","","","","key","16.664862068964105","683","331.5","","","","","","","","","","","","","139","1","5","true","","","",""
"psychophysics","265","566519","0.0-18.0-2.6","5b257364a7cee100011d8831","6368f2eea3e9634aebcc2f6b","636ce93c6504c5f01de60f85","62","","","","77","","","","key","16.638999999966472","683","331.5","","","","","","","","","","","","","","","","","","","",""
"psychophysics","266","567522","0.0-18.0-0.7","5b257364a7cee100011d8831","6368f2eea3e9634aebcc2f6b","636ce93c6504c5f01de60f85","null","","","","null","","","","key","16.66479661016946","683","331.5","","","","","","","","","","","","","","","","","","","",""
"psychophysics","267","568023","0.0-18.0-1.7","5b257364a7cee100011d8831","6368f2eea3e9634aebcc2f6b","636ce93c6504c5f01de60f85","null","","","","null","","","","key","16.665300000001057","683","331.5","","","","","","","","","","","","","139","1","4","true","","","",""
"psychophysics","268","570162","0.0-18.0-2.7","5b257364a7cee100011d8831","6368f2eea3e9634aebcc2f6b","636ce93c6504c5f01de60f85","2136.6999999955297","","","","90","","","","key","16.66528346456723","683","331.5","","","","","","","","","","","","","","","","","","","",""
"psychophysics","269","571171","0.0-18.0-0.8","5b257364a7cee100011d8831","6368f2eea3e9634aebcc2f6b","636ce93c6504c5f01de60f85","null","","","","null","","","","key","16.66662711864416","683","331.5","","","","","","","","","","","","","","","","","","","",""
"psychophysics","270","571672","0.0-18.0-1.8","5b257364a7cee100011d8831","6368f2eea3e9634aebcc2f6b","636ce93c6504c5f01de60f85","null","","","","null","","","","key","16.669800000001366","683","331.5","","","","","","","","","","","","","139","-1","2","true","","","",""
"psychophysics","271","572116","0.0-18.0-2.8","5b257364a7cee100011d8831","6368f2eea3e9634aebcc2f6b","636ce93c6504c5f01de60f85","441.5","","","","90","","","","key","16.66844000000041","683","331.5","","","","","","","","","","","","","","","","","","","",""
"psychophysics","272","573121","0.0-18.0-0.9","5b257364a7cee100011d8831","6368f2eea3e9634aebcc2f6b","636ce93c6504c5f01de60f85","null","","","","null","","","","key","16.664593220339157","683","331.5","","","","","","","","","","","","","","","","","","","",""
"psychophysics","273","573622","0.0-18.0-1.9","5b257364a7cee100011d8831","6368f2eea3e9634aebcc2f6b","636ce93c6504c5f01de60f85","null","","","","null","","","","key","16.664633333333768","683","331.5","","","","","","","","","","","","","139","-1","0","true","","","",""
"psychophysics","274","573904","0.0-18.0-2.9","5b257364a7cee100011d8831","6368f2eea3e9634aebcc2f6b","636ce93c6504c5f01de60f85","279.6000000014901","","","","77","","","","key","16.664866666666544","683","331.5","","","","","","","","","","","","","","","","","","","",""
"psychophysics","275","574905","0.0-18.0-0.10","5b257364a7cee100011d8831","6368f2eea3e9634aebcc2f6b","636ce93c6504c5f01de60f85","null","","","","null","","","","key","16.669216666665548","683","331.5","","","","","","","","","","","","","","","","","","","",""
"psychophysics","276","575411","0.0-18.0-1.10","5b257364a7cee100011d8831","6368f2eea3e9634aebcc2f6b","636ce93c6504c5f01de60f85","null","","","","null","","","","key","16.665413793104154","683","331.5","","","","","","","","","","","","","139","-1","5","true","","","",""
"psychophysics","277","575467","0.0-18.0-2.10","5b257364a7cee100011d8831","6368f2eea3e9634aebcc2f6b","636ce93c6504c5f01de60f85","55.099999994039536","","","","77","","","","key","16.664500000013504","683","331.5","","","","","","","","","","","","","","","","","","","",""
"psychophysics","278","576471","0.0-18.0-0.11","5b257364a7cee100011d8831","6368f2eea3e9634aebcc2f6b","636ce93c6504c5f01de60f85","null","","","","null","","","","key","16.665966101695183","683","331.5","","","","","","","","","","","","","","","","","","","",""
"psychophysics","279","576972","0.0-18.0-1.11","5b257364a7cee100011d8831","6368f2eea3e9634aebcc2f6b","636ce93c6504c5f01de60f85","null","","","","null","","","","key","16.66753333333181","683","331.5","","","","","","","","","","","","","139","1","0","true","","","",""
"psychophysics","280","577598","0.0-18.0-2.11","5b257364a7cee100011d8831","6368f2eea3e9634aebcc2f6b","636ce93c6504c5f01de60f85","623.8999999985099","","","","77","","","","key","16.668638888888786","683","331.5","","","","","","","","","","","","","","","","","","","",""
"psychophysics","281","578602","0.0-18.0-0.12","5b257364a7cee100011d8831","6368f2eea3e9634aebcc2f6b","636ce93c6504c5f01de60f85","null","","","","null","","","","key","16.665491525425132","683","331.5","","","","","","","","","","","","","","","","","","","",""
"psychophysics","282","579104","0.0-18.0-1.12","5b257364a7cee100011d8831","6368f2eea3e9634aebcc2f6b","636ce93c6504c5f01de60f85","null","","","","null","","","","key","16.66324137931224","683","331.5","","","","","","","","","","","","","139","1","3","true","","","",""
"psychophysics","283","579455","0.0-18.0-2.12","5b257364a7cee100011d8831","6368f2eea3e9634aebcc2f6b","636ce93c6504c5f01de60f85","348.5","","","","90","","","","key","16.67204999999958","683","331.5","","","","","","","","","","","","","","","","","","","",""
"psychophysics","284","580456","0.0-18.0-0.13","5b257364a7cee100011d8831","6368f2eea3e9634aebcc2f6b","636ce93c6504c5f01de60f85","null","","","","null","","","","key","16.666800000000514","683","331.5","","","","","","","","","","","","","","","","","","","",""
"psychophysics","285","580962","0.0-18.0-1.13","5b257364a7cee100011d8831","6368f2eea3e9634aebcc2f6b","636ce93c6504c5f01de60f85","null","","","","null","","","","key","16.66493103448462","683","331.5","","","","","","","","","","","","","139","1","2","true","","","",""
"psychophysics","286","581265","0.0-18.0-2.13","5b257364a7cee100011d8831","6368f2eea3e9634aebcc2f6b","636ce93c6504c5f01de60f85","302.8999999985099","","","","90","","","","key","16.665117647060576","683","331.5","","","","","","","","","","","","","","","","","","","",""
"psychophysics","287","582271","0.0-18.0-0.14","5b257364a7cee100011d8831","6368f2eea3e9634aebcc2f6b","636ce93c6504c5f01de60f85","null","","","","null","","","","key","16.66576271186488","683","331.5","","","","","","","","","","","","","","","","","","","",""
"psychophysics","288","582772","0.0-18.0-1.14","5b257364a7cee100011d8831","6368f2eea3e9634aebcc2f6b","636ce93c6504c5f01de60f85","null","","","","null","","","","key","16.667133333336096","683","331.5","","","","","","","","","","","","","139","-1","5","true","","","",""
"psychophysics","289","582989","0.0-18.0-2.14","5b257364a7cee100011d8831","6368f2eea3e9634aebcc2f6b","636ce93c6504c5f01de60f85","214.69999999552965","","","","77","","","","key","16.661166666667366","683","331.5","","","","","","","","","","","","","","","","","","","",""
"psychophysics","290","583994","0.0-18.0-0.15","5b257364a7cee100011d8831","6368f2eea3e9634aebcc2f6b","636ce93c6504c5f01de60f85","null","","","","null","","","","key","16.66637288135579","683","331.5","","","","","","","","","","","","","","","","","","","",""
"psychophysics","291","584498","0.0-18.0-1.15","5b257364a7cee100011d8831","6368f2eea3e9634aebcc2f6b","636ce93c6504c5f01de60f85","null","","","","null","","","","key","16.66631034482672","683","331.5","","","","","","","","","","","","","139","-1","6","true","","","",""
"psychophysics","292","584719","0.0-18.0-2.15","5b257364a7cee100011d8831","6368f2eea3e9634aebcc2f6b","636ce93c6504c5f01de60f85","220.10000000149012","","","","77","","","","key","16.669833333328523","683","331.5","","","","","","","","","","","","","","","","","","","",""
"psychophysics","293","585721","0.0-18.0-0.16","5b257364a7cee100011d8831","6368f2eea3e9634aebcc2f6b","636ce93c6504c5f01de60f85","null","","","","null","","","","key","16.665423728813717","683","331.5","","","","","","","","","","","","","","","","","","","",""
"psychophysics","294","586222","0.0-18.0-1.16","5b257364a7cee100011d8831","6368f2eea3e9634aebcc2f6b","636ce93c6504c5f01de60f85","null","","","","null","","","","key","16.664666666664804","683","331.5","","","","","","","","","","","","","139","1","0","true","","","",""
"psychophysics","295","586503","0.0-18.0-2.16","5b257364a7cee100011d8831","6368f2eea3e9634aebcc2f6b","636ce93c6504c5f01de60f85","278.80000000447035","","","","90","","","","key","16.665266666670018","683","331.5","","","","","","","","","","","","","","","","","","","",""
"psychophysics","296","587504","0.0-18.0-0.17","5b257364a7cee100011d8831","6368f2eea3e9634aebcc2f6b","636ce93c6504c5f01de60f85","null","","","","null","","","","key","16.667406779660652","683","331.5","","","","","","","","","","","","","","","","","","","",""
"psychophysics","297","588005","0.0-18.0-1.17","5b257364a7cee100011d8831","6368f2eea3e9634aebcc2f6b","636ce93c6504c5f01de60f85","null","","","","null","","","","key","16.66480000000059","683","331.5","","","","","","","","","","","","","139","-1","2","true","","","",""
"psychophysics","298","588155","0.0-18.0-2.17","5b257364a7cee100011d8831","6368f2eea3e9634aebcc2f6b","636ce93c6504c5f01de60f85","148.10000000149012","","","","77","","","","key","16.668625000005704","683","331.5","","","","","","","","","","","","","","","","","","","",""
"psychophysics","299","589163","0.0-18.0-0.18","5b257364a7cee100011d8831","6368f2eea3e9634aebcc2f6b","636ce93c6504c5f01de60f85","null","","","","null","","","","key","16.66461016949053","683","331.5","","","","","","","","","","","","","","","","","","","",""
"psychophysics","300","589665","0.0-18.0-1.18","5b257364a7cee100011d8831","6368f2eea3e9634aebcc2f6b","636ce93c6504c5f01de60f85","null","","","","null","","","","key","16.66844827586239","683","331.5","","","","","","","","","","","","","139","-1","4","true","","","",""
"psychophysics","301","590027","0.0-18.0-2.18","5b257364a7cee100011d8831","6368f2eea3e9634aebcc2f6b","636ce93c6504c5f01de60f85","361.29999999701977","","","","90","","","","key","16.666142857145694","683","331.5","","","","","","","","","","","","","","","","","","","",""
"psychophysics","302","591034","0.0-18.0-0.19","5b257364a7cee100011d8831","6368f2eea3e9634aebcc2f6b","636ce93c6504c5f01de60f85","null","","","","null","","","","key","16.664881355932252","683","331.5","","","","","","","","","","","","","","","","","","","",""
"psychophysics","303","591537","0.0-18.0-1.19","5b257364a7cee100011d8831","6368f2eea3e9634aebcc2f6b","636ce93c6504c5f01de60f85","null","","","","null","","","","key","16.669999999997753","683","331.5","","","","","","","","","","","","","139","-1","0","true","","","",""
"psychophysics","304","591910","0.0-18.0-2.19","5b257364a7cee100011d8831","6368f2eea3e9634aebcc2f6b","636ce93c6504c5f01de60f85","370.80000000447035","","","","90","","","","key","16.66327272727027","683","331.5","","","","","","","","","","","","","","","","","","","",""
"psychophysics","305","592915","0.0-18.0-0.20","5b257364a7cee100011d8831","6368f2eea3e9634aebcc2f6b","636ce93c6504c5f01de60f85","null","","","","null","","","","key","16.666491525425275","683","331.5","","","","","","","","","","","","","","","","","","","",""
"psychophysics","306","593418","0.0-18.0-1.20","5b257364a7cee100011d8831","6368f2eea3e9634aebcc2f6b","636ce93c6504c5f01de60f85","null","","","","null","","","","key","16.66344827586576","683","331.5","","","","","","","","","","","","","139","-1","3","true","","","",""
"psychophysics","307","593608","0.0-18.0-2.20","5b257364a7cee100011d8831","6368f2eea3e9634aebcc2f6b","636ce93c6504c5f01de60f85","189.60000000149012","","","","90","","","","key","16.665727272724986","683","331.5","","","","","","","","","","","","","","","","","","","",""
"psychophysics","308","594610","0.0-18.0-0.21","5b257364a7cee100011d8831","6368f2eea3e9634aebcc2f6b","636ce93c6504c5f01de60f85","null","","","","null","","","","key","16.66452542372774","683","331.5","","","","","","","","","","","","","","","","","","","",""
"psychophysics","309","595115","0.0-18.0-1.21","5b257364a7cee100011d8831","6368f2eea3e9634aebcc2f6b","636ce93c6504c5f01de60f85","null","","","","null","","","","key","16.656379310341936","683","331.5","","","","","","","","","","","","","139","1","4","true","","","",""
"psychophysics","310","595244","0.0-18.0-2.21","5b257364a7cee100011d8831","6368f2eea3e9634aebcc2f6b","636ce93c6504c5f01de60f85","128.20000000298023","","","","77","","","","key","16.66814285714645","683","331.5","","","","","","","","","","","","","","","","","","","",""
"psychophysics","311","596251","0.0-18.0-0.22","5b257364a7cee100011d8831","6368f2eea3e9634aebcc2f6b","636ce93c6504c5f01de60f85","null","","","","null","","","","key","16.665966101695183","683","331.5","","","","","","","","","","","","","","","","","","","",""
"psychophysics","312","596754","0.0-18.0-1.22","5b257364a7cee100011d8831","6368f2eea3e9634aebcc2f6b","636ce93c6504c5f01de60f85","null","","","","null","","","","key","16.67500000000241","683","331.5","","","","","","","","","","","","","139","1","6","true","","","",""
"psychophysics","313","596791","0.0-18.0-2.22","5b257364a7cee100011d8831","6368f2eea3e9634aebcc2f6b","636ce93c6504c5f01de60f85","34.80000000447035","","","","77","","","","key","16.68900000001304","683","331.5","","","","","","","","","","","","","","","","","","","",""
"psychophysics","314","597795","0.0-18.0-0.23","5b257364a7cee100011d8831","6368f2eea3e9634aebcc2f6b","636ce93c6504c5f01de60f85","null","","","","null","","","","key","16.666423728811885","683","331.5","","","","","","","","","","","","","","","","","","","",""
"psychophysics","315","598298","0.0-18.0-1.23","5b257364a7cee100011d8831","6368f2eea3e9634aebcc2f6b","636ce93c6504c5f01de60f85","null","","","","null","","","","key","16.66858620689941","683","331.5","","","","","","","","","","","","","139","1","5","true","","","",""
"psychophysics","316","600512","0.0-18.0-2.23","5b257364a7cee100011d8831","6368f2eea3e9634aebcc2f6b","636ce93c6504c5f01de60f85","2213.10000000149","","","","90","","","","key","16.666075757575914","683","331.5","","","","","","","","","","","","","","","","","","","",""
"psychophysics","317","601514","0.0-18.0-0.24","5b257364a7cee100011d8831","6368f2eea3e9634aebcc2f6b","636ce93c6504c5f01de60f85","null","","","","null","","","","key","16.665305084746205","683","331.5","","","","","","","","","","","","","","","","","","","",""
"psychophysics","318","602019","0.0-18.0-1.24","5b257364a7cee100011d8831","6368f2eea3e9634aebcc2f6b","636ce93c6504c5f01de60f85","null","","","","null","","","","key","16.667103448276535","683","331.5","","","","","","","","","","","","","139","1","0","true","","","",""
"psychophysics","319","602141","0.0-18.0-2.24","5b257364a7cee100011d8831","6368f2eea3e9634aebcc2f6b","636ce93c6504c5f01de60f85","121.5","","","","77","","","","key","16.67728571429117","683","331.5","","","","","","","","","","","","","","","","","","","",""
"psychophysics","320","603146","0.0-18.0-0.25","5b257364a7cee100011d8831","6368f2eea3e9634aebcc2f6b","636ce93c6504c5f01de60f85","null","","","","null","","","","key","16.666999999998072","683","331.5","","","","","","","","","","","","","","","","","","","",""
"psychophysics","321","603650","0.0-18.0-1.25","5b257364a7cee100011d8831","6368f2eea3e9634aebcc2f6b","636ce93c6504c5f01de60f85","null","","","","null","","","","key","16.66548275862066","683","331.5","","","","","","","","","","","","","139","1","4","true","","","",""
"psychophysics","322","603701","0.0-18.0-2.25","5b257364a7cee100011d8831","6368f2eea3e9634aebcc2f6b","636ce93c6504c5f01de60f85","50.600000001490116","","","","77","","","","key","16.652000000001863","683","331.5","","","","","","","","","","","","","","","","","","","",""
"psychophysics","323","604704","0.0-18.0-0.26","5b257364a7cee100011d8831","6368f2eea3e9634aebcc2f6b","636ce93c6504c5f01de60f85","null","","","","null","","","","key","16.667000000000048","683","331.5","","","","","","","","","","","","","","","","","","","",""
"psychophysics","324","605205","0.0-18.0-1.26","5b257364a7cee100011d8831","6368f2eea3e9634aebcc2f6b","636ce93c6504c5f01de60f85","null","","","","null","","","","key","16.66599999999938","683","331.5","","","","","","","","","","","","","139","-1","6","true","","","",""
"psychophysics","325","605391","0.0-18.0-2.26","5b257364a7cee100011d8831","6368f2eea3e9634aebcc2f6b","636ce93c6504c5f01de60f85","183.79999999701977","","","","77","","","","key","16.659799999999812","683","331.5","","","","","","","","","","","","","","","","","","","",""
"psychophysics","326","606395","0.0-18.0-0.27","5b257364a7cee100011d8831","6368f2eea3e9634aebcc2f6b","636ce93c6504c5f01de60f85","null","","","","null","","","","key","16.666084745762696","683","331.5","","","","","","","","","","","","","","","","","","","",""
"psychophysics","327","606898","0.0-18.0-1.27","5b257364a7cee100011d8831","6368f2eea3e9634aebcc2f6b","636ce93c6504c5f01de60f85","null","","","","null","","","","key","16.665965517244206","683","331.5","","","","","","","","","","","","","139","-1","2","true","","","",""
"psychophysics","328","607081","0.0-18.0-2.27","5b257364a7cee100011d8831","6368f2eea3e9634aebcc2f6b","636ce93c6504c5f01de60f85","182.39999999850988","","","","77","","","","key","16.65810000000056","683","331.5","","","","","","","","","","","","","","","","","","","",""
"psychophysics","329","608083","0.0-18.0-0.28","5b257364a7cee100011d8831","6368f2eea3e9634aebcc2f6b","636ce93c6504c5f01de60f85","null","","","","null","","","","key","16.66549152542316","683","331.5","","","","","","","","","","","","","","","","","","","",""
"psychophysics","330","608586","0.0-18.0-1.28","5b257364a7cee100011d8831","6368f2eea3e9634aebcc2f6b","636ce93c6504c5f01de60f85","null","","","","null","","","","key","16.665862068967446","683","331.5","","","","","","","","","","","","","139","-1","0","true","","","",""
