"trial_type","trial_index","time_elapsed","internal_node_id","PROLIFIC_PID","STUDY_ID","SESSION_ID","rt","stimulus","button_pressed","success","key_press","responses","isData","view_history","response_type","avg_frame_time","center_x","center_y","isSC","stim_side","trial_luminance","step_size","nReversal","correct","prev_ans","isThreshold","SC_threshold","final_threshold","isLuminance","FF_luminance","luminance","stimSide","ISInt","isFF","question_order","isSPQ","isCAPS","isAQ"
"pavlovia","0","3","0.0-0.0","5dc6dbf63f04554df78c2bf7","6368f2eea3e9634aebcc2f6b","636ce93ccccf08ed4e0bde65","","","","","","","","","","","","","","","","","","","","","","","","","","","","","","","",""
"html-button-response","1","60412","0.0-1.0","5dc6dbf63f04554df78c2bf7","6368f2eea3e9634aebcc2f6b","636ce93ccccf08ed4e0bde65","60395.5","<div style='background-color: white; width:60%; margin: auto; padding: 50px; text-align: justify; text-justify: inter-word; margin-bottom: 20px;'><h1 style='text-align: center;'>Consent Form</h1><p>Please read this consent form carefully before deciding whether you would like to participate in this study. You have to be 18 years old or older to participate to this study.</p><p style='text-decoration: underline;'>Participation is voluntary:</p><p>It is your choice whether or not to participate in this research. If you choose to participate, you may change your mind and leave the study at any time. Refusal to participate or stopping your participation will involve no penalty or loss of benefits to which you are otherwise entitled.</p><p style='text-decoration: underline;'>Purpose of the Study:</p><p>To understand the mechanisms underlying human perception.</p><p style='text-decoration: underline;'>What you will do in this study:</p><p>You will be presented with a series of visual images and then you will press buttons on the keyboard of your computer to respond to simple questions about the images (e.g. Were one or two images presented?). In addition, you will be asked to complete a questionnaire concerning your beliefs and everyday mental and perceptual experiences.'</p><p style='text-decoration: underline;'> Time Required:</p><p>The study will take 40 minutes to complete. </p><p style='text-decoration: underline;'>Risks:</p><p>There are no anticipated risks associated with participating in this study that are beyond those experienced in everyday life. </p><p style='text-decoration: underline;'>Benefits:</p><p>There are no benefits to you in participating in the study. However, this study may lead to a better understanding of how different kinds of visual information are used.</p><p style='text-decoration: underline;'>Compensation:</p><p>You will be paid US$6.6/hour. </p><p style='text-decoration: underline;'>Privacy and Confidentiality:</p><p>Your participation in this study will be anonymous. No personal information about your name or identity will be asked or recorded. This anonymous data will be stored for several years and may be used for a variety of research purposes. The overall results of the study may be published, or the data files may be shared with other researchers, but your identity will not be revealed in any way. The online services we are using for this study may temporarily store your data, but this data will be downloaded and then promptly deleted from those services.Your data will not be permanently associated with your name, IP address, or any other identifiable information (e.g., your information will only be connected to your payment, not to any of your responses), though they may be temporarily stored together before we download and separate them. Even so, no guarantee of internet survey security can be given because, although unlikely, transmissions can be intercepted and IP addresses can be identified. The anonymous data may be shared publicly (for example, in conjunction with a resulting academic publication).</p><p style='text-decoration: underline;'>Participation and Withdrawal:</p><p>Your participation in this study is completely voluntary. You may stop responding to the stimuli or stop answering questions if you so choose and without penalty by exiting the full screen mode, closing this tab of your browser or redirecting it to a different website.</p><p style='text-decoration: underline;'>Contact Info of the Researcher: </p><p>If you have questions about this study, or if you would like to talk to the research team, please contact David Melcher (david.melcher@nyu.edu, md5050@nyu.edu) at the Perception and Active Cognition Laboratory, New York University Abu Dhabi, Computational Research Building, Saadiyat Island, Abu Dhabi, UAE.This research has been reviewed by the New York University Abu Dhabi Institutional Review Board (NYUAD IRB). To contact about your rights in this research, for questions, suggestions, or complaints that are not addressed by the researchers, please email IRBnyuad@nyu.edu, or call the NYUAD IRB at +971 2 628 4313. </p></div>","0","","","","","","","","","","","","","","","","","","","","","","","","","","","","",""
"fullscreen","2","63045","0.0-2.0","5dc6dbf63f04554df78c2bf7","6368f2eea3e9634aebcc2f6b","636ce93ccccf08ed4e0bde65","","","","true","","","","","","","","","","","","","","","","","","","","","","","","","","","",""
"html-keyboard-response","3","82743","0.0-3.0","5dc6dbf63f04554df78c2bf7","6368f2eea3e9634aebcc2f6b","636ce93ccccf08ed4e0bde65","19696.5","<p>Welcome !</p><p>READ CAREFULLY THE FOLLOWING INDICATIONS:</p><p>From this moment you have ~40 minutes to complete the experiment.</p><p>During the experiment you will be prompted to take several breaks. Each break should not last longer than 2-3 minutes.</p><p>Make sure that your computer is plugged in and it's not running on battery power, even if the battery is already fully charged.</p><p>Turn off your phone and music, make sure that you are in a quiet room and that you will not be distracted for the next hour.</p><p>Failure to comply with the instructions and indications provided during the experiment will most likely result in the rejection of your data.<p>Press the spacebar to start.</p>","","","32","","","","","","","","","","","","","","","","","","","","","","","","","","",""
"survey-html-form","4","92625","0.0-4.0","5dc6dbf63f04554df78c2bf7","6368f2eea3e9634aebcc2f6b","636ce93ccccf08ed4e0bde65","9869.40000000596","","","","","{""age"":""51"",""sex"":""F""}","true","","","","","","","","","","","","","","","","","","","","","","","","",""
"instructions","5","154952","0.0-5.0","5dc6dbf63f04554df78c2bf7","6368f2eea3e9634aebcc2f6b","636ce93ccccf08ed4e0bde65","62316","","","","","","","[{""page_index"":0,""viewing_time"":45526.60000002384},{""page_index"":1,""viewing_time"":11130.09999999404},{""page_index"":2,""viewing_time"":5658.699999988079}]","","","","","","","","","","","","","","","","","","","","","","","",""
"psychophysics","6","157030","0.0-6.0-0.0","5dc6dbf63f04554df78c2bf7","6368f2eea3e9634aebcc2f6b","636ce93ccccf08ed4e0bde65","1067.8999999761581","","","","39","","","","key","16.665648000000044","768","357","true","1","180","30","0","-1","","","","","","","","","","","","","",""
"psychophysics","7","158253","0.0-6.0-0.1","5dc6dbf63f04554df78c2bf7","6368f2eea3e9634aebcc2f6b","636ce93ccccf08ed4e0bde65","208.5","","","","39","","","","key","16.668250000000018","768","357","true","1","180","30","0","-1","-1","","","","","","","","","","","","",""
"psychophysics","8","159520","0.0-6.0-0.2","5dc6dbf63f04554df78c2bf7","6368f2eea3e9634aebcc2f6b","636ce93ccccf08ed4e0bde65","259","","","","39","","","","key","16.66702666666669","768","357","true","1","150","30","0","-1","-1","","","","","","","","","","","","",""
"psychophysics","9","160533","0.0-6.0-0.3","5dc6dbf63f04554df78c2bf7","6368f2eea3e9634aebcc2f6b","636ce93ccccf08ed4e0bde65","4.9000000059604645","","","","37","","","","key","16.66783333333345","768","357","true","-1","150","30","0","-1","-1","","","","","","","","","","","","",""
"psychophysics","10","162582","0.0-6.0-0.4","5dc6dbf63f04554df78c2bf7","6368f2eea3e9634aebcc2f6b","636ce93ccccf08ed4e0bde65","1040.5999999940395","","","","39","","","","key","16.666959016393253","768","357","true","1","129","30","0","-1","-1","","","","","","","","","","","","",""
"psychophysics","11","164877","0.0-6.0-0.5","5dc6dbf63f04554df78c2bf7","6368f2eea3e9634aebcc2f6b","636ce93ccccf08ed4e0bde65","1282.8999999761581","","","","39","","","","key","16.66768382352936","768","357","true","1","129","30","0","-1","-1","","","","","","","","","","","","",""
"psychophysics","12","166879","0.0-6.0-0.6","5dc6dbf63f04554df78c2bf7","6368f2eea3e9634aebcc2f6b","636ce93ccccf08ed4e0bde65","1000.1000000238419","","","","39","","","","key","16.667475000000074","768","357","true","-1","129","24","1","1","-1","","","","","","","","","","","","",""
"psychophysics","13","167958","0.0-6.0-0.7","5dc6dbf63f04554df78c2bf7","6368f2eea3e9634aebcc2f6b","636ce93ccccf08ed4e0bde65","61.69999998807907","","","","39","","","","key","16.662238095237942","768","357","true","1","153","24","1","-1","1","","","","","","","","","","","","",""
"psychophysics","14","171046","0.0-6.0-0.8","5dc6dbf63f04554df78c2bf7","6368f2eea3e9634aebcc2f6b","636ce93ccccf08ed4e0bde65","2084.5","","","","37","","","","key","16.666983783783742","768","357","true","-1","153","19.2","2","-1","-1","","","","","","","","","","","","",""
"psychophysics","15","174835","0.0-6.0-0.9","5dc6dbf63f04554df78c2bf7","6368f2eea3e9634aebcc2f6b","636ce93ccccf08ed4e0bde65","2774.0999999940395","","","","39","","","","key","16.666026548672555","768","357","true","1","133.8","19.2","2","-1","-1","","","","","","","","","","","","",""
"psychophysics","16","177348","0.0-6.0-0.10","5dc6dbf63f04554df78c2bf7","6368f2eea3e9634aebcc2f6b","636ce93ccccf08ed4e0bde65","1507.0999999940395","","","","37","","","","key","16.66763999999986","768","357","true","-1","133.8","19.2","2","-1","-1","","","","","","","","","","","","",""
"psychophysics","17","179596","0.0-6.0-0.11","5dc6dbf63f04554df78c2bf7","6368f2eea3e9634aebcc2f6b","636ce93ccccf08ed4e0bde65","1236.7999999821186","","","","37","","","","key","16.667104477612103","768","357","true","1","129","15.36","3","1","-1","","","","","","","","","","","","",""
"psychophysics","18","180677","0.0-6.0-0.12","5dc6dbf63f04554df78c2bf7","6368f2eea3e9634aebcc2f6b","636ce93ccccf08ed4e0bde65","76.09999999403954","","","","37","","","","key","16.66787301587303","768","357","true","-1","144.36","15.36","3","-1","1","","","","","","","","","","","","",""
"psychophysics","19","183783","0.0-6.0-0.13","5dc6dbf63f04554df78c2bf7","6368f2eea3e9634aebcc2f6b","636ce93ccccf08ed4e0bde65","2103.5","","","","39","","","","key","16.667322580645177","768","357","true","1","144.36","12.287999999999998","4","-1","-1","","","","","","","","","","","","",""
"psychophysics","20","185414","0.0-6.0-0.14","5dc6dbf63f04554df78c2bf7","6368f2eea3e9634aebcc2f6b","636ce93ccccf08ed4e0bde65","619.0999999940395","","","","39","","","","key","16.66780412371136","768","357","true","-1","132.072","9.8304","5","1","-1","","","","","","","","","","","","",""
"psychophysics","21","186474","0.0-6.0-0.15","5dc6dbf63f04554df78c2bf7","6368f2eea3e9634aebcc2f6b","636ce93ccccf08ed4e0bde65","52.599999994039536","","","","37","","","","key","16.665016129032253","768","357","true","-1","141.9024","9.8304","5","-1","1","","","","","","","","","","","","",""
"psychophysics","22","189521","0.0-6.0-0.16","5dc6dbf63f04554df78c2bf7","6368f2eea3e9634aebcc2f6b","636ce93ccccf08ed4e0bde65","2042.9000000059605","","","","37","","","","key","16.667835164835175","768","357","true","-1","141.9024","7.864319999999999","6","-1","-1","","","","","","","","","","","","",""
"psychophysics","23","190713","0.0-6.0-0.17","5dc6dbf63f04554df78c2bf7","6368f2eea3e9634aebcc2f6b","636ce93ccccf08ed4e0bde65","185.09999999403954","","","","39","","","","key","16.669492957746268","768","357","true","1","134.03808","7.864319999999999","6","-1","-1","","","","","","","","","","","","",""
"psychophysics","24","191974","0.0-6.0-0.18","5dc6dbf63f04554df78c2bf7","6368f2eea3e9634aebcc2f6b","636ce93ccccf08ed4e0bde65","244.39999997615814","","","","39","","","","key","16.665189189189018","768","357","true","1","134.03808","7.864319999999999","6","-1","-1","","","","","","","","","","","","",""
"psychophysics","25","193713","0.0-6.0-0.19","5dc6dbf63f04554df78c2bf7","6368f2eea3e9634aebcc2f6b","636ce93ccccf08ed4e0bde65","734.7000000178814","","","","39","","","","key","16.666076923076897","768","357","true","1","129","7.864319999999999","6","-1","-1","","","","","","","","","","","","",""
"psychophysics","26","195264","0.0-6.0-0.20","5dc6dbf63f04554df78c2bf7","6368f2eea3e9634aebcc2f6b","636ce93ccccf08ed4e0bde65","536","","","","39","","","","key","16.666586956521748","768","357","true","1","129","7.864319999999999","6","-1","-1","","","","","","","","","","","","",""
"psychophysics","27","196927","0.0-6.0-0.21","5dc6dbf63f04554df78c2bf7","6368f2eea3e9634aebcc2f6b","636ce93ccccf08ed4e0bde65","647.3999999761581","","","","39","","","","key","16.6655816326532","768","357","true","-1","129","6.291456","7","1","-1","","","","","","","","","","","","",""
"psychophysics","28","199104","0.0-6.0-0.22","5dc6dbf63f04554df78c2bf7","6368f2eea3e9634aebcc2f6b","636ce93ccccf08ed4e0bde65","1175.699999988079","","","","37","","","","key","16.667153846153926","768","357","true","-1","135.291456","6.291456","7","-1","1","","","","","","","","","","","","",""
"psychophysics","29","200269","0.0-6.0-0.23","5dc6dbf63f04554df78c2bf7","6368f2eea3e9634aebcc2f6b","636ce93ccccf08ed4e0bde65","157","","","","39","","","","key","16.665492753623106","768","357","true","1","135.291456","5.033164800000001","8","-1","-1","","","","","","","","","","","","",""
"psychophysics","30","202533","0.0-6.0-0.24","5dc6dbf63f04554df78c2bf7","6368f2eea3e9634aebcc2f6b","636ce93ccccf08ed4e0bde65","1254","","","","37","","","","key","16.66661481481494","768","357","true","1","130.2582912","4.0265318400000005","9","1","-1","","","","","","","","","","","","",""
"psychophysics","31","204648","0.0-6.0-0.25","5dc6dbf63f04554df78c2bf7","6368f2eea3e9634aebcc2f6b","636ce93ccccf08ed4e0bde65","1108.5999999940395","","","","37","","","","key","16.6656587301589","768","357","true","-1","134.28482304","4.0265318400000005","9","-1","1","","","","","","","","","","","","",""
"psychophysics","32","206887","0.0-6.0-0.26","5dc6dbf63f04554df78c2bf7","6368f2eea3e9634aebcc2f6b","636ce93ccccf08ed4e0bde65","1214.3999999761581","","","","37","","","","key","16.667007575757673","768","357","true","-1","134.28482304","3.2212254720000004","10","-1","-1","","","","","","","","","","","","",""
"psychophysics","33","208720","0.0-6.0-0.27","5dc6dbf63f04554df78c2bf7","6368f2eea3e9634aebcc2f6b","636ce93ccccf08ed4e0bde65","831.8000000119209","","","","37","","","","key","16.665321100917335","768","357","true","1","131.06359756799998","2.5769803776000004","11","1","-1","","","","","","","","","","","","",""
"psychophysics","34","210324","0.0-6.0-0.28","5dc6dbf63f04554df78c2bf7","6368f2eea3e9634aebcc2f6b","636ce93ccccf08ed4e0bde65","602.3999999761581","","","","37","","","","key","16.670166666666773","768","357","true","-1","133.64057794559997","2.5769803776000004","11","-1","1","","","","","","","","","","","","",""
"psychophysics","35","212737","0.0-6.0-0.29","5dc6dbf63f04554df78c2bf7","6368f2eea3e9634aebcc2f6b","636ce93ccccf08ed4e0bde65","1398.800000011921","","","","37","","","","key","16.66676923076922","768","357","true","-1","133.64057794559997","2.0615843020800004","12","-1","-1","","","","","","","","","","","","",""
"psychophysics","36","214578","0.0-6.0-0.30","5dc6dbf63f04554df78c2bf7","6368f2eea3e9634aebcc2f6b","636ce93ccccf08ed4e0bde65","839.5999999940395","","","","37","","","","key","16.667209090908926","768","357","true","1","131.57899364351996","1.6492674416640005","13","1","-1","","","","","","","","","","","","",""
"psychophysics","37","215976","0.0-6.0-0.31","5dc6dbf63f04554df78c2bf7","6368f2eea3e9634aebcc2f6b","636ce93ccccf08ed4e0bde65","387","","","","37","","","","key","16.66367469879508","768","357","true","-1","133.22826108518396","1.6492674416640005","13","-1","1","","","","","","","","","","","","",""
"psychophysics","38","217677","0.0-6.0-0.32","5dc6dbf63f04554df78c2bf7","6368f2eea3e9634aebcc2f6b","636ce93ccccf08ed4e0bde65","693.9000000059605","","","","37","","","","key","16.667821782178045","768","357","true","-1","133.22826108518396","1.3194139533312006","14","-1","-1","","","","","","","","","","","","",""
"psychophysics","39","219905","0.0-6.0-0.33","5dc6dbf63f04554df78c2bf7","6368f2eea3e9634aebcc2f6b","636ce93ccccf08ed4e0bde65","1216","","","","37","","","","key","16.66562878787888","768","357","true","-1","131.90884713185275","1.3194139533312006","14","-1","-1","","","","","","","","","","","","",""
"psychophysics","40","222246","0.0-6.0-0.34","5dc6dbf63f04554df78c2bf7","6368f2eea3e9634aebcc2f6b","636ce93ccccf08ed4e0bde65","1338.800000011921","","","","39","","","","key","16.66758571428571","768","357","true","-1","131.90884713185275","1.0555311626649604","15","1","-1","","","","","","","","","","","","",""
"psychophysics","41","224420","0.0-6.0-0.35","5dc6dbf63f04554df78c2bf7","6368f2eea3e9634aebcc2f6b","636ce93ccccf08ed4e0bde65","1164","","","","39","","","","key","16.666279069767533","768","357","true","1","132.9643782945177","1.0555311626649604","15","-1","1","","","","","","","","","","","","",""
"psychophysics","42","227374","0.0-6.0-0.36","5dc6dbf63f04554df78c2bf7","6368f2eea3e9634aebcc2f6b","636ce93ccccf08ed4e0bde65","1952.1000000238419","","","","39","","","","key","16.66803954802253","768","357","true","1","132.9643782945177","1","16","-1","-1","","","","","","","","","","","","",""
"psychophysics","43","229036","0.0-6.0-0.37","5dc6dbf63f04554df78c2bf7","6368f2eea3e9634aebcc2f6b","636ce93ccccf08ed4e0bde65","646.9000000059605","","","","39","","","","key","16.66497959183649","768","357","true","-1","131.9643782945177","1","17","1","-1","","","","","","","","","","","","",""
"psychophysics","44","231177","0.0-6.0-0.38","5dc6dbf63f04554df78c2bf7","6368f2eea3e9634aebcc2f6b","636ce93ccccf08ed4e0bde65","1138.300000011921","","","","39","","","","key","16.66709375000005","768","357","true","-1","132.9643782945177","1","17","1","1","","","","","","","","","","","","",""
"psychophysics","45","233170","0.0-6.0-0.39","5dc6dbf63f04554df78c2bf7","6368f2eea3e9634aebcc2f6b","636ce93ccccf08ed4e0bde65","980.3000000119209","","","","39","","","","key","16.664542372881336","768","357","true","1","133.9643782945177","1","17","-1","1","","","","","","","","","","","","",""
"html-keyboard-response","46","237643","0.0-7.0","5dc6dbf63f04554df78c2bf7","6368f2eea3e9634aebcc2f6b","636ce93ccccf08ed4e0bde65","4471.5999999940395","<p>Well Done !</p><p>Prepare for a new block.</p><p>DON'T EXIT THE FULL SCREEN MODE</p><p>Press the Spacebar to start.</p>","","","32","","","","","","","","","","","","","","","true","132.90596673929213","","","","","","","","","","",""
"psychophysics","47","238868","0.0-8.0-0.0","5dc6dbf63f04554df78c2bf7","6368f2eea3e9634aebcc2f6b","636ce93ccccf08ed4e0bde65","217.7000000178814","","","","39","","","","key","16.701602739726084","768","357","true","1","180","30","0","-1","","","","","","","","","","","","","",""
"psychophysics","48","239887","0.0-8.0-0.1","5dc6dbf63f04554df78c2bf7","6368f2eea3e9634aebcc2f6b","636ce93ccccf08ed4e0bde65","13.099999994039536","","","","39","","","","key","16.667916666666862","768","357","true","1","180","30","0","-1","-1","","","","","","","","","","","","",""
"psychophysics","49","240935","0.0-8.0-0.2","5dc6dbf63f04554df78c2bf7","6368f2eea3e9634aebcc2f6b","636ce93ccccf08ed4e0bde65","44.599999994039536","","","","37","","","","key","16.66693548387106","768","357","true","-1","150","30","0","-1","-1","","","","","","","","","","","","",""
"psychophysics","50","242002","0.0-8.0-0.3","5dc6dbf63f04554df78c2bf7","6368f2eea3e9634aebcc2f6b","636ce93ccccf08ed4e0bde65","62.80000001192093","","","","39","","","","key","16.664968253967967","768","357","true","1","150","30","0","-1","-1","","","","","","","","","","","","",""
"psychophysics","51","243762","0.0-8.0-0.4","5dc6dbf63f04554df78c2bf7","6368f2eea3e9634aebcc2f6b","636ce93ccccf08ed4e0bde65","756.4000000059605","","","","39","","","","key","16.66891428571433","768","357","true","-1","129","24","1","1","-1","","","","","","","","","","","","",""
"psychophysics","52","244784","0.0-8.0-0.5","5dc6dbf63f04554df78c2bf7","6368f2eea3e9634aebcc2f6b","636ce93ccccf08ed4e0bde65","12.799999982118607","","","","37","","","","key","16.66705000000026","768","357","true","-1","153","24","1","-1","1","","","","","","","","","","","","",""
"psychophysics","53","245948","0.0-8.0-0.6","5dc6dbf63f04554df78c2bf7","6368f2eea3e9634aebcc2f6b","636ce93ccccf08ed4e0bde65","160.30000001192093","","","","39","","","","key","16.666028985507328","768","357","true","1","153","19.2","2","-1","-1","","","","","","","","","","","","",""
"psychophysics","54","246977","0.0-8.0-0.7","5dc6dbf63f04554df78c2bf7","6368f2eea3e9634aebcc2f6b","636ce93ccccf08ed4e0bde65","21.599999994039536","","","","39","","","","key","16.665327868852327","768","357","true","1","133.8","19.2","2","-1","-1","","","","","","","","","","","","",""
"psychophysics","55","248453","0.0-8.0-0.8","5dc6dbf63f04554df78c2bf7","6368f2eea3e9634aebcc2f6b","636ce93ccccf08ed4e0bde65","474.09999999403954","","","","39","","","","key","16.66722988505746","768","357","true","-1","133.8","15.36","3","1","-1","","","","","","","","","","","","",""
"psychophysics","56","251520","0.0-8.0-0.9","5dc6dbf63f04554df78c2bf7","6368f2eea3e9634aebcc2f6b","636ce93ccccf08ed4e0bde65","2064.199999988079","","","","37","","","","key","16.667923497267818","768","357","true","-1","149.16000000000003","15.36","3","-1","1","","","","","","","","","","","","",""
"psychophysics","57","254436","0.0-8.0-0.10","5dc6dbf63f04554df78c2bf7","6368f2eea3e9634aebcc2f6b","636ce93ccccf08ed4e0bde65","1912.9000000059605","","","","39","","","","key","16.667264367816045","768","357","true","1","149.16000000000003","12.287999999999998","4","-1","-1","","","","","","","","","","","","",""
"psychophysics","58","257168","0.0-8.0-0.11","5dc6dbf63f04554df78c2bf7","6368f2eea3e9634aebcc2f6b","636ce93ccccf08ed4e0bde65","1727.300000011921","","","","37","","","","key","16.66813496932526","768","357","true","-1","136.872","12.287999999999998","4","-1","-1","","","","","","","","","","","","",""
"psychophysics","59","258250","0.0-8.0-0.12","5dc6dbf63f04554df78c2bf7","6368f2eea3e9634aebcc2f6b","636ce93ccccf08ed4e0bde65","79.09999999403954","","","","39","","","","key","16.67001562500036","768","357","true","1","136.872","12.287999999999998","4","-1","-1","","","","","","","","","","","","",""
"psychophysics","60","259899","0.0-8.0-0.13","5dc6dbf63f04554df78c2bf7","6368f2eea3e9634aebcc2f6b","636ce93ccccf08ed4e0bde65","641.5999999940395","","","","39","","","","key","16.66684693877546","768","357","true","1","129","12.287999999999998","4","-1","-1","","","","","","","","","","","","",""
"psychophysics","61","261429","0.0-8.0-0.14","5dc6dbf63f04554df78c2bf7","6368f2eea3e9634aebcc2f6b","636ce93ccccf08ed4e0bde65","522.6999999880791","","","","39","","","","key","16.669021978021913","768","357","true","1","129","12.287999999999998","4","-1","-1","","","","","","","","","","","","",""
"psychophysics","62","263195","0.0-8.0-0.15","5dc6dbf63f04554df78c2bf7","6368f2eea3e9634aebcc2f6b","636ce93ccccf08ed4e0bde65","759.4000000059605","","","","39","","","","key","16.666780952380837","768","357","true","-1","129","9.8304","5","1","-1","","","","","","","","","","","","",""
"psychophysics","63","264364","0.0-8.0-0.16","5dc6dbf63f04554df78c2bf7","6368f2eea3e9634aebcc2f6b","636ce93ccccf08ed4e0bde65","161.10000002384186","","","","37","","","","key","16.66618840579716","768","357","true","-1","138.8304","9.8304","5","-1","1","","","","","","","","","","","","",""
"psychophysics","64","265394","0.0-8.0-0.17","5dc6dbf63f04554df78c2bf7","6368f2eea3e9634aebcc2f6b","636ce93ccccf08ed4e0bde65","23.099999994039536","","","","39","","","","key","16.66983606557354","768","357","true","1","138.8304","7.864319999999999","6","-1","-1","","","","","","","","","","","","",""
"psychophysics","65","267435","0.0-8.0-0.18","5dc6dbf63f04554df78c2bf7","6368f2eea3e9634aebcc2f6b","636ce93ccccf08ed4e0bde65","1021.0999999940395","","","","39","","","","key","16.66504958677654","768","357","true","1","130.96608","7.864319999999999","6","-1","-1","","","","","","","","","","","","",""
"psychophysics","66","269787","0.0-8.0-0.19","5dc6dbf63f04554df78c2bf7","6368f2eea3e9634aebcc2f6b","636ce93ccccf08ed4e0bde65","1349.2000000178814","","","","39","","","","key","16.665478571428686","768","357","true","-1","130.96608","6.291456","7","1","-1","","","","","","","","","","","","",""
"psychophysics","67","271040","0.0-8.0-0.20","5dc6dbf63f04554df78c2bf7","6368f2eea3e9634aebcc2f6b","636ce93ccccf08ed4e0bde65","250.7999999821186","","","","39","","","","key","16.668081081081404","768","357","true","1","137.25753600000002","6.291456","7","-1","1","","","","","","","","","","","","",""
"psychophysics","68","272079","0.0-8.0-0.21","5dc6dbf63f04554df78c2bf7","6368f2eea3e9634aebcc2f6b","636ce93ccccf08ed4e0bde65","34","","","","37","","","","key","16.668557377048334","768","357","true","-1","137.25753600000002","5.033164800000001","8","-1","-1","","","","","","","","","","","","",""
"psychophysics","69","274028","0.0-8.0-0.22","5dc6dbf63f04554df78c2bf7","6368f2eea3e9634aebcc2f6b","636ce93ccccf08ed4e0bde65","944.5999999940395","","","","39","","","","key","16.66818103448293","768","357","true","1","132.2243712","5.033164800000001","8","-1","-1","","","","","","","","","","","","",""
"psychophysics","70","275150","0.0-8.0-0.23","5dc6dbf63f04554df78c2bf7","6368f2eea3e9634aebcc2f6b","636ce93ccccf08ed4e0bde65","116.59999999403954","","","","37","","","","key","16.666651515151678","768","357","true","-1","132.2243712","5.033164800000001","8","-1","-1","","","","","","","","","","","","",""
"psychophysics","71","277063","0.0-8.0-0.24","5dc6dbf63f04554df78c2bf7","6368f2eea3e9634aebcc2f6b","636ce93ccccf08ed4e0bde65","911.6999999880791","","","","37","","","","key","16.66731578947337","768","357","true","-1","129","5.033164800000001","8","-1","-1","","","","","","","","","","","","",""
"psychophysics","72","278861","0.0-8.0-0.25","5dc6dbf63f04554df78c2bf7","6368f2eea3e9634aebcc2f6b","636ce93ccccf08ed4e0bde65","793.3000000119209","","","","37","","","","key","16.668037383177396","768","357","true","1","129","4.0265318400000005","9","1","-1","","","","","","","","","","","","",""
"psychophysics","73","280246","0.0-8.0-0.26","5dc6dbf63f04554df78c2bf7","6368f2eea3e9634aebcc2f6b","636ce93ccccf08ed4e0bde65","378.59999999403954","","","","37","","","","key","16.668682926829206","768","357","true","-1","133.02653184","4.0265318400000005","9","-1","1","","","","","","","","","","","","",""
"psychophysics","74","282388","0.0-8.0-0.27","5dc6dbf63f04554df78c2bf7","6368f2eea3e9634aebcc2f6b","636ce93ccccf08ed4e0bde65","1136.7999999821186","","","","37","","","","key","16.667710937500033","768","357","true","-1","133.02653184","3.2212254720000004","10","-1","-1","","","","","","","","","","","","",""
"psychophysics","75","284214","0.0-8.0-0.28","5dc6dbf63f04554df78c2bf7","6368f2eea3e9634aebcc2f6b","636ce93ccccf08ed4e0bde65","817.2000000178814","","","","37","","","","key","16.66547222222208","768","357","true","-1","129.805306368","3.2212254720000004","10","-1","-1","","","","","","","","","","","","",""
"psychophysics","76","285902","0.0-8.0-0.29","5dc6dbf63f04554df78c2bf7","6368f2eea3e9634aebcc2f6b","636ce93ccccf08ed4e0bde65","684.5","","","","37","","","","key","16.66832673267316","768","357","true","1","129.805306368","2.5769803776000004","11","1","-1","","","","","","","","","","","","",""
"psychophysics","77","287677","0.0-8.0-0.30","5dc6dbf63f04554df78c2bf7","6368f2eea3e9634aebcc2f6b","636ce93ccccf08ed4e0bde65","767.2999999821186","","","","37","","","","key","16.665533333333276","768","357","true","-1","132.3822867456","2.5769803776000004","11","-1","1","","","","","","","","","","","","",""
"psychophysics","78","289361","0.0-8.0-0.31","5dc6dbf63f04554df78c2bf7","6368f2eea3e9634aebcc2f6b","636ce93ccccf08ed4e0bde65","677.0999999940395","","","","37","","","","key","16.669189999999944","768","357","true","1","132.3822867456","2.0615843020800004","12","1","-1","","","","","","","","","","","","",""
"psychophysics","79","290619","0.0-8.0-0.32","5dc6dbf63f04554df78c2bf7","6368f2eea3e9634aebcc2f6b","636ce93ccccf08ed4e0bde65","253.09999999403954","","","","39","","","","key","16.667053333333072","768","357","true","1","134.44387104768","2.0615843020800004","12","-1","1","","","","","","","","","","","","",""
"psychophysics","80","291773","0.0-8.0-0.33","5dc6dbf63f04554df78c2bf7","6368f2eea3e9634aebcc2f6b","636ce93ccccf08ed4e0bde65","151.2000000178814","","","","37","","","","key","16.667867647058515","768","357","true","-1","134.44387104768","1.6492674416640005","13","-1","-1","","","","","","","","","","","","",""
"psychophysics","81","293184","0.0-8.0-0.34","5dc6dbf63f04554df78c2bf7","6368f2eea3e9634aebcc2f6b","636ce93ccccf08ed4e0bde65","403.39999997615814","","","","39","","","","key","16.666785714285826","768","357","true","1","132.794603606016","1.6492674416640005","13","-1","-1","","","","","","","","","","","","",""
"psychophysics","82","294308","0.0-8.0-0.35","5dc6dbf63f04554df78c2bf7","6368f2eea3e9634aebcc2f6b","636ce93ccccf08ed4e0bde65","119.5","","","","39","","","","key","16.664909090909394","768","357","true","1","132.794603606016","1.6492674416640005","13","-1","-1","","","","","","","","","","","","",""
"psychophysics","83","296370","0.0-8.0-0.36","5dc6dbf63f04554df78c2bf7","6368f2eea3e9634aebcc2f6b","636ce93ccccf08ed4e0bde65","1052.5999999940395","","","","39","","","","key","16.667975609756276","768","357","true","-1","131.14533616435202","1.3194139533312006","14","1","-1","","","","","","","","","","","","",""
"psychophysics","84","298009","0.0-8.0-0.37","5dc6dbf63f04554df78c2bf7","6368f2eea3e9634aebcc2f6b","636ce93ccccf08ed4e0bde65","636.6000000238419","","","","39","","","","key","16.665680412371096","768","357","true","-1","132.46475011768322","1.3194139533312006","14","1","1","","","","","","","","","","","","",""
"psychophysics","85","299085","0.0-8.0-0.38","5dc6dbf63f04554df78c2bf7","6368f2eea3e9634aebcc2f6b","636ce93ccccf08ed4e0bde65","72.09999999403954","","","","39","","","","key","16.666124999999738","768","357","true","1","133.78416407101443","1.3194139533312006","14","-1","1","","","","","","","","","","","","",""
"psychophysics","86","300186","0.0-8.0-0.39","5dc6dbf63f04554df78c2bf7","6368f2eea3e9634aebcc2f6b","636ce93ccccf08ed4e0bde65","93.09999999403954","","","","37","","","","key","16.668476923076938","768","357","true","-1","133.78416407101443","1.0555311626649604","15","-1","-1","","","","","","","","","","","","",""
"html-keyboard-response","87","303204","0.0-9.0","5dc6dbf63f04554df78c2bf7","6368f2eea3e9634aebcc2f6b","636ce93ccccf08ed4e0bde65","3016.9000000059605","<p>Well Done !</p><p>Prepare for a new block.</p><p>DON'T EXIT THE FULL SCREEN MODE</p><p>Press the Spacebar to start.</p>","","","32","","","","","","","","","","","","","","","true","132.33890757591038","","","","","","","","","","",""
"psychophysics","88","304360","0.0-10.0-0.0","5dc6dbf63f04554df78c2bf7","6368f2eea3e9634aebcc2f6b","636ce93ccccf08ed4e0bde65","147.40000000596046","","","","37","","","","key","16.69147826086956","768","357","true","-1","180","30","0","-1","","","","","","","","","","","","","",""
"psychophysics","89","307019","0.0-10.0-0.1","5dc6dbf63f04554df78c2bf7","6368f2eea3e9634aebcc2f6b","636ce93ccccf08ed4e0bde65","1653.7999999821186","","","","37","","","","key","16.66894339622656","768","357","true","-1","180","30","0","-1","-1","","","","","","","","","","","","",""
"psychophysics","90","309864","0.0-10.0-0.2","5dc6dbf63f04554df78c2bf7","6368f2eea3e9634aebcc2f6b","636ce93ccccf08ed4e0bde65","1834.6000000238419","","","","39","","","","key","16.666100591715953","768","357","true","-1","150","24","1","1","-1","","","","","","","","","","","","",""
"psychophysics","91","310926","0.0-10.0-0.3","5dc6dbf63f04554df78c2bf7","6368f2eea3e9634aebcc2f6b","636ce93ccccf08ed4e0bde65","57.80000001192093","","","","39","","","","key","16.670587301586888","768","357","true","1","174","24","1","-1","1","","","","","","","","","","","","",""
"psychophysics","92","313829","0.0-10.0-0.4","5dc6dbf63f04554df78c2bf7","6368f2eea3e9634aebcc2f6b","636ce93ccccf08ed4e0bde65","1895.7000000178814","","","","39","","","","key","16.668277456647193","768","357","true","1","174","19.2","2","-1","-1","","","","","","","","","","","","",""
"psychophysics","93","316267","0.0-10.0-0.5","5dc6dbf63f04554df78c2bf7","6368f2eea3e9634aebcc2f6b","636ce93ccccf08ed4e0bde65","1432","","","","39","","","","key","16.66653103448274","768","357","true","1","154.8","19.2","2","-1","-1","","","","","","","","","","","","",""
"psychophysics","94","317278","0.0-10.0-0.6","5dc6dbf63f04554df78c2bf7","6368f2eea3e9634aebcc2f6b","636ce93ccccf08ed4e0bde65","9.699999988079071","","","","39","","","","key","16.66763333333365","768","357","true","1","154.8","19.2","2","-1","-1","","","","","","","","","","","","",""
"psychophysics","95","318318","0.0-10.0-0.7","5dc6dbf63f04554df78c2bf7","6368f2eea3e9634aebcc2f6b","636ce93ccccf08ed4e0bde65","33.69999998807907","","","","37","","","","key","16.665758064516158","768","357","true","-1","135.60000000000002","19.2","2","-1","-1","","","","","","","","","","","","",""
"psychophysics","96","320960","0.0-10.0-0.8","5dc6dbf63f04554df78c2bf7","6368f2eea3e9634aebcc2f6b","636ce93ccccf08ed4e0bde65","1636.5","","","","37","","","","key","16.66710828025462","768","357","true","-1","135.60000000000002","19.2","2","-1","-1","","","","","","","","","","","","",""
"psychophysics","97","322405","0.0-10.0-0.9","5dc6dbf63f04554df78c2bf7","6368f2eea3e9634aebcc2f6b","636ce93ccccf08ed4e0bde65","439.30000001192093","","","","37","","","","key","16.66804651162847","768","357","true","-1","129","19.2","2","-1","-1","","","","","","","","","","","","",""
"psychophysics","98","323810","0.0-10.0-0.10","5dc6dbf63f04554df78c2bf7","6368f2eea3e9634aebcc2f6b","636ce93ccccf08ed4e0bde65","396.2999999821186","","","","37","","","","key","16.665722891566322","768","357","true","-1","129","19.2","2","-1","-1","","","","","","","","","","","","",""
"psychophysics","99","325305","0.0-10.0-0.11","5dc6dbf63f04554df78c2bf7","6368f2eea3e9634aebcc2f6b","636ce93ccccf08ed4e0bde65","491.5","","","","37","","","","key","16.665561797752652","768","357","true","1","129","15.36","3","1","-1","","","","","","","","","","","","",""
"psychophysics","100","326422","0.0-10.0-0.12","5dc6dbf63f04554df78c2bf7","6368f2eea3e9634aebcc2f6b","636ce93ccccf08ed4e0bde65","102.30000001192093","","","","39","","","","key","16.666861538461838","768","357","true","1","144.36","15.36","3","-1","1","","","","","","","","","","","","",""
"psychophysics","101","327584","0.0-10.0-0.13","5dc6dbf63f04554df78c2bf7","6368f2eea3e9634aebcc2f6b","636ce93ccccf08ed4e0bde65","160.2000000178814","","","","37","","","","key","16.663942028986007","768","357","true","-1","144.36","12.287999999999998","4","-1","-1","","","","","","","","","","","","",""
"psychophysics","102","329407","0.0-10.0-0.14","5dc6dbf63f04554df78c2bf7","6368f2eea3e9634aebcc2f6b","636ce93ccccf08ed4e0bde65","815.7999999821186","","","","37","","","","key","16.6672222222222","768","357","true","-1","132.072","12.287999999999998","4","-1","-1","","","","","","","","","","","","",""
"psychophysics","103","331040","0.0-10.0-0.15","5dc6dbf63f04554df78c2bf7","6368f2eea3e9634aebcc2f6b","636ce93ccccf08ed4e0bde65","629","","","","37","","","","key","16.66715463917563","768","357","true","-1","132.072","12.287999999999998","4","-1","-1","","","","","","","","","","","","",""
"psychophysics","104","332113","0.0-10.0-0.16","5dc6dbf63f04554df78c2bf7","6368f2eea3e9634aebcc2f6b","636ce93ccccf08ed4e0bde65","68.59999999403954","","","","39","","","","key","16.6732812500004","768","357","true","-1","129","9.8304","5","1","-1","","","","","","","","","","","","",""
"psychophysics","105","333160","0.0-10.0-0.17","5dc6dbf63f04554df78c2bf7","6368f2eea3e9634aebcc2f6b","636ce93ccccf08ed4e0bde65","40.70000001788139","","","","37","","","","key","16.665475409836738","768","357","true","-1","138.8304","9.8304","5","-1","1","","","","","","","","","","","","",""
"psychophysics","106","334165","0.0-10.0-0.18","5dc6dbf63f04554df78c2bf7","6368f2eea3e9634aebcc2f6b","636ce93ccccf08ed4e0bde65","3.199999988079071","","","","39","","","","key","16.6689499999998","768","357","true","1","138.8304","7.864319999999999","6","-1","-1","","","","","","","","","","","","",""
"psychophysics","107","335773","0.0-10.0-0.19","5dc6dbf63f04554df78c2bf7","6368f2eea3e9634aebcc2f6b","636ce93ccccf08ed4e0bde65","604.9000000059605","","","","37","","","","key","16.668010526315285","768","357","true","1","130.96608","6.291456","7","1","-1","","","","","","","","","","","","",""
"psychophysics","108","336850","0.0-10.0-0.20","5dc6dbf63f04554df78c2bf7","6368f2eea3e9634aebcc2f6b","636ce93ccccf08ed4e0bde65","74.5","","","","39","","","","key","16.66246874999979","768","357","true","1","137.25753600000002","6.291456","7","-1","1","","","","","","","","","","","","",""
"psychophysics","109","337889","0.0-10.0-0.21","5dc6dbf63f04554df78c2bf7","6368f2eea3e9634aebcc2f6b","636ce93ccccf08ed4e0bde65","34","","","","37","","","","key","16.669999999999924","768","357","true","-1","137.25753600000002","5.033164800000001","8","-1","-1","","","","","","","","","","","","",""
"psychophysics","110","339129","0.0-10.0-0.22","5dc6dbf63f04554df78c2bf7","6368f2eea3e9634aebcc2f6b","636ce93ccccf08ed4e0bde65","234.19999998807907","","","","37","","","","key","16.668229729730033","768","357","true","-1","132.2243712","5.033164800000001","8","-1","-1","","","","","","","","","","","","",""
"psychophysics","111","340584","0.0-10.0-0.23","5dc6dbf63f04554df78c2bf7","6368f2eea3e9634aebcc2f6b","636ce93ccccf08ed4e0bde65","448.5","","","","37","","","","key","16.664755813953423","768","357","true","1","132.2243712","4.0265318400000005","9","1","-1","","","","","","","","","","","","",""
"psychophysics","112","341601","0.0-10.0-0.24","5dc6dbf63f04554df78c2bf7","6368f2eea3e9634aebcc2f6b","636ce93ccccf08ed4e0bde65","9.300000011920929","","","","37","","","","key","16.665233333333163","768","357","true","-1","136.25090304","4.0265318400000005","9","-1","1","","","","","","","","","","","","",""
"psychophysics","113","342776","0.0-10.0-0.25","5dc6dbf63f04554df78c2bf7","6368f2eea3e9634aebcc2f6b","636ce93ccccf08ed4e0bde65","168.39999997615814","","","","39","","","","key","16.669971014492795","768","357","true","1","136.25090304","3.2212254720000004","10","-1","-1","","","","","","","","","","","","",""
"psychophysics","114","344680","0.0-10.0-0.26","5dc6dbf63f04554df78c2bf7","6368f2eea3e9634aebcc2f6b","636ce93ccccf08ed4e0bde65","902.9000000059605","","","","39","","","","key","16.667754385964496","768","357","true","-1","133.029677568","2.5769803776000004","11","1","-1","","","","","","","","","","","","",""
"psychophysics","115","345806","0.0-10.0-0.27","5dc6dbf63f04554df78c2bf7","6368f2eea3e9634aebcc2f6b","636ce93ccccf08ed4e0bde65","118.69999998807907","","","","37","","","","key","16.666545454545872","768","357","true","-1","135.6066579456","2.5769803776000004","11","-1","1","","","","","","","","","","","","",""
"psychophysics","116","346970","0.0-10.0-0.28","5dc6dbf63f04554df78c2bf7","6368f2eea3e9634aebcc2f6b","636ce93ccccf08ed4e0bde65","158.5","","","","39","","","","key","16.67118840579676","768","357","true","1","135.6066579456","2.0615843020800004","12","-1","-1","","","","","","","","","","","","",""
"psychophysics","117","349467","0.0-10.0-0.29","5dc6dbf63f04554df78c2bf7","6368f2eea3e9634aebcc2f6b","636ce93ccccf08ed4e0bde65","1491.1000000238419","","","","37","","","","key","16.668020134228016","768","357","true","1","133.54507364352","1.6492674416640005","13","1","-1","","","","","","","","","","","","",""
"psychophysics","118","350524","0.0-10.0-0.30","5dc6dbf63f04554df78c2bf7","6368f2eea3e9634aebcc2f6b","636ce93ccccf08ed4e0bde65","52.5","","","","39","","","","key","16.66767741935403","768","357","true","1","135.194341085184","1.6492674416640005","13","-1","1","","","","","","","","","","","","",""
"psychophysics","119","351629","0.0-10.0-0.31","5dc6dbf63f04554df78c2bf7","6368f2eea3e9634aebcc2f6b","636ce93ccccf08ed4e0bde65","102.19999998807907","","","","37","","","","key","16.66834848484811","768","357","true","-1","135.194341085184","1.3194139533312006","14","-1","-1","","","","","","","","","","","","",""
"psychophysics","120","352980","0.0-10.0-0.32","5dc6dbf63f04554df78c2bf7","6368f2eea3e9634aebcc2f6b","636ce93ccccf08ed4e0bde65","340.5","","","","37","","","","key","16.668074999999952","768","357","true","-1","133.8749271318528","1.3194139533312006","14","-1","-1","","","","","","","","","","","","",""
"psychophysics","121","354031","0.0-10.0-0.33","5dc6dbf63f04554df78c2bf7","6368f2eea3e9634aebcc2f6b","636ce93ccccf08ed4e0bde65","47.599999994039536","","","","39","","","","key","16.66866129032344","768","357","true","1","133.8749271318528","1.3194139533312006","14","-1","-1","","","","","","","","","","","","",""
"psychophysics","122","357325","0.0-10.0-0.34","5dc6dbf63f04554df78c2bf7","6368f2eea3e9634aebcc2f6b","636ce93ccccf08ed4e0bde65","2286","","","","37","","","","key","16.66734183673469","768","357","true","1","132.55551317852158","1.0555311626649604","15","1","-1","","","","","","","","","","","","",""
"psychophysics","123","360038","0.0-10.0-0.35","5dc6dbf63f04554df78c2bf7","6368f2eea3e9634aebcc2f6b","636ce93ccccf08ed4e0bde65","1710.0999999940395","","","","37","","","","key","16.667098765432144","768","357","true","1","133.61104434118653","1.0555311626649604","15","1","1","","","","","","","","","","","","",""
"psychophysics","124","361118","0.0-10.0-0.36","5dc6dbf63f04554df78c2bf7","6368f2eea3e9634aebcc2f6b","636ce93ccccf08ed4e0bde65","72.2000000178814","","","","39","","","","key","16.668250000000626","768","357","true","1","134.66657550385148","1.0555311626649604","15","-1","1","","","","","","","","","","","","",""
"psychophysics","125","363757","0.0-10.0-0.37","5dc6dbf63f04554df78c2bf7","6368f2eea3e9634aebcc2f6b","636ce93ccccf08ed4e0bde65","1636.9000000059605","","","","39","","","","key","16.66725477707019","768","357","true","-1","134.66657550385148","1","16","1","-1","","","","","","","","","","","","",""
"psychophysics","126","364802","0.0-10.0-0.38","5dc6dbf63f04554df78c2bf7","6368f2eea3e9634aebcc2f6b","636ce93ccccf08ed4e0bde65","42.599999994039536","","","","39","","","","key","16.66717741935469","768","357","true","1","135.66657550385148","1","16","-1","1","","","","","","","","","","","","",""
"psychophysics","127","365815","0.0-10.0-0.39","5dc6dbf63f04554df78c2bf7","6368f2eea3e9634aebcc2f6b","636ce93ccccf08ed4e0bde65","7.800000011920929","","","","39","","","","key","16.663649999999326","768","357","true","1","135.66657550385148","1","17","-1","-1","","","","","","","","","","","","",""
"html-keyboard-response","128","368824","0.0-11.0","5dc6dbf63f04554df78c2bf7","6368f2eea3e9634aebcc2f6b","636ce93ccccf08ed4e0bde65","3007.199999988079","<p>Well Done !</p><p>Prepare for a new block.</p><p>DON'T EXIT THE FULL SCREEN MODE</p><p>Press the Spacebar to start.</p>","","","32","","","","","","","","","","","","","","","true","134.60069107412713","","","","","","","","","","",""
"psychophysics","129","369829","0.0-12.0-0.0","5dc6dbf63f04554df78c2bf7","6368f2eea3e9634aebcc2f6b","636ce93ccccf08ed4e0bde65","1.4000000059604645","","","","37","","","","key","16.694967213114456","768","357","true","-1","180","30","0","-1","","","","","","","","","","","","","",""
"psychophysics","130","372672","0.0-12.0-0.1","5dc6dbf63f04554df78c2bf7","6368f2eea3e9634aebcc2f6b","636ce93ccccf08ed4e0bde65","1826.7999999821186","","","","39","","","","key","16.666798816568125","768","357","true","-1","180","30","0","1","-1","","","","","","","","","","","","",""
"psychophysics","131","375170","0.0-12.0-0.2","5dc6dbf63f04554df78c2bf7","6368f2eea3e9634aebcc2f6b","636ce93ccccf08ed4e0bde65","1491.9000000059605","","","","39","","","","key","16.666617449664436","768","357","true","1","210","30","0","-1","1","","","","","","","","","","","","",""
"psychophysics","132","378039","0.0-12.0-0.3","5dc6dbf63f04554df78c2bf7","6368f2eea3e9634aebcc2f6b","636ce93ccccf08ed4e0bde65","1861.0999999940395","","","","37","","","","key","16.666660818713172","768","357","true","-1","210","24","1","-1","-1","","","","","","","","","","","","",""
"psychophysics","133","380559","0.0-12.0-0.4","5dc6dbf63f04554df78c2bf7","6368f2eea3e9634aebcc2f6b","636ce93ccccf08ed4e0bde65","1514.3999999761581","","","","37","","","","key","16.666013333333346","768","357","true","-1","186","24","1","-1","-1","","","","","","","","","","","","",""
"psychophysics","134","381561","0.0-12.0-0.5","5dc6dbf63f04554df78c2bf7","6368f2eea3e9634aebcc2f6b","636ce93ccccf08ed4e0bde65","0.09999999403953552","","","","39","","","","key","16.67123728813564","768","357","true","1","186","24","1","-1","-1","","","","","","","","","","","","",""
"psychophysics","135","384034","0.0-12.0-0.6","5dc6dbf63f04554df78c2bf7","6368f2eea3e9634aebcc2f6b","636ce93ccccf08ed4e0bde65","1457","","","","39","","","","key","16.667574324324175","768","357","true","1","162","24","1","-1","-1","","","","","","","","","","","","",""
"psychophysics","136","387663","0.0-12.0-0.7","5dc6dbf63f04554df78c2bf7","6368f2eea3e9634aebcc2f6b","636ce93ccccf08ed4e0bde65","2610.5","","","","37","","","","key","16.666194444444383","768","357","true","-1","162","24","1","-1","-1","","","","","","","","","","","","",""
"psychophysics","137","390954","0.0-12.0-0.8","5dc6dbf63f04554df78c2bf7","6368f2eea3e9634aebcc2f6b","636ce93ccccf08ed4e0bde65","2281.5999999940395","","","","37","","","","key","16.667693877551105","768","357","true","-1","138","24","1","-1","-1","","","","","","","","","","","","",""
"psychophysics","138","392049","0.0-12.0-0.9","5dc6dbf63f04554df78c2bf7","6368f2eea3e9634aebcc2f6b","636ce93ccccf08ed4e0bde65","93.10000002384186","","","","39","","","","key","16.67015384615381","768","357","true","1","138","24","1","-1","-1","","","","","","","","","","","","",""
"psychophysics","139","394049","0.0-12.0-0.10","5dc6dbf63f04554df78c2bf7","6368f2eea3e9634aebcc2f6b","636ce93ccccf08ed4e0bde65","993.6999999880791","","","","39","","","","key","16.665067226890603","768","357","true","1","129","24","1","-1","-1","","","","","","","","","","","","",""
"psychophysics","140","395583","0.0-12.0-0.11","5dc6dbf63f04554df78c2bf7","6368f2eea3e9634aebcc2f6b","636ce93ccccf08ed4e0bde65","527.6000000238419","","","","39","","","","key","16.665692307692723","768","357","true","1","129","24","1","-1","-1","","","","","","","","","","","","",""
"psychophysics","141","397457","0.0-12.0-0.12","5dc6dbf63f04554df78c2bf7","6368f2eea3e9634aebcc2f6b","636ce93ccccf08ed4e0bde65","868.4000000059605","","","","39","","","","key","16.66669642857128","768","357","true","-1","129","19.2","2","1","-1","","","","","","","","","","","","",""
"psychophysics","142","398544","0.0-12.0-0.13","5dc6dbf63f04554df78c2bf7","6368f2eea3e9634aebcc2f6b","636ce93ccccf08ed4e0bde65","71.69999998807907","","","","39","","","","key","16.668609374999505","768","357","true","1","148.2","19.2","2","-1","1","","","","","","","","","","","","",""
"psychophysics","143","400983","0.0-12.0-0.14","5dc6dbf63f04554df78c2bf7","6368f2eea3e9634aebcc2f6b","636ce93ccccf08ed4e0bde65","1430.5","","","","37","","","","key","16.667062068965432","768","357","true","1","148.2","15.36","3","1","-1","","","","","","","","","","","","",""
"psychophysics","144","402096","0.0-12.0-0.15","5dc6dbf63f04554df78c2bf7","6368f2eea3e9634aebcc2f6b","636ce93ccccf08ed4e0bde65","107.39999997615814","","","","37","","","","key","16.667545454545746","768","357","true","-1","163.56","15.36","3","-1","1","","","","","","","","","","","","",""
"psychophysics","145","404297","0.0-12.0-0.16","5dc6dbf63f04554df78c2bf7","6368f2eea3e9634aebcc2f6b","636ce93ccccf08ed4e0bde65","1192.0999999940395","","","","39","","","","key","16.666541984732678","768","357","true","-1","163.56","12.287999999999998","4","1","-1","","","","","","","","","","","","",""
"psychophysics","146","406967","0.0-12.0-0.17","5dc6dbf63f04554df78c2bf7","6368f2eea3e9634aebcc2f6b","636ce93ccccf08ed4e0bde65","1661.9000000059605","","","","39","","","","key","16.667408805031553","768","357","true","-1","175.848","12.287999999999998","4","1","1","","","","","","","","","","","","",""
"psychophysics","147","409080","0.0-12.0-0.18","5dc6dbf63f04554df78c2bf7","6368f2eea3e9634aebcc2f6b","636ce93ccccf08ed4e0bde65","1109.4000000059605","","","","37","","","","key","16.668015873015744","768","357","true","1","188.13600000000002","12.287999999999998","4","1","1","","","","","","","","","","","","",""
"psychophysics","148","411588","0.0-12.0-0.19","5dc6dbf63f04554df78c2bf7","6368f2eea3e9634aebcc2f6b","636ce93ccccf08ed4e0bde65","1498.699999988079","","","","37","","","","key","16.665583892617196","768","357","true","1","200.42400000000004","12.287999999999998","4","1","1","","","","","","","","","","","","",""
"psychophysics","149","413727","0.0-12.0-0.20","5dc6dbf63f04554df78c2bf7","6368f2eea3e9634aebcc2f6b","636ce93ccccf08ed4e0bde65","1137.2999999821186","","","","39","","","","key","16.667812499999854","768","357","true","-1","212.71200000000005","12.287999999999998","4","1","1","","","","","","","","","","","","",""
"psychophysics","150","414766","0.0-12.0-0.21","5dc6dbf63f04554df78c2bf7","6368f2eea3e9634aebcc2f6b","636ce93ccccf08ed4e0bde65","29.599999994039536","","","","37","","","","key","16.66686885245908","768","357","true","-1","225.00000000000006","12.287999999999998","4","-1","1","","","","","","","","","","","","",""
"psychophysics","151","416724","0.0-12.0-0.22","5dc6dbf63f04554df78c2bf7","6368f2eea3e9634aebcc2f6b","636ce93ccccf08ed4e0bde65","951.8999999761581","","","","39","","","","key","16.66839316239308","768","357","true","1","225.00000000000006","9.8304","5","-1","-1","","","","","","","","","","","","",""
"psychophysics","152","417794","0.0-12.0-0.23","5dc6dbf63f04554df78c2bf7","6368f2eea3e9634aebcc2f6b","636ce93ccccf08ed4e0bde65","58.20000001788139","","","","39","","","","key","16.664634920634505","768","357","true","1","215.16960000000006","9.8304","5","-1","-1","","","","","","","","","","","","",""
"psychophysics","153","418905","0.0-12.0-0.24","5dc6dbf63f04554df78c2bf7","6368f2eea3e9634aebcc2f6b","636ce93ccccf08ed4e0bde65","99.80000001192093","","","","37","","","","key","16.6652923076924","768","357","true","-1","215.16960000000006","9.8304","5","-1","-1","","","","","","","","","","","","",""
"psychophysics","154","421162","0.0-12.0-0.25","5dc6dbf63f04554df78c2bf7","6368f2eea3e9634aebcc2f6b","636ce93ccccf08ed4e0bde65","1254.9000000059605","","","","39","","","","key","16.667548148148192","768","357","true","-1","205.33920000000006","7.864319999999999","6","1","-1","","","","","","","","","","","","",""
"psychophysics","155","422194","0.0-12.0-0.26","5dc6dbf63f04554df78c2bf7","6368f2eea3e9634aebcc2f6b","636ce93ccccf08ed4e0bde65","21.299999982118607","","","","37","","","","key","16.668999999999183","768","357","true","-1","213.20352000000005","7.864319999999999","6","-1","1","","","","","","","","","","","","",""
"psychophysics","156","424326","0.0-12.0-0.27","5dc6dbf63f04554df78c2bf7","6368f2eea3e9634aebcc2f6b","636ce93ccccf08ed4e0bde65","1120.5","","","","39","","","","key","16.665724409448522","768","357","true","-1","213.20352000000005","6.291456","7","1","-1","","","","","","","","","","","","",""
"psychophysics","157","426718","0.0-12.0-0.28","5dc6dbf63f04554df78c2bf7","6368f2eea3e9634aebcc2f6b","636ce93ccccf08ed4e0bde65","1383.2000000178814","","","","37","","","","key","16.66323943661967","768","357","true","1","219.49497600000007","6.291456","7","1","1","","","","","","","","","","","","",""
"psychophysics","158","429100","0.0-12.0-0.29","5dc6dbf63f04554df78c2bf7","6368f2eea3e9634aebcc2f6b","636ce93ccccf08ed4e0bde65","1377.800000011921","","","","39","","","","key","16.66609154929592","768","357","true","-1","225.78643200000008","6.291456","7","1","1","","","","","","","","","","","","",""
"psychophysics","159","430114","0.0-12.0-0.30","5dc6dbf63f04554df78c2bf7","6368f2eea3e9634aebcc2f6b","636ce93ccccf08ed4e0bde65","8.299999982118607","","","","39","","","","key","16.667033333333286","768","357","true","1","232.0778880000001","6.291456","7","-1","1","","","","","","","","","","","","",""
"psychophysics","160","431194","0.0-12.0-0.31","5dc6dbf63f04554df78c2bf7","6368f2eea3e9634aebcc2f6b","636ce93ccccf08ed4e0bde65","71.89999997615814","","","","39","","","","key","16.665546874999563","768","357","true","1","232.0778880000001","5.033164800000001","8","-1","-1","","","","","","","","","","","","",""
"psychophysics","161","432310","0.0-12.0-0.32","5dc6dbf63f04554df78c2bf7","6368f2eea3e9634aebcc2f6b","636ce93ccccf08ed4e0bde65","104.5","","","","39","","","","key","16.666681818181655","768","357","true","1","227.04472320000008","5.033164800000001","8","-1","-1","","","","","","","","","","","","",""
"psychophysics","162","434611","0.0-12.0-0.33","5dc6dbf63f04554df78c2bf7","6368f2eea3e9634aebcc2f6b","636ce93ccccf08ed4e0bde65","1292","","","","37","","","","key","16.666416058394155","768","357","true","1","227.04472320000008","4.0265318400000005","9","1","-1","","","","","","","","","","","","",""
"psychophysics","163","436661","0.0-12.0-0.34","5dc6dbf63f04554df78c2bf7","6368f2eea3e9634aebcc2f6b","636ce93ccccf08ed4e0bde65","1037.7999999821186","","","","37","","","","key","16.66669672131147","768","357","true","1","231.07125504000007","4.0265318400000005","9","1","1","","","","","","","","","","","","",""
"psychophysics","164","438647","0.0-12.0-0.35","5dc6dbf63f04554df78c2bf7","6368f2eea3e9634aebcc2f6b","636ce93ccccf08ed4e0bde65","974.5","","","","39","","","","key","16.667025423729083","768","357","true","-1","235.09778688000006","4.0265318400000005","9","1","1","","","","","","","","","","","","",""
"psychophysics","165","441138","0.0-12.0-0.36","5dc6dbf63f04554df78c2bf7","6368f2eea3e9634aebcc2f6b","636ce93ccccf08ed4e0bde65","1486","","","","39","","","","key","16.66550000000004","768","357","true","-1","239.12431872000005","4.0265318400000005","9","1","1","","","","","","","","","","","","",""
"psychophysics","166","443758","0.0-12.0-0.37","5dc6dbf63f04554df78c2bf7","6368f2eea3e9634aebcc2f6b","636ce93ccccf08ed4e0bde65","1617.5","","","","37","","","","key","16.667917197452308","768","357","true","1","243.15085056000004","4.0265318400000005","9","1","1","","","","","","","","","","","","",""
"psychophysics","167","445704","0.0-12.0-0.38","5dc6dbf63f04554df78c2bf7","6368f2eea3e9634aebcc2f6b","636ce93ccccf08ed4e0bde65","939.5999999940395","","","","39","","","","key","16.665947826087233","768","357","true","-1","247.17738240000003","4.0265318400000005","9","1","1","","","","","","","","","","","","",""
"psychophysics","168","446771","0.0-12.0-0.39","5dc6dbf63f04554df78c2bf7","6368f2eea3e9634aebcc2f6b","636ce93ccccf08ed4e0bde65","57","","","","39","","","","key","16.671857142856986","768","357","true","1","251.20391424000002","4.0265318400000005","9","-1","1","","","","","","","","","","","","",""
"html-keyboard-response","169","448992","0.0-13.0","5dc6dbf63f04554df78c2bf7","6368f2eea3e9634aebcc2f6b","636ce93ccccf08ed4e0bde65","2219.800000011921","<p>Well Done !</p><p>Prepare for a new block.</p><p>DON'T EXIT THE FULL SCREEN MODE</p><p>Press the Spacebar to start.</p>","","","32","","","","","","","","","","","","","","","true","229.47322521600006","","","","","","","","","","",""
"html-keyboard-response","170","449100","0.0-14.0","5dc6dbf63f04554df78c2bf7","6368f2eea3e9634aebcc2f6b","636ce93ccccf08ed4e0bde65","null","","","","null","","","","","","","","","","","","","","","","","157.32969765133242","true","186.65939530266485","","","","","","","",""
"instructions","171","485171","0.0-15.0","5dc6dbf63f04554df78c2bf7","6368f2eea3e9634aebcc2f6b","636ce93ccccf08ed4e0bde65","36070.60000002384","","","","","","","[{""page_index"":0,""viewing_time"":27869.5},{""page_index"":1,""viewing_time"":5651.200000017881},{""page_index"":2,""viewing_time"":2549.4000000059605}]","","","","","","","","","","","","","","","","","","","","","","","",""
"psychophysics","172","488195","0.0-16.0-0.0","5dc6dbf63f04554df78c2bf7","6368f2eea3e9634aebcc2f6b","636ce93ccccf08ed4e0bde65","null","","","","null","","","","key","16.689316666666613","768","357","","","","","","","","","","","","","","","","","","","",""
"psychophysics","173","488698","0.0-16.0-1.0","5dc6dbf63f04554df78c2bf7","6368f2eea3e9634aebcc2f6b","636ce93ccccf08ed4e0bde65","null","","","","null","","","","key","16.667896551724347","768","357","","","","","","","","","","","","","187","-1","2","false","","","",""
"psychophysics","174","491533","0.0-16.0-2.0","5dc6dbf63f04554df78c2bf7","6368f2eea3e9634aebcc2f6b","636ce93ccccf08ed4e0bde65","2831.4000000059605","","","","90","","","","key","16.66628235294107","768","357","","","","","","","","","","","","","","","","","","","",""
"psychophysics","175","492538","0.0-16.0-0.1","5dc6dbf63f04554df78c2bf7","6368f2eea3e9634aebcc2f6b","636ce93ccccf08ed4e0bde65","null","","","","null","","","","key","16.66272881355973","768","357","","","","","","","","","","","","","","","","","","","",""
"psychophysics","176","493043","0.0-16.0-1.1","5dc6dbf63f04554df78c2bf7","6368f2eea3e9634aebcc2f6b","636ce93ccccf08ed4e0bde65","null","","","","null","","","","key","16.67168965517214","768","357","","","","","","","","","","","","","187","-1","3","false","","","",""
"psychophysics","177","494004","0.0-16.0-2.1","5dc6dbf63f04554df78c2bf7","6368f2eea3e9634aebcc2f6b","636ce93ccccf08ed4e0bde65","960.0999999940395","","","","90","","","","key","16.665473684210028","768","357","","","","","","","","","","","","","","","","","","","",""
"psychophysics","178","495010","0.0-16.0-0.2","5dc6dbf63f04554df78c2bf7","6368f2eea3e9634aebcc2f6b","636ce93ccccf08ed4e0bde65","null","","","","null","","","","key","16.66422033898327","768","357","","","","","","","","","","","","","","","","","","","",""
"psychophysics","179","495514","0.0-16.0-1.2","5dc6dbf63f04554df78c2bf7","6368f2eea3e9634aebcc2f6b","636ce93ccccf08ed4e0bde65","null","","","","null","","","","key","16.66434482758632","768","357","","","","","","","","","","","","","187","1","4","false","","","",""
"psychophysics","180","496153","0.0-16.0-2.2","5dc6dbf63f04554df78c2bf7","6368f2eea3e9634aebcc2f6b","636ce93ccccf08ed4e0bde65","636","","","","77","","","","key","16.670552631578175","768","357","","","","","","","","","","","","","","","","","","","",""
"psychophysics","181","497162","0.0-16.0-0.3","5dc6dbf63f04554df78c2bf7","6368f2eea3e9634aebcc2f6b","636ce93ccccf08ed4e0bde65","null","","","","null","","","","key","16.66554237288123","768","357","","","","","","","","","","","","","","","","","","","",""
"psychophysics","182","497666","0.0-16.0-1.3","5dc6dbf63f04554df78c2bf7","6368f2eea3e9634aebcc2f6b","636ce93ccccf08ed4e0bde65","null","","","","null","","","","key","16.661099999999472","768","357","","","","","","","","","","","","","187","1","2","false","","","",""
"psychophysics","183","497986","0.0-16.0-2.3","5dc6dbf63f04554df78c2bf7","6368f2eea3e9634aebcc2f6b","636ce93ccccf08ed4e0bde65","318.7999999821186","","","","90","","","","key","16.676055555555244","768","357","","","","","","","","","","","","","","","","","","","",""
"psychophysics","184","498994","0.0-16.0-0.4","5dc6dbf63f04554df78c2bf7","6368f2eea3e9634aebcc2f6b","636ce93ccccf08ed4e0bde65","null","","","","null","","","","key","16.666932203389617","768","357","","","","","","","","","","","","","","","","","","","",""
"psychophysics","185","499498","0.0-16.0-1.4","5dc6dbf63f04554df78c2bf7","6368f2eea3e9634aebcc2f6b","636ce93ccccf08ed4e0bde65","null","","","","null","","","","key","16.664172413793054","768","357","","","","","","","","","","","","","187","1","6","false","","","",""
"psychophysics","186","499772","0.0-16.0-2.4","5dc6dbf63f04554df78c2bf7","6368f2eea3e9634aebcc2f6b","636ce93ccccf08ed4e0bde65","271.7999999821186","","","","77","","","","key","16.668499999999767","768","357","","","","","","","","","","","","","","","","","","","",""
"psychophysics","187","500778","0.0-16.0-0.5","5dc6dbf63f04554df78c2bf7","6368f2eea3e9634aebcc2f6b","636ce93ccccf08ed4e0bde65","null","","","","null","","","","key","16.666627118643177","768","357","","","","","","","","","","","","","","","","","","","",""
"psychophysics","188","501283","0.0-16.0-1.5","5dc6dbf63f04554df78c2bf7","6368f2eea3e9634aebcc2f6b","636ce93ccccf08ed4e0bde65","null","","","","null","","","","key","16.669866666667318","768","357","","","","","","","","","","","","","187","1","3","false","","","",""
"psychophysics","189","502095","0.0-16.0-2.5","5dc6dbf63f04554df78c2bf7","6368f2eea3e9634aebcc2f6b","636ce93ccccf08ed4e0bde65","810.5999999940395","","","","90","","","","key","16.671957446808403","768","357","","","","","","","","","","","","","","","","","","","",""
"psychophysics","190","503098","0.0-16.0-0.6","5dc6dbf63f04554df78c2bf7","6368f2eea3e9634aebcc2f6b","636ce93ccccf08ed4e0bde65","null","","","","null","","","","key","16.662457627119","768","357","","","","","","","","","","","","","","","","","","","",""
"psychophysics","191","503599","0.0-16.0-1.6","5dc6dbf63f04554df78c2bf7","6368f2eea3e9634aebcc2f6b","636ce93ccccf08ed4e0bde65","null","","","","null","","","","key","16.67159999999955","768","357","","","","","","","","","","","","","187","-1","5","false","","","",""
"psychophysics","192","504790","0.0-16.0-2.6","5dc6dbf63f04554df78c2bf7","6368f2eea3e9634aebcc2f6b","636ce93ccccf08ed4e0bde65","1189","","","","77","","","","key","16.66841428571497","768","357","","","","","","","","","","","","","","","","","","","",""
"psychophysics","193","505794","0.0-16.0-0.7","5dc6dbf63f04554df78c2bf7","6368f2eea3e9634aebcc2f6b","636ce93ccccf08ed4e0bde65","null","","","","null","","","","key","16.66561016949166","768","357","","","","","","","","","","","","","","","","","","","",""
"psychophysics","194","506298","0.0-16.0-1.7","5dc6dbf63f04554df78c2bf7","6368f2eea3e9634aebcc2f6b","636ce93ccccf08ed4e0bde65","null","","","","null","","","","key","16.66755172413782","768","357","","","","","","","","","","","","","187","-1","0","false","","","",""
"psychophysics","195","506798","0.0-16.0-2.7","5dc6dbf63f04554df78c2bf7","6368f2eea3e9634aebcc2f6b","636ce93ccccf08ed4e0bde65","490.39999997615814","","","","90","","","","key","16.668172413794373","768","357","","","","","","","","","","","","","","","","","","","",""
"psychophysics","196","507802","0.0-16.0-0.8","5dc6dbf63f04554df78c2bf7","6368f2eea3e9634aebcc2f6b","636ce93ccccf08ed4e0bde65","null","","","","null","","","","key","16.6657966101696","768","357","","","","","","","","","","","","","","","","","","","",""
"psychophysics","197","508306","0.0-16.0-1.8","5dc6dbf63f04554df78c2bf7","6368f2eea3e9634aebcc2f6b","636ce93ccccf08ed4e0bde65","null","","","","null","","","","key","16.66672413793176","768","357","","","","","","","","","","","","","187","-1","6","false","","","",""
"psychophysics","198","508476","0.0-16.0-2.8","5dc6dbf63f04554df78c2bf7","6368f2eea3e9634aebcc2f6b","636ce93ccccf08ed4e0bde65","164.5","","","","77","","","","key","16.65480000000098","768","357","","","","","","","","","","","","","","","","","","","",""
"psychophysics","199","509482","0.0-16.0-0.9","5dc6dbf63f04554df78c2bf7","6368f2eea3e9634aebcc2f6b","636ce93ccccf08ed4e0bde65","null","","","","null","","","","key","16.6690508474584","768","357","","","","","","","","","","","","","","","","","","","",""
"psychophysics","200","509985","0.0-16.0-1.9","5dc6dbf63f04554df78c2bf7","6368f2eea3e9634aebcc2f6b","636ce93ccccf08ed4e0bde65","null","","","","null","","","","key","16.67158620689538","768","357","","","","","","","","","","","","","187","1","0","false","","","",""
"psychophysics","201","510256","0.0-16.0-2.9","5dc6dbf63f04554df78c2bf7","6368f2eea3e9634aebcc2f6b","636ce93ccccf08ed4e0bde65","268.90000000596046","","","","90","","","","key","16.674399999998666","768","357","","","","","","","","","","","","","","","","","","","",""
"psychophysics","202","511257","0.0-16.0-0.10","5dc6dbf63f04554df78c2bf7","6368f2eea3e9634aebcc2f6b","636ce93ccccf08ed4e0bde65","null","","","","null","","","","key","16.668450000000302","768","357","","","","","","","","","","","","","","","","","","","",""
"psychophysics","203","511762","0.0-16.0-1.10","5dc6dbf63f04554df78c2bf7","6368f2eea3e9634aebcc2f6b","636ce93ccccf08ed4e0bde65","null","","","","null","","","","key","16.671551724137128","768","357","","","","","","","","","","","","","187","-1","4","false","","","",""
"psychophysics","204","512705","0.0-16.0-2.10","5dc6dbf63f04554df78c2bf7","6368f2eea3e9634aebcc2f6b","636ce93ccccf08ed4e0bde65","938.7000000178814","","","","77","","","","key","16.67167272727238","768","357","","","","","","","","","","","","","","","","","","","",""
"psychophysics","205","513707","0.0-16.0-0.11","5dc6dbf63f04554df78c2bf7","6368f2eea3e9634aebcc2f6b","636ce93ccccf08ed4e0bde65","null","","","","null","","","","key","16.666466666666867","768","357","","","","","","","","","","","","","","","","","","","",""
"psychophysics","206","514209","0.0-16.0-1.11","5dc6dbf63f04554df78c2bf7","6368f2eea3e9634aebcc2f6b","636ce93ccccf08ed4e0bde65","null","","","","null","","","","key","16.66493103448462","768","357","","","","","","","","","","","","","187","1","5","false","","","",""
"psychophysics","207","514448","0.0-16.0-2.11","5dc6dbf63f04554df78c2bf7","6368f2eea3e9634aebcc2f6b","636ce93ccccf08ed4e0bde65","237.09999999403954","","","","77","","","","key","16.682230769231236","768","357","","","","","","","","","","","","","","","","","","","",""
"psychophysics","208","515457","0.0-16.0-0.12","5dc6dbf63f04554df78c2bf7","6368f2eea3e9634aebcc2f6b","636ce93ccccf08ed4e0bde65","null","","","","null","","","","key","16.667599999999705","768","357","","","","","","","","","","","","","","","","","","","",""
"psychophysics","209","515958","0.0-16.0-1.12","5dc6dbf63f04554df78c2bf7","6368f2eea3e9634aebcc2f6b","636ce93ccccf08ed4e0bde65","null","","","","null","","","","key","16.66886206896542","768","357","","","","","","","","","","","","","187","1","3","false","","","",""
"psychophysics","210","518974","0.0-16.0-2.12","5dc6dbf63f04554df78c2bf7","6368f2eea3e9634aebcc2f6b","636ce93ccccf08ed4e0bde65","3014.2999999821186","","","","90","","","","key","16.665366666666685","768","357","","","","","","","","","","","","","","","","","","","",""
"psychophysics","211","519978","0.0-16.0-0.13","5dc6dbf63f04554df78c2bf7","6368f2eea3e9634aebcc2f6b","636ce93ccccf08ed4e0bde65","null","","","","null","","","","key","16.666694915253604","768","357","","","","","","","","","","","","","","","","","","","",""
"psychophysics","212","520482","0.0-16.0-1.13","5dc6dbf63f04554df78c2bf7","6368f2eea3e9634aebcc2f6b","636ce93ccccf08ed4e0bde65","null","","","","null","","","","key","16.66962068965498","768","357","","","","","","","","","","","","","187","1","2","false","","","",""
"psychophysics","213","521135","0.0-16.0-2.13","5dc6dbf63f04554df78c2bf7","6368f2eea3e9634aebcc2f6b","636ce93ccccf08ed4e0bde65","652.2000000178814","","","","90","","","","key","16.667368421052263","768","357","","","","","","","","","","","","","","","","","","","",""
"psychophysics","214","522137","0.0-16.0-0.14","5dc6dbf63f04554df78c2bf7","6368f2eea3e9634aebcc2f6b","636ce93ccccf08ed4e0bde65","null","","","","null","","","","key","16.667711864407096","768","357","","","","","","","","","","","","","","","","","","","",""
"psychophysics","215","522640","0.0-16.0-1.14","5dc6dbf63f04554df78c2bf7","6368f2eea3e9634aebcc2f6b","636ce93ccccf08ed4e0bde65","null","","","","null","","","","key","16.669833333332402","768","357","","","","","","","","","","","","","187","-1","5","false","","","",""
"psychophysics","216","522758","0.0-16.0-2.14","5dc6dbf63f04554df78c2bf7","6368f2eea3e9634aebcc2f6b","636ce93ccccf08ed4e0bde65","116.09999999403954","","","","77","","","","key","16.62833333333644","768","357","","","","","","","","","","","","","","","","","","","",""
"psychophysics","217","523761","0.0-16.0-0.15","5dc6dbf63f04554df78c2bf7","6368f2eea3e9634aebcc2f6b","636ce93ccccf08ed4e0bde65","null","","","","null","","","","key","16.66306779660991","768","357","","","","","","","","","","","","","","","","","","","",""
"psychophysics","218","524266","0.0-16.0-1.15","5dc6dbf63f04554df78c2bf7","6368f2eea3e9634aebcc2f6b","636ce93ccccf08ed4e0bde65","null","","","","null","","","","key","16.66758620689607","768","357","","","","","","","","","","","","","187","1","0","false","","","",""
"psychophysics","219","524484","0.0-16.0-2.15","5dc6dbf63f04554df78c2bf7","6368f2eea3e9634aebcc2f6b","636ce93ccccf08ed4e0bde65","217.40000000596046","","","","90","","","","key","16.666416666674195","768","357","","","","","","","","","","","","","","","","","","","",""
"psychophysics","220","525489","0.0-16.0-0.16","5dc6dbf63f04554df78c2bf7","6368f2eea3e9634aebcc2f6b","636ce93ccccf08ed4e0bde65","null","","","","null","","","","key","16.6704406779658","768","357","","","","","","","","","","","","","","","","","","","",""
"psychophysics","221","525991","0.0-16.0-1.16","5dc6dbf63f04554df78c2bf7","6368f2eea3e9634aebcc2f6b","636ce93ccccf08ed4e0bde65","null","","","","null","","","","key","16.66803333333228","768","357","","","","","","","","","","","","","187","-1","3","false","","","",""
"psychophysics","222","526366","0.0-16.0-2.16","5dc6dbf63f04554df78c2bf7","6368f2eea3e9634aebcc2f6b","636ce93ccccf08ed4e0bde65","374","","","","90","","","","key","16.65947619047282","768","357","","","","","","","","","","","","","","","","","","","",""
"psychophysics","223","527370","0.0-16.0-0.17","5dc6dbf63f04554df78c2bf7","6368f2eea3e9634aebcc2f6b","636ce93ccccf08ed4e0bde65","null","","","","null","","","","key","16.666593220337468","768","357","","","","","","","","","","","","","","","","","","","",""
"psychophysics","224","527874","0.0-16.0-1.17","5dc6dbf63f04554df78c2bf7","6368f2eea3e9634aebcc2f6b","636ce93ccccf08ed4e0bde65","null","","","","null","","","","key","16.66996666666431","768","357","","","","","","","","","","","","","187","-1","2","false","","","",""
"psychophysics","225","528062","0.0-16.0-2.17","5dc6dbf63f04554df78c2bf7","6368f2eea3e9634aebcc2f6b","636ce93ccccf08ed4e0bde65","187.09999999403954","","","","90","","","","key","16.68170000000391","768","357","","","","","","","","","","","","","","","","","","","",""
"psychophysics","226","529065","0.0-16.0-0.18","5dc6dbf63f04554df78c2bf7","6368f2eea3e9634aebcc2f6b","636ce93ccccf08ed4e0bde65","null","","","","null","","","","key","16.666067796609347","768","357","","","","","","","","","","","","","","","","","","","",""
"psychophysics","227","529570","0.0-16.0-1.18","5dc6dbf63f04554df78c2bf7","6368f2eea3e9634aebcc2f6b","636ce93ccccf08ed4e0bde65","null","","","","null","","","","key","16.6647931034476","768","357","","","","","","","","","","","","","187","-1","6","false","","","",""
"psychophysics","228","529600","0.0-16.0-2.18","5dc6dbf63f04554df78c2bf7","6368f2eea3e9634aebcc2f6b","636ce93ccccf08ed4e0bde65","29.400000005960464","","","","77","","","","key","16.652999999932945","768","357","","","","","","","","","","","","","","","","","","","",""
"psychophysics","229","530607","0.0-16.0-0.19","5dc6dbf63f04554df78c2bf7","6368f2eea3e9634aebcc2f6b","636ce93ccccf08ed4e0bde65","null","","","","null","","","","key","16.666533333332822","768","357","","","","","","","","","","","","","","","","","","","",""
"psychophysics","230","531113","0.0-16.0-1.19","5dc6dbf63f04554df78c2bf7","6368f2eea3e9634aebcc2f6b","636ce93ccccf08ed4e0bde65","null","","","","null","","","","key","16.66268965517219","768","357","","","","","","","","","","","","","187","-1","4","false","","","",""
"psychophysics","231","531317","0.0-16.0-2.19","5dc6dbf63f04554df78c2bf7","6368f2eea3e9634aebcc2f6b","636ce93ccccf08ed4e0bde65","202.40000000596046","","","","77","","","","key","16.67845454545353","768","357","","","","","","","","","","","","","","","","","","","",""
"psychophysics","232","532321","0.0-16.0-0.20","5dc6dbf63f04554df78c2bf7","6368f2eea3e9634aebcc2f6b","636ce93ccccf08ed4e0bde65","null","","","","null","","","","key","16.66625423728828","768","357","","","","","","","","","","","","","","","","","","","",""
"psychophysics","233","532824","0.0-16.0-1.20","5dc6dbf63f04554df78c2bf7","6368f2eea3e9634aebcc2f6b","636ce93ccccf08ed4e0bde65","null","","","","null","","","","key","16.67123333333293","768","357","","","","","","","","","","","","","187","1","5","false","","","",""
"psychophysics","234","532982","0.0-16.0-2.20","5dc6dbf63f04554df78c2bf7","6368f2eea3e9634aebcc2f6b","636ce93ccccf08ed4e0bde65","156.80000001192093","","","","77","","","","key","16.667499999995925","768","357","","","","","","","","","","","","","","","","","","","",""
"psychophysics","235","533985","0.0-16.0-0.21","5dc6dbf63f04554df78c2bf7","6368f2eea3e9634aebcc2f6b","636ce93ccccf08ed4e0bde65","null","","","","null","","","","key","16.66788135593268","768","357","","","","","","","","","","","","","","","","","","","",""
"psychophysics","236","534489","0.0-16.0-1.21","5dc6dbf63f04554df78c2bf7","6368f2eea3e9634aebcc2f6b","636ce93ccccf08ed4e0bde65","null","","","","null","","","","key","16.67089655172433","768","357","","","","","","","","","","","","","187","-1","0","false","","","",""
"psychophysics","237","534613","0.0-16.0-2.21","5dc6dbf63f04554df78c2bf7","6368f2eea3e9634aebcc2f6b","636ce93ccccf08ed4e0bde65","121.5","","","","90","","","","key","16.671142857155896","768","357","","","","","","","","","","","","","","","","","","","",""
"psychophysics","238","535617","0.0-16.0-0.22","5dc6dbf63f04554df78c2bf7","6368f2eea3e9634aebcc2f6b","636ce93ccccf08ed4e0bde65","null","","","","null","","","","key","16.664508474576365","768","357","","","","","","","","","","","","","","","","","","","",""
"psychophysics","239","536121","0.0-16.0-1.22","5dc6dbf63f04554df78c2bf7","6368f2eea3e9634aebcc2f6b","636ce93ccccf08ed4e0bde65","null","","","","null","","","","key","16.665172413794387","768","357","","","","","","","","","","","","","187","1","4","false","","","",""
"psychophysics","240","536155","0.0-16.0-2.22","5dc6dbf63f04554df78c2bf7","6368f2eea3e9634aebcc2f6b","636ce93ccccf08ed4e0bde65","32.10000002384186","","","","77","","","","key","16.68500000005588","768","357","","","","","","","","","","","","","","","","","","","",""
"psychophysics","241","537156","0.0-16.0-0.23","5dc6dbf63f04554df78c2bf7","6368f2eea3e9634aebcc2f6b","636ce93ccccf08ed4e0bde65","null","","","","null","","","","key","16.666830508474465","768","357","","","","","","","","","","","","","","","","","","","",""
"psychophysics","242","537658","0.0-16.0-1.23","5dc6dbf63f04554df78c2bf7","6368f2eea3e9634aebcc2f6b","636ce93ccccf08ed4e0bde65","null","","","","null","","","","key","16.66783333333442","768","357","","","","","","","","","","","","","187","1","6","false","","","",""
"psychophysics","243","537772","0.0-16.0-2.23","5dc6dbf63f04554df78c2bf7","6368f2eea3e9634aebcc2f6b","636ce93ccccf08ed4e0bde65","112.80000001192093","","","","77","","","","key","16.682199999992736","768","357","","","","","","","","","","","","","","","","","","","",""
"html-keyboard-response","244","540888","0.0-17.0","5dc6dbf63f04554df78c2bf7","6368f2eea3e9634aebcc2f6b","636ce93ccccf08ed4e0bde65","3115.199999988079","<p>Well Done !</p><p>Training Complete. Press the spacebar to start.</p><p>DON'T EXIT THE FULL SCREEN MODE</p>","","","32","","","","","","","","","","","","","","","","","","","","","","","","","","",""
"psychophysics","245","543898","0.0-18.0-0.0","5dc6dbf63f04554df78c2bf7","6368f2eea3e9634aebcc2f6b","636ce93ccccf08ed4e0bde65","null","","","","null","","","","key","16.686966666666557","768","357","","","","","","","","","","","","","","","","","","","",""
"psychophysics","246","544402","0.0-18.0-1.0","5dc6dbf63f04554df78c2bf7","6368f2eea3e9634aebcc2f6b","636ce93ccccf08ed4e0bde65","null","","","","null","","","","key","16.664862068964105","768","357","","","","","","","","","","","","","187","1","3","true","","","",""
"psychophysics","247","550859","0.0-18.0-2.0","5dc6dbf63f04554df78c2bf7","6368f2eea3e9634aebcc2f6b","636ce93ccccf08ed4e0bde65","6456.199999988079","","","","77","","","","key","16.667974160206853","768","357","","","","","","","","","","","","","","","","","","","",""
"psychophysics","248","551865","0.0-18.0-0.1","5dc6dbf63f04554df78c2bf7","6368f2eea3e9634aebcc2f6b","636ce93ccccf08ed4e0bde65","null","","","","null","","","","key","16.665644067795395","768","357","","","","","","","","","","","","","","","","","","","",""
"psychophysics","249","552369","0.0-18.0-1.1","5dc6dbf63f04554df78c2bf7","6368f2eea3e9634aebcc2f6b","636ce93ccccf08ed4e0bde65","null","","","","null","","","","key","16.65796551724157","768","357","","","","","","","","","","","","","187","-1","6","true","","","",""
"psychophysics","250","552606","0.0-18.0-2.1","5dc6dbf63f04554df78c2bf7","6368f2eea3e9634aebcc2f6b","636ce93ccccf08ed4e0bde65","236","","","","77","","","","key","16.663692307694312","768","357","","","","","","","","","","","","","","","","","","","",""
"psychophysics","251","553607","0.0-18.0-0.2","5dc6dbf63f04554df78c2bf7","6368f2eea3e9634aebcc2f6b","636ce93ccccf08ed4e0bde65","null","","","","null","","","","key","16.672833333335195","768","357","","","","","","","","","","","","","","","","","","","",""
"psychophysics","252","554109","0.0-18.0-1.2","5dc6dbf63f04554df78c2bf7","6368f2eea3e9634aebcc2f6b","636ce93ccccf08ed4e0bde65","null","","","","null","","","","key","16.67744827586435","768","357","","","","","","","","","","","","","187","-1","3","true","","","",""
"psychophysics","253","554462","0.0-18.0-2.2","5dc6dbf63f04554df78c2bf7","6368f2eea3e9634aebcc2f6b","636ce93ccccf08ed4e0bde65","351.10000002384186","","","","90","","","","key","16.663750000001166","768","357","","","","","","","","","","","","","","","","","","","",""
"psychophysics","254","555466","0.0-18.0-0.3","5dc6dbf63f04554df78c2bf7","6368f2eea3e9634aebcc2f6b","636ce93ccccf08ed4e0bde65","null","","","","null","","","","key","16.661050847457265","768","357","","","","","","","","","","","","","","","","","","","",""
"psychophysics","255","555970","0.0-18.0-1.3","5dc6dbf63f04554df78c2bf7","6368f2eea3e9634aebcc2f6b","636ce93ccccf08ed4e0bde65","null","","","","null","","","","key","16.6654482758604","768","357","","","","","","","","","","","","","187","-1","5","true","","","",""
"psychophysics","256","556272","0.0-18.0-2.3","5dc6dbf63f04554df78c2bf7","6368f2eea3e9634aebcc2f6b","636ce93ccccf08ed4e0bde65","301.59999999403954","","","","77","","","","key","16.680882352945286","768","357","","","","","","","","","","","","","","","","","","","",""
"psychophysics","257","557274","0.0-18.0-0.4","5dc6dbf63f04554df78c2bf7","6368f2eea3e9634aebcc2f6b","636ce93ccccf08ed4e0bde65","null","","","","null","","","","key","16.668233333334015","768","357","","","","","","","","","","","","","","","","","","","",""
"psychophysics","258","557775","0.0-18.0-1.4","5dc6dbf63f04554df78c2bf7","6368f2eea3e9634aebcc2f6b","636ce93ccccf08ed4e0bde65","null","","","","null","","","","key","16.675206896551916","768","357","","","","","","","","","","","","","187","1","4","true","","","",""
"psychophysics","259","557913","0.0-18.0-2.4","5dc6dbf63f04554df78c2bf7","6368f2eea3e9634aebcc2f6b","636ce93ccccf08ed4e0bde65","136.09999999403954","","","","77","","","","key","16.667142857148843","768","357","","","","","","","","","","","","","","","","","","","",""
"psychophysics","260","558922","0.0-18.0-0.5","5dc6dbf63f04554df78c2bf7","6368f2eea3e9634aebcc2f6b","636ce93ccccf08ed4e0bde65","null","","","","null","","","","key","16.66667796610223","768","357","","","","","","","","","","","","","","","","","","","",""
"psychophysics","261","559423","0.0-18.0-1.5","5dc6dbf63f04554df78c2bf7","6368f2eea3e9634aebcc2f6b","636ce93ccccf08ed4e0bde65","null","","","","null","","","","key","16.664448275865087","768","357","","","","","","","","","","","","","187","-1","0","true","","","",""
"psychophysics","262","559635","0.0-18.0-2.5","5dc6dbf63f04554df78c2bf7","6368f2eea3e9634aebcc2f6b","636ce93ccccf08ed4e0bde65","208.69999998807907","","","","90","","","","key","16.660333333333256","768","357","","","","","","","","","","","","","","","","","","","",""
"psychophysics","263","560641","0.0-18.0-0.6","5dc6dbf63f04554df78c2bf7","6368f2eea3e9634aebcc2f6b","636ce93ccccf08ed4e0bde65","null","","","","null","","","","key","16.668416666666356","768","357","","","","","","","","","","","","","","","","","","","",""
"psychophysics","264","561146","0.0-18.0-1.6","5dc6dbf63f04554df78c2bf7","6368f2eea3e9634aebcc2f6b","636ce93ccccf08ed4e0bde65","null","","","","null","","","","key","16.66396551724154","768","357","","","","","","","","","","","","","187","1","6","true","","","",""
"psychophysics","265","561180","0.0-18.0-2.6","5dc6dbf63f04554df78c2bf7","6368f2eea3e9634aebcc2f6b","636ce93ccccf08ed4e0bde65","33","","","","77","","","","key","16.665999999968335","768","357","","","","","","","","","","","","","","","","","","","",""
"psychophysics","266","562185","0.0-18.0-0.7","5dc6dbf63f04554df78c2bf7","6368f2eea3e9634aebcc2f6b","636ce93ccccf08ed4e0bde65","null","","","","null","","","","key","16.665135593220622","768","357","","","","","","","","","","","","","","","","","","","",""
"psychophysics","267","562690","0.0-18.0-1.7","5dc6dbf63f04554df78c2bf7","6368f2eea3e9634aebcc2f6b","636ce93ccccf08ed4e0bde65","null","","","","null","","","","key","16.67582758620847","768","357","","","","","","","","","","","","","187","-1","4","true","","","",""
"psychophysics","268","562946","0.0-18.0-2.7","5dc6dbf63f04554df78c2bf7","6368f2eea3e9634aebcc2f6b","636ce93ccccf08ed4e0bde65","253.59999999403954","","","","77","","","","key","16.665333333332093","768","357","","","","","","","","","","","","","","","","","","","",""
"psychophysics","269","563954","0.0-18.0-0.8","5dc6dbf63f04554df78c2bf7","6368f2eea3e9634aebcc2f6b","636ce93ccccf08ed4e0bde65","null","","","","null","","","","key","16.664898305085597","768","357","","","","","","","","","","","","","","","","","","","",""
"psychophysics","270","564457","0.0-18.0-1.8","5dc6dbf63f04554df78c2bf7","6368f2eea3e9634aebcc2f6b","636ce93ccccf08ed4e0bde65","null","","","","null","","","","key","16.66855172413514","768","357","","","","","","","","","","","","","187","1","2","true","","","",""
"psychophysics","271","564730","0.0-18.0-2.8","5dc6dbf63f04554df78c2bf7","6368f2eea3e9634aebcc2f6b","636ce93ccccf08ed4e0bde65","271","","","","90","","","","key","16.665187500002503","768","357","","","","","","","","","","","","","","","","","","","",""
"psychophysics","272","565737","0.0-18.0-0.9","5dc6dbf63f04554df78c2bf7","6368f2eea3e9634aebcc2f6b","636ce93ccccf08ed4e0bde65","null","","","","null","","","","key","16.66650847457665","768","357","","","","","","","","","","","","","","","","","","","",""
"psychophysics","273","566240","0.0-18.0-1.9","5dc6dbf63f04554df78c2bf7","6368f2eea3e9634aebcc2f6b","636ce93ccccf08ed4e0bde65","null","","","","null","","","","key","16.664931034480606","768","357","","","","","","","","","","","","","187","1","5","true","","","",""
"psychophysics","274","566288","0.0-18.0-2.9","5dc6dbf63f04554df78c2bf7","6368f2eea3e9634aebcc2f6b","636ce93ccccf08ed4e0bde65","45.80000001192093","","","","77","","","","key","16.572999999974854","768","357","","","","","","","","","","","","","","","","","","","",""
"psychophysics","275","567298","0.0-18.0-0.10","5dc6dbf63f04554df78c2bf7","6368f2eea3e9634aebcc2f6b","636ce93ccccf08ed4e0bde65","null","","","","null","","","","key","16.669916666665813","768","357","","","","","","","","","","","","","","","","","","","",""
"psychophysics","276","567801","0.0-18.0-1.10","5dc6dbf63f04554df78c2bf7","6368f2eea3e9634aebcc2f6b","636ce93ccccf08ed4e0bde65","null","","","","null","","","","key","16.66810344827586","768","357","","","","","","","","","","","","","187","1","0","true","","","",""
"psychophysics","277","567953","0.0-18.0-2.10","5dc6dbf63f04554df78c2bf7","6368f2eea3e9634aebcc2f6b","636ce93ccccf08ed4e0bde65","150.09999999403954","","","","77","","","","key","16.68512500000361","768","357","","","","","","","","","","","","","","","","","","","",""
"psychophysics","278","568961","0.0-18.0-0.11","5dc6dbf63f04554df78c2bf7","6368f2eea3e9634aebcc2f6b","636ce93ccccf08ed4e0bde65","null","","","","null","","","","key","16.66827118644191","768","357","","","","","","","","","","","","","","","","","","","",""
"psychophysics","279","569465","0.0-18.0-1.11","5dc6dbf63f04554df78c2bf7","6368f2eea3e9634aebcc2f6b","636ce93ccccf08ed4e0bde65","null","","","","null","","","","key","16.66966666666558","768","357","","","","","","","","","","","","","187","-1","2","true","","","",""
"psychophysics","280","569560","0.0-18.0-2.11","5dc6dbf63f04554df78c2bf7","6368f2eea3e9634aebcc2f6b","636ce93ccccf08ed4e0bde65","92.80000001192093","","","","90","","","","key","16.71724999998696","768","357","","","","","","","","","","","","","","","","","","","",""
"psychophysics","281","570561","0.0-18.0-0.12","5dc6dbf63f04554df78c2bf7","6368f2eea3e9634aebcc2f6b","636ce93ccccf08ed4e0bde65","null","","","","null","","","","key","16.66505084745783","768","357","","","","","","","","","","","","","","","","","","","",""
"psychophysics","282","571064","0.0-18.0-1.12","5dc6dbf63f04554df78c2bf7","6368f2eea3e9634aebcc2f6b","636ce93ccccf08ed4e0bde65","null","","","","null","","","","key","16.662310344829418","768","357","","","","","","","","","","","","","187","1","3","true","","","",""
"psychophysics","283","571072","0.0-18.0-2.12","5dc6dbf63f04554df78c2bf7","6368f2eea3e9634aebcc2f6b","636ce93ccccf08ed4e0bde65","5.5999999940395355","","","","77","","","","key","NaN","768","357","","","","","","","","","","","","","","","","","","","",""
"psychophysics","284","572081","0.0-18.0-0.13","5dc6dbf63f04554df78c2bf7","6368f2eea3e9634aebcc2f6b","636ce93ccccf08ed4e0bde65","null","","","","null","","","","key","16.666796610169744","768","357","","","","","","","","","","","","","","","","","","","",""
"psychophysics","285","572582","0.0-18.0-1.13","5dc6dbf63f04554df78c2bf7","6368f2eea3e9634aebcc2f6b","636ce93ccccf08ed4e0bde65","null","","","","null","","","","key","16.66366666666387","768","357","","","","","","","","","","","","","187","1","2","true","","","",""
"psychophysics","286","572690","0.0-18.0-2.13","5dc6dbf63f04554df78c2bf7","6368f2eea3e9634aebcc2f6b","636ce93ccccf08ed4e0bde65","106.19999998807907","","","","77","","","","key","16.705199999990874","768","357","","","","","","","","","","","","","","","","","","","",""
"psychophysics","287","573697","0.0-18.0-0.14","5dc6dbf63f04554df78c2bf7","6368f2eea3e9634aebcc2f6b","636ce93ccccf08ed4e0bde65","null","","","","null","","","","key","16.6704406779658","768","357","","","","","","","","","","","","","","","","","","","",""
"psychophysics","288","574198","0.0-18.0-1.14","5dc6dbf63f04554df78c2bf7","6368f2eea3e9634aebcc2f6b","636ce93ccccf08ed4e0bde65","null","","","","null","","","","key","16.674499999999533","768","357","","","","","","","","","","","","","187","-1","6","true","","","",""
"psychophysics","289","574540","0.0-18.0-2.14","5dc6dbf63f04554df78c2bf7","6368f2eea3e9634aebcc2f6b","636ce93ccccf08ed4e0bde65","340.90000000596046","","","","77","","","","key","16.66926315789552","768","357","","","","","","","","","","","","","","","","","","","",""
"psychophysics","290","575545","0.0-18.0-0.15","5dc6dbf63f04554df78c2bf7","6368f2eea3e9634aebcc2f6b","636ce93ccccf08ed4e0bde65","null","","","","null","","","","key","16.665542372883202","768","357","","","","","","","","","","","","","","","","","","","",""
"psychophysics","291","576048","0.0-18.0-1.15","5dc6dbf63f04554df78c2bf7","6368f2eea3e9634aebcc2f6b","636ce93ccccf08ed4e0bde65","null","","","","null","","","","key","16.673233333334792","768","357","","","","","","","","","","","","","187","1","6","true","","","",""
"psychophysics","292","576233","0.0-18.0-2.15","5dc6dbf63f04554df78c2bf7","6368f2eea3e9634aebcc2f6b","636ce93ccccf08ed4e0bde65","183.30000001192093","","","","77","","","","key","16.64100000000326","768","357","","","","","","","","","","","","","","","","","","","",""
"psychophysics","293","577241","0.0-18.0-0.16","5dc6dbf63f04554df78c2bf7","6368f2eea3e9634aebcc2f6b","636ce93ccccf08ed4e0bde65","null","","","","null","","","","key","16.667101694916184","768","357","","","","","","","","","","","","","","","","","","","",""
"psychophysics","294","577745","0.0-18.0-1.16","5dc6dbf63f04554df78c2bf7","6368f2eea3e9634aebcc2f6b","636ce93ccccf08ed4e0bde65","null","","","","null","","","","key","16.668172413792366","768","357","","","","","","","","","","","","","187","-1","2","true","","","",""
"psychophysics","295","578032","0.0-18.0-2.16","5dc6dbf63f04554df78c2bf7","6368f2eea3e9634aebcc2f6b","636ce93ccccf08ed4e0bde65","285.90000000596046","","","","90","","","","key","16.661529411767226","768","357","","","","","","","","","","","","","","","","","","","",""
"psychophysics","296","579042","0.0-18.0-0.17","5dc6dbf63f04554df78c2bf7","6368f2eea3e9634aebcc2f6b","636ce93ccccf08ed4e0bde65","null","","","","null","","","","key","16.661525423729287","768","357","","","","","","","","","","","","","","","","","","","",""
"psychophysics","297","579545","0.0-18.0-1.17","5dc6dbf63f04554df78c2bf7","6368f2eea3e9634aebcc2f6b","636ce93ccccf08ed4e0bde65","null","","","","null","","","","key","16.665965517244206","768","357","","","","","","","","","","","","","187","1","5","true","","","",""
"psychophysics","298","580023","0.0-18.0-2.17","5dc6dbf63f04554df78c2bf7","6368f2eea3e9634aebcc2f6b","636ce93ccccf08ed4e0bde65","476.90000000596046","","","","77","","","","key","16.668964285715315","768","357","","","","","","","","","","","","","","","","","","","",""
"psychophysics","299","581031","0.0-18.0-0.18","5dc6dbf63f04554df78c2bf7","6368f2eea3e9634aebcc2f6b","636ce93ccccf08ed4e0bde65","null","","","","null","","","","key","16.66294915254141","768","357","","","","","","","","","","","","","","","","","","","",""
"psychophysics","300","581532","0.0-18.0-1.18","5dc6dbf63f04554df78c2bf7","6368f2eea3e9634aebcc2f6b","636ce93ccccf08ed4e0bde65","null","","","","null","","","","key","16.66573333333557","768","357","","","","","","","","","","","","","187","-1","0","true","","","",""
"psychophysics","301","581668","0.0-18.0-2.18","5dc6dbf63f04554df78c2bf7","6368f2eea3e9634aebcc2f6b","636ce93ccccf08ed4e0bde65","133.19999998807907","","","","90","","","","key","16.63871428571708","768","357","","","","","","","","","","","","","","","","","","","",""
"psychophysics","302","582672","0.0-18.0-0.19","5dc6dbf63f04554df78c2bf7","6368f2eea3e9634aebcc2f6b","636ce93ccccf08ed4e0bde65","null","","","","null","","","","key","16.66318644067841","768","357","","","","","","","","","","","","","","","","","","","",""
"psychophysics","303","583177","0.0-18.0-1.19","5dc6dbf63f04554df78c2bf7","6368f2eea3e9634aebcc2f6b","636ce93ccccf08ed4e0bde65","null","","","","null","","","","key","16.669137931035447","768","357","","","","","","","","","","","","","187","1","4","true","","","",""
"psychophysics","304","583277","0.0-18.0-2.19","5dc6dbf63f04554df78c2bf7","6368f2eea3e9634aebcc2f6b","636ce93ccccf08ed4e0bde65","98.90000000596046","","","","77","","","","key","16.626000000000932","768","357","","","","","","","","","","","","","","","","","","","",""
"psychophysics","305","584281","0.0-18.0-0.20","5dc6dbf63f04554df78c2bf7","6368f2eea3e9634aebcc2f6b","636ce93ccccf08ed4e0bde65","null","","","","null","","","","key","16.667101694916184","768","357","","","","","","","","","","","","","","","","","","","",""
"psychophysics","306","584782","0.0-18.0-1.20","5dc6dbf63f04554df78c2bf7","6368f2eea3e9634aebcc2f6b","636ce93ccccf08ed4e0bde65","null","","","","null","","","","key","16.66683333333349","768","357","","","","","","","","","","","","","187","-1","3","true","","","",""
"psychophysics","307","584869","0.0-18.0-2.20","5dc6dbf63f04554df78c2bf7","6368f2eea3e9634aebcc2f6b","636ce93ccccf08ed4e0bde65","85.80000001192093","","","","90","","","","key","16.667500000010477","768","357","","","","","","","","","","","","","","","","","","","",""
"psychophysics","308","585872","0.0-18.0-0.21","5dc6dbf63f04554df78c2bf7","6368f2eea3e9634aebcc2f6b","636ce93ccccf08ed4e0bde65","null","","","","null","","","","key","16.663101694915618","768","357","","","","","","","","","","","","","","","","","","","",""
"psychophysics","309","586377","0.0-18.0-1.21","5dc6dbf63f04554df78c2bf7","6368f2eea3e9634aebcc2f6b","636ce93ccccf08ed4e0bde65","null","","","","null","","","","key","16.666827586206512","768","357","","","","","","","","","","","","","187","-1","5","true","","","",""
"psychophysics","310","586626","0.0-18.0-2.21","5dc6dbf63f04554df78c2bf7","6368f2eea3e9634aebcc2f6b","636ce93ccccf08ed4e0bde65","242.69999998807907","","","","77","","","","key","16.67099999999794","768","357","","","","","","","","","","","","","","","","","","","",""
"psychophysics","311","587631","0.0-18.0-0.22","5dc6dbf63f04554df78c2bf7","6368f2eea3e9634aebcc2f6b","636ce93ccccf08ed4e0bde65","null","","","","null","","","","key","16.667423728814","768","357","","","","","","","","","","","","","","","","","","","",""
"psychophysics","312","588132","0.0-18.0-1.22","5dc6dbf63f04554df78c2bf7","6368f2eea3e9634aebcc2f6b","636ce93ccccf08ed4e0bde65","null","","","","null","","","","key","16.67536666666468","768","357","","","","","","","","","","","","","187","1","0","true","","","",""
"psychophysics","313","588417","0.0-18.0-2.22","5dc6dbf63f04554df78c2bf7","6368f2eea3e9634aebcc2f6b","636ce93ccccf08ed4e0bde65","283.90000000596046","","","","90","","","","key","16.683249999994587","768","357","","","","","","","","","","","","","","","","","","","",""
"psychophysics","314","589425","0.0-18.0-0.23","5dc6dbf63f04554df78c2bf7","6368f2eea3e9634aebcc2f6b","636ce93ccccf08ed4e0bde65","null","","","","null","","","","key","16.668508474576935","768","357","","","","","","","","","","","","","","","","","","","",""
"psychophysics","315","589929","0.0-18.0-1.23","5dc6dbf63f04554df78c2bf7","6368f2eea3e9634aebcc2f6b","636ce93ccccf08ed4e0bde65","null","","","","null","","","","key","16.6672068965533","768","357","","","","","","","","","","","","","187","-1","4","true","","","",""
"psychophysics","316","590442","0.0-18.0-2.23","5dc6dbf63f04554df78c2bf7","6368f2eea3e9634aebcc2f6b","636ce93ccccf08ed4e0bde65","511.10000002384186","","","","90","","","","key","16.671399999999753","768","357","","","","","","","","","","","","","","","","","","","",""
"psychophysics","317","591448","0.0-18.0-0.24","5dc6dbf63f04554df78c2bf7","6368f2eea3e9634aebcc2f6b","636ce93ccccf08ed4e0bde65","null","","","","null","","","","key","16.665933333333427","768","357","","","","","","","","","","","","","","","","","","","",""
"psychophysics","318","591954","0.0-18.0-1.24","5dc6dbf63f04554df78c2bf7","6368f2eea3e9634aebcc2f6b","636ce93ccccf08ed4e0bde65","null","","","","null","","","","key","16.66341379310149","768","357","","","","","","","","","","","","","187","1","2","true","","","",""
"psychophysics","319","592136","0.0-18.0-2.24","5dc6dbf63f04554df78c2bf7","6368f2eea3e9634aebcc2f6b","636ce93ccccf08ed4e0bde65","181.40000000596046","","","","90","","","","key","16.675500000000465","768","357","","","","","","","","","","","","","","","","","","","",""
"psychophysics","320","593145","0.0-18.0-0.25","5dc6dbf63f04554df78c2bf7","6368f2eea3e9634aebcc2f6b","636ce93ccccf08ed4e0bde65","null","","","","null","","","","key","16.671186440679545","768","357","","","","","","","","","","","","","","","","","","","",""
"psychophysics","321","593648","0.0-18.0-1.25","5dc6dbf63f04554df78c2bf7","6368f2eea3e9634aebcc2f6b","636ce93ccccf08ed4e0bde65","null","","","","null","","","","key","16.667233333333083","768","357","","","","","","","","","","","","","187","-1","4","true","","","",""
"psychophysics","322","593943","0.0-18.0-2.25","5dc6dbf63f04554df78c2bf7","6368f2eea3e9634aebcc2f6b","636ce93ccccf08ed4e0bde65","292.80000001192093","","","","90","","","","key","16.659312499999942","768","357","","","","","","","","","","","","","","","","","","","",""
"psychophysics","323","594945","0.0-18.0-0.26","5dc6dbf63f04554df78c2bf7","6368f2eea3e9634aebcc2f6b","636ce93ccccf08ed4e0bde65","null","","","","null","","","","key","16.666084745762696","768","357","","","","","","","","","","","","","","","","","","","",""
"psychophysics","324","595449","0.0-18.0-1.26","5dc6dbf63f04554df78c2bf7","6368f2eea3e9634aebcc2f6b","636ce93ccccf08ed4e0bde65","null","","","","null","","","","key","16.66673333333262","768","357","","","","","","","","","","","","","187","1","0","true","","","",""
"psychophysics","325","595637","0.0-18.0-2.26","5dc6dbf63f04554df78c2bf7","6368f2eea3e9634aebcc2f6b","636ce93ccccf08ed4e0bde65","187.10000002384186","","","","90","","","","key","16.678899999998976","768","357","","","","","","","","","","","","","","","","","","","",""
"psychophysics","326","596641","0.0-18.0-0.27","5dc6dbf63f04554df78c2bf7","6368f2eea3e9634aebcc2f6b","636ce93ccccf08ed4e0bde65","null","","","","null","","","","key","16.667440677965377","768","357","","","","","","","","","","","","","","","","","","","",""
"psychophysics","327","597144","0.0-18.0-1.27","5dc6dbf63f04554df78c2bf7","6368f2eea3e9634aebcc2f6b","636ce93ccccf08ed4e0bde65","null","","","","null","","","","key","16.667620689652313","768","357","","","","","","","","","","","","","187","-1","0","true","","","",""
"psychophysics","328","597351","0.0-18.0-2.27","5dc6dbf63f04554df78c2bf7","6368f2eea3e9634aebcc2f6b","636ce93ccccf08ed4e0bde65","199.90000000596046","","","","90","","","","key","16.685166666662553","768","357","","","","","","","","","","","","","","","","","","","",""
"psychophysics","329","598361","0.0-18.0-0.28","5dc6dbf63f04554df78c2bf7","6368f2eea3e9634aebcc2f6b","636ce93ccccf08ed4e0bde65","null","","","","null","","","","key","16.66145762711787","768","357","","","","","","","","","","","","","","","","","","","",""
"psychophysics","330","598865","0.0-18.0-1.28","5dc6dbf63f04554df78c2bf7","6368f2eea3e9634aebcc2f6b","636ce93ccccf08ed4e0bde65","null","","","","null","","","","key","16.66739999999991","768","357","","","","","","","","","","","","","187","1","5","true","","","",""
"psychophysics","331","598994","0.0-18.0-2.28","5dc6dbf63f04554df78c2bf7","6368f2eea3e9634aebcc2f6b","636ce93ccccf08ed4e0bde65","126.80000001192093","","","","77","","","","key","16.664999999998447","768","357","","","","","","","","","","","","","","","","","","","",""
"psychophysics","332","599998","0.0-18.0-0.29","5dc6dbf63f04554df78c2bf7","6368f2eea3e9634aebcc2f6b","636ce93ccccf08ed4e0bde65","null","","","","null","","","","key","16.662616666668328","768","357","","","","","","","","","","","","","","","","","","","",""
"psychophysics","333","600500","0.0-18.0-1.29","5dc6dbf63f04554df78c2bf7","6368f2eea3e9634aebcc2f6b","636ce93ccccf08ed4e0bde65","null","","","","null","","","","key","16.66627586206646","768","357","","","","","","","","","","","","","187","-1","5","true","","","",""
