"trial_type","trial_index","time_elapsed","internal_node_id","PROLIFIC_PID","STUDY_ID","SESSION_ID","rt","stimulus","button_pressed","success","key_press","responses","isData","view_history","response_type","avg_frame_time","center_x","center_y","isSC","stim_side","trial_luminance","step_size","nReversal","correct","prev_ans","isThreshold","SC_threshold","final_threshold","isLuminance","FF_luminance","luminance","stimSide","ISInt","isFF","question_order","isSPQ","isCAPS","isAQ"
"pavlovia","0","2","0.0-0.0","5dcf09ee82a52705360f2d48","636d03e66a32c7f65a0397df","636d04cf71b30f1a5a30b926","","","","","","","","","","","","","","","","","","","","","","","","","","","","","","","",""
"html-button-response","1","25005","0.0-1.0","5dcf09ee82a52705360f2d48","636d03e66a32c7f65a0397df","636d04cf71b30f1a5a30b926","25004","<div style='background-color: white; width:60%; margin: auto; padding: 50px; text-align: justify; text-justify: inter-word; margin-bottom: 20px;'><h1 style='text-align: center;'>Consent Form</h1><p>Please read this consent form carefully before deciding whether you would like to participate in this study. You have to be 18 years old or older to participate to this study.</p><p style='text-decoration: underline;'>Participation is voluntary:</p><p>It is your choice whether or not to participate in this research. If you choose to participate, you may change your mind and leave the study at any time. Refusal to participate or stopping your participation will involve no penalty or loss of benefits to which you are otherwise entitled.</p><p style='text-decoration: underline;'>Purpose of the Study:</p><p>To understand the mechanisms underlying human perception.</p><p style='text-decoration: underline;'>What you will do in this study:</p><p>You will be presented with a series of visual images and then you will press buttons on the keyboard of your computer to respond to simple questions about the images (e.g. Were one or two images presented?). In addition, you will be asked to complete a questionnaire concerning your beliefs and everyday mental and perceptual experiences.'</p><p style='text-decoration: underline;'> Time Required:</p><p>The study will take 40 minutes to complete. </p><p style='text-decoration: underline;'>Risks:</p><p>There are no anticipated risks associated with participating in this study that are beyond those experienced in everyday life. </p><p style='text-decoration: underline;'>Benefits:</p><p>There are no benefits to you in participating in the study. However, this study may lead to a better understanding of how different kinds of visual information are used.</p><p style='text-decoration: underline;'>Compensation:</p><p>You will be paid US$6.6/hour. </p><p style='text-decoration: underline;'>Privacy and Confidentiality:</p><p>Your participation in this study will be anonymous. No personal information about your name or identity will be asked or recorded. This anonymous data will be stored for several years and may be used for a variety of research purposes. The overall results of the study may be published, or the data files may be shared with other researchers, but your identity will not be revealed in any way. The online services we are using for this study may temporarily store your data, but this data will be downloaded and then promptly deleted from those services.Your data will not be permanently associated with your name, IP address, or any other identifiable information (e.g., your information will only be connected to your payment, not to any of your responses), though they may be temporarily stored together before we download and separate them. Even so, no guarantee of internet survey security can be given because, although unlikely, transmissions can be intercepted and IP addresses can be identified. The anonymous data may be shared publicly (for example, in conjunction with a resulting academic publication).</p><p style='text-decoration: underline;'>Participation and Withdrawal:</p><p>Your participation in this study is completely voluntary. You may stop responding to the stimuli or stop answering questions if you so choose and without penalty by exiting the full screen mode, closing this tab of your browser or redirecting it to a different website.</p><p style='text-decoration: underline;'>Contact Info of the Researcher: </p><p>If you have questions about this study, or if you would like to talk to the research team, please contact David Melcher (david.melcher@nyu.edu, md5050@nyu.edu) at the Perception and Active Cognition Laboratory, New York University Abu Dhabi, Computational Research Building, Saadiyat Island, Abu Dhabi, UAE.This research has been reviewed by the New York University Abu Dhabi Institutional Review Board (NYUAD IRB). To contact about your rights in this research, for questions, suggestions, or complaints that are not addressed by the researchers, please email IRBnyuad@nyu.edu, or call the NYUAD IRB at +971 2 628 4313. </p></div>","0","","","","","","","","","","","","","","","","","","","","","","","","","","","","",""
"fullscreen","2","27583","0.0-2.0","5dcf09ee82a52705360f2d48","636d03e66a32c7f65a0397df","636d04cf71b30f1a5a30b926","","","","true","","","","","","","","","","","","","","","","","","","","","","","","","","","",""
"html-keyboard-response","3","47859","0.0-3.0","5dcf09ee82a52705360f2d48","636d03e66a32c7f65a0397df","636d04cf71b30f1a5a30b926","20273","<p>Welcome !</p><p>READ CAREFULLY THE FOLLOWING INDICATIONS:</p><p>From this moment you have ~40 minutes to complete the experiment.</p><p>During the experiment you will be prompted to take several breaks. Each break should not last longer than 2-3 minutes.</p><p>Make sure that your computer is plugged in and it's not running on battery power, even if the battery is already fully charged.</p><p>Turn off your phone and music, make sure that you are in a quiet room and that you will not be distracted for the next hour.</p><p>Failure to comply with the instructions and indications provided during the experiment will most likely result in the rejection of your data.<p>Press the spacebar to start.</p>","","","32","","","","","","","","","","","","","","","","","","","","","","","","","","",""
"survey-html-form","4","54009","0.0-4.0","5dcf09ee82a52705360f2d48","636d03e66a32c7f65a0397df","636d04cf71b30f1a5a30b926","6147","","","","","{""age"":""32"",""sex"":""F""}","true","","","","","","","","","","","","","","","","","","","","","","","","",""
"instructions","5","115941","0.0-5.0","5dcf09ee82a52705360f2d48","636d03e66a32c7f65a0397df","636d04cf71b30f1a5a30b926","61929","","","","","","","[{""page_index"":0,""viewing_time"":48981},{""page_index"":1,""viewing_time"":10647},{""page_index"":2,""viewing_time"":2301}]","","","","","","","","","","","","","","","","","","","","","","","",""
"psychophysics","6","118339","0.0-6.0-0.0","5dcf09ee82a52705360f2d48","636d03e66a32c7f65a0397df","636d04cf71b30f1a5a30b926","1383","","","","37","","","","key","16.591666666666544","640","293.5","true","-1","180","30","0","-1","","","","","","","","","","","","","",""
"psychophysics","7","120809","0.0-6.0-0.1","5dcf09ee82a52705360f2d48","636d03e66a32c7f65a0397df","636d04cf71b30f1a5a30b926","1454","","","","37","","","","key","16.651020408163344","640","293.5","true","-1","180","30","0","-1","-1","","","","","","","","","","","","",""
"psychophysics","8","122529","0.0-6.0-0.2","5dcf09ee82a52705360f2d48","636d03e66a32c7f65a0397df","636d04cf71b30f1a5a30b926","705","","","","39","","","","key","16.651067961165026","640","293.5","true","1","150","30","0","-1","-1","","","","","","","","","","","","",""
"psychophysics","9","124258","0.0-6.0-0.3","5dcf09ee82a52705360f2d48","636d03e66a32c7f65a0397df","636d04cf71b30f1a5a30b926","725","","","","39","","","","key","16.65098039215709","640","293.5","true","1","150","30","0","-1","-1","","","","","","","","","","","","",""
"psychophysics","10","127680","0.0-6.0-0.4","5dcf09ee82a52705360f2d48","636d03e66a32c7f65a0397df","636d04cf71b30f1a5a30b926","2407","","","","39","","","","key","16.65102439024386","640","293.5","true","-1","129","24","1","1","-1","","","","","","","","","","","","",""
"psychophysics","11","131065","0.0-6.0-0.5","5dcf09ee82a52705360f2d48","636d03e66a32c7f65a0397df","636d04cf71b30f1a5a30b926","2382","","","","39","","","","key","16.65910891089116","640","293.5","true","1","153","24","1","-1","1","","","","","","","","","","","","",""
"psychophysics","12","132740","0.0-6.0-0.6","5dcf09ee82a52705360f2d48","636d03e66a32c7f65a0397df","636d04cf71b30f1a5a30b926","669","","","","37","","","","key","16.651000000000057","640","293.5","true","-1","153","19.2","2","-1","-1","","","","","","","","","","","","",""
"psychophysics","13","134374","0.0-6.0-0.7","5dcf09ee82a52705360f2d48","636d03e66a32c7f65a0397df","636d04cf71b30f1a5a30b926","623","","","","39","","","","key","16.65092783505139","640","293.5","true","1","133.8","19.2","2","-1","-1","","","","","","","","","","","","",""
"psychophysics","14","135966","0.0-6.0-0.8","5dcf09ee82a52705360f2d48","636d03e66a32c7f65a0397df","636d04cf71b30f1a5a30b926","574","","","","37","","","","key","16.65085106383002","640","293.5","true","-1","133.8","19.2","2","-1","-1","","","","","","","","","","","","",""
"psychophysics","15","139261","0.0-6.0-0.9","5dcf09ee82a52705360f2d48","636d03e66a32c7f65a0397df","636d04cf71b30f1a5a30b926","2285","","","","39","","","","key","16.650964467005178","640","293.5","true","1","129","19.2","2","-1","-1","","","","","","","","","","","","",""
"psychophysics","16","142294","0.0-6.0-0.10","5dcf09ee82a52705360f2d48","636d03e66a32c7f65a0397df","636d04cf71b30f1a5a30b926","2021","","","","39","","","","key","16.650939226519213","640","293.5","true","1","129","19.2","2","-1","-1","","","","","","","","","","","","",""
"psychophysics","17","147777","0.0-6.0-0.11","5dcf09ee82a52705360f2d48","636d03e66a32c7f65a0397df","636d04cf71b30f1a5a30b926","4469","","","","39","","","","key","16.65610942249245","640","293.5","true","1","129","19.2","2","-1","-1","","","","","","","","","","","","",""
"psychophysics","18","151776","0.0-6.0-0.12","5dcf09ee82a52705360f2d48","636d03e66a32c7f65a0397df","636d04cf71b30f1a5a30b926","2993","","","","37","","","","key","16.650962343096182","640","293.5","true","-1","129","19.2","2","-1","-1","","","","","","","","","","","","",""
"psychophysics","19","155181","0.0-6.0-0.13","5dcf09ee82a52705360f2d48","636d03e66a32c7f65a0397df","636d04cf71b30f1a5a30b926","2399","","","","37","","","","key","16.65103448275864","640","293.5","true","1","129","15.36","3","1","-1","","","","","","","","","","","","",""
"psychophysics","20","156700","0.0-6.0-0.14","5dcf09ee82a52705360f2d48","636d03e66a32c7f65a0397df","636d04cf71b30f1a5a30b926","506","","","","37","","","","key","16.66901098901104","640","293.5","true","-1","144.36","15.36","3","-1","1","","","","","","","","","","","","",""
"psychophysics","21","158200","0.0-6.0-0.15","5dcf09ee82a52705360f2d48","636d03e66a32c7f65a0397df","636d04cf71b30f1a5a30b926","493","","","","39","","","","key","16.65101123595508","640","293.5","true","1","144.36","12.287999999999998","4","-1","-1","","","","","","","","","","","","",""
"psychophysics","22","161419","0.0-6.0-0.16","5dcf09ee82a52705360f2d48","636d03e66a32c7f65a0397df","636d04cf71b30f1a5a30b926","2206","","","","37","","","","key","16.651041666666668","640","293.5","true","-1","132.072","12.287999999999998","4","-1","-1","","","","","","","","","","","","",""
"psychophysics","23","164983","0.0-6.0-0.17","5dcf09ee82a52705360f2d48","636d03e66a32c7f65a0397df","636d04cf71b30f1a5a30b926","2555","","","","37","","","","key","16.650985915492974","640","293.5","true","1","132.072","9.8304","5","1","-1","","","","","","","","","","","","",""
"psychophysics","24","166479","0.0-6.0-0.18","5dcf09ee82a52705360f2d48","636d03e66a32c7f65a0397df","636d04cf71b30f1a5a30b926","479","","","","39","","","","key","16.65101123595508","640","293.5","true","1","141.9024","9.8304","5","-1","1","","","","","","","","","","","","",""
"psychophysics","25","168035","0.0-6.0-0.19","5dcf09ee82a52705360f2d48","636d03e66a32c7f65a0397df","636d04cf71b30f1a5a30b926","552","","","","37","","","","key","16.651086956521677","640","293.5","true","-1","141.9024","7.864319999999999","6","-1","-1","","","","","","","","","","","","",""
"psychophysics","26","169504","0.0-6.0-0.20","5dcf09ee82a52705360f2d48","636d03e66a32c7f65a0397df","636d04cf71b30f1a5a30b926","455","","","","39","","","","key","16.650804597701097","640","293.5","true","1","134.03808","7.864319999999999","6","-1","-1","","","","","","","","","","","","",""
"psychophysics","27","171005","0.0-6.0-0.21","5dcf09ee82a52705360f2d48","636d03e66a32c7f65a0397df","636d04cf71b30f1a5a30b926","485","","","","39","","","","key","16.66876404494403","640","293.5","true","1","134.03808","7.864319999999999","6","-1","-1","","","","","","","","","","","","",""
"psychophysics","28","174043","0.0-6.0-0.22","5dcf09ee82a52705360f2d48","636d03e66a32c7f65a0397df","636d04cf71b30f1a5a30b926","2027","","","","37","","","","key","16.65098901098891","640","293.5","true","1","129","6.291456","7","1","-1","","","","","","","","","","","","",""
"psychophysics","29","175598","0.0-6.0-0.23","5dcf09ee82a52705360f2d48","636d03e66a32c7f65a0397df","636d04cf71b30f1a5a30b926","546","","","","37","","","","key","16.651086956521677","640","293.5","true","-1","135.291456","6.291456","7","-1","1","","","","","","","","","","","","",""
"psychophysics","30","177126","0.0-6.0-0.24","5dcf09ee82a52705360f2d48","636d03e66a32c7f65a0397df","636d04cf71b30f1a5a30b926","515","","","","39","","","","key","16.65098901098891","640","293.5","true","1","135.291456","5.033164800000001","8","-1","-1","","","","","","","","","","","","",""
"psychophysics","31","180381","0.0-6.0-0.25","5dcf09ee82a52705360f2d48","636d03e66a32c7f65a0397df","636d04cf71b30f1a5a30b926","2253","","","","37","","","","key","16.65097435897437","640","293.5","true","-1","130.2582912","5.033164800000001","8","-1","-1","","","","","","","","","","","","",""
"psychophysics","32","183211","0.0-6.0-0.26","5dcf09ee82a52705360f2d48","636d03e66a32c7f65a0397df","636d04cf71b30f1a5a30b926","1817","","","","37","","","","key","16.65095238095247","640","293.5","true","-1","130.2582912","5.033164800000001","8","-1","-1","","","","","","","","","","","","",""
"psychophysics","33","185899","0.0-6.0-0.27","5dcf09ee82a52705360f2d48","636d03e66a32c7f65a0397df","636d04cf71b30f1a5a30b926","1679","","","","39","","","","key","16.661490683229815","640","293.5","true","1","129","5.033164800000001","8","-1","-1","","","","","","","","","","","","",""
"psychophysics","34","188194","0.0-6.0-0.28","5dcf09ee82a52705360f2d48","636d03e66a32c7f65a0397df","636d04cf71b30f1a5a30b926","1277","","","","39","","","","key","16.650948905109438","640","293.5","true","-1","129","4.0265318400000005","9","1","-1","","","","","","","","","","","","",""
"psychophysics","35","189634","0.0-6.0-0.29","5dcf09ee82a52705360f2d48","636d03e66a32c7f65a0397df","636d04cf71b30f1a5a30b926","434","","","","37","","","","key","16.651058823529713","640","293.5","true","-1","133.02653184","4.0265318400000005","9","-1","1","","","","","","","","","","","","",""
"psychophysics","36","195432","0.0-6.0-0.30","5dcf09ee82a52705360f2d48","636d03e66a32c7f65a0397df","636d04cf71b30f1a5a30b926","4785","","","","37","","","","key","16.65100864553321","640","293.5","true","-1","133.02653184","3.2212254720000004","10","-1","-1","","","","","","","","","","","","",""
"psychophysics","37","197686","0.0-6.0-0.31","5dcf09ee82a52705360f2d48","636d03e66a32c7f65a0397df","636d04cf71b30f1a5a30b926","1246","","","","39","","","","key","16.650962962963213","640","293.5","true","-1","129.805306368","2.5769803776000004","11","1","-1","","","","","","","","","","","","",""
"psychophysics","38","199286","0.0-6.0-0.32","5dcf09ee82a52705360f2d48","636d03e66a32c7f65a0397df","636d04cf71b30f1a5a30b926","598","","","","39","","","","key","16.667789473684234","640","293.5","true","-1","132.3822867456","2.5769803776000004","11","1","1","","","","","","","","","","","","",""
"psychophysics","39","200676","0.0-6.0-0.33","5dcf09ee82a52705360f2d48","636d03e66a32c7f65a0397df","636d04cf71b30f1a5a30b926","385","","","","37","","","","key","16.650975609756156","640","293.5","true","-1","134.9592671232","2.5769803776000004","11","-1","1","","","","","","","","","","","","",""
"psychophysics","40","201820","0.0-6.0-0.34","5dcf09ee82a52705360f2d48","636d03e66a32c7f65a0397df","636d04cf71b30f1a5a30b926","127","","","","39","","","","key","16.651176470588645","640","293.5","true","1","134.9592671232","2.0615843020800004","12","-1","-1","","","","","","","","","","","","",""
"psychophysics","41","203113","0.0-6.0-0.35","5dcf09ee82a52705360f2d48","636d03e66a32c7f65a0397df","636d04cf71b30f1a5a30b926","277","","","","39","","","","key","16.650909090909032","640","293.5","true","1","132.89768282112","2.0615843020800004","12","-1","-1","","","","","","","","","","","","",""
"psychophysics","42","205166","0.0-6.0-0.36","5dcf09ee82a52705360f2d48","636d03e66a32c7f65a0397df","636d04cf71b30f1a5a30b926","1041","","","","39","","","","key","16.650983606557244","640","293.5","true","1","132.89768282112","2.0615843020800004","12","-1","-1","","","","","","","","","","","","",""
"psychophysics","43","207053","0.0-6.0-0.37","5dcf09ee82a52705360f2d48","636d03e66a32c7f65a0397df","636d04cf71b30f1a5a30b926","880","","","","37","","","","key","16.650892857142544","640","293.5","true","-1","130.83609851903998","2.0615843020800004","12","-1","-1","","","","","","","","","","","","",""
"psychophysics","44","208658","0.0-6.0-0.38","5dcf09ee82a52705360f2d48","636d03e66a32c7f65a0397df","636d04cf71b30f1a5a30b926","603","","","","37","","","","key","16.651041666666668","640","293.5","true","1","130.83609851903998","1.6492674416640005","13","1","-1","","","","","","","","","","","","",""
"psychophysics","45","210100","0.0-6.0-0.39","5dcf09ee82a52705360f2d48","636d03e66a32c7f65a0397df","636d04cf71b30f1a5a30b926","429","","","","37","","","","key","16.651058823529713","640","293.5","true","-1","132.48536596070397","1.6492674416640005","13","-1","1","","","","","","","","","","","","",""
"html-keyboard-response","46","217567","0.0-7.0","5dcf09ee82a52705360f2d48","636d03e66a32c7f65a0397df","636d04cf71b30f1a5a30b926","7464","<p>Well Done !</p><p>Prepare for a new block.</p><p>DON'T EXIT THE FULL SCREEN MODE</p><p>Press the Spacebar to start.</p>","","","32","","","","","","","","","","","","","","","true","131.7752468054016","","","","","","","","","","",""
"psychophysics","47","218922","0.0-8.0-0.0","5dcf09ee82a52705360f2d48","636d03e66a32c7f65a0397df","636d04cf71b30f1a5a30b926","346","","","","37","","","","key","16.42658536585414","640","293.5","true","-1","180","30","0","-1","","","","","","","","","","","","","",""
"psychophysics","48","219958","0.0-8.0-0.1","5dcf09ee82a52705360f2d48","636d03e66a32c7f65a0397df","636d04cf71b30f1a5a30b926","31","","","","39","","","","key","16.651147540984102","640","293.5","true","1","180","30","0","-1","-1","","","","","","","","","","","","",""
"psychophysics","49","222381","0.0-8.0-0.2","5dcf09ee82a52705360f2d48","636d03e66a32c7f65a0397df","636d04cf71b30f1a5a30b926","1411","","","","37","","","","key","16.65103448275838","640","293.5","true","-1","150","30","0","-1","-1","","","","","","","","","","","","",""
"psychophysics","50","223821","0.0-8.0-0.3","5dcf09ee82a52705360f2d48","636d03e66a32c7f65a0397df","636d04cf71b30f1a5a30b926","432","","","","39","","","","key","16.650823529411163","640","293.5","true","1","150","30","0","-1","-1","","","","","","","","","","","","",""
"psychophysics","51","225900","0.0-8.0-0.4","5dcf09ee82a52705360f2d48","636d03e66a32c7f65a0397df","636d04cf71b30f1a5a30b926","1069","","","","37","","","","key","16.650967741935258","640","293.5","true","-1","129","30","0","-1","-1","","","","","","","","","","","","",""
"psychophysics","52","227376","0.0-8.0-0.5","5dcf09ee82a52705360f2d48","636d03e66a32c7f65a0397df","636d04cf71b30f1a5a30b926","460","","","","37","","","","key","16.650909090908748","640","293.5","true","1","129","24","1","1","-1","","","","","","","","","","","","",""
"psychophysics","53","228814","0.0-8.0-0.6","5dcf09ee82a52705360f2d48","636d03e66a32c7f65a0397df","636d04cf71b30f1a5a30b926","430","","","","37","","","","key","16.65082352941185","640","293.5","true","-1","153","24","1","-1","1","","","","","","","","","","","","",""
"psychophysics","54","230140","0.0-8.0-0.7","5dcf09ee82a52705360f2d48","636d03e66a32c7f65a0397df","636d04cf71b30f1a5a30b926","320","","","","39","","","","key","16.65088607594916","640","293.5","true","1","153","19.2","2","-1","-1","","","","","","","","","","","","",""
"psychophysics","55","231412","0.0-8.0-0.8","5dcf09ee82a52705360f2d48","636d03e66a32c7f65a0397df","636d04cf71b30f1a5a30b926","267","","","","37","","","","key","16.672799999999505","640","293.5","true","-1","133.8","19.2","2","-1","-1","","","","","","","","","","","","",""
"psychophysics","56","232605","0.0-8.0-0.9","5dcf09ee82a52705360f2d48","636d03e66a32c7f65a0397df","636d04cf71b30f1a5a30b926","178","","","","39","","","","key","16.650985915492566","640","293.5","true","1","133.8","19.2","2","-1","-1","","","","","","","","","","","","",""
"psychophysics","57","234263","0.0-8.0-0.10","5dcf09ee82a52705360f2d48","636d03e66a32c7f65a0397df","636d04cf71b30f1a5a30b926","645","","","","39","","","","key","16.651020408163145","640","293.5","true","-1","129","15.36","3","1","-1","","","","","","","","","","","","",""
"psychophysics","58","235527","0.0-8.0-0.11","5dcf09ee82a52705360f2d48","636d03e66a32c7f65a0397df","636d04cf71b30f1a5a30b926","249","","","","37","","","","key","16.650933333333427","640","293.5","true","-1","144.36","15.36","3","-1","1","","","","","","","","","","","","",""
"psychophysics","59","237142","0.0-8.0-0.12","5dcf09ee82a52705360f2d48","636d03e66a32c7f65a0397df","636d04cf71b30f1a5a30b926","611","","","","39","","","","key","16.65083333333314","640","293.5","true","1","144.36","12.287999999999998","4","-1","-1","","","","","","","","","","","","",""
"psychophysics","60","239992","0.0-8.0-0.13","5dcf09ee82a52705360f2d48","636d03e66a32c7f65a0397df","636d04cf71b30f1a5a30b926","1841","","","","37","","","","key","16.65094117647078","640","293.5","true","1","132.072","9.8304","5","1","-1","","","","","","","","","","","","",""
"psychophysics","61","241376","0.0-8.0-0.14","5dcf09ee82a52705360f2d48","636d03e66a32c7f65a0397df","636d04cf71b30f1a5a30b926","370","","","","39","","","","key","16.650975609756156","640","293.5","true","1","141.9024","9.8304","5","-1","1","","","","","","","","","","","","",""
"psychophysics","62","243032","0.0-8.0-0.15","5dcf09ee82a52705360f2d48","636d03e66a32c7f65a0397df","636d04cf71b30f1a5a30b926","639","","","","37","","","","key","16.650909090909114","640","293.5","true","-1","141.9024","7.864319999999999","6","-1","-1","","","","","","","","","","","","",""
"psychophysics","63","244520","0.0-8.0-0.16","5dcf09ee82a52705360f2d48","636d03e66a32c7f65a0397df","636d04cf71b30f1a5a30b926","478","","","","37","","","","key","16.65090909090941","640","293.5","true","-1","134.03808","7.864319999999999","6","-1","-1","","","","","","","","","","","","",""
"psychophysics","64","245846","0.0-8.0-0.17","5dcf09ee82a52705360f2d48","636d03e66a32c7f65a0397df","636d04cf71b30f1a5a30b926","323","","","","37","","","","key","16.672151898733883","640","293.5","true","-1","134.03808","7.864319999999999","6","-1","-1","","","","","","","","","","","","",""
"psychophysics","65","247698","0.0-8.0-0.18","5dcf09ee82a52705360f2d48","636d03e66a32c7f65a0397df","636d04cf71b30f1a5a30b926","831","","","","39","","","","key","16.65109090909087","640","293.5","true","1","129","7.864319999999999","6","-1","-1","","","","","","","","","","","","",""
"psychophysics","66","249620","0.0-8.0-0.19","5dcf09ee82a52705360f2d48","636d03e66a32c7f65a0397df","636d04cf71b30f1a5a30b926","905","","","","37","","","","key","16.651052631579212","640","293.5","true","1","129","6.291456","7","1","-1","","","","","","","","","","","","",""
"psychophysics","67","250879","0.0-8.0-0.20","5dcf09ee82a52705360f2d48","636d03e66a32c7f65a0397df","636d04cf71b30f1a5a30b926","248","","","","37","","","","key","16.650933333333427","640","293.5","true","-1","135.291456","6.291456","7","-1","1","","","","","","","","","","","","",""
"psychophysics","68","253243","0.0-8.0-0.21","5dcf09ee82a52705360f2d48","636d03e66a32c7f65a0397df","636d04cf71b30f1a5a30b926","1354","","","","37","","","","key","16.65106382978715","640","293.5","true","1","135.291456","5.033164800000001","8","1","-1","","","","","","","","","","","","",""
"psychophysics","69","254684","0.0-8.0-0.22","5dcf09ee82a52705360f2d48","636d03e66a32c7f65a0397df","636d04cf71b30f1a5a30b926","435","","","","37","","","","key","16.65082352941185","640","293.5","true","-1","140.32462080000002","5.033164800000001","8","-1","1","","","","","","","","","","","","",""
"psychophysics","70","256084","0.0-8.0-0.23","5dcf09ee82a52705360f2d48","636d03e66a32c7f65a0397df","636d04cf71b30f1a5a30b926","394","","","","37","","","","key","16.650843373493498","640","293.5","true","-1","140.32462080000002","4.0265318400000005","9","-1","-1","","","","","","","","","","","","",""
"psychophysics","71","257435","0.0-8.0-0.24","5dcf09ee82a52705360f2d48","636d03e66a32c7f65a0397df","636d04cf71b30f1a5a30b926","349","","","","39","","","","key","16.651111111110996","640","293.5","true","1","136.29808896000003","4.0265318400000005","9","-1","-1","","","","","","","","","","","","",""
"psychophysics","72","258778","0.0-8.0-0.25","5dcf09ee82a52705360f2d48","636d03e66a32c7f65a0397df","636d04cf71b30f1a5a30b926","335","","","","37","","","","key","16.672658227847542","640","293.5","true","-1","136.29808896000003","4.0265318400000005","9","-1","-1","","","","","","","","","","","","",""
"psychophysics","73","260834","0.0-8.0-0.26","5dcf09ee82a52705360f2d48","636d03e66a32c7f65a0397df","636d04cf71b30f1a5a30b926","1047","","","","37","","","","key","16.650894308943545","640","293.5","true","-1","132.27155712000004","4.0265318400000005","9","-1","-1","","","","","","","","","","","","",""
"psychophysics","74","263014","0.0-8.0-0.27","5dcf09ee82a52705360f2d48","636d03e66a32c7f65a0397df","636d04cf71b30f1a5a30b926","1176","","","","37","","","","key","16.65107692307703","640","293.5","true","1","132.27155712000004","3.2212254720000004","10","1","-1","","","","","","","","","","","","",""
"psychophysics","75","264177","0.0-8.0-0.28","5dcf09ee82a52705360f2d48","636d03e66a32c7f65a0397df","636d04cf71b30f1a5a30b926","148","","","","39","","","","key","16.65117647058779","640","293.5","true","1","135.49278259200003","3.2212254720000004","10","-1","1","","","","","","","","","","","","",""
"psychophysics","76","265385","0.0-8.0-0.29","5dcf09ee82a52705360f2d48","636d03e66a32c7f65a0397df","636d04cf71b30f1a5a30b926","208","","","","37","","","","key","16.651111111111177","640","293.5","true","-1","135.49278259200003","2.5769803776000004","11","-1","-1","","","","","","","","","","","","",""
"psychophysics","77","267226","0.0-8.0-0.30","5dcf09ee82a52705360f2d48","636d03e66a32c7f65a0397df","636d04cf71b30f1a5a30b926","826","","","","39","","","","key","16.65109090909087","640","293.5","true","-1","132.91580221440003","2.0615843020800004","12","1","-1","","","","","","","","","","","","",""
"psychophysics","78","269635","0.0-8.0-0.31","5dcf09ee82a52705360f2d48","636d03e66a32c7f65a0397df","636d04cf71b30f1a5a30b926","1394","","","","39","","","","key","16.65104895104879","640","293.5","true","1","134.97738651648004","2.0615843020800004","12","-1","1","","","","","","","","","","","","",""
"psychophysics","79","270980","0.0-8.0-0.32","5dcf09ee82a52705360f2d48","636d03e66a32c7f65a0397df","636d04cf71b30f1a5a30b926","334","","","","39","","","","key","16.651000000000202","640","293.5","true","1","134.97738651648004","1.6492674416640005","13","-1","-1","","","","","","","","","","","","",""
"psychophysics","80","272375","0.0-8.0-0.33","5dcf09ee82a52705360f2d48","636d03e66a32c7f65a0397df","636d04cf71b30f1a5a30b926","380","","","","39","","","","key","16.651084337349147","640","293.5","true","1","133.32811907481604","1.6492674416640005","13","-1","-1","","","","","","","","","","","","",""
"psychophysics","81","273683","0.0-8.0-0.34","5dcf09ee82a52705360f2d48","636d03e66a32c7f65a0397df","636d04cf71b30f1a5a30b926","305","","","","37","","","","key","16.672987012987104","640","293.5","true","-1","133.32811907481604","1.6492674416640005","13","-1","-1","","","","","","","","","","","","",""
"psychophysics","82","275913","0.0-8.0-0.35","5dcf09ee82a52705360f2d48","636d03e66a32c7f65a0397df","636d04cf71b30f1a5a30b926","1220","","","","37","","","","key","16.650977443608706","640","293.5","true","-1","131.67885163315205","1.6492674416640005","13","-1","-1","","","","","","","","","","","","",""
"psychophysics","83","277093","0.0-8.0-0.36","5dcf09ee82a52705360f2d48","636d03e66a32c7f65a0397df","636d04cf71b30f1a5a30b926","177","","","","39","","","","key","16.65085714285711","640","293.5","true","1","131.67885163315205","1.6492674416640005","13","-1","-1","","","","","","","","","","","","",""
"psychophysics","84","278608","0.0-8.0-0.37","5dcf09ee82a52705360f2d48","636d03e66a32c7f65a0397df","636d04cf71b30f1a5a30b926","511","","","","39","","","","key","16.65088888888907","640","293.5","true","-1","130.02958419148806","1.3194139533312006","14","1","-1","","","","","","","","","","","","",""
"psychophysics","85","280078","0.0-8.0-0.38","5dcf09ee82a52705360f2d48","636d03e66a32c7f65a0397df","636d04cf71b30f1a5a30b926","464","","","","37","","","","key","16.65103448275878","640","293.5","true","1","131.34899814481926","1.3194139533312006","14","1","1","","","","","","","","","","","","",""
"psychophysics","86","281453","0.0-8.0-0.39","5dcf09ee82a52705360f2d48","636d03e66a32c7f65a0397df","636d04cf71b30f1a5a30b926","372","","","","39","","","","key","16.650975609756156","640","293.5","true","1","132.66841209815047","1.3194139533312006","14","-1","1","","","","","","","","","","","","",""
"html-keyboard-response","87","283691","0.0-9.0","5dcf09ee82a52705360f2d48","636d03e66a32c7f65a0397df","636d04cf71b30f1a5a30b926","2238","<p>Well Done !</p><p>Prepare for a new block.</p><p>DON'T EXIT THE FULL SCREEN MODE</p><p>Press the Spacebar to start.</p>","","","32","","","","","","","","","","","","","","","true","133.25055196545028","","","","","","","","","","",""
"psychophysics","88","286901","0.0-10.0-0.0","5dcf09ee82a52705360f2d48","636d03e66a32c7f65a0397df","636d04cf71b30f1a5a30b926","2207","","","","37","","","","key","16.575129533678755","640","293.5","true","1","180","30","0","1","","","","","","","","","","","","","",""
"psychophysics","89","288842","0.0-10.0-0.1","5dcf09ee82a52705360f2d48","636d03e66a32c7f65a0397df","636d04cf71b30f1a5a30b926","935","","","","37","","","","key","16.65103448275878","640","293.5","true","-1","210","30","0","-1","1","","","","","","","","","","","","",""
"psychophysics","90","289906","0.0-10.0-0.2","5dcf09ee82a52705360f2d48","636d03e66a32c7f65a0397df","636d04cf71b30f1a5a30b926","55","","","","39","","","","key","16.650967741935258","640","293.5","true","1","210","24","1","-1","-1","","","","","","","","","","","","",""
"psychophysics","91","291594","0.0-10.0-0.3","5dcf09ee82a52705360f2d48","636d03e66a32c7f65a0397df","636d04cf71b30f1a5a30b926","681","","","","37","","","","key","16.65108910891041","640","293.5","true","-1","186","24","1","-1","-1","","","","","","","","","","","","",""
"psychophysics","92","293044","0.0-10.0-0.4","5dcf09ee82a52705360f2d48","636d03e66a32c7f65a0397df","636d04cf71b30f1a5a30b926","443","","","","39","","","","key","16.651162790697676","640","293.5","true","1","186","24","1","-1","-1","","","","","","","","","","","","",""
"psychophysics","93","294502","0.0-10.0-0.5","5dcf09ee82a52705360f2d48","636d03e66a32c7f65a0397df","636d04cf71b30f1a5a30b926","450","","","","39","","","","key","16.65103448275878","640","293.5","true","1","162","24","1","-1","-1","","","","","","","","","","","","",""
"psychophysics","94","296074","0.0-10.0-0.6","5dcf09ee82a52705360f2d48","636d03e66a32c7f65a0397df","636d04cf71b30f1a5a30b926","568","","","","39","","","","key","16.650967741935258","640","293.5","true","1","162","24","1","-1","-1","","","","","","","","","","","","",""
"psychophysics","95","297599","0.0-10.0-0.7","5dcf09ee82a52705360f2d48","636d03e66a32c7f65a0397df","636d04cf71b30f1a5a30b926","515","","","","37","","","","key","16.669111111111448","640","293.5","true","-1","138","24","1","-1","-1","","","","","","","","","","","","",""
"psychophysics","96","300052","0.0-10.0-0.8","5dcf09ee82a52705360f2d48","636d03e66a32c7f65a0397df","636d04cf71b30f1a5a30b926","1440","","","","37","","","","key","16.651020408163344","640","293.5","true","-1","138","24","1","-1","-1","","","","","","","","","","","","",""
"psychophysics","97","302387","0.0-10.0-0.9","5dcf09ee82a52705360f2d48","636d03e66a32c7f65a0397df","636d04cf71b30f1a5a30b926","1331","","","","39","","","","key","16.650935251798426","640","293.5","true","1","129","24","1","-1","-1","","","","","","","","","","","","",""
"psychophysics","98","303963","0.0-10.0-0.10","5dcf09ee82a52705360f2d48","636d03e66a32c7f65a0397df","636d04cf71b30f1a5a30b926","571","","","","37","","","","key","16.65085106383033","640","293.5","true","1","129","19.2","2","1","-1","","","","","","","","","","","","",""
"psychophysics","99","305342","0.0-10.0-0.11","5dcf09ee82a52705360f2d48","636d03e66a32c7f65a0397df","636d04cf71b30f1a5a30b926","365","","","","37","","","","key","16.650864197531238","640","293.5","true","-1","148.2","19.2","2","-1","1","","","","","","","","","","","","",""
"psychophysics","100","306822","0.0-10.0-0.12","5dcf09ee82a52705360f2d48","636d03e66a32c7f65a0397df","636d04cf71b30f1a5a30b926","471","","","","39","","","","key","16.650909090908748","640","293.5","true","1","148.2","15.36","3","-1","-1","","","","","","","","","","","","",""
"psychophysics","101","308266","0.0-10.0-0.13","5dcf09ee82a52705360f2d48","636d03e66a32c7f65a0397df","636d04cf71b30f1a5a30b926","426","","","","37","","","","key","16.650930232557922","640","293.5","true","-1","132.83999999999997","15.36","3","-1","-1","","","","","","","","","","","","",""
"psychophysics","102","309715","0.0-10.0-0.14","5dcf09ee82a52705360f2d48","636d03e66a32c7f65a0397df","636d04cf71b30f1a5a30b926","440","","","","37","","","","key","16.650930232557922","640","293.5","true","-1","132.83999999999997","15.36","3","-1","-1","","","","","","","","","","","","",""
"psychophysics","103","311414","0.0-10.0-0.15","5dcf09ee82a52705360f2d48","636d03e66a32c7f65a0397df","636d04cf71b30f1a5a30b926","690","","","","37","","","","key","16.666732673267582","640","293.5","true","-1","129","15.36","3","-1","-1","","","","","","","","","","","","",""
"psychophysics","104","312699","0.0-10.0-0.16","5dcf09ee82a52705360f2d48","636d03e66a32c7f65a0397df","636d04cf71b30f1a5a30b926","271","","","","39","","","","key","16.651052631579468","640","293.5","true","1","129","15.36","3","-1","-1","","","","","","","","","","","","",""
"psychophysics","105","314289","0.0-10.0-0.17","5dcf09ee82a52705360f2d48","636d03e66a32c7f65a0397df","636d04cf71b30f1a5a30b926","586","","","","39","","","","key","16.65094736842071","640","293.5","true","1","129","15.36","3","-1","-1","","","","","","","","","","","","",""
"psychophysics","106","316104","0.0-10.0-0.18","5dcf09ee82a52705360f2d48","636d03e66a32c7f65a0397df","636d04cf71b30f1a5a30b926","805","","","","39","","","","key","16.65092592592582","640","293.5","true","1","129","15.36","3","-1","-1","","","","","","","","","","","","",""
"psychophysics","107","317893","0.0-10.0-0.19","5dcf09ee82a52705360f2d48","636d03e66a32c7f65a0397df","636d04cf71b30f1a5a30b926","782","","","","37","","","","key","16.650943396226417","640","293.5","true","1","129","12.287999999999998","4","1","-1","","","","","","","","","","","","",""
"psychophysics","108","319222","0.0-10.0-0.20","5dcf09ee82a52705360f2d48","636d03e66a32c7f65a0397df","636d04cf71b30f1a5a30b926","325","","","","39","","","","key","16.65088607594916","640","293.5","true","1","141.288","12.287999999999998","4","-1","1","","","","","","","","","","","","",""
"psychophysics","109","320617","0.0-10.0-0.21","5dcf09ee82a52705360f2d48","636d03e66a32c7f65a0397df","636d04cf71b30f1a5a30b926","387","","","","39","","","","key","16.651084337349847","640","293.5","true","1","141.288","9.8304","5","-1","-1","","","","","","","","","","","","",""
"psychophysics","110","322467","0.0-10.0-0.22","5dcf09ee82a52705360f2d48","636d03e66a32c7f65a0397df","636d04cf71b30f1a5a30b926","841","","","","37","","","","key","16.651090909091398","640","293.5","true","1","131.4576","7.864319999999999","6","1","-1","","","","","","","","","","","","",""
"psychophysics","111","323856","0.0-10.0-0.23","5dcf09ee82a52705360f2d48","636d03e66a32c7f65a0397df","636d04cf71b30f1a5a30b926","380","","","","37","","","","key","16.650975609756156","640","293.5","true","-1","139.32192","7.864319999999999","6","-1","1","","","","","","","","","","","","",""
"psychophysics","112","325556","0.0-10.0-0.24","5dcf09ee82a52705360f2d48","636d03e66a32c7f65a0397df","636d04cf71b30f1a5a30b926","697","","","","37","","","","key","16.66772277227725","640","293.5","true","-1","139.32192","6.291456","7","-1","-1","","","","","","","","","","","","",""
"psychophysics","113","327045","0.0-10.0-0.25","5dcf09ee82a52705360f2d48","636d03e66a32c7f65a0397df","636d04cf71b30f1a5a30b926","476","","","","37","","","","key","16.65101123595508","640","293.5","true","-1","133.030464","6.291456","7","-1","-1","","","","","","","","","","","","",""
"psychophysics","114","328400","0.0-10.0-0.26","5dcf09ee82a52705360f2d48","636d03e66a32c7f65a0397df","636d04cf71b30f1a5a30b926","351","","","","39","","","","key","16.650999999999478","640","293.5","true","1","133.030464","6.291456","7","-1","-1","","","","","","","","","","","","",""
"psychophysics","115","329910","0.0-10.0-0.27","5dcf09ee82a52705360f2d48","636d03e66a32c7f65a0397df","636d04cf71b30f1a5a30b926","505","","","","37","","","","key","16.65088888888907","640","293.5","true","-1","129","6.291456","7","-1","-1","","","","","","","","","","","","",""
"psychophysics","116","331493","0.0-10.0-0.28","5dcf09ee82a52705360f2d48","636d03e66a32c7f65a0397df","636d04cf71b30f1a5a30b926","577","","","","39","","","","key","16.650851063829712","640","293.5","true","-1","129","5.033164800000001","8","1","-1","","","","","","","","","","","","",""
"psychophysics","117","333634","0.0-10.0-0.29","5dcf09ee82a52705360f2d48","636d03e66a32c7f65a0397df","636d04cf71b30f1a5a30b926","1134","","","","37","","","","key","17.05387096774188","640","293.5","true","-1","134.0331648","5.033164800000001","8","-1","1","","","","","","","","","","","","",""
"psychophysics","118","336128","0.0-10.0-0.30","5dcf09ee82a52705360f2d48","636d03e66a32c7f65a0397df","636d04cf71b30f1a5a30b926","1481","","","","37","","","","key","16.651006711409394","640","293.5","true","-1","134.0331648","4.0265318400000005","9","-1","-1","","","","","","","","","","","","",""
"psychophysics","119","337678","0.0-10.0-0.31","5dcf09ee82a52705360f2d48","636d03e66a32c7f65a0397df","636d04cf71b30f1a5a30b926","546","","","","39","","","","key","16.65086956521744","640","293.5","true","-1","130.00663296000002","3.2212254720000004","10","1","-1","","","","","","","","","","","","",""
"psychophysics","120","339083","0.0-10.0-0.32","5dcf09ee82a52705360f2d48","636d03e66a32c7f65a0397df","636d04cf71b30f1a5a30b926","402","","","","39","","","","key","16.670602409638946","640","293.5","true","1","133.227858432","3.2212254720000004","10","-1","1","","","","","","","","","","","","",""
"psychophysics","121","340978","0.0-10.0-0.33","5dcf09ee82a52705360f2d48","636d03e66a32c7f65a0397df","636d04cf71b30f1a5a30b926","886","","","","39","","","","key","16.650619469026715","640","293.5","true","1","133.227858432","2.5769803776000004","11","-1","-1","","","","","","","","","","","","",""
"psychophysics","122","342551","0.0-10.0-0.34","5dcf09ee82a52705360f2d48","636d03e66a32c7f65a0397df","636d04cf71b30f1a5a30b926","563","","","","37","","","","key","16.65106382978674","640","293.5","true","-1","130.6508780544","2.5769803776000004","11","-1","-1","","","","","","","","","","","","",""
"psychophysics","123","344266","0.0-10.0-0.35","5dcf09ee82a52705360f2d48","636d03e66a32c7f65a0397df","636d04cf71b30f1a5a30b926","707","","","","37","","","","key","16.65098039215652","640","293.5","true","1","130.6508780544","2.0615843020800004","12","1","-1","","","","","","","","","","","","",""
"psychophysics","124","345796","0.0-10.0-0.36","5dcf09ee82a52705360f2d48","636d03e66a32c7f65a0397df","636d04cf71b30f1a5a30b926","523","","","","37","","","","key","16.65098901098891","640","293.5","true","-1","132.71246235648002","2.0615843020800004","12","-1","1","","","","","","","","","","","","",""
"psychophysics","125","347350","0.0-10.0-0.37","5dcf09ee82a52705360f2d48","636d03e66a32c7f65a0397df","636d04cf71b30f1a5a30b926","546","","","","37","","","","key","16.65108695652136","640","293.5","true","-1","132.71246235648002","1.6492674416640005","13","-1","-1","","","","","","","","","","","","",""
"psychophysics","126","348505","0.0-10.0-0.38","5dcf09ee82a52705360f2d48","636d03e66a32c7f65a0397df","636d04cf71b30f1a5a30b926","149","","","","39","","","","key","16.651176470588645","640","293.5","true","1","131.06319491481602","1.6492674416640005","13","-1","-1","","","","","","","","","","","","",""
"psychophysics","127","349920","0.0-10.0-0.39","5dcf09ee82a52705360f2d48","636d03e66a32c7f65a0397df","636d04cf71b30f1a5a30b926","409","","","","39","","","","key","16.65095238095299","640","293.5","true","-1","131.06319491481602","1.3194139533312006","14","1","-1","","","","","","","","","","","","",""
"html-keyboard-response","128","358268","0.0-11.0","5dcf09ee82a52705360f2d48","636d03e66a32c7f65a0397df","636d04cf71b30f1a5a30b926","8347","<p>Well Done !</p><p>Prepare for a new block.</p><p>DON'T EXIT THE FULL SCREEN MODE</p><p>Press the Spacebar to start.</p>","","","32","","","","","","","","","","","","","","","true","131.8295118716928","","","","","","","","","","",""
"psychophysics","129","360717","0.0-12.0-0.0","5dcf09ee82a52705360f2d48","636d03e66a32c7f65a0397df","636d04cf71b30f1a5a30b926","1442","","","","39","","","","key","16.522297297297612","640","293.5","true","1","180","30","0","-1","","","","","","","","","","","","","",""
"psychophysics","130","361944","0.0-12.0-0.1","5dcf09ee82a52705360f2d48","636d03e66a32c7f65a0397df","636d04cf71b30f1a5a30b926","222","","","","39","","","","key","16.651111111111177","640","293.5","true","1","180","30","0","-1","-1","","","","","","","","","","","","",""
"psychophysics","131","363558","0.0-12.0-0.2","5dcf09ee82a52705360f2d48","636d03e66a32c7f65a0397df","636d04cf71b30f1a5a30b926","602","","","","39","","","","key","16.65083333333314","640","293.5","true","1","150","30","0","-1","-1","","","","","","","","","","","","",""
"psychophysics","132","364713","0.0-12.0-0.3","5dcf09ee82a52705360f2d48","636d03e66a32c7f65a0397df","636d04cf71b30f1a5a30b926","154","","","","37","","","","key","16.651014492754232","640","293.5","true","-1","150","30","0","-1","-1","","","","","","","","","","","","",""
"psychophysics","133","366321","0.0-12.0-0.4","5dcf09ee82a52705360f2d48","636d03e66a32c7f65a0397df","636d04cf71b30f1a5a30b926","603","","","","37","","","","key","16.651157894737306","640","293.5","true","1","129","24","1","1","-1","","","","","","","","","","","","",""
"psychophysics","134","367727","0.0-12.0-0.5","5dcf09ee82a52705360f2d48","636d03e66a32c7f65a0397df","636d04cf71b30f1a5a30b926","392","","","","37","","","","key","16.65095238095299","640","293.5","true","-1","153","24","1","-1","1","","","","","","","","","","","","",""
"psychophysics","135","369049","0.0-12.0-0.6","5dcf09ee82a52705360f2d48","636d03e66a32c7f65a0397df","636d04cf71b30f1a5a30b926","311","","","","39","","","","key","16.651025641026","640","293.5","true","1","153","19.2","2","-1","-1","","","","","","","","","","","","",""
"psychophysics","136","370347","0.0-12.0-0.7","5dcf09ee82a52705360f2d48","636d03e66a32c7f65a0397df","636d04cf71b30f1a5a30b926","291","","","","39","","","","key","16.651168831169013","640","293.5","true","1","133.8","19.2","2","-1","-1","","","","","","","","","","","","",""
"psychophysics","137","371760","0.0-12.0-0.8","5dcf09ee82a52705360f2d48","636d03e66a32c7f65a0397df","636d04cf71b30f1a5a30b926","401","","","","37","","","","key","16.650952380952297","640","293.5","true","-1","133.8","19.2","2","-1","-1","","","","","","","","","","","","",""
"psychophysics","138","373423","0.0-12.0-0.9","5dcf09ee82a52705360f2d48","636d03e66a32c7f65a0397df","636d04cf71b30f1a5a30b926","661","","","","37","","","","key","16.668080808080948","640","293.5","true","-1","129","19.2","2","-1","-1","","","","","","","","","","","","",""
"psychophysics","139","374824","0.0-12.0-0.10","5dcf09ee82a52705360f2d48","636d03e66a32c7f65a0397df","636d04cf71b30f1a5a30b926","396","","","","39","","","","key","16.650843373493498","640","293.5","true","1","129","19.2","2","-1","-1","","","","","","","","","","","","",""
"psychophysics","140","376394","0.0-12.0-0.11","5dcf09ee82a52705360f2d48","636d03e66a32c7f65a0397df","636d04cf71b30f1a5a30b926","567","","","","39","","","","key","16.650967741935258","640","293.5","true","-1","129","15.36","3","1","-1","","","","","","","","","","","","",""
"psychophysics","141","378389","0.0-12.0-0.12","5dcf09ee82a52705360f2d48","636d03e66a32c7f65a0397df","636d04cf71b30f1a5a30b926","989","","","","39","","","","key","16.650924369748076","640","293.5","true","1","144.36","15.36","3","-1","1","","","","","","","","","","","","",""
"psychophysics","142","379751","0.0-12.0-0.13","5dcf09ee82a52705360f2d48","636d03e66a32c7f65a0397df","636d04cf71b30f1a5a30b926","353","","","","37","","","","key","16.65086419753052","640","293.5","true","-1","144.36","12.287999999999998","4","-1","-1","","","","","","","","","","","","",""
"psychophysics","143","381634","0.0-12.0-0.14","5dcf09ee82a52705360f2d48","636d03e66a32c7f65a0397df","636d04cf71b30f1a5a30b926","870","","","","37","","","","key","16.650892857143067","640","293.5","true","-1","132.072","12.287999999999998","4","-1","-1","","","","","","","","","","","","",""
"psychophysics","144","383114","0.0-12.0-0.15","5dcf09ee82a52705360f2d48","636d03e66a32c7f65a0397df","636d04cf71b30f1a5a30b926","469","","","","39","","","","key","16.650909090908748","640","293.5","true","-1","132.072","9.8304","5","1","-1","","","","","","","","","","","","",""
"psychophysics","145","384518","0.0-12.0-0.16","5dcf09ee82a52705360f2d48","636d03e66a32c7f65a0397df","636d04cf71b30f1a5a30b926","399","","","","37","","","","key","16.651084337349847","640","293.5","true","-1","141.9024","9.8304","5","-1","1","","","","","","","","","","","","",""
"psychophysics","146","385818","0.0-12.0-0.17","5dcf09ee82a52705360f2d48","636d03e66a32c7f65a0397df","636d04cf71b30f1a5a30b926","291","","","","37","","","","key","16.650909090909032","640","293.5","true","-1","141.9024","7.864319999999999","6","-1","-1","","","","","","","","","","","","",""
"psychophysics","147","387138","0.0-12.0-0.18","5dcf09ee82a52705360f2d48","636d03e66a32c7f65a0397df","636d04cf71b30f1a5a30b926","302","","","","39","","","","key","16.67153846153852","640","293.5","true","1","134.03808","7.864319999999999","6","-1","-1","","","","","","","","","","","","",""
"psychophysics","148","388543","0.0-12.0-0.19","5dcf09ee82a52705360f2d48","636d03e66a32c7f65a0397df","636d04cf71b30f1a5a30b926","402","","","","39","","","","key","16.650952380952297","640","293.5","true","1","134.03808","7.864319999999999","6","-1","-1","","","","","","","","","","","","",""
"psychophysics","149","391461","0.0-12.0-0.20","5dcf09ee82a52705360f2d48","636d03e66a32c7f65a0397df","636d04cf71b30f1a5a30b926","1906","","","","39","","","","key","16.65103448275878","640","293.5","true","-1","129","6.291456","7","1","-1","","","","","","","","","","","","",""
"psychophysics","150","392853","0.0-12.0-0.21","5dcf09ee82a52705360f2d48","636d03e66a32c7f65a0397df","636d04cf71b30f1a5a30b926","379","","","","39","","","","key","16.650975609756156","640","293.5","true","1","135.291456","6.291456","7","-1","1","","","","","","","","","","","","",""
"psychophysics","151","394244","0.0-12.0-0.22","5dcf09ee82a52705360f2d48","636d03e66a32c7f65a0397df","636d04cf71b30f1a5a30b926","380","","","","37","","","","key","16.651084337349147","640","293.5","true","-1","135.291456","5.033164800000001","8","-1","-1","","","","","","","","","","","","",""
"psychophysics","152","396992","0.0-12.0-0.23","5dcf09ee82a52705360f2d48","636d03e66a32c7f65a0397df","636d04cf71b30f1a5a30b926","1741","","","","37","","","","key","16.650975609756156","640","293.5","true","1","130.2582912","4.0265318400000005","9","1","-1","","","","","","","","","","","","",""
"psychophysics","153","398407","0.0-12.0-0.24","5dcf09ee82a52705360f2d48","636d03e66a32c7f65a0397df","636d04cf71b30f1a5a30b926","408","","","","37","","","","key","16.65095238095299","640","293.5","true","-1","134.28482304","4.0265318400000005","9","-1","1","","","","","","","","","","","","",""
"psychophysics","154","399821","0.0-12.0-0.25","5dcf09ee82a52705360f2d48","636d03e66a32c7f65a0397df","636d04cf71b30f1a5a30b926","403","","","","37","","","","key","16.67166666666647","640","293.5","true","-1","134.28482304","3.2212254720000004","10","-1","-1","","","","","","","","","","","","",""
"psychophysics","155","401595","0.0-12.0-0.26","5dcf09ee82a52705360f2d48","636d03e66a32c7f65a0397df","636d04cf71b30f1a5a30b926","766","","","","37","","","","key","16.650095238095325","640","293.5","true","-1","131.06359756799998","3.2212254720000004","10","-1","-1","","","","","","","","","","","","",""
"psychophysics","156","403161","0.0-12.0-0.27","5dcf09ee82a52705360f2d48","636d03e66a32c7f65a0397df","636d04cf71b30f1a5a30b926","553","","","","39","","","","key","16.6511827956989","640","293.5","true","1","131.06359756799998","3.2212254720000004","10","-1","-1","","","","","","","","","","","","",""
"psychophysics","157","404631","0.0-12.0-0.28","5dcf09ee82a52705360f2d48","636d03e66a32c7f65a0397df","636d04cf71b30f1a5a30b926","459","","","","39","","","","key","16.65090909090941","640","293.5","true","1","129","3.2212254720000004","10","-1","-1","","","","","","","","","","","","",""
"psychophysics","158","406519","0.0-12.0-0.29","5dcf09ee82a52705360f2d48","636d03e66a32c7f65a0397df","636d04cf71b30f1a5a30b926","873","","","","39","","","","key","16.651071428571804","640","293.5","true","-1","129","2.5769803776000004","11","1","-1","","","","","","","","","","","","",""
"psychophysics","159","408348","0.0-12.0-0.30","5dcf09ee82a52705360f2d48","636d03e66a32c7f65a0397df","636d04cf71b30f1a5a30b926","824","","","","39","","","","key","16.65100917431212","640","293.5","true","1","131.5769803776","2.5769803776000004","11","-1","1","","","","","","","","","","","","",""
"psychophysics","160","409915","0.0-12.0-0.31","5dcf09ee82a52705360f2d48","636d03e66a32c7f65a0397df","636d04cf71b30f1a5a30b926","560","","","","37","","","","key","16.650967741935883","640","293.5","true","-1","131.5769803776","2.0615843020800004","12","-1","-1","","","","","","","","","","","","",""
"psychophysics","161","411429","0.0-12.0-0.32","5dcf09ee82a52705360f2d48","636d03e66a32c7f65a0397df","636d04cf71b30f1a5a30b926","505","","","","39","","","","key","16.651111111110854","640","293.5","true","-1","129.51539607552","1.6492674416640005","13","1","-1","","","","","","","","","","","","",""
"psychophysics","162","412863","0.0-12.0-0.33","5dcf09ee82a52705360f2d48","636d03e66a32c7f65a0397df","636d04cf71b30f1a5a30b926","431","","","","39","","","","key","16.651058823529027","640","293.5","true","1","131.16466351718398","1.6492674416640005","13","-1","1","","","","","","","","","","","","",""
"psychophysics","163","414848","0.0-12.0-0.34","5dcf09ee82a52705360f2d48","636d03e66a32c7f65a0397df","636d04cf71b30f1a5a30b926","972","","","","37","","","","key","16.665423728813224","640","293.5","true","1","131.16466351718398","1.3194139533312006","14","1","-1","","","","","","","","","","","","",""
"psychophysics","164","416378","0.0-12.0-0.35","5dcf09ee82a52705360f2d48","636d03e66a32c7f65a0397df","636d04cf71b30f1a5a30b926","520","","","","37","","","","key","16.65098901098891","640","293.5","true","-1","132.4840774705152","1.3194139533312006","14","-1","1","","","","","","","","","","","","",""
"psychophysics","165","418958","0.0-12.0-0.36","5dcf09ee82a52705360f2d48","636d03e66a32c7f65a0397df","636d04cf71b30f1a5a30b926","1566","","","","37","","","","key","16.65103896103902","640","293.5","true","1","132.4840774705152","1.0555311626649604","15","1","-1","","","","","","","","","","","","",""
"psychophysics","166","420268","0.0-12.0-0.37","5dcf09ee82a52705360f2d48","636d03e66a32c7f65a0397df","636d04cf71b30f1a5a30b926","296","","","","39","","","","key","16.65076923076935","640","293.5","true","1","133.53960863318014","1.0555311626649604","15","-1","1","","","","","","","","","","","","",""
"psychophysics","167","421733","0.0-12.0-0.38","5dcf09ee82a52705360f2d48","636d03e66a32c7f65a0397df","636d04cf71b30f1a5a30b926","452","","","","39","","","","key","16.65103448275878","640","293.5","true","1","133.53960863318014","1","16","-1","-1","","","","","","","","","","","","",""
"psychophysics","168","423142","0.0-12.0-0.39","5dcf09ee82a52705360f2d48","636d03e66a32c7f65a0397df","636d04cf71b30f1a5a30b926","401","","","","37","","","","key","16.651084337349147","640","293.5","true","-1","132.53960863318014","1","16","-1","-1","","","","","","","","","","","","",""
"html-keyboard-response","169","424472","0.0-13.0","5dcf09ee82a52705360f2d48","636d03e66a32c7f65a0397df","636d04cf71b30f1a5a30b926","1329","<p>Well Done !</p><p>Prepare for a new block.</p><p>DON'T EXIT THE FULL SCREEN MODE</p><p>Press the Spacebar to start.</p>","","","32","","","","","","","","","","","","","","","true","131.5998455254439","","","","","","","","","","",""
"html-keyboard-response","170","424580","0.0-14.0","5dcf09ee82a52705360f2d48","636d03e66a32c7f65a0397df","636d04cf71b30f1a5a30b926","null","","","","null","","","","","","","","","","","","","","","","","132.11378904199717","true","136.22757808399433","","","","","","","",""
"instructions","171","462198","0.0-15.0","5dcf09ee82a52705360f2d48","636d03e66a32c7f65a0397df","636d04cf71b30f1a5a30b926","37617","","","","","","","[{""page_index"":0,""viewing_time"":32210},{""page_index"":1,""viewing_time"":2975},{""page_index"":2,""viewing_time"":2432}]","","","","","","","","","","","","","","","","","","","","","","","",""
"psychophysics","172","465220","0.0-16.0-0.0","5dcf09ee82a52705360f2d48","636d03e66a32c7f65a0397df","636d04cf71b30f1a5a30b926","null","","","","null","","","","key","16.65099999999899","640","293.5","","","","","","","","","","","","","","","","","","","",""
"psychophysics","173","465737","0.0-16.0-1.0","5dcf09ee82a52705360f2d48","636d03e66a32c7f65a0397df","636d04cf71b30f1a5a30b926","null","","","","null","","","","key","16.650666666667288","640","293.5","","","","","","","","","","","","","136","1","6","false","","","",""
"psychophysics","174","466103","0.0-16.0-2.0","5dcf09ee82a52705360f2d48","636d03e66a32c7f65a0397df","636d04cf71b30f1a5a30b926","361","","","","77","","","","key","16.650476190472197","640","293.5","","","","","","","","","","","","","","","","","","","",""
"psychophysics","175","467120","0.0-16.0-0.1","5dcf09ee82a52705360f2d48","636d03e66a32c7f65a0397df","636d04cf71b30f1a5a30b926","null","","","","null","","","","key","16.65100000000093","640","293.5","","","","","","","","","","","","","","","","","","","",""
"psychophysics","176","467637","0.0-16.0-1.1","5dcf09ee82a52705360f2d48","636d03e66a32c7f65a0397df","636d04cf71b30f1a5a30b926","null","","","","null","","","","key","16.651333333330694","640","293.5","","","","","","","","","","","","","136","1","2","false","","","",""
"psychophysics","177","467775","0.0-16.0-2.1","5dcf09ee82a52705360f2d48","636d03e66a32c7f65a0397df","636d04cf71b30f1a5a30b926","134","","","","77","","","","key","16.651428571436554","640","293.5","","","","","","","","","","","","","","","","","","","",""
"psychophysics","178","468784","0.0-16.0-0.2","5dcf09ee82a52705360f2d48","636d03e66a32c7f65a0397df","636d04cf71b30f1a5a30b926","null","","","","null","","","","key","16.65100000000093","640","293.5","","","","","","","","","","","","","","","","","","","",""
"psychophysics","179","469286","0.0-16.0-1.2","5dcf09ee82a52705360f2d48","636d03e66a32c7f65a0397df","636d04cf71b30f1a5a30b926","null","","","","null","","","","key","16.65103448275878","640","293.5","","","","","","","","","","","","","136","1","5","false","","","",""
"psychophysics","180","469607","0.0-16.0-2.2","5dcf09ee82a52705360f2d48","636d03e66a32c7f65a0397df","636d04cf71b30f1a5a30b926","317","","","","77","","","","key","16.651111111116027","640","293.5","","","","","","","","","","","","","","","","","","","",""
"psychophysics","181","470624","0.0-16.0-0.3","5dcf09ee82a52705360f2d48","636d03e66a32c7f65a0397df","636d04cf71b30f1a5a30b926","null","","","","null","","","","key","16.65099999999899","640","293.5","","","","","","","","","","","","","","","","","","","",""
"psychophysics","182","471134","0.0-16.0-1.3","5dcf09ee82a52705360f2d48","636d03e66a32c7f65a0397df","636d04cf71b30f1a5a30b926","null","","","","null","","","","key","16.650666666667288","640","293.5","","","","","","","","","","","","","136","-1","2","false","","","",""
"psychophysics","183","471847","0.0-16.0-2.3","5dcf09ee82a52705360f2d48","636d03e66a32c7f65a0397df","636d04cf71b30f1a5a30b926","710","","","","90","","","","key","16.650952380954376","640","293.5","","","","","","","","","","","","","","","","","","","",""
"psychophysics","184","472861","0.0-16.0-0.4","5dcf09ee82a52705360f2d48","636d03e66a32c7f65a0397df","636d04cf71b30f1a5a30b926","null","","","","null","","","","key","16.65099999999899","640","293.5","","","","","","","","","","","","","","","","","","","",""
"psychophysics","185","473380","0.0-16.0-1.4","5dcf09ee82a52705360f2d48","636d03e66a32c7f65a0397df","636d04cf71b30f1a5a30b926","null","","","","null","","","","key","16.651333333330694","640","293.5","","","","","","","","","","","","","136","1","3","false","","","",""
"psychophysics","186","473752","0.0-16.0-2.4","5dcf09ee82a52705360f2d48","636d03e66a32c7f65a0397df","636d04cf71b30f1a5a30b926","369","","","","77","","","","key","16.651428571431012","640","293.5","","","","","","","","","","","","","","","","","","","",""
"psychophysics","187","474766","0.0-16.0-0.5","5dcf09ee82a52705360f2d48","636d03e66a32c7f65a0397df","636d04cf71b30f1a5a30b926","null","","","","null","","","","key","16.65099999999899","640","293.5","","","","","","","","","","","","","","","","","","","",""
"psychophysics","188","475278","0.0-16.0-1.5","5dcf09ee82a52705360f2d48","636d03e66a32c7f65a0397df","636d04cf71b30f1a5a30b926","null","","","","null","","","","key","16.650666666667288","640","293.5","","","","","","","","","","","","","136","-1","3","false","","","",""
"psychophysics","189","476572","0.0-16.0-2.5","5dcf09ee82a52705360f2d48","636d03e66a32c7f65a0397df","636d04cf71b30f1a5a30b926","1292","","","","90","","","","key","16.650909090909032","640","293.5","","","","","","","","","","","","","","","","","","","",""
"psychophysics","190","477579","0.0-16.0-0.6","5dcf09ee82a52705360f2d48","636d03e66a32c7f65a0397df","636d04cf71b30f1a5a30b926","null","","","","null","","","","key","16.67830508474608","640","293.5","","","","","","","","","","","","","","","","","","","",""
"psychophysics","191","478095","0.0-16.0-1.6","5dcf09ee82a52705360f2d48","636d03e66a32c7f65a0397df","636d04cf71b30f1a5a30b926","null","","","","null","","","","key","16.650666666667288","640","293.5","","","","","","","","","","","","","136","-1","4","false","","","",""
"psychophysics","192","478525","0.0-16.0-2.6","5dcf09ee82a52705360f2d48","636d03e66a32c7f65a0397df","636d04cf71b30f1a5a30b926","427","","","","90","","","","key","16.65120000000112","640","293.5","","","","","","","","","","","","","","","","","","","",""
"psychophysics","193","479535","0.0-16.0-0.7","5dcf09ee82a52705360f2d48","636d03e66a32c7f65a0397df","636d04cf71b30f1a5a30b926","null","","","","null","","","","key","16.65100000000093","640","293.5","","","","","","","","","","","","","","","","","","","",""
"psychophysics","194","480050","0.0-16.0-1.7","5dcf09ee82a52705360f2d48","636d03e66a32c7f65a0397df","636d04cf71b30f1a5a30b926","null","","","","null","","","","key","16.65103448275878","640","293.5","","","","","","","","","","","","","136","-1","5","false","","","",""
"psychophysics","195","481384","0.0-16.0-2.7","5dcf09ee82a52705360f2d48","636d03e66a32c7f65a0397df","636d04cf71b30f1a5a30b926","1329","","","","90","","","","key","16.65100000000093","640","293.5","","","","","","","","","","","","","","","","","","","",""
"psychophysics","196","482387","0.0-16.0-0.8","5dcf09ee82a52705360f2d48","636d03e66a32c7f65a0397df","636d04cf71b30f1a5a30b926","null","","","","null","","","","key","16.650847457627513","640","293.5","","","","","","","","","","","","","","","","","","","",""
"psychophysics","197","482892","0.0-16.0-1.8","5dcf09ee82a52705360f2d48","636d03e66a32c7f65a0397df","636d04cf71b30f1a5a30b926","null","","","","null","","","","key","16.65103448275878","640","293.5","","","","","","","","","","","","","136","-1","0","false","","","",""
"psychophysics","198","483399","0.0-16.0-2.8","5dcf09ee82a52705360f2d48","636d03e66a32c7f65a0397df","636d04cf71b30f1a5a30b926","504","","","","90","","","","key","16.651333333330694","640","293.5","","","","","","","","","","","","","","","","","","","",""
"psychophysics","199","484407","0.0-16.0-0.9","5dcf09ee82a52705360f2d48","636d03e66a32c7f65a0397df","636d04cf71b30f1a5a30b926","null","","","","null","","","","key","16.651186440678675","640","293.5","","","","","","","","","","","","","","","","","","","",""
"psychophysics","200","484910","0.0-16.0-1.9","5dcf09ee82a52705360f2d48","636d03e66a32c7f65a0397df","636d04cf71b30f1a5a30b926","null","","","","null","","","","key","16.65103448275878","640","293.5","","","","","","","","","","","","","136","-1","6","false","","","",""
"psychophysics","201","485592","0.0-16.0-2.9","5dcf09ee82a52705360f2d48","636d03e66a32c7f65a0397df","636d04cf71b30f1a5a30b926","677","","","","77","","","","key","16.65100000000093","640","293.5","","","","","","","","","","","","","","","","","","","",""
"psychophysics","202","486602","0.0-16.0-0.10","5dcf09ee82a52705360f2d48","636d03e66a32c7f65a0397df","636d04cf71b30f1a5a30b926","null","","","","null","","","","key","16.65099999999899","640","293.5","","","","","","","","","","","","","","","","","","","",""
"psychophysics","203","487112","0.0-16.0-1.10","5dcf09ee82a52705360f2d48","636d03e66a32c7f65a0397df","636d04cf71b30f1a5a30b926","null","","","","null","","","","key","16.650666666667288","640","293.5","","","","","","","","","","","","","136","1","0","false","","","",""
"psychophysics","204","488113","0.0-16.0-2.10","5dcf09ee82a52705360f2d48","636d03e66a32c7f65a0397df","636d04cf71b30f1a5a30b926","998","","","","90","","","","key","16.650847457627513","640","293.5","","","","","","","","","","","","","","","","","","","",""
"psychophysics","205","489124","0.0-16.0-0.11","5dcf09ee82a52705360f2d48","636d03e66a32c7f65a0397df","636d04cf71b30f1a5a30b926","null","","","","null","","","","key","16.650847457627513","640","293.5","","","","","","","","","","","","","","","","","","","",""
"psychophysics","206","489640","0.0-16.0-1.11","5dcf09ee82a52705360f2d48","636d03e66a32c7f65a0397df","636d04cf71b30f1a5a30b926","null","","","","null","","","","key","16.650666666667288","640","293.5","","","","","","","","","","","","","136","1","4","false","","","",""
"psychophysics","207","490781","0.0-16.0-2.11","5dcf09ee82a52705360f2d48","636d03e66a32c7f65a0397df","636d04cf71b30f1a5a30b926","1136","","","","90","","","","key","16.67470588235301","640","293.5","","","","","","","","","","","","","","","","","","","",""
"psychophysics","208","491792","0.0-16.0-0.12","5dcf09ee82a52705360f2d48","636d03e66a32c7f65a0397df","636d04cf71b30f1a5a30b926","null","","","","null","","","","key","16.65100000000093","640","293.5","","","","","","","","","","","","","","","","","","","",""
"psychophysics","209","492299","0.0-16.0-1.12","5dcf09ee82a52705360f2d48","636d03e66a32c7f65a0397df","636d04cf71b30f1a5a30b926","null","","","","null","","","","key","16.65103448275878","640","293.5","","","","","","","","","","","","","136","-1","5","false","","","",""
"psychophysics","210","493022","0.0-16.0-2.12","5dcf09ee82a52705360f2d48","636d03e66a32c7f65a0397df","636d04cf71b30f1a5a30b926","722","","","","77","","","","key","16.651428571428237","640","293.5","","","","","","","","","","","","","","","","","","","",""
"psychophysics","211","494032","0.0-16.0-0.13","5dcf09ee82a52705360f2d48","636d03e66a32c7f65a0397df","636d04cf71b30f1a5a30b926","null","","","","null","","","","key","16.65100000000093","640","293.5","","","","","","","","","","","","","","","","","","","",""
"psychophysics","212","494546","0.0-16.0-1.13","5dcf09ee82a52705360f2d48","636d03e66a32c7f65a0397df","636d04cf71b30f1a5a30b926","null","","","","null","","","","key","16.650666666667288","640","293.5","","","","","","","","","","","","","136","-1","2","false","","","",""
"psychophysics","213","495060","0.0-16.0-2.13","5dcf09ee82a52705360f2d48","636d03e66a32c7f65a0397df","636d04cf71b30f1a5a30b926","514","","","","90","","","","key","16.650666666667288","640","293.5","","","","","","","","","","","","","","","","","","","",""
"psychophysics","214","496078","0.0-16.0-0.14","5dcf09ee82a52705360f2d48","636d03e66a32c7f65a0397df","636d04cf71b30f1a5a30b926","null","","","","null","","","","key","16.65099999999899","640","293.5","","","","","","","","","","","","","","","","","","","",""
"psychophysics","215","496586","0.0-16.0-1.14","5dcf09ee82a52705360f2d48","636d03e66a32c7f65a0397df","636d04cf71b30f1a5a30b926","null","","","","null","","","","key","16.65103448275878","640","293.5","","","","","","","","","","","","","136","-1","3","false","","","",""
"psychophysics","216","497440","0.0-16.0-2.14","5dcf09ee82a52705360f2d48","636d03e66a32c7f65a0397df","636d04cf71b30f1a5a30b926","849","","","","77","","","","key","16.65098039215595","640","293.5","","","","","","","","","","","","","","","","","","","",""
"psychophysics","217","498448","0.0-16.0-0.15","5dcf09ee82a52705360f2d48","636d03e66a32c7f65a0397df","636d04cf71b30f1a5a30b926","null","","","","null","","","","key","16.651186440678675","640","293.5","","","","","","","","","","","","","","","","","","","",""
"psychophysics","218","498956","0.0-16.0-1.15","5dcf09ee82a52705360f2d48","636d03e66a32c7f65a0397df","636d04cf71b30f1a5a30b926","null","","","","null","","","","key","16.651333333334573","640","293.5","","","","","","","","","","","","","136","1","5","false","","","",""
"psychophysics","219","499580","0.0-16.0-2.15","5dcf09ee82a52705360f2d48","636d03e66a32c7f65a0397df","636d04cf71b30f1a5a30b926","623","","","","77","","","","key","16.651111111112794","640","293.5","","","","","","","","","","","","","","","","","","","",""
"psychophysics","220","500592","0.0-16.0-0.16","5dcf09ee82a52705360f2d48","636d03e66a32c7f65a0397df","636d04cf71b30f1a5a30b926","null","","","","null","","","","key","16.65100000000093","640","293.5","","","","","","","","","","","","","","","","","","","",""
"psychophysics","221","501098","0.0-16.0-1.16","5dcf09ee82a52705360f2d48","636d03e66a32c7f65a0397df","636d04cf71b30f1a5a30b926","null","","","","null","","","","key","16.65103448275878","640","293.5","","","","","","","","","","","","","136","1","2","false","","","",""
"psychophysics","222","501679","0.0-16.0-2.16","5dcf09ee82a52705360f2d48","636d03e66a32c7f65a0397df","636d04cf71b30f1a5a30b926","578","","","","90","","","","key","16.651176470588645","640","293.5","","","","","","","","","","","","","","","","","","","",""
"psychophysics","223","502683","0.0-16.0-0.17","5dcf09ee82a52705360f2d48","636d03e66a32c7f65a0397df","636d04cf71b30f1a5a30b926","null","","","","null","","","","key","16.65100000000093","640","293.5","","","","","","","","","","","","","","","","","","","",""
"psychophysics","224","503184","0.0-16.0-1.17","5dcf09ee82a52705360f2d48","636d03e66a32c7f65a0397df","636d04cf71b30f1a5a30b926","null","","","","null","","","","key","16.65103448275878","640","293.5","","","","","","","","","","","","","136","1","3","false","","","",""
"psychophysics","225","504163","0.0-16.0-2.17","5dcf09ee82a52705360f2d48","636d03e66a32c7f65a0397df","636d04cf71b30f1a5a30b926","975","","","","90","","","","key","16.650877192982048","640","293.5","","","","","","","","","","","","","","","","","","","",""
"psychophysics","226","505176","0.0-16.0-0.18","5dcf09ee82a52705360f2d48","636d03e66a32c7f65a0397df","636d04cf71b30f1a5a30b926","null","","","","null","","","","key","16.6786666666662","640","293.5","","","","","","","","","","","","","","","","","","","",""
"psychophysics","227","505689","0.0-16.0-1.18","5dcf09ee82a52705360f2d48","636d03e66a32c7f65a0397df","636d04cf71b30f1a5a30b926","null","","","","null","","","","key","16.650666666667288","640","293.5","","","","","","","","","","","","","136","1","4","false","","","",""
"psychophysics","228","506483","0.0-16.0-2.18","5dcf09ee82a52705360f2d48","636d03e66a32c7f65a0397df","636d04cf71b30f1a5a30b926","792","","","","77","","","","key","16.65106382978674","640","293.5","","","","","","","","","","","","","","","","","","","",""
"psychophysics","229","507492","0.0-16.0-0.19","5dcf09ee82a52705360f2d48","636d03e66a32c7f65a0397df","636d04cf71b30f1a5a30b926","null","","","","null","","","","key","16.651186440676703","640","293.5","","","","","","","","","","","","","","","","","","","",""
"psychophysics","230","508007","0.0-16.0-1.19","5dcf09ee82a52705360f2d48","636d03e66a32c7f65a0397df","636d04cf71b30f1a5a30b926","null","","","","null","","","","key","16.651333333334573","640","293.5","","","","","","","","","","","","","136","1","6","false","","","",""
"psychophysics","231","509082","0.0-16.0-2.19","5dcf09ee82a52705360f2d48","636d03e66a32c7f65a0397df","636d04cf71b30f1a5a30b926","1074","","","","90","","","","key","16.65093749999869","640","293.5","","","","","","","","","","","","","","","","","","","",""
"psychophysics","232","510097","0.0-16.0-0.20","5dcf09ee82a52705360f2d48","636d03e66a32c7f65a0397df","636d04cf71b30f1a5a30b926","null","","","","null","","","","key","16.65100000000093","640","293.5","","","","","","","","","","","","","","","","","","","",""
"psychophysics","233","510610","0.0-16.0-1.20","5dcf09ee82a52705360f2d48","636d03e66a32c7f65a0397df","636d04cf71b30f1a5a30b926","null","","","","null","","","","key","16.651333333330694","640","293.5","","","","","","","","","","","","","136","1","0","false","","","",""
"psychophysics","234","511132","0.0-16.0-2.20","5dcf09ee82a52705360f2d48","636d03e66a32c7f65a0397df","636d04cf71b30f1a5a30b926","520","","","","90","","","","key","16.650666666667288","640","293.5","","","","","","","","","","","","","","","","","","","",""
"psychophysics","235","512140","0.0-16.0-0.21","5dcf09ee82a52705360f2d48","636d03e66a32c7f65a0397df","636d04cf71b30f1a5a30b926","null","","","","null","","","","key","16.65084745762554","640","293.5","","","","","","","","","","","","","","","","","","","",""
"psychophysics","236","512647","0.0-16.0-1.21","5dcf09ee82a52705360f2d48","636d03e66a32c7f65a0397df","636d04cf71b30f1a5a30b926","null","","","","null","","","","key","16.650666666667288","640","293.5","","","","","","","","","","","","","136","-1","6","false","","","",""
"psychophysics","237","513061","0.0-16.0-2.21","5dcf09ee82a52705360f2d48","636d03e66a32c7f65a0397df","636d04cf71b30f1a5a30b926","411","","","","77","","","","key","16.65083333333314","640","293.5","","","","","","","","","","","","","","","","","","","",""
"psychophysics","238","514070","0.0-16.0-0.22","5dcf09ee82a52705360f2d48","636d03e66a32c7f65a0397df","636d04cf71b30f1a5a30b926","null","","","","null","","","","key","16.651186440676703","640","293.5","","","","","","","","","","","","","","","","","","","",""
"psychophysics","239","514577","0.0-16.0-1.22","5dcf09ee82a52705360f2d48","636d03e66a32c7f65a0397df","636d04cf71b30f1a5a30b926","null","","","","null","","","","key","16.651333333334573","640","293.5","","","","","","","","","","","","","136","-1","4","false","","","",""
"psychophysics","240","514951","0.0-16.0-2.22","5dcf09ee82a52705360f2d48","636d03e66a32c7f65a0397df","636d04cf71b30f1a5a30b926","372","","","","77","","","","key","16.651428571425466","640","293.5","","","","","","","","","","","","","","","","","","","",""
"psychophysics","241","515965","0.0-16.0-0.23","5dcf09ee82a52705360f2d48","636d03e66a32c7f65a0397df","636d04cf71b30f1a5a30b926","null","","","","null","","","","key","16.65099999999899","640","293.5","","","","","","","","","","","","","","","","","","","",""
"psychophysics","242","516471","0.0-16.0-1.23","5dcf09ee82a52705360f2d48","636d03e66a32c7f65a0397df","636d04cf71b30f1a5a30b926","null","","","","null","","","","key","16.651333333334573","640","293.5","","","","","","","","","","","","","136","-1","0","false","","","",""
"psychophysics","243","518140","0.0-16.0-2.23","5dcf09ee82a52705360f2d48","636d03e66a32c7f65a0397df","636d04cf71b30f1a5a30b926","1667","","","","77","","","","key","16.651111111110733","640","293.5","","","","","","","","","","","","","","","","","","","",""
"html-keyboard-response","244","560566","0.0-17.0","5dcf09ee82a52705360f2d48","636d03e66a32c7f65a0397df","636d04cf71b30f1a5a30b926","42424","<p>Well Done !</p><p>Training Complete. Press the spacebar to start.</p><p>DON'T EXIT THE FULL SCREEN MODE</p>","","","32","","","","","","","","","","","","","","","","","","","","","","","","","","",""
"psychophysics","245","563590","0.0-18.0-0.0","5dcf09ee82a52705360f2d48","636d03e66a32c7f65a0397df","636d04cf71b30f1a5a30b926","null","","","","null","","","","key","16.374098360654898","640","293.5","","","","","","","","","","","","","","","","","","","",""
"psychophysics","246","564107","0.0-18.0-1.0","5dcf09ee82a52705360f2d48","636d03e66a32c7f65a0397df","636d04cf71b30f1a5a30b926","null","","","","null","","","","key","16.650666666667288","640","293.5","","","","","","","","","","","","","136","-1","5","true","","","",""
"psychophysics","247","565454","0.0-18.0-2.0","5dcf09ee82a52705360f2d48","636d03e66a32c7f65a0397df","636d04cf71b30f1a5a30b926","1344","","","","77","","","","key","16.650999999999478","640","293.5","","","","","","","","","","","","","","","","","","","",""
"psychophysics","248","566466","0.0-18.0-0.1","5dcf09ee82a52705360f2d48","636d03e66a32c7f65a0397df","636d04cf71b30f1a5a30b926","null","","","","null","","","","key","16.65099999999899","640","293.5","","","","","","","","","","","","","","","","","","","",""
"psychophysics","249","566974","0.0-18.0-1.1","5dcf09ee82a52705360f2d48","636d03e66a32c7f65a0397df","636d04cf71b30f1a5a30b926","null","","","","null","","","","key","16.65103448275878","640","293.5","","","","","","","","","","","","","136","-1","0","true","","","",""
"psychophysics","250","567289","0.0-18.0-2.1","5dcf09ee82a52705360f2d48","636d03e66a32c7f65a0397df","636d04cf71b30f1a5a30b926","312","","","","90","","","","key","16.651111111109557","640","293.5","","","","","","","","","","","","","","","","","","","",""
"psychophysics","251","568294","0.0-18.0-0.2","5dcf09ee82a52705360f2d48","636d03e66a32c7f65a0397df","636d04cf71b30f1a5a30b926","null","","","","null","","","","key","16.650847457627513","640","293.5","","","","","","","","","","","","","","","","","","","",""
"psychophysics","252","568798","0.0-18.0-1.2","5dcf09ee82a52705360f2d48","636d03e66a32c7f65a0397df","636d04cf71b30f1a5a30b926","null","","","","null","","","","key","16.650666666667288","640","293.5","","","","","","","","","","","","","136","1","6","true","","","",""
"psychophysics","253","569224","0.0-18.0-2.2","5dcf09ee82a52705360f2d48","636d03e66a32c7f65a0397df","636d04cf71b30f1a5a30b926","423","","","","77","","","","key","16.65083333333314","640","293.5","","","","","","","","","","","","","","","","","","","",""
"psychophysics","254","570234","0.0-18.0-0.3","5dcf09ee82a52705360f2d48","636d03e66a32c7f65a0397df","636d04cf71b30f1a5a30b926","null","","","","null","","","","key","16.65099999999899","640","293.5","","","","","","","","","","","","","","","","","","","",""
"psychophysics","255","570740","0.0-18.0-1.3","5dcf09ee82a52705360f2d48","636d03e66a32c7f65a0397df","636d04cf71b30f1a5a30b926","null","","","","null","","","","key","16.65103448275878","640","293.5","","","","","","","","","","","","","136","-1","6","true","","","",""
"psychophysics","256","570998","0.0-18.0-2.3","5dcf09ee82a52705360f2d48","636d03e66a32c7f65a0397df","636d04cf71b30f1a5a30b926","252","","","","77","","","","key","16.650666666667288","640","293.5","","","","","","","","","","","","","","","","","","","",""
"psychophysics","257","572005","0.0-18.0-0.4","5dcf09ee82a52705360f2d48","636d03e66a32c7f65a0397df","636d04cf71b30f1a5a30b926","null","","","","null","","","","key","16.651186440676703","640","293.5","","","","","","","","","","","","","","","","","","","",""
"psychophysics","258","572518","0.0-18.0-1.4","5dcf09ee82a52705360f2d48","636d03e66a32c7f65a0397df","636d04cf71b30f1a5a30b926","null","","","","null","","","","key","16.651333333334573","640","293.5","","","","","","","","","","","","","136","1","3","true","","","",""
"psychophysics","259","572809","0.0-18.0-2.4","5dcf09ee82a52705360f2d48","636d03e66a32c7f65a0397df","636d04cf71b30f1a5a30b926","289","","","","90","","","","key","16.650588235290556","640","293.5","","","","","","","","","","","","","","","","","","","",""
"psychophysics","260","573823","0.0-18.0-0.5","5dcf09ee82a52705360f2d48","636d03e66a32c7f65a0397df","636d04cf71b30f1a5a30b926","null","","","","null","","","","key","16.651186440678675","640","293.5","","","","","","","","","","","","","","","","","","","",""
"psychophysics","261","574332","0.0-18.0-1.5","5dcf09ee82a52705360f2d48","636d03e66a32c7f65a0397df","636d04cf71b30f1a5a30b926","null","","","","null","","","","key","16.651333333334573","640","293.5","","","","","","","","","","","","","136","-1","4","true","","","",""
"psychophysics","262","575122","0.0-18.0-2.5","5dcf09ee82a52705360f2d48","636d03e66a32c7f65a0397df","636d04cf71b30f1a5a30b926","787","","","","77","","","","key","16.651304347825278","640","293.5","","","","","","","","","","","","","","","","","","","",""
"psychophysics","263","576136","0.0-18.0-0.6","5dcf09ee82a52705360f2d48","636d03e66a32c7f65a0397df","636d04cf71b30f1a5a30b926","null","","","","null","","","","key","16.65100000000093","640","293.5","","","","","","","","","","","","","","","","","","","",""
"psychophysics","264","576653","0.0-18.0-1.6","5dcf09ee82a52705360f2d48","636d03e66a32c7f65a0397df","636d04cf71b30f1a5a30b926","null","","","","null","","","","key","16.650666666667288","640","293.5","","","","","","","","","","","","","136","-1","2","true","","","",""
"psychophysics","265","576889","0.0-18.0-2.6","5dcf09ee82a52705360f2d48","636d03e66a32c7f65a0397df","636d04cf71b30f1a5a30b926","227","","","","90","","","","key","16.771428571431898","640","293.5","","","","","","","","","","","","","","","","","","","",""
"psychophysics","266","577907","0.0-18.0-0.7","5dcf09ee82a52705360f2d48","636d03e66a32c7f65a0397df","636d04cf71b30f1a5a30b926","null","","","","null","","","","key","16.65099999999899","640","293.5","","","","","","","","","","","","","","","","","","","",""
"psychophysics","267","578428","0.0-18.0-1.7","5dcf09ee82a52705360f2d48","636d03e66a32c7f65a0397df","636d04cf71b30f1a5a30b926","null","","","","null","","","","key","16.650666666667288","640","293.5","","","","","","","","","","","","","136","1","0","true","","","",""
"psychophysics","268","578846","0.0-18.0-2.7","5dcf09ee82a52705360f2d48","636d03e66a32c7f65a0397df","636d04cf71b30f1a5a30b926","415","","","","90","","","","key","16.65083333333314","640","293.5","","","","","","","","","","","","","","","","","","","",""
"psychophysics","269","579858","0.0-18.0-0.8","5dcf09ee82a52705360f2d48","636d03e66a32c7f65a0397df","636d04cf71b30f1a5a30b926","null","","","","null","","","","key","16.65100000000093","640","293.5","","","","","","","","","","","","","","","","","","","",""
"psychophysics","270","580375","0.0-18.0-1.8","5dcf09ee82a52705360f2d48","636d03e66a32c7f65a0397df","636d04cf71b30f1a5a30b926","null","","","","null","","","","key","16.651333333334573","640","293.5","","","","","","","","","","","","","136","-1","3","true","","","",""
"psychophysics","271","580761","0.0-18.0-2.8","5dcf09ee82a52705360f2d48","636d03e66a32c7f65a0397df","636d04cf71b30f1a5a30b926","383","","","","90","","","","key","16.65090909090676","640","293.5","","","","","","","","","","","","","","","","","","","",""
"psychophysics","272","581771","0.0-18.0-0.9","5dcf09ee82a52705360f2d48","636d03e66a32c7f65a0397df","636d04cf71b30f1a5a30b926","null","","","","null","","","","key","16.65100000000093","640","293.5","","","","","","","","","","","","","","","","","","","",""
"psychophysics","273","582278","0.0-18.0-1.9","5dcf09ee82a52705360f2d48","636d03e66a32c7f65a0397df","636d04cf71b30f1a5a30b926","null","","","","null","","","","key","16.65103448275878","640","293.5","","","","","","","","","","","","","136","1","4","true","","","",""
"psychophysics","274","582455","0.0-18.0-2.9","5dcf09ee82a52705360f2d48","636d03e66a32c7f65a0397df","636d04cf71b30f1a5a30b926","174","","","","77","","","","key","16.65","640","293.5","","","","","","","","","","","","","","","","","","","",""
"psychophysics","275","583459","0.0-18.0-0.10","5dcf09ee82a52705360f2d48","636d03e66a32c7f65a0397df","636d04cf71b30f1a5a30b926","null","","","","null","","","","key","16.650847457627513","640","293.5","","","","","","","","","","","","","","","","","","","",""
"psychophysics","276","583965","0.0-18.0-1.10","5dcf09ee82a52705360f2d48","636d03e66a32c7f65a0397df","636d04cf71b30f1a5a30b926","null","","","","null","","","","key","16.651034482754767","640","293.5","","","","","","","","","","","","","136","1","5","true","","","",""
"psychophysics","277","584484","0.0-18.0-2.10","5dcf09ee82a52705360f2d48","636d03e66a32c7f65a0397df","636d04cf71b30f1a5a30b926","514","","","","90","","","","key","16.650967741937137","640","293.5","","","","","","","","","","","","","","","","","","","",""
"psychophysics","278","585497","0.0-18.0-0.11","5dcf09ee82a52705360f2d48","636d03e66a32c7f65a0397df","636d04cf71b30f1a5a30b926","null","","","","null","","","","key","16.65084745762554","640","293.5","","","","","","","","","","","","","","","","","","","",""
"psychophysics","279","586005","0.0-18.0-1.11","5dcf09ee82a52705360f2d48","636d03e66a32c7f65a0397df","636d04cf71b30f1a5a30b926","null","","","","null","","","","key","16.650666666667288","640","293.5","","","","","","","","","","","","","136","1","2","true","","","",""
"psychophysics","280","586203","0.0-18.0-2.11","5dcf09ee82a52705360f2d48","636d03e66a32c7f65a0397df","636d04cf71b30f1a5a30b926","198","","","","90","","","","key","16.65090909090147","640","293.5","","","","","","","","","","","","","","","","","","","",""
"psychophysics","281","587213","0.0-18.0-0.12","5dcf09ee82a52705360f2d48","636d03e66a32c7f65a0397df","636d04cf71b30f1a5a30b926","null","","","","null","","","","key","16.65100000000093","640","293.5","","","","","","","","","","","","","","","","","","","",""
"psychophysics","282","587722","0.0-18.0-1.12","5dcf09ee82a52705360f2d48","636d03e66a32c7f65a0397df","636d04cf71b30f1a5a30b926","null","","","","null","","","","key","16.65103448275878","640","293.5","","","","","","","","","","","","","136","-1","4","true","","","",""
"psychophysics","283","587854","0.0-18.0-2.12","5dcf09ee82a52705360f2d48","636d03e66a32c7f65a0397df","636d04cf71b30f1a5a30b926","130","","","","77","","","","key","16.651428571436554","640","293.5","","","","","","","","","","","","","","","","","","","",""
"psychophysics","284","588868","0.0-18.0-0.13","5dcf09ee82a52705360f2d48","636d03e66a32c7f65a0397df","636d04cf71b30f1a5a30b926","null","","","","null","","","","key","16.65099999999899","640","293.5","","","","","","","","","","","","","","","","","","","",""
"psychophysics","285","589373","0.0-18.0-1.13","5dcf09ee82a52705360f2d48","636d03e66a32c7f65a0397df","636d04cf71b30f1a5a30b926","null","","","","null","","","","key","16.65103448275878","640","293.5","","","","","","","","","","","","","136","-1","5","true","","","",""
"psychophysics","286","589930","0.0-18.0-2.13","5dcf09ee82a52705360f2d48","636d03e66a32c7f65a0397df","636d04cf71b30f1a5a30b926","556","","","","77","","","","key","16.650909090908527","640","293.5","","","","","","","","","","","","","","","","","","","",""
"psychophysics","287","590940","0.0-18.0-0.14","5dcf09ee82a52705360f2d48","636d03e66a32c7f65a0397df","636d04cf71b30f1a5a30b926","null","","","","null","","","","key","16.679322033897595","640","293.5","","","","","","","","","","","","","","","","","","","",""
"psychophysics","288","591451","0.0-18.0-1.14","5dcf09ee82a52705360f2d48","636d03e66a32c7f65a0397df","636d04cf71b30f1a5a30b926","null","","","","null","","","","key","16.647999999998138","640","293.5","","","","","","","","","","","","","136","1","0","true","","","",""
"psychophysics","289","591663","0.0-18.0-2.14","5dcf09ee82a52705360f2d48","636d03e66a32c7f65a0397df","636d04cf71b30f1a5a30b926","210","","","","90","","","","key","16.651666666662397","640","293.5","","","","","","","","","","","","","","","","","","","",""
"psychophysics","290","592673","0.0-18.0-0.15","5dcf09ee82a52705360f2d48","636d03e66a32c7f65a0397df","636d04cf71b30f1a5a30b926","null","","","","null","","","","key","16.650847457627513","640","293.5","","","","","","","","","","","","","","","","","","","",""
"psychophysics","291","593188","0.0-18.0-1.15","5dcf09ee82a52705360f2d48","636d03e66a32c7f65a0397df","636d04cf71b30f1a5a30b926","null","","","","null","","","","key","16.650666666667288","640","293.5","","","","","","","","","","","","","136","-1","6","true","","","",""
"psychophysics","292","593511","0.0-18.0-2.15","5dcf09ee82a52705360f2d48","636d03e66a32c7f65a0397df","636d04cf71b30f1a5a30b926","316","","","","77","","","","key","16.65052631578874","640","293.5","","","","","","","","","","","","","","","","","","","",""
"psychophysics","293","594522","0.0-18.0-0.16","5dcf09ee82a52705360f2d48","636d03e66a32c7f65a0397df","636d04cf71b30f1a5a30b926","null","","","","null","","","","key","16.650847457627513","640","293.5","","","","","","","","","","","","","","","","","","","",""
"psychophysics","294","595037","0.0-18.0-1.16","5dcf09ee82a52705360f2d48","636d03e66a32c7f65a0397df","636d04cf71b30f1a5a30b926","null","","","","null","","","","key","16.650666666663408","640","293.5","","","","","","","","","","","","","136","1","6","true","","","",""
"psychophysics","295","595368","0.0-18.0-2.16","5dcf09ee82a52705360f2d48","636d03e66a32c7f65a0397df","636d04cf71b30f1a5a30b926","326","","","","77","","","","key","16.65052631578874","640","293.5","","","","","","","","","","","","","","","","","","","",""
"psychophysics","296","596371","0.0-18.0-0.17","5dcf09ee82a52705360f2d48","636d03e66a32c7f65a0397df","636d04cf71b30f1a5a30b926","null","","","","null","","","","key","16.650847457627513","640","293.5","","","","","","","","","","","","","","","","","","","",""
"psychophysics","297","596885","0.0-18.0-1.17","5dcf09ee82a52705360f2d48","636d03e66a32c7f65a0397df","636d04cf71b30f1a5a30b926","null","","","","null","","","","key","16.650666666663408","640","293.5","","","","","","","","","","","","","136","-1","2","true","","","",""
"psychophysics","298","597092","0.0-18.0-2.17","5dcf09ee82a52705360f2d48","636d03e66a32c7f65a0397df","636d04cf71b30f1a5a30b926","200","","","","90","","","","key","16.65000000000388","640","293.5","","","","","","","","","","","","","","","","","","","",""
"psychophysics","299","598103","0.0-18.0-0.18","5dcf09ee82a52705360f2d48","636d03e66a32c7f65a0397df","636d04cf71b30f1a5a30b926","null","","","","null","","","","key","16.650847457627513","640","293.5","","","","","","","","","","","","","","","","","","","",""
"psychophysics","300","598619","0.0-18.0-1.18","5dcf09ee82a52705360f2d48","636d03e66a32c7f65a0397df","636d04cf71b30f1a5a30b926","null","","","","null","","","","key","16.650666666667288","640","293.5","","","","","","","","","","","","","136","-1","0","true","","","",""
"psychophysics","301","599082","0.0-18.0-2.18","5dcf09ee82a52705360f2d48","636d03e66a32c7f65a0397df","636d04cf71b30f1a5a30b926","459","","","","90","","","","key","16.651111111109557","640","293.5","","","","","","","","","","","","","","","","","","","",""
"psychophysics","302","600099","0.0-18.0-0.19","5dcf09ee82a52705360f2d48","636d03e66a32c7f65a0397df","636d04cf71b30f1a5a30b926","null","","","","null","","","","key","16.65099999999899","640","293.5","","","","","","","","","","","","","","","","","","","",""
"psychophysics","303","600611","0.0-18.0-1.19","5dcf09ee82a52705360f2d48","636d03e66a32c7f65a0397df","636d04cf71b30f1a5a30b926","null","","","","null","","","","key","16.650666666667288","640","293.5","","","","","","","","","","","","","136","1","4","true","","","",""
"psychophysics","304","600703","0.0-18.0-2.19","5dcf09ee82a52705360f2d48","636d03e66a32c7f65a0397df","636d04cf71b30f1a5a30b926","89","","","","77","","","","key","16.651999999978578","640","293.5","","","","","","","","","","","","","","","","","","","",""
"psychophysics","305","601714","0.0-18.0-0.20","5dcf09ee82a52705360f2d48","636d03e66a32c7f65a0397df","636d04cf71b30f1a5a30b926","null","","","","null","","","","key","16.651186440678675","640","293.5","","","","","","","","","","","","","","","","","","","",""
"psychophysics","306","602226","0.0-18.0-1.20","5dcf09ee82a52705360f2d48","636d03e66a32c7f65a0397df","636d04cf71b30f1a5a30b926","null","","","","null","","","","key","16.651333333334573","640","293.5","","","","","","","","","","","","","136","-1","3","true","","","",""
"psychophysics","307","602462","0.0-18.0-2.20","5dcf09ee82a52705360f2d48","636d03e66a32c7f65a0397df","636d04cf71b30f1a5a30b926","234","","","","77","","","","key","16.65076923077532","640","293.5","","","","","","","","","","","","","","","","","","","",""
"psychophysics","308","603465","0.0-18.0-0.21","5dcf09ee82a52705360f2d48","636d03e66a32c7f65a0397df","636d04cf71b30f1a5a30b926","null","","","","null","","","","key","16.67593220338991","640","293.5","","","","","","","","","","","","","","","","","","","",""
"psychophysics","309","603971","0.0-18.0-1.21","5dcf09ee82a52705360f2d48","636d03e66a32c7f65a0397df","636d04cf71b30f1a5a30b926","null","","","","null","","","","key","16.650666666667288","640","293.5","","","","","","","","","","","","","136","1","2","true","","","",""
"psychophysics","310","604271","0.0-18.0-2.21","5dcf09ee82a52705360f2d48","636d03e66a32c7f65a0397df","636d04cf71b30f1a5a30b926","299","","","","90","","","","key","16.650588235290556","640","293.5","","","","","","","","","","","","","","","","","","","",""
"psychophysics","311","605277","0.0-18.0-0.22","5dcf09ee82a52705360f2d48","636d03e66a32c7f65a0397df","636d04cf71b30f1a5a30b926","null","","","","null","","","","key","16.650847457627513","640","293.5","","","","","","","","","","","","","","","","","","","",""
"psychophysics","312","605780","0.0-18.0-1.22","5dcf09ee82a52705360f2d48","636d03e66a32c7f65a0397df","636d04cf71b30f1a5a30b926","null","","","","null","","","","key","16.65103448275878","640","293.5","","","","","","","","","","","","","136","1","3","true","","","",""
"psychophysics","313","606996","0.0-18.0-2.22","5dcf09ee82a52705360f2d48","636d03e66a32c7f65a0397df","636d04cf71b30f1a5a30b926","1211","","","","90","","","","key","16.65123287671284","640","293.5","","","","","","","","","","","","","","","","","","","",""
"psychophysics","314","608004","0.0-18.0-0.23","5dcf09ee82a52705360f2d48","636d03e66a32c7f65a0397df","636d04cf71b30f1a5a30b926","null","","","","null","","","","key","16.651186440678675","640","293.5","","","","","","","","","","","","","","","","","","","",""
"psychophysics","315","608509","0.0-18.0-1.23","5dcf09ee82a52705360f2d48","636d03e66a32c7f65a0397df","636d04cf71b30f1a5a30b926","null","","","","null","","","","key","16.65103448275878","640","293.5","","","","","","","","","","","","","136","1","5","true","","","",""
"psychophysics","316","609792","0.0-18.0-2.23","5dcf09ee82a52705360f2d48","636d03e66a32c7f65a0397df","636d04cf71b30f1a5a30b926","1277","","","","90","","","","key","16.65078947368372","640","293.5","","","","","","","","","","","","","","","","","","","",""
"psychophysics","317","610805","0.0-18.0-0.24","5dcf09ee82a52705360f2d48","636d03e66a32c7f65a0397df","636d04cf71b30f1a5a30b926","null","","","","null","","","","key","16.65100000000093","640","293.5","","","","","","","","","","","","","","","","","","","",""
"psychophysics","318","611313","0.0-18.0-1.24","5dcf09ee82a52705360f2d48","636d03e66a32c7f65a0397df","636d04cf71b30f1a5a30b926","null","","","","null","","","","key","16.651333333330694","640","293.5","","","","","","","","","","","","","136","-1","0","true","","","",""
"psychophysics","319","611766","0.0-18.0-2.24","5dcf09ee82a52705360f2d48","636d03e66a32c7f65a0397df","636d04cf71b30f1a5a30b926","450","","","","90","","","","key","16.65076923077084","640","293.5","","","","","","","","","","","","","","","","","","","",""
"psychophysics","320","612782","0.0-18.0-0.25","5dcf09ee82a52705360f2d48","636d03e66a32c7f65a0397df","636d04cf71b30f1a5a30b926","null","","","","null","","","","key","16.65100000000093","640","293.5","","","","","","","","","","","","","","","","","","","",""
"psychophysics","321","613295","0.0-18.0-1.25","5dcf09ee82a52705360f2d48","636d03e66a32c7f65a0397df","636d04cf71b30f1a5a30b926","null","","","","null","","","","key","16.650666666667288","640","293.5","","","","","","","","","","","","","136","-1","5","true","","","",""
"psychophysics","322","613672","0.0-18.0-2.25","5dcf09ee82a52705360f2d48","636d03e66a32c7f65a0397df","636d04cf71b30f1a5a30b926","375","","","","77","","","","key","16.651428571431012","640","293.5","","","","","","","","","","","","","","","","","","","",""
"psychophysics","323","614674","0.0-18.0-0.26","5dcf09ee82a52705360f2d48","636d03e66a32c7f65a0397df","636d04cf71b30f1a5a30b926","null","","","","null","","","","key","16.65099999999899","640","293.5","","","","","","","","","","","","","","","","","","","",""
"psychophysics","324","615179","0.0-18.0-1.26","5dcf09ee82a52705360f2d48","636d03e66a32c7f65a0397df","636d04cf71b30f1a5a30b926","null","","","","null","","","","key","16.65103448275878","640","293.5","","","","","","","","","","","","","136","1","3","true","","","",""
"psychophysics","325","615595","0.0-18.0-2.26","5dcf09ee82a52705360f2d48","636d03e66a32c7f65a0397df","636d04cf71b30f1a5a30b926","414","","","","90","","","","key","16.65083333333314","640","293.5","","","","","","","","","","","","","","","","","","","",""
"psychophysics","326","616602","0.0-18.0-0.27","5dcf09ee82a52705360f2d48","636d03e66a32c7f65a0397df","636d04cf71b30f1a5a30b926","null","","","","null","","","","key","16.65084745762554","640","293.5","","","","","","","","","","","","","","","","","","","",""
"psychophysics","327","617113","0.0-18.0-1.27","5dcf09ee82a52705360f2d48","636d03e66a32c7f65a0397df","636d04cf71b30f1a5a30b926","null","","","","null","","","","key","16.70799999999969","640","293.5","","","","","","","","","","","","","136","-1","3","true","","","",""
"psychophysics","328","617606","0.0-18.0-2.27","5dcf09ee82a52705360f2d48","636d03e66a32c7f65a0397df","636d04cf71b30f1a5a30b926","490","","","","90","","","","key","16.648965517239613","640","293.5","","","","","","","","","","","","","","","","","","","",""
"psychophysics","329","618614","0.0-18.0-0.28","5dcf09ee82a52705360f2d48","636d03e66a32c7f65a0397df","636d04cf71b30f1a5a30b926","null","","","","null","","","","key","16.651186440678675","640","293.5","","","","","","","","","","","","","","","","","","","",""
"psychophysics","330","619127","0.0-18.0-1.28","5dcf09ee82a52705360f2d48","636d03e66a32c7f65a0397df","636d04cf71b30f1a5a30b926","null","","","","null","","","","key","16.651333333334573","640","293.5","","","","","","","","","","","","","136","-1","4","true","","","",""
"psychophysics","331","619385","0.0-18.0-2.28","5dcf09ee82a52705360f2d48","636d03e66a32c7f65a0397df","636d04cf71b30f1a5a30b926","255","","","","90","","","","key","16.651428571428237","640","293.5","","","","","","","","","","","","","","","","","","","",""
"psychophysics","332","620401","0.0-18.0-0.29","5dcf09ee82a52705360f2d48","636d03e66a32c7f65a0397df","636d04cf71b30f1a5a30b926","null","","","","null","","","","key","16.65100000000093","640","293.5","","","","","","","","","","","","","","","","","","","",""
"psychophysics","333","620917","0.0-18.0-1.29","5dcf09ee82a52705360f2d48","636d03e66a32c7f65a0397df","636d04cf71b30f1a5a30b926","null","","","","null","","","","key","16.650666666663408","640","293.5","","","","","","","","","","","","","136","-1","6","true","","","",""
"psychophysics","334","621194","0.0-18.0-2.29","5dcf09ee82a52705360f2d48","636d03e66a32c7f65a0397df","636d04cf71b30f1a5a30b926","272","","","","77","","","","key","16.65125000000262","640","293.5","","","","","","","","","","","","","","","","","","","",""
"psychophysics","335","622201","0.0-18.0-0.30","5dcf09ee82a52705360f2d48","636d03e66a32c7f65a0397df","636d04cf71b30f1a5a30b926","null","","","","null","","","","key","16.65099999999899","640","293.5","","","","","","","","","","","","","","","","","","","",""
"psychophysics","336","622718","0.0-18.0-1.30","5dcf09ee82a52705360f2d48","636d03e66a32c7f65a0397df","636d04cf71b30f1a5a30b926","null","","","","null","","","","key","16.650666666667288","640","293.5","","","","","","","","","","","","","136","1","2","true","","","",""
"psychophysics","337","623530","0.0-18.0-2.30","5dcf09ee82a52705360f2d48","636d03e66a32c7f65a0397df","636d04cf71b30f1a5a30b926","809","","","","90","","","","key","16.651063829789216","640","293.5","","","","","","","","","","","","","","","","","","","",""
"psychophysics","338","624540","0.0-18.0-0.31","5dcf09ee82a52705360f2d48","636d03e66a32c7f65a0397df","636d04cf71b30f1a5a30b926","null","","","","null","","","","key","16.65099999999899","640","293.5","","","","","","","","","","","","","","","","","","","",""
"psychophysics","339","625056","0.0-18.0-1.31","5dcf09ee82a52705360f2d48","636d03e66a32c7f65a0397df","636d04cf71b30f1a5a30b926","null","","","","null","","","","key","16.650666666667288","640","293.5","","","","","","","","","","","","","136","1","6","true","","","",""
"psychophysics","340","625569","0.0-18.0-2.31","5dcf09ee82a52705360f2d48","636d03e66a32c7f65a0397df","636d04cf71b30f1a5a30b926","509","","","","90","","","","key","16.651333333334573","640","293.5","","","","","","","","","","","","","","","","","","","",""
"psychophysics","341","626585","0.0-18.0-0.32","5dcf09ee82a52705360f2d48","636d03e66a32c7f65a0397df","636d04cf71b30f1a5a30b926","null","","","","null","","","","key","16.65099999999899","640","293.5","","","","","","","","","","","","","","","","","","","",""
