"trial_type","trial_index","time_elapsed","internal_node_id","PROLIFIC_PID","STUDY_ID","SESSION_ID","rt","stimulus","button_pressed","success","key_press","responses","isData","view_history","response_type","avg_frame_time","center_x","center_y","isSC","stim_side","trial_luminance","step_size","nReversal","correct","prev_ans","isThreshold","SC_threshold","final_threshold","isLuminance","FF_luminance","luminance","stimSide","ISInt","isFF","question_order","isSPQ","isCAPS","isAQ"
"pavlovia","0","19","0.0-0.0","609d22a7186f9da021fb4a70","636d03e66a32c7f65a0397df","636d05d08e9d1bb13d34acaf","","","","","","","","","","","","","","","","","","","","","","","","","","","","","","","",""
"html-button-response","1","9932","0.0-1.0","609d22a7186f9da021fb4a70","636d03e66a32c7f65a0397df","636d05d08e9d1bb13d34acaf","9905.600000023842","<div style='background-color: white; width:60%; margin: auto; padding: 50px; text-align: justify; text-justify: inter-word; margin-bottom: 20px;'><h1 style='text-align: center;'>Consent Form</h1><p>Please read this consent form carefully before deciding whether you would like to participate in this study. You have to be 18 years old or older to participate to this study.</p><p style='text-decoration: underline;'>Participation is voluntary:</p><p>It is your choice whether or not to participate in this research. If you choose to participate, you may change your mind and leave the study at any time. Refusal to participate or stopping your participation will involve no penalty or loss of benefits to which you are otherwise entitled.</p><p style='text-decoration: underline;'>Purpose of the Study:</p><p>To understand the mechanisms underlying human perception.</p><p style='text-decoration: underline;'>What you will do in this study:</p><p>You will be presented with a series of visual images and then you will press buttons on the keyboard of your computer to respond to simple questions about the images (e.g. Were one or two images presented?). In addition, you will be asked to complete a questionnaire concerning your beliefs and everyday mental and perceptual experiences.'</p><p style='text-decoration: underline;'> Time Required:</p><p>The study will take 40 minutes to complete. </p><p style='text-decoration: underline;'>Risks:</p><p>There are no anticipated risks associated with participating in this study that are beyond those experienced in everyday life. </p><p style='text-decoration: underline;'>Benefits:</p><p>There are no benefits to you in participating in the study. However, this study may lead to a better understanding of how different kinds of visual information are used.</p><p style='text-decoration: underline;'>Compensation:</p><p>You will be paid US$6.6/hour. </p><p style='text-decoration: underline;'>Privacy and Confidentiality:</p><p>Your participation in this study will be anonymous. No personal information about your name or identity will be asked or recorded. This anonymous data will be stored for several years and may be used for a variety of research purposes. The overall results of the study may be published, or the data files may be shared with other researchers, but your identity will not be revealed in any way. The online services we are using for this study may temporarily store your data, but this data will be downloaded and then promptly deleted from those services.Your data will not be permanently associated with your name, IP address, or any other identifiable information (e.g., your information will only be connected to your payment, not to any of your responses), though they may be temporarily stored together before we download and separate them. Even so, no guarantee of internet survey security can be given because, although unlikely, transmissions can be intercepted and IP addresses can be identified. The anonymous data may be shared publicly (for example, in conjunction with a resulting academic publication).</p><p style='text-decoration: underline;'>Participation and Withdrawal:</p><p>Your participation in this study is completely voluntary. You may stop responding to the stimuli or stop answering questions if you so choose and without penalty by exiting the full screen mode, closing this tab of your browser or redirecting it to a different website.</p><p style='text-decoration: underline;'>Contact Info of the Researcher: </p><p>If you have questions about this study, or if you would like to talk to the research team, please contact David Melcher (david.melcher@nyu.edu, md5050@nyu.edu) at the Perception and Active Cognition Laboratory, New York University Abu Dhabi, Computational Research Building, Saadiyat Island, Abu Dhabi, UAE.This research has been reviewed by the New York University Abu Dhabi Institutional Review Board (NYUAD IRB). To contact about your rights in this research, for questions, suggestions, or complaints that are not addressed by the researchers, please email IRBnyuad@nyu.edu, or call the NYUAD IRB at +971 2 628 4313. </p></div>","0","","","","","","","","","","","","","","","","","","","","","","","","","","","","",""
"fullscreen","2","11795","0.0-2.0","609d22a7186f9da021fb4a70","636d03e66a32c7f65a0397df","636d05d08e9d1bb13d34acaf","","","","true","","","","","","","","","","","","","","","","","","","","","","","","","","","",""
"html-keyboard-response","3","30992","0.0-3.0","609d22a7186f9da021fb4a70","636d03e66a32c7f65a0397df","636d05d08e9d1bb13d34acaf","19195.30000001192","<p>Welcome !</p><p>READ CAREFULLY THE FOLLOWING INDICATIONS:</p><p>From this moment you have ~40 minutes to complete the experiment.</p><p>During the experiment you will be prompted to take several breaks. Each break should not last longer than 2-3 minutes.</p><p>Make sure that your computer is plugged in and it's not running on battery power, even if the battery is already fully charged.</p><p>Turn off your phone and music, make sure that you are in a quiet room and that you will not be distracted for the next hour.</p><p>Failure to comply with the instructions and indications provided during the experiment will most likely result in the rejection of your data.<p>Press the spacebar to start.</p>","","","32","","","","","","","","","","","","","","","","","","","","","","","","","","",""
"survey-html-form","4","37597","0.0-4.0","609d22a7186f9da021fb4a70","636d03e66a32c7f65a0397df","636d05d08e9d1bb13d34acaf","6601.5999999940395","","","","","{""age"":""38"",""sex"":""F""}","true","","","","","","","","","","","","","","","","","","","","","","","","",""
"instructions","5","72102","0.0-5.0","609d22a7186f9da021fb4a70","636d03e66a32c7f65a0397df","636d05d08e9d1bb13d34acaf","34502.09999999404","","","","","","","[{""page_index"":0,""viewing_time"":21419.19999998808},{""page_index"":1,""viewing_time"":9230.699999988079},{""page_index"":2,""viewing_time"":3851.300000011921}]","","","","","","","","","","","","","","","","","","","","","","","",""
"psychophysics","6","74448","0.0-6.0-0.0","609d22a7186f9da021fb4a70","636d03e66a32c7f65a0397df","636d05d08e9d1bb13d34acaf","1312.2000000178814","","","","37","","","","key","16.88250359712234","683","312.5","true","-1","180","30","0","-1","","","","","","","","","","","","","",""
"psychophysics","7","75455","0.0-6.0-0.1","609d22a7186f9da021fb4a70","636d03e66a32c7f65a0397df","636d05d08e9d1bb13d34acaf","2.7000000178813934","","","","37","","","","key","16.63783050847454","683","312.5","true","-1","180","30","0","-1","-1","","","","","","","","","","","","",""
"psychophysics","8","78026","0.0-6.0-0.2","609d22a7186f9da021fb4a70","636d03e66a32c7f65a0397df","636d05d08e9d1bb13d34acaf","1556.1000000238419","","","","37","","","","key","16.63976623376617","683","312.5","true","-1","150","30","0","-1","-1","","","","","","","","","","","","",""
"psychophysics","9","79692","0.0-6.0-0.3","609d22a7186f9da021fb4a70","636d03e66a32c7f65a0397df","636d05d08e9d1bb13d34acaf","662.9000000059605","","","","37","","","","key","16.639555555555617","683","312.5","true","-1","150","30","0","-1","-1","","","","","","","","","","","","",""
"psychophysics","10","81708","0.0-6.0-0.4","609d22a7186f9da021fb4a70","636d03e66a32c7f65a0397df","636d05d08e9d1bb13d34acaf","1004.5999999940395","","","","37","","","","key","16.64007500000007","683","312.5","true","1","129","24","1","1","-1","","","","","","","","","","","","",""
"psychophysics","11","83376","0.0-6.0-0.5","609d22a7186f9da021fb4a70","636d03e66a32c7f65a0397df","636d05d08e9d1bb13d34acaf","659.5999999940395","","","","37","","","","key","16.638313131313126","683","312.5","true","-1","153","24","1","-1","1","","","","","","","","","","","","",""
"psychophysics","12","84839","0.0-6.0-0.6","609d22a7186f9da021fb4a70","636d03e66a32c7f65a0397df","636d05d08e9d1bb13d34acaf","457.40000000596046","","","","37","","","","key","17.03100000000011","683","312.5","true","-1","153","19.2","2","-1","-1","","","","","","","","","","","","",""
"psychophysics","13","87409","0.0-6.0-0.7","609d22a7186f9da021fb4a70","636d03e66a32c7f65a0397df","636d05d08e9d1bb13d34acaf","1562.5","","","","37","","","","key","16.640509803921518","683","312.5","true","1","133.8","15.36","3","1","-1","","","","","","","","","","","","",""
"psychophysics","14","88892","0.0-6.0-0.8","609d22a7186f9da021fb4a70","636d03e66a32c7f65a0397df","636d05d08e9d1bb13d34acaf","478.80000001192093","","","","39","","","","key","16.630235955056182","683","312.5","true","1","149.16000000000003","15.36","3","-1","1","","","","","","","","","","","","",""
"psychophysics","15","95732","0.0-6.0-0.9","609d22a7186f9da021fb4a70","636d03e66a32c7f65a0397df","636d05d08e9d1bb13d34acaf","5830.5","","","","37","","","","key","16.641385365853644","683","312.5","true","-1","149.16000000000003","12.287999999999998","4","-1","-1","","","","","","","","","","","","",""
"psychophysics","16","96857","0.0-6.0-0.10","609d22a7186f9da021fb4a70","636d03e66a32c7f65a0397df","636d05d08e9d1bb13d34acaf","112.09999999403954","","","","39","","","","key","16.63880303030314","683","312.5","true","1","136.872","12.287999999999998","4","-1","-1","","","","","","","","","","","","",""
"psychophysics","17","97959","0.0-6.0-0.11","609d22a7186f9da021fb4a70","636d03e66a32c7f65a0397df","636d05d08e9d1bb13d34acaf","90.09999999403954","","","","39","","","","key","16.898312499999975","683","312.5","true","1","136.872","12.287999999999998","4","-1","-1","","","","","","","","","","","","",""
"psychophysics","18","102472","0.0-6.0-0.12","609d22a7186f9da021fb4a70","636d03e66a32c7f65a0397df","636d05d08e9d1bb13d34acaf","3507.300000011921","","","","37","","","","key","16.64184132841333","683","312.5","true","1","129","9.8304","5","1","-1","","","","","","","","","","","","",""
"psychophysics","19","103633","0.0-6.0-0.13","609d22a7186f9da021fb4a70","636d03e66a32c7f65a0397df","636d05d08e9d1bb13d34acaf","155.09999999403954","","","","39","","","","key","16.640102941176497","683","312.5","true","1","138.8304","9.8304","5","-1","1","","","","","","","","","","","","",""
"psychophysics","20","106078","0.0-6.0-0.14","609d22a7186f9da021fb4a70","636d03e66a32c7f65a0397df","636d05d08e9d1bb13d34acaf","1441.2000000178814","","","","37","","","","key","16.63789041095889","683","312.5","true","1","138.8304","7.864319999999999","6","1","-1","","","","","","","","","","","","",""
"psychophysics","21","107105","0.0-6.0-0.15","609d22a7186f9da021fb4a70","636d03e66a32c7f65a0397df","636d05d08e9d1bb13d34acaf","20.30000001192093","","","","37","","","","key","16.639377049180453","683","312.5","true","-1","146.69472","7.864319999999999","6","-1","1","","","","","","","","","","","","",""
"psychophysics","22","109916","0.0-6.0-0.16","609d22a7186f9da021fb4a70","636d03e66a32c7f65a0397df","636d05d08e9d1bb13d34acaf","1807.699999988079","","","","39","","","","key","16.637333333333334","683","312.5","true","-1","146.69472","6.291456","7","1","-1","","","","","","","","","","","","",""
"psychophysics","23","111205","0.0-6.0-0.17","609d22a7186f9da021fb4a70","636d03e66a32c7f65a0397df","636d05d08e9d1bb13d34acaf","284.90000000596046","","","","39","","","","key","16.639065789473726","683","312.5","true","1","152.986176","6.291456","7","-1","1","","","","","","","","","","","","",""
"psychophysics","24","114645","0.0-6.0-0.18","609d22a7186f9da021fb4a70","636d03e66a32c7f65a0397df","636d05d08e9d1bb13d34acaf","2431.300000011921","","","","37","","","","key","16.720263414634122","683","312.5","true","-1","152.986176","5.033164800000001","8","-1","-1","","","","","","","","","","","","",""
"psychophysics","25","115720","0.0-6.0-0.19","609d22a7186f9da021fb4a70","636d03e66a32c7f65a0397df","636d05d08e9d1bb13d34acaf","69.69999998807907","","","","37","","","","key","16.638593749999927","683","312.5","true","-1","147.9530112","5.033164800000001","8","-1","-1","","","","","","","","","","","","",""
"psychophysics","26","120281","0.0-6.0-0.20","609d22a7186f9da021fb4a70","636d03e66a32c7f65a0397df","636d05d08e9d1bb13d34acaf","3555.699999988079","","","","37","","","","key","16.641175824175814","683","312.5","true","-1","147.9530112","5.033164800000001","8","-1","-1","","","","","","","","","","","","",""
"psychophysics","27","121743","0.0-6.0-0.21","609d22a7186f9da021fb4a70","636d03e66a32c7f65a0397df","636d05d08e9d1bb13d34acaf","457.5","","","","39","","","","key","16.63954022988505","683","312.5","true","1","142.91984639999998","5.033164800000001","8","-1","-1","","","","","","","","","","","","",""
"psychophysics","28","123458","0.0-6.0-0.22","609d22a7186f9da021fb4a70","636d03e66a32c7f65a0397df","636d05d08e9d1bb13d34acaf","708.4000000059605","","","","37","","","","key","16.63973529411776","683","312.5","true","-1","142.91984639999998","5.033164800000001","8","-1","-1","","","","","","","","","","","","",""
"psychophysics","29","124857","0.0-6.0-0.23","609d22a7186f9da021fb4a70","636d03e66a32c7f65a0397df","636d05d08e9d1bb13d34acaf","396.2000000178814","","","","39","","","","key","16.63806097560989","683","312.5","true","1","137.88668159999997","5.033164800000001","8","-1","-1","","","","","","","","","","","","",""
"psychophysics","30","126288","0.0-6.0-0.24","609d22a7186f9da021fb4a70","636d03e66a32c7f65a0397df","636d05d08e9d1bb13d34acaf","426","","","","37","","","","key","16.64469411764705","683","312.5","true","-1","137.88668159999997","5.033164800000001","8","-1","-1","","","","","","","","","","","","",""
"psychophysics","31","127755","0.0-6.0-0.25","609d22a7186f9da021fb4a70","636d03e66a32c7f65a0397df","636d05d08e9d1bb13d34acaf","460.69999998807907","","","","39","","","","key","17.033705882353004","683","312.5","true","1","132.85351679999997","5.033164800000001","8","-1","-1","","","","","","","","","","","","",""
"psychophysics","32","130434","0.0-6.0-0.26","609d22a7186f9da021fb4a70","636d03e66a32c7f65a0397df","636d05d08e9d1bb13d34acaf","1668.0999999940395","","","","39","","","","key","16.641925465838547","683","312.5","true","1","132.85351679999997","5.033164800000001","8","-1","-1","","","","","","","","","","","","",""
"psychophysics","33","133103","0.0-6.0-0.27","609d22a7186f9da021fb4a70","636d03e66a32c7f65a0397df","636d05d08e9d1bb13d34acaf","1656.3999999761581","","","","37","","","","key","16.632735849056488","683","312.5","true","1","129","4.0265318400000005","9","1","-1","","","","","","","","","","","","",""
"psychophysics","34","135050","0.0-6.0-0.28","609d22a7186f9da021fb4a70","636d03e66a32c7f65a0397df","636d05d08e9d1bb13d34acaf","930.5","","","","39","","","","key","16.633732758620745","683","312.5","true","-1","133.02653184","4.0265318400000005","9","1","1","","","","","","","","","","","","",""
"psychophysics","35","136958","0.0-6.0-0.29","609d22a7186f9da021fb4a70","636d03e66a32c7f65a0397df","636d05d08e9d1bb13d34acaf","895.5999999940395","","","","39","","","","key","16.623499999999982","683","312.5","true","-1","137.05306367999998","4.0265318400000005","9","1","1","","","","","","","","","","","","",""
"psychophysics","36","138972","0.0-6.0-0.30","609d22a7186f9da021fb4a70","636d03e66a32c7f65a0397df","636d05d08e9d1bb13d34acaf","1007.0999999940395","","","","39","","","","key","17.060777777777815","683","312.5","true","1","141.07959551999997","4.0265318400000005","9","-1","1","","","","","","","","","","","","",""
"psychophysics","37","140317","0.0-6.0-0.31","609d22a7186f9da021fb4a70","636d03e66a32c7f65a0397df","636d05d08e9d1bb13d34acaf","335","","","","37","","","","key","16.63356249999997","683","312.5","true","-1","141.07959551999997","3.2212254720000004","10","-1","-1","","","","","","","","","","","","",""
"psychophysics","38","141549","0.0-6.0-0.32","609d22a7186f9da021fb4a70","636d03e66a32c7f65a0397df","636d05d08e9d1bb13d34acaf","218.59999999403954","","","","39","","","","key","16.635739726027193","683","312.5","true","1","137.85837004799998","3.2212254720000004","10","-1","-1","","","","","","","","","","","","",""
"psychophysics","39","142903","0.0-6.0-0.33","609d22a7186f9da021fb4a70","636d03e66a32c7f65a0397df","636d05d08e9d1bb13d34acaf","346.2000000178814","","","","37","","","","key","16.64197499999973","683","312.5","true","-1","137.85837004799998","3.2212254720000004","10","-1","-1","","","","","","","","","","","","",""
"psychophysics","40","144412","0.0-6.0-0.34","609d22a7186f9da021fb4a70","636d03e66a32c7f65a0397df","636d05d08e9d1bb13d34acaf","502.30000001192093","","","","39","","","","key","16.640711111110996","683","312.5","true","1","134.63714457599997","3.2212254720000004","10","-1","-1","","","","","","","","","","","","",""
"psychophysics","41","145861","0.0-6.0-0.35","609d22a7186f9da021fb4a70","636d03e66a32c7f65a0397df","636d05d08e9d1bb13d34acaf","441.09999999403954","","","","37","","","","key","16.643186046511442","683","312.5","true","-1","134.63714457599997","3.2212254720000004","10","-1","-1","","","","","","","","","","","","",""
"psychophysics","42","147841","0.0-6.0-0.36","609d22a7186f9da021fb4a70","636d03e66a32c7f65a0397df","636d05d08e9d1bb13d34acaf","973.0999999940395","","","","39","","","","key","16.637627118643987","683","312.5","true","1","131.41591910399995","3.2212254720000004","10","-1","-1","","","","","","","","","","","","",""
"psychophysics","43","150439","0.0-6.0-0.37","609d22a7186f9da021fb4a70","636d03e66a32c7f65a0397df","636d05d08e9d1bb13d34acaf","1592.9000000059605","","","","39","","","","key","16.748759740259796","683","312.5","true","1","131.41591910399995","3.2212254720000004","10","-1","-1","","","","","","","","","","","","",""
"psychophysics","44","152130","0.0-6.0-0.38","609d22a7186f9da021fb4a70","636d03e66a32c7f65a0397df","636d05d08e9d1bb13d34acaf","685.4000000059605","","","","39","","","","key","16.635719999999857","683","312.5","true","1","129","3.2212254720000004","10","-1","-1","","","","","","","","","","","","",""
"psychophysics","45","153921","0.0-6.0-0.39","609d22a7186f9da021fb4a70","636d03e66a32c7f65a0397df","636d05d08e9d1bb13d34acaf","787.2000000178814","","","","39","","","","key","16.643000000000065","683","312.5","true","-1","129","2.5769803776000004","11","1","-1","","","","","","","","","","","","",""
"html-keyboard-response","46","161896","0.0-7.0","609d22a7186f9da021fb4a70","636d03e66a32c7f65a0397df","636d05d08e9d1bb13d34acaf","7970.9000000059605","<p>Well Done !</p><p>Prepare for a new block.</p><p>DON'T EXIT THE FULL SCREEN MODE</p><p>Press the Spacebar to start.</p>","","","32","","","","","","","","","","","","","","","true","134.18457917439997","","","","","","","","","","",""
"psychophysics","47","162967","0.0-8.0-0.0","609d22a7186f9da021fb4a70","636d03e66a32c7f65a0397df","636d05d08e9d1bb13d34acaf","57.5","","","","37","","","","key","16.716874999999618","683","312.5","true","-1","180","30","0","-1","","","","","","","","","","","","","",""
"psychophysics","48","165475","0.0-8.0-0.1","609d22a7186f9da021fb4a70","636d03e66a32c7f65a0397df","636d05d08e9d1bb13d34acaf","1501","","","","37","","","","key","16.640610738255038","683","312.5","true","1","180","30","0","1","-1","","","","","","","","","","","","",""
"psychophysics","49","166503","0.0-8.0-0.2","609d22a7186f9da021fb4a70","636d03e66a32c7f65a0397df","636d05d08e9d1bb13d34acaf","18","","","","39","","","","key","16.63868852459003","683","312.5","true","1","210","30","0","-1","1","","","","","","","","","","","","",""
"psychophysics","50","168366","0.0-8.0-0.3","609d22a7186f9da021fb4a70","636d03e66a32c7f65a0397df","636d05d08e9d1bb13d34acaf","855.9000000059605","","","","39","","","","key","16.639711711711726","683","312.5","true","1","210","24","1","-1","-1","","","","","","","","","","","","",""
"psychophysics","51","169829","0.0-8.0-0.4","609d22a7186f9da021fb4a70","636d03e66a32c7f65a0397df","636d05d08e9d1bb13d34acaf","461.19999998807907","","","","37","","","","key","16.63225287356315","683","312.5","true","-1","186","24","1","-1","-1","","","","","","","","","","","","",""
"psychophysics","52","171408","0.0-8.0-0.5","609d22a7186f9da021fb4a70","636d03e66a32c7f65a0397df","636d05d08e9d1bb13d34acaf","576.3000000119209","","","","39","","","","key","16.63552127659576","683","312.5","true","1","186","24","1","-1","-1","","","","","","","","","","","","",""
"psychophysics","53","172885","0.0-8.0-0.6","609d22a7186f9da021fb4a70","636d03e66a32c7f65a0397df","636d05d08e9d1bb13d34acaf","472.19999998807907","","","","39","","","","key","16.63945977011496","683","312.5","true","1","162","24","1","-1","-1","","","","","","","","","","","","",""
"psychophysics","54","174366","0.0-8.0-0.7","609d22a7186f9da021fb4a70","636d03e66a32c7f65a0397df","636d05d08e9d1bb13d34acaf","471.40000000596046","","","","37","","","","key","16.64189887640434","683","312.5","true","-1","162","24","1","-1","-1","","","","","","","","","","","","",""
"psychophysics","55","175802","0.0-8.0-0.8","609d22a7186f9da021fb4a70","636d03e66a32c7f65a0397df","636d05d08e9d1bb13d34acaf","428.19999998807907","","","","39","","","","key","16.63929411764736","683","312.5","true","1","138","24","1","-1","-1","","","","","","","","","","","","",""
"psychophysics","56","177233","0.0-8.0-0.9","609d22a7186f9da021fb4a70","636d03e66a32c7f65a0397df","636d05d08e9d1bb13d34acaf","427.40000000596046","","","","37","","","","key","16.63894117647056","683","312.5","true","-1","138","24","1","-1","-1","","","","","","","","","","","","",""
"psychophysics","57","178876","0.0-8.0-0.10","609d22a7186f9da021fb4a70","636d03e66a32c7f65a0397df","636d05d08e9d1bb13d34acaf","638.3000000119209","","","","37","","","","key","16.638163265306204","683","312.5","true","1","129","19.2","2","1","-1","","","","","","","","","","","","",""
"psychophysics","58","180596","0.0-8.0-0.11","609d22a7186f9da021fb4a70","636d03e66a32c7f65a0397df","636d05d08e9d1bb13d34acaf","711.5999999940395","","","","37","","","","key","16.639843137254857","683","312.5","true","-1","148.2","19.2","2","-1","1","","","","","","","","","","","","",""
"psychophysics","59","182275","0.0-8.0-0.12","609d22a7186f9da021fb4a70","636d03e66a32c7f65a0397df","636d05d08e9d1bb13d34acaf","676.3000000119209","","","","39","","","","key","16.6375","683","312.5","true","1","148.2","15.36","3","-1","-1","","","","","","","","","","","","",""
"psychophysics","60","183967","0.0-8.0-0.13","609d22a7186f9da021fb4a70","636d03e66a32c7f65a0397df","636d05d08e9d1bb13d34acaf","687.3000000119209","","","","39","","","","key","16.633227722772332","683","312.5","true","1","132.83999999999997","15.36","3","-1","-1","","","","","","","","","","","","",""
"psychophysics","61","186149","0.0-8.0-0.14","609d22a7186f9da021fb4a70","636d03e66a32c7f65a0397df","636d05d08e9d1bb13d34acaf","1175.300000011921","","","","39","","","","key","16.640323076923064","683","312.5","true","-1","132.83999999999997","12.287999999999998","4","1","-1","","","","","","","","","","","","",""
"psychophysics","62","187947","0.0-8.0-0.15","609d22a7186f9da021fb4a70","636d03e66a32c7f65a0397df","636d05d08e9d1bb13d34acaf","790.5","","","","37","","","","key","16.797584905660326","683","312.5","true","-1","145.128","12.287999999999998","4","-1","1","","","","","","","","","","","","",""
"psychophysics","63","189513","0.0-8.0-0.16","609d22a7186f9da021fb4a70","636d03e66a32c7f65a0397df","636d05d08e9d1bb13d34acaf","559","","","","37","","","","key","16.641032258064612","683","312.5","true","-1","145.128","9.8304","5","-1","-1","","","","","","","","","","","","",""
"psychophysics","64","191185","0.0-8.0-0.17","609d22a7186f9da021fb4a70","636d03e66a32c7f65a0397df","636d05d08e9d1bb13d34acaf","666.6999999880791","","","","39","","","","key","16.637020202020224","683","312.5","true","1","135.2976","9.8304","5","-1","-1","","","","","","","","","","","","",""
"psychophysics","65","193203","0.0-8.0-0.18","609d22a7186f9da021fb4a70","636d03e66a32c7f65a0397df","636d05d08e9d1bb13d34acaf","1014.5","","","","39","","","","key","16.641388429752126","683","312.5","true","1","135.2976","9.8304","5","-1","-1","","","","","","","","","","","","",""
"psychophysics","66","195653","0.0-8.0-0.19","609d22a7186f9da021fb4a70","636d03e66a32c7f65a0397df","636d05d08e9d1bb13d34acaf","1439.5999999940395","","","","39","","","","key","16.640253424657626","683","312.5","true","-1","129","7.864319999999999","6","1","-1","","","","","","","","","","","","",""
"psychophysics","67","197852","0.0-8.0-0.20","609d22a7186f9da021fb4a70","636d03e66a32c7f65a0397df","636d05d08e9d1bb13d34acaf","1192.7999999821186","","","","39","","","","key","16.64153435114502","683","312.5","true","-1","136.86432","7.864319999999999","6","1","1","","","","","","","","","","","","",""
"psychophysics","68","199382","0.0-8.0-0.21","609d22a7186f9da021fb4a70","636d03e66a32c7f65a0397df","636d05d08e9d1bb13d34acaf","521.9000000059605","","","","37","","","","key","16.64085555555551","683","312.5","true","-1","144.72863999999998","7.864319999999999","6","-1","1","","","","","","","","","","","","",""
"psychophysics","69","200891","0.0-8.0-0.22","609d22a7186f9da021fb4a70","636d03e66a32c7f65a0397df","636d05d08e9d1bb13d34acaf","499.5","","","","37","","","","key","16.641000000000027","683","312.5","true","-1","144.72863999999998","6.291456","7","-1","-1","","","","","","","","","","","","",""
"psychophysics","70","202494","0.0-8.0-0.23","609d22a7186f9da021fb4a70","636d03e66a32c7f65a0397df","636d05d08e9d1bb13d34acaf","587.2999999821186","","","","39","","","","key","16.641864583333092","683","312.5","true","1","138.43718399999997","6.291456","7","-1","-1","","","","","","","","","","","","",""
"psychophysics","71","204290","0.0-8.0-0.24","609d22a7186f9da021fb4a70","636d03e66a32c7f65a0397df","636d05d08e9d1bb13d34acaf","787.1999999880791","","","","37","","","","key","16.641149532710305","683","312.5","true","-1","138.43718399999997","6.291456","7","-1","-1","","","","","","","","","","","","",""
"psychophysics","72","206349","0.0-8.0-0.25","609d22a7186f9da021fb4a70","636d03e66a32c7f65a0397df","636d05d08e9d1bb13d34acaf","1056.2000000178814","","","","39","","","","key","16.640860655737686","683","312.5","true","1","132.14572799999996","6.291456","7","-1","-1","","","","","","","","","","","","",""
"psychophysics","73","207997","0.0-8.0-0.26","609d22a7186f9da021fb4a70","636d03e66a32c7f65a0397df","636d05d08e9d1bb13d34acaf","641.0999999940395","","","","37","","","","key","16.634333333333323","683","312.5","true","-1","132.14572799999996","6.291456","7","-1","-1","","","","","","","","","","","","",""
"psychophysics","74","209776","0.0-8.0-0.27","609d22a7186f9da021fb4a70","636d03e66a32c7f65a0397df","636d05d08e9d1bb13d34acaf","772.0999999940395","","","","39","","","","key","16.63950476190491","683","312.5","true","-1","129","5.033164800000001","8","1","-1","","","","","","","","","","","","",""
"psychophysics","75","211558","0.0-8.0-0.28","609d22a7186f9da021fb4a70","636d03e66a32c7f65a0397df","636d05d08e9d1bb13d34acaf","777.5","","","","37","","","","key","16.639811320754784","683","312.5","true","-1","134.0331648","5.033164800000001","8","-1","1","","","","","","","","","","","","",""
"psychophysics","76","213247","0.0-8.0-0.29","609d22a7186f9da021fb4a70","636d03e66a32c7f65a0397df","636d05d08e9d1bb13d34acaf","681.9000000059605","","","","37","","","","key","16.641801980197876","683","312.5","true","-1","134.0331648","4.0265318400000005","9","-1","-1","","","","","","","","","","","","",""
"psychophysics","77","215692","0.0-8.0-0.30","609d22a7186f9da021fb4a70","636d03e66a32c7f65a0397df","636d05d08e9d1bb13d34acaf","1441.5","","","","37","","","","key","16.749924137931043","683","312.5","true","1","130.00663296000002","3.2212254720000004","10","1","-1","","","","","","","","","","","","",""
"psychophysics","78","217438","0.0-8.0-0.31","609d22a7186f9da021fb4a70","636d03e66a32c7f65a0397df","636d05d08e9d1bb13d34acaf","741.4000000059605","","","","37","","","","key","16.6321346153846","683","312.5","true","1","133.227858432","3.2212254720000004","10","1","1","","","","","","","","","","","","",""
"psychophysics","79","219228","0.0-8.0-0.32","609d22a7186f9da021fb4a70","636d03e66a32c7f65a0397df","636d05d08e9d1bb13d34acaf","783.6999999880791","","","","39","","","","key","16.63898113207537","683","312.5","true","1","136.44908390400002","3.2212254720000004","10","-1","1","","","","","","","","","","","","",""
"psychophysics","80","220845","0.0-8.0-0.33","609d22a7186f9da021fb4a70","636d03e66a32c7f65a0397df","636d05d08e9d1bb13d34acaf","608.5999999940395","","","","39","","","","key","16.639711340206446","683","312.5","true","1","136.44908390400002","2.5769803776000004","11","-1","-1","","","","","","","","","","","","",""
"psychophysics","81","222599","0.0-8.0-0.34","609d22a7186f9da021fb4a70","636d03e66a32c7f65a0397df","636d05d08e9d1bb13d34acaf","746","","","","39","","","","key","16.639701923077016","683","312.5","true","1","133.87210352640002","2.5769803776000004","11","-1","-1","","","","","","","","","","","","",""
"psychophysics","82","224532","0.0-8.0-0.35","609d22a7186f9da021fb4a70","636d03e66a32c7f65a0397df","636d05d08e9d1bb13d34acaf","929.2000000178814","","","","39","","","","key","16.641286956521924","683","312.5","true","1","133.87210352640002","2.5769803776000004","11","-1","-1","","","","","","","","","","","","",""
"psychophysics","83","227006","0.0-8.0-0.36","609d22a7186f9da021fb4a70","636d03e66a32c7f65a0397df","636d05d08e9d1bb13d34acaf","1470","","","","37","","","","key","16.636121621621676","683","312.5","true","-1","131.29512314880003","2.5769803776000004","11","-1","-1","","","","","","","","","","","","",""
"psychophysics","84","228822","0.0-8.0-0.37","609d22a7186f9da021fb4a70","636d03e66a32c7f65a0397df","636d05d08e9d1bb13d34acaf","808.8000000119209","","","","37","","","","key","16.795242990654074","683","312.5","true","-1","131.29512314880003","2.5769803776000004","11","-1","-1","","","","","","","","","","","","",""
"psychophysics","85","230702","0.0-8.0-0.38","609d22a7186f9da021fb4a70","636d03e66a32c7f65a0397df","636d05d08e9d1bb13d34acaf","875.8000000119209","","","","37","","","","key","16.630508928571412","683","312.5","true","-1","129","2.5769803776000004","11","-1","-1","","","","","","","","","","","","",""
"psychophysics","86","232275","0.0-8.0-0.39","609d22a7186f9da021fb4a70","636d03e66a32c7f65a0397df","636d05d08e9d1bb13d34acaf","567.4000000059605","","","","37","","","","key","16.642483870967627","683","312.5","true","1","129","2.0615843020800004","12","1","-1","","","","","","","","","","","","",""
"html-keyboard-response","87","238951","0.0-9.0","609d22a7186f9da021fb4a70","636d03e66a32c7f65a0397df","636d05d08e9d1bb13d34acaf","6681.0999999940395","<p>Well Done !</p><p>Prepare for a new block.</p><p>DON'T EXIT THE FULL SCREEN MODE</p><p>Press the Spacebar to start.</p>","","","32","","","","","","","","","","","","","","","true","132.38832654336","","","","","","","","","","",""
"psychophysics","88","240397","0.0-10.0-0.0","609d22a7186f9da021fb4a70","636d03e66a32c7f65a0397df","636d05d08e9d1bb13d34acaf","433.7000000178814","","","","39","","","","key","16.721674418604803","683","312.5","true","1","180","30","0","-1","","","","","","","","","","","","","",""
"psychophysics","89","241821","0.0-10.0-0.1","609d22a7186f9da021fb4a70","636d03e66a32c7f65a0397df","636d05d08e9d1bb13d34acaf","420.59999999403954","","","","39","","","","key","16.630270588235","683","312.5","true","1","180","30","0","-1","-1","","","","","","","","","","","","",""
"psychophysics","90","243209","0.0-10.0-0.2","609d22a7186f9da021fb4a70","636d03e66a32c7f65a0397df","636d05d08e9d1bb13d34acaf","381","","","","39","","","","key","16.640963414633895","683","312.5","true","1","150","30","0","-1","-1","","","","","","","","","","","","",""
"psychophysics","91","244881","0.0-10.0-0.3","609d22a7186f9da021fb4a70","636d03e66a32c7f65a0397df","636d05d08e9d1bb13d34acaf","668.4000000059605","","","","39","","","","key","16.630262626262706","683","312.5","true","1","150","30","0","-1","-1","","","","","","","","","","","","",""
"psychophysics","92","246962","0.0-10.0-0.4","609d22a7186f9da021fb4a70","636d03e66a32c7f65a0397df","636d05d08e9d1bb13d34acaf","1069.199999988079","","","","39","","","","key","16.634314516129024","683","312.5","true","-1","129","24","1","1","-1","","","","","","","","","","","","",""
"psychophysics","93","248666","0.0-10.0-0.5","609d22a7186f9da021fb4a70","636d03e66a32c7f65a0397df","636d05d08e9d1bb13d34acaf","694.9000000059605","","","","37","","","","key","16.641882352941263","683","312.5","true","-1","153","24","1","-1","1","","","","","","","","","","","","",""
"psychophysics","94","250321","0.0-10.0-0.6","609d22a7186f9da021fb4a70","636d03e66a32c7f65a0397df","636d05d08e9d1bb13d34acaf","650","","","","39","","","","key","16.63968367346952","683","312.5","true","1","153","19.2","2","-1","-1","","","","","","","","","","","","",""
"psychophysics","95","253420","0.0-10.0-0.7","609d22a7186f9da021fb4a70","636d03e66a32c7f65a0397df","636d05d08e9d1bb13d34acaf","2088.9000000059605","","","","37","","","","key","16.63858064516136","683","312.5","true","-1","133.8","19.2","2","-1","-1","","","","","","","","","","","","",""
"psychophysics","96","255375","0.0-10.0-0.8","609d22a7186f9da021fb4a70","636d03e66a32c7f65a0397df","636d05d08e9d1bb13d34acaf","947.7999999821186","","","","39","","","","key","16.640750000000168","683","312.5","true","1","133.8","19.2","2","-1","-1","","","","","","","","","","","","",""
"psychophysics","97","257354","0.0-10.0-0.9","609d22a7186f9da021fb4a70","636d03e66a32c7f65a0397df","636d05d08e9d1bb13d34acaf","974.1999999880791","","","","37","","","","key","16.634144067796594","683","312.5","true","1","129","15.36","3","1","-1","","","","","","","","","","","","",""
"psychophysics","98","259292","0.0-10.0-0.10","609d22a7186f9da021fb4a70","636d03e66a32c7f65a0397df","636d05d08e9d1bb13d34acaf","933.5","","","","37","","","","key","16.63386086956522","683","312.5","true","-1","144.36","15.36","3","-1","1","","","","","","","","","","","","",""
"psychophysics","99","261383","0.0-10.0-0.11","609d22a7186f9da021fb4a70","636d03e66a32c7f65a0397df","636d05d08e9d1bb13d34acaf","1083.5","","","","37","","","","key","16.637976000000258","683","312.5","true","-1","144.36","12.287999999999998","4","-1","-1","","","","","","","","","","","","",""
"psychophysics","100","263595","0.0-10.0-0.12","609d22a7186f9da021fb4a70","636d03e66a32c7f65a0397df","636d05d08e9d1bb13d34acaf","1209.0999999940395","","","","39","","","","key","16.638037878787586","683","312.5","true","-1","132.072","9.8304","5","1","-1","","","","","","","","","","","","",""
"psychophysics","101","265487","0.0-10.0-0.13","609d22a7186f9da021fb4a70","636d03e66a32c7f65a0397df","636d05d08e9d1bb13d34acaf","888.5","","","","37","","","","key","16.634920353982164","683","312.5","true","-1","141.9024","9.8304","5","-1","1","","","","","","","","","","","","",""
"psychophysics","102","267469","0.0-10.0-0.14","609d22a7186f9da021fb4a70","636d03e66a32c7f65a0397df","636d05d08e9d1bb13d34acaf","977.1999999880791","","","","37","","","","key","16.639830508474578","683","312.5","true","-1","141.9024","7.864319999999999","6","-1","-1","","","","","","","","","","","","",""
"psychophysics","103","269722","0.0-10.0-0.15","609d22a7186f9da021fb4a70","636d03e66a32c7f65a0397df","636d05d08e9d1bb13d34acaf","1247.2999999821186","","","","37","","","","key","16.765248120300686","683","312.5","true","1","134.03808","6.291456","7","1","-1","","","","","","","","","","","","",""
"psychophysics","104","271413","0.0-10.0-0.16","609d22a7186f9da021fb4a70","636d03e66a32c7f65a0397df","636d05d08e9d1bb13d34acaf","687.1999999880791","","","","37","","","","key","16.64074257425768","683","312.5","true","-1","140.32953600000002","6.291456","7","-1","1","","","","","","","","","","","","",""
"psychophysics","105","273507","0.0-10.0-0.17","609d22a7186f9da021fb4a70","636d03e66a32c7f65a0397df","636d05d08e9d1bb13d34acaf","1087.699999988079","","","","37","","","","key","16.641552000000143","683","312.5","true","1","140.32953600000002","5.033164800000001","8","1","-1","","","","","","","","","","","","",""
"psychophysics","106","275499","0.0-10.0-0.18","609d22a7186f9da021fb4a70","636d03e66a32c7f65a0397df","636d05d08e9d1bb13d34acaf","982.7000000178814","","","","37","","","","key","16.64116949152539","683","312.5","true","-1","145.36270080000003","5.033164800000001","8","-1","1","","","","","","","","","","","","",""
"psychophysics","107","277454","0.0-10.0-0.19","609d22a7186f9da021fb4a70","636d03e66a32c7f65a0397df","636d05d08e9d1bb13d34acaf","947.0999999940395","","","","39","","","","key","16.641358974358887","683","312.5","true","1","145.36270080000003","4.0265318400000005","9","-1","-1","","","","","","","","","","","","",""
"psychophysics","108","279623","0.0-10.0-0.20","609d22a7186f9da021fb4a70","636d03e66a32c7f65a0397df","636d05d08e9d1bb13d34acaf","1164","","","","39","","","","key","16.641302325581417","683","312.5","true","-1","141.33616896000004","3.2212254720000004","10","1","-1","","","","","","","","","","","","",""
"psychophysics","109","281580","0.0-10.0-0.21","609d22a7186f9da021fb4a70","636d03e66a32c7f65a0397df","636d05d08e9d1bb13d34acaf","955.0999999940395","","","","37","","","","key","16.642444444444173","683","312.5","true","1","144.55739443200002","3.2212254720000004","10","1","1","","","","","","","","","","","","",""
"psychophysics","110","283311","0.0-10.0-0.22","609d22a7186f9da021fb4a70","636d03e66a32c7f65a0397df","636d05d08e9d1bb13d34acaf","723.4000000059605","","","","37","","","","key","16.63180582524273","683","312.5","true","-1","147.77861990400004","3.2212254720000004","10","-1","1","","","","","","","","","","","","",""
"psychophysics","111","285166","0.0-10.0-0.23","609d22a7186f9da021fb4a70","636d03e66a32c7f65a0397df","636d05d08e9d1bb13d34acaf","851","","","","39","","","","key","16.636909090909068","683","312.5","true","1","147.77861990400004","2.5769803776000004","11","-1","-1","","","","","","","","","","","","",""
"psychophysics","112","286877","0.0-10.0-0.24","609d22a7186f9da021fb4a70","636d03e66a32c7f65a0397df","636d05d08e9d1bb13d34acaf","708.2999999821186","","","","37","","","","key","16.63331372549018","683","312.5","true","-1","145.20163952640004","2.5769803776000004","11","-1","-1","","","","","","","","","","","","",""
"psychophysics","113","288691","0.0-10.0-0.25","609d22a7186f9da021fb4a70","636d03e66a32c7f65a0397df","636d05d08e9d1bb13d34acaf","810.0999999940395","","","","39","","","","key","16.63412037037024","683","312.5","true","1","145.20163952640004","2.5769803776000004","11","-1","-1","","","","","","","","","","","","",""
"psychophysics","114","290599","0.0-10.0-0.26","609d22a7186f9da021fb4a70","636d03e66a32c7f65a0397df","636d05d08e9d1bb13d34acaf","904.7999999821186","","","","39","","","","key","16.640017543859646","683","312.5","true","1","142.62465914880005","2.5769803776000004","11","-1","-1","","","","","","","","","","","","",""
"psychophysics","115","292344","0.0-10.0-0.27","609d22a7186f9da021fb4a70","636d03e66a32c7f65a0397df","636d05d08e9d1bb13d34acaf","740.5999999940395","","","","37","","","","key","16.639774509803757","683","312.5","true","-1","142.62465914880005","2.5769803776000004","11","-1","-1","","","","","","","","","","","","",""
"psychophysics","116","293973","0.0-10.0-0.28","609d22a7186f9da021fb4a70","636d03e66a32c7f65a0397df","636d05d08e9d1bb13d34acaf","617.5999999940395","","","","37","","","","key","16.64187628866027","683","312.5","true","-1","140.04767877120005","2.5769803776000004","11","-1","-1","","","","","","","","","","","","",""
"psychophysics","117","295790","0.0-10.0-0.29","609d22a7186f9da021fb4a70","636d03e66a32c7f65a0397df","636d05d08e9d1bb13d34acaf","811.1999999880791","","","","37","","","","key","16.64127522935811","683","312.5","true","-1","140.04767877120005","2.5769803776000004","11","-1","-1","","","","","","","","","","","","",""
"psychophysics","118","297580","0.0-10.0-0.30","609d22a7186f9da021fb4a70","636d03e66a32c7f65a0397df","636d05d08e9d1bb13d34acaf","785.6999999880791","","","","39","","","","key","16.640235849056516","683","312.5","true","1","137.47069839360006","2.5769803776000004","11","-1","-1","","","","","","","","","","","","",""
"psychophysics","119","299241","0.0-10.0-0.31","609d22a7186f9da021fb4a70","636d03e66a32c7f65a0397df","636d05d08e9d1bb13d34acaf","645.7999999821186","","","","39","","","","key","16.640653061224338","683","312.5","true","1","137.47069839360006","2.5769803776000004","11","-1","-1","","","","","","","","","","","","",""
"psychophysics","120","300930","0.0-10.0-0.32","609d22a7186f9da021fb4a70","636d03e66a32c7f65a0397df","636d05d08e9d1bb13d34acaf","684.7999999821186","","","","39","","","","key","16.637148514851617","683","312.5","true","1","134.89371801600007","2.5769803776000004","11","-1","-1","","","","","","","","","","","","",""
"psychophysics","121","302522","0.0-10.0-0.33","609d22a7186f9da021fb4a70","636d03e66a32c7f65a0397df","636d05d08e9d1bb13d34acaf","588","","","","37","","","","key","16.640936170212992","683","312.5","true","-1","134.89371801600007","2.5769803776000004","11","-1","-1","","","","","","","","","","","","",""
"psychophysics","122","304858","0.0-10.0-0.34","609d22a7186f9da021fb4a70","636d03e66a32c7f65a0397df","636d05d08e9d1bb13d34acaf","1332.5999999940395","","","","39","","","","key","16.74915107913699","683","312.5","true","-1","132.31673763840007","2.0615843020800004","12","1","-1","","","","","","","","","","","","",""
"psychophysics","123","306669","0.0-10.0-0.35","609d22a7186f9da021fb4a70","636d03e66a32c7f65a0397df","636d05d08e9d1bb13d34acaf","802.0999999940395","","","","39","","","","key","16.635805555555162","683","312.5","true","1","134.37832194048008","2.0615843020800004","12","-1","1","","","","","","","","","","","","",""
"psychophysics","124","308502","0.0-10.0-0.36","609d22a7186f9da021fb4a70","636d03e66a32c7f65a0397df","636d05d08e9d1bb13d34acaf","824.6999999880791","","","","39","","","","key","16.641000000000055","683","312.5","true","-1","134.37832194048008","1.6492674416640005","13","1","-1","","","","","","","","","","","","",""
"psychophysics","125","310113","0.0-10.0-0.37","609d22a7186f9da021fb4a70","636d03e66a32c7f65a0397df","636d05d08e9d1bb13d34acaf","604.5999999940395","","","","39","","","","key","16.64123958333342","683","312.5","true","1","136.02758938214407","1.6492674416640005","13","-1","1","","","","","","","","","","","","",""
"psychophysics","126","312081","0.0-10.0-0.38","609d22a7186f9da021fb4a70","636d03e66a32c7f65a0397df","636d05d08e9d1bb13d34acaf","963.2000000178814","","","","39","","","","key","16.64138461538475","683","312.5","true","1","136.02758938214407","1.3194139533312006","14","-1","-1","","","","","","","","","","","","",""
"psychophysics","127","314132","0.0-10.0-0.39","609d22a7186f9da021fb4a70","636d03e66a32c7f65a0397df","636d05d08e9d1bb13d34acaf","1045.9000000059605","","","","39","","","","key","16.778793388429726","683","312.5","true","-1","134.70817542881286","1.0555311626649604","15","1","-1","","","","","","","","","","","","",""
"html-keyboard-response","128","332979","0.0-11.0","609d22a7186f9da021fb4a70","636d03e66a32c7f65a0397df","636d05d08e9d1bb13d34acaf","18844.59999999404","<p>Well Done !</p><p>Prepare for a new block.</p><p>DON'T EXIT THE FULL SCREEN MODE</p><p>Press the Spacebar to start.</p>","","","32","","","","","","","","","","","","","","","true","137.54079225987076","","","","","","","","","","",""
"psychophysics","129","334052","0.0-12.0-0.0","609d22a7186f9da021fb4a70","636d03e66a32c7f65a0397df","636d05d08e9d1bb13d34acaf","63","","","","37","","","","key","16.719890625000517","683","312.5","true","-1","180","30","0","-1","","","","","","","","","","","","","",""
"psychophysics","130","335668","0.0-12.0-0.1","609d22a7186f9da021fb4a70","636d03e66a32c7f65a0397df","636d05d08e9d1bb13d34acaf","613.8000000119209","","","","39","","","","key","16.640822916666366","683","312.5","true","1","180","30","0","-1","-1","","","","","","","","","","","","",""
"psychophysics","131","337359","0.0-12.0-0.2","609d22a7186f9da021fb4a70","636d03e66a32c7f65a0397df","636d05d08e9d1bb13d34acaf","687.5999999940395","","","","37","","","","key","16.63998019802015","683","312.5","true","-1","150","30","0","-1","-1","","","","","","","","","","","","",""
"psychophysics","132","338941","0.0-12.0-0.3","609d22a7186f9da021fb4a70","636d03e66a32c7f65a0397df","636d05d08e9d1bb13d34acaf","572.9000000059605","","","","39","","","","key","16.641255319148843","683","312.5","true","1","150","30","0","-1","-1","","","","","","","","","","","","",""
"psychophysics","133","341207","0.0-12.0-0.4","609d22a7186f9da021fb4a70","636d03e66a32c7f65a0397df","636d05d08e9d1bb13d34acaf","1260.800000011921","","","","39","","","","key","16.641199999999824","683","312.5","true","1","129","30","0","-1","-1","","","","","","","","","","","","",""
"psychophysics","134","343047","0.0-12.0-0.5","609d22a7186f9da021fb4a70","636d03e66a32c7f65a0397df","636d05d08e9d1bb13d34acaf","834.4000000059605","","","","39","","","","key","16.633727272726933","683","312.5","true","-1","129","24","1","1","-1","","","","","","","","","","","","",""
"psychophysics","135","344637","0.0-12.0-0.6","609d22a7186f9da021fb4a70","636d03e66a32c7f65a0397df","636d05d08e9d1bb13d34acaf","583.9000000059605","","","","37","","","","key","16.641297872340495","683","312.5","true","-1","153","24","1","-1","1","","","","","","","","","","","","",""
"psychophysics","136","346433","0.0-12.0-0.7","609d22a7186f9da021fb4a70","636d03e66a32c7f65a0397df","636d05d08e9d1bb13d34acaf","791.8000000119209","","","","37","","","","key","16.63943925233684","683","312.5","true","-1","153","19.2","2","-1","-1","","","","","","","","","","","","",""
"psychophysics","137","348211","0.0-12.0-0.8","609d22a7186f9da021fb4a70","636d03e66a32c7f65a0397df","636d05d08e9d1bb13d34acaf","772.8000000119209","","","","37","","","","key","16.63644339622631","683","312.5","true","1","133.8","15.36","3","1","-1","","","","","","","","","","","","",""
"psychophysics","138","349747","0.0-12.0-0.9","609d22a7186f9da021fb4a70","636d03e66a32c7f65a0397df","636d05d08e9d1bb13d34acaf","533.2000000178814","","","","39","","","","key","16.64108791208831","683","312.5","true","1","149.16000000000003","15.36","3","-1","1","","","","","","","","","","","","",""
"psychophysics","139","351452","0.0-12.0-0.10","609d22a7186f9da021fb4a70","636d03e66a32c7f65a0397df","636d05d08e9d1bb13d34acaf","694.6000000238419","","","","37","","","","key","16.639950980392385","683","312.5","true","-1","149.16000000000003","12.287999999999998","4","-1","-1","","","","","","","","","","","","",""
"psychophysics","140","353219","0.0-12.0-0.11","609d22a7186f9da021fb4a70","636d03e66a32c7f65a0397df","636d05d08e9d1bb13d34acaf","754","","","","37","","","","key","16.800471153846257","683","312.5","true","-1","136.872","12.287999999999998","4","-1","-1","","","","","","","","","","","","",""
"psychophysics","141","354953","0.0-12.0-0.12","609d22a7186f9da021fb4a70","636d03e66a32c7f65a0397df","636d05d08e9d1bb13d34acaf","731.5999999940395","","","","37","","","","key","16.628786407767127","683","312.5","true","-1","136.872","12.287999999999998","4","-1","-1","","","","","","","","","","","","",""
"psychophysics","142","357031","0.0-12.0-0.13","609d22a7186f9da021fb4a70","636d03e66a32c7f65a0397df","636d05d08e9d1bb13d34acaf","1070.8999999761581","","","","37","","","","key","16.637217741935597","683","312.5","true","1","129","9.8304","5","1","-1","","","","","","","","","","","","",""
"psychophysics","143","358927","0.0-12.0-0.14","609d22a7186f9da021fb4a70","636d03e66a32c7f65a0397df","636d05d08e9d1bb13d34acaf","890.1000000238419","","","","37","","","","key","16.639938053097556","683","312.5","true","-1","138.8304","9.8304","5","-1","1","","","","","","","","","","","","",""
"psychophysics","144","360613","0.0-12.0-0.15","609d22a7186f9da021fb4a70","636d03e66a32c7f65a0397df","636d05d08e9d1bb13d34acaf","680.4000000059605","","","","37","","","","key","16.63976000000024","683","312.5","true","-1","138.8304","7.864319999999999","6","-1","-1","","","","","","","","","","","","",""
"psychophysics","145","362788","0.0-12.0-0.16","609d22a7186f9da021fb4a70","636d03e66a32c7f65a0397df","636d05d08e9d1bb13d34acaf","1171.4000000059605","","","","37","","","","key","16.639276923076697","683","312.5","true","1","130.96608","6.291456","7","1","-1","","","","","","","","","","","","",""
"psychophysics","146","364712","0.0-12.0-0.17","609d22a7186f9da021fb4a70","636d03e66a32c7f65a0397df","636d05d08e9d1bb13d34acaf","918","","","","39","","","","key","16.637561403508524","683","312.5","true","1","137.25753600000002","6.291456","7","-1","1","","","","","","","","","","","","",""
"psychophysics","147","366582","0.0-12.0-0.18","609d22a7186f9da021fb4a70","636d03e66a32c7f65a0397df","636d05d08e9d1bb13d34acaf","865.3000000119209","","","","37","","","","key","16.637696428571612","683","312.5","true","1","137.25753600000002","5.033164800000001","8","1","-1","","","","","","","","","","","","",""
"psychophysics","148","368560","0.0-12.0-0.19","609d22a7186f9da021fb4a70","636d03e66a32c7f65a0397df","636d05d08e9d1bb13d34acaf","972","","","","37","","","","key","16.640084745762454","683","312.5","true","-1","142.29070080000002","5.033164800000001","8","-1","1","","","","","","","","","","","","",""
"psychophysics","149","370624","0.0-12.0-0.20","609d22a7186f9da021fb4a70","636d03e66a32c7f65a0397df","636d05d08e9d1bb13d34acaf","1059","","","","37","","","","key","16.64026016260145","683","312.5","true","-1","142.29070080000002","4.0265318400000005","9","-1","-1","","","","","","","","","","","","",""
"psychophysics","150","372488","0.0-12.0-0.21","609d22a7186f9da021fb4a70","636d03e66a32c7f65a0397df","636d05d08e9d1bb13d34acaf","859.5","","","","39","","","","key","16.64018018018016","683","312.5","true","1","138.26416896000003","4.0265318400000005","9","-1","-1","","","","","","","","","","","","",""
"psychophysics","151","374882","0.0-12.0-0.22","609d22a7186f9da021fb4a70","636d03e66a32c7f65a0397df","636d05d08e9d1bb13d34acaf","1388.800000011921","","","","37","","","","key","16.761338028168915","683","312.5","true","-1","138.26416896000003","4.0265318400000005","9","-1","-1","","","","","","","","","","","","",""
"psychophysics","152","376973","0.0-12.0-0.23","609d22a7186f9da021fb4a70","636d03e66a32c7f65a0397df","636d05d08e9d1bb13d34acaf","1087.7999999821186","","","","37","","","","key","16.641790322580604","683","312.5","true","-1","134.23763712000004","4.0265318400000005","9","-1","-1","","","","","","","","","","","","",""
"psychophysics","153","378810","0.0-12.0-0.24","609d22a7186f9da021fb4a70","636d03e66a32c7f65a0397df","636d05d08e9d1bb13d34acaf","825.9000000059605","","","","39","","","","key","16.64067889908286","683","312.5","true","1","134.23763712000004","4.0265318400000005","9","-1","-1","","","","","","","","","","","","",""
"psychophysics","154","380865","0.0-12.0-0.25","609d22a7186f9da021fb4a70","636d03e66a32c7f65a0397df","636d05d08e9d1bb13d34acaf","1039.9000000059605","","","","37","","","","key","16.642032520324975","683","312.5","true","-1","130.21110528000006","4.0265318400000005","9","-1","-1","","","","","","","","","","","","",""
"psychophysics","155","382692","0.0-12.0-0.26","609d22a7186f9da021fb4a70","636d03e66a32c7f65a0397df","636d05d08e9d1bb13d34acaf","825","","","","37","","","","key","16.63825688073401","683","312.5","true","1","130.21110528000006","3.2212254720000004","10","1","-1","","","","","","","","","","","","",""
"psychophysics","156","384437","0.0-12.0-0.27","609d22a7186f9da021fb4a70","636d03e66a32c7f65a0397df","636d05d08e9d1bb13d34acaf","739.8000000119209","","","","39","","","","key","16.639990384615466","683","312.5","true","1","133.43233075200004","3.2212254720000004","10","-1","1","","","","","","","","","","","","",""
"psychophysics","157","385919","0.0-12.0-0.28","609d22a7186f9da021fb4a70","636d03e66a32c7f65a0397df","636d05d08e9d1bb13d34acaf","474.7000000178814","","","","39","","","","key","16.6407272727275","683","312.5","true","1","133.43233075200004","2.5769803776000004","11","-1","-1","","","","","","","","","","","","",""
"psychophysics","158","388148","0.0-12.0-0.29","609d22a7186f9da021fb4a70","636d03e66a32c7f65a0397df","636d05d08e9d1bb13d34acaf","1223.800000011921","","","","39","","","","key","16.768816793893325","683","312.5","true","-1","130.85535037440005","2.0615843020800004","12","1","-1","","","","","","","","","","","","",""
"psychophysics","159","390362","0.0-12.0-0.30","609d22a7186f9da021fb4a70","636d03e66a32c7f65a0397df","636d05d08e9d1bb13d34acaf","1197.699999988079","","","","39","","","","key","16.617150375939893","683","312.5","true","-1","132.91693467648005","2.0615843020800004","12","1","1","","","","","","","","","","","","",""
"psychophysics","160","392424","0.0-12.0-0.31","609d22a7186f9da021fb4a70","636d03e66a32c7f65a0397df","636d05d08e9d1bb13d34acaf","1059.2999999821186","","","","39","","","","key","16.63947967479689","683","312.5","true","1","134.97851897856006","2.0615843020800004","12","-1","1","","","","","","","","","","","","",""
"psychophysics","161","394270","0.0-12.0-0.32","609d22a7186f9da021fb4a70","636d03e66a32c7f65a0397df","636d05d08e9d1bb13d34acaf","840.7999999821186","","","","39","","","","key","16.639800000000236","683","312.5","true","1","134.97851897856006","1.6492674416640005","13","-1","-1","","","","","","","","","","","","",""
"psychophysics","162","396436","0.0-12.0-0.33","609d22a7186f9da021fb4a70","636d03e66a32c7f65a0397df","636d05d08e9d1bb13d34acaf","1159.0999999940395","","","","39","","","","key","16.64416279069774","683","312.5","true","1","133.32925153689607","1.6492674416640005","13","-1","-1","","","","","","","","","","","","",""
"psychophysics","163","398919","0.0-12.0-0.34","609d22a7186f9da021fb4a70","636d03e66a32c7f65a0397df","636d05d08e9d1bb13d34acaf","1475.0999999940395","","","","37","","","","key","16.63966216216205","683","312.5","true","-1","133.32925153689607","1.6492674416640005","13","-1","-1","","","","","","","","","","","","",""
"psychophysics","164","402115","0.0-12.0-0.35","609d22a7186f9da021fb4a70","636d03e66a32c7f65a0397df","636d05d08e9d1bb13d34acaf","2191.399999976158","","","","37","","","","key","16.6408376963352","683","312.5","true","-1","131.67998409523207","1.6492674416640005","13","-1","-1","","","","","","","","","","","","",""
"psychophysics","165","405326","0.0-12.0-0.36","609d22a7186f9da021fb4a70","636d03e66a32c7f65a0397df","636d05d08e9d1bb13d34acaf","2206.5999999940395","","","","39","","","","key","16.639187500000236","683","312.5","true","1","131.67998409523207","1.6492674416640005","13","-1","-1","","","","","","","","","","","","",""
"psychophysics","166","407235","0.0-12.0-0.37","609d22a7186f9da021fb4a70","636d03e66a32c7f65a0397df","636d05d08e9d1bb13d34acaf","904","","","","39","","","","key","16.64470175438634","683","312.5","true","1","130.03071665356808","1.6492674416640005","13","-1","-1","","","","","","","","","","","","",""
"psychophysics","167","408954","0.0-12.0-0.38","609d22a7186f9da021fb4a70","636d03e66a32c7f65a0397df","636d05d08e9d1bb13d34acaf","709.1999999880791","","","","39","","","","key","16.637774509804064","683","312.5","true","-1","130.03071665356808","1.3194139533312006","14","1","-1","","","","","","","","","","","","",""
"psychophysics","168","411179","0.0-12.0-0.39","609d22a7186f9da021fb4a70","636d03e66a32c7f65a0397df","636d05d08e9d1bb13d34acaf","1220.2999999821186","","","","39","","","","key","16.615249999999914","683","312.5","true","1","131.35013060689928","1.3194139533312006","14","-1","1","","","","","","","","","","","","",""
"html-keyboard-response","169","412999","0.0-13.0","609d22a7186f9da021fb4a70","636d03e66a32c7f65a0397df","636d05d08e9d1bb13d34acaf","1818","<p>Well Done !</p><p>Prepare for a new block.</p><p>DON'T EXIT THE FULL SCREEN MODE</p><p>Press the Spacebar to start.</p>","","","32","","","","","","","","","","","","","","","true","132.16308201668613","","","","","","","","","","",""
"html-keyboard-response","170","413108","0.0-14.0","609d22a7186f9da021fb4a70","636d03e66a32c7f65a0397df","636d05d08e9d1bb13d34acaf","null","","","","null","","","","","","","","","","","","","","","","","134.06919499857923","true","140.13838999715847","","","","","","","",""
"instructions","171","432577","0.0-15.0","609d22a7186f9da021fb4a70","636d03e66a32c7f65a0397df","636d05d08e9d1bb13d34acaf","19464.59999999404","","","","","","","[{""page_index"":0,""viewing_time"":13532.40000000596},{""page_index"":1,""viewing_time"":2702},{""page_index"":2,""viewing_time"":3229}]","","","","","","","","","","","","","","","","","","","","","","","",""
"psychophysics","172","435605","0.0-16.0-0.0","609d22a7186f9da021fb4a70","636d03e66a32c7f65a0397df","636d05d08e9d1bb13d34acaf","null","","","","null","","","","key","16.59246666666683","683","312.5","","","","","","","","","","","","","","","","","","","",""
"psychophysics","173","436109","0.0-16.0-1.0","609d22a7186f9da021fb4a70","636d03e66a32c7f65a0397df","636d05d08e9d1bb13d34acaf","null","","","","null","","","","key","16.650966666666015","683","312.5","","","","","","","","","","","","","140","1","0","false","","","",""
"psychophysics","174","437991","0.0-16.0-2.0","609d22a7186f9da021fb4a70","636d03e66a32c7f65a0397df","636d05d08e9d1bb13d34acaf","1877.800000011921","","","","90","","","","key","16.64167857142872","683","312.5","","","","","","","","","","","","","","","","","","","",""
"psychophysics","175","438997","0.0-16.0-0.1","609d22a7186f9da021fb4a70","636d03e66a32c7f65a0397df","636d05d08e9d1bb13d34acaf","null","","","","null","","","","key","16.64406779661017","683","312.5","","","","","","","","","","","","","","","","","","","",""
"psychophysics","176","439503","0.0-16.0-1.1","609d22a7186f9da021fb4a70","636d03e66a32c7f65a0397df","636d05d08e9d1bb13d34acaf","null","","","","null","","","","key","16.64073333333363","683","312.5","","","","","","","","","","","","","140","1","3","false","","","",""
"psychophysics","177","439975","0.0-16.0-2.1","609d22a7186f9da021fb4a70","636d03e66a32c7f65a0397df","636d05d08e9d1bb13d34acaf","469","","","","90","","","","key","16.64403703703795","683","312.5","","","","","","","","","","","","","","","","","","","",""
"psychophysics","178","440983","0.0-16.0-0.2","609d22a7186f9da021fb4a70","636d03e66a32c7f65a0397df","636d05d08e9d1bb13d34acaf","null","","","","null","","","","key","16.64541666666628","683","312.5","","","","","","","","","","","","","","","","","","","",""
"psychophysics","179","441494","0.0-16.0-1.2","609d22a7186f9da021fb4a70","636d03e66a32c7f65a0397df","636d05d08e9d1bb13d34acaf","null","","","","null","","","","key","16.648275862068566","683","312.5","","","","","","","","","","","","","140","1","4","false","","","",""
"psychophysics","180","441607","0.0-16.0-2.2","609d22a7186f9da021fb4a70","636d03e66a32c7f65a0397df","636d05d08e9d1bb13d34acaf","108","","","","77","","","","key","16.642166666667134","683","312.5","","","","","","","","","","","","","","","","","","","",""
"psychophysics","181","442611","0.0-16.0-0.3","609d22a7186f9da021fb4a70","636d03e66a32c7f65a0397df","636d05d08e9d1bb13d34acaf","null","","","","null","","","","key","16.633372881356035","683","312.5","","","","","","","","","","","","","","","","","","","",""
"psychophysics","182","443117","0.0-16.0-1.3","609d22a7186f9da021fb4a70","636d03e66a32c7f65a0397df","636d05d08e9d1bb13d34acaf","null","","","","null","","","","key","16.640666666667677","683","312.5","","","","","","","","","","","","","140","1","2","false","","","",""
"psychophysics","183","443633","0.0-16.0-2.3","609d22a7186f9da021fb4a70","636d03e66a32c7f65a0397df","636d05d08e9d1bb13d34acaf","512.5","","","","90","","","","key","16.64439999999983","683","312.5","","","","","","","","","","","","","","","","","","","",""
"psychophysics","184","444636","0.0-16.0-0.4","609d22a7186f9da021fb4a70","636d03e66a32c7f65a0397df","636d05d08e9d1bb13d34acaf","null","","","","null","","","","key","16.641474576271335","683","312.5","","","","","","","","","","","","","","","","","","","",""
"psychophysics","185","445140","0.0-16.0-1.4","609d22a7186f9da021fb4a70","636d03e66a32c7f65a0397df","636d05d08e9d1bb13d34acaf","null","","","","null","","","","key","16.641482758620786","683","312.5","","","","","","","","","","","","","140","-1","5","false","","","",""
"psychophysics","186","445478","0.0-16.0-2.4","609d22a7186f9da021fb4a70","636d03e66a32c7f65a0397df","636d05d08e9d1bb13d34acaf","331.2000000178814","","","","77","","","","key","16.643700000000536","683","312.5","","","","","","","","","","","","","","","","","","","",""
"psychophysics","187","446486","0.0-16.0-0.5","609d22a7186f9da021fb4a70","636d03e66a32c7f65a0397df","636d05d08e9d1bb13d34acaf","null","","","","null","","","","key","17.226508771929186","683","312.5","","","","","","","","","","","","","","","","","","","",""
"psychophysics","188","446998","0.0-16.0-1.5","609d22a7186f9da021fb4a70","636d03e66a32c7f65a0397df","636d05d08e9d1bb13d34acaf","null","","","","null","","","","key","16.643266666666992","683","312.5","","","","","","","","","","","","","140","1","6","false","","","",""
"psychophysics","189","447198","0.0-16.0-2.5","609d22a7186f9da021fb4a70","636d03e66a32c7f65a0397df","636d05d08e9d1bb13d34acaf","197","","","","77","","","","key","16.638272727273446","683","312.5","","","","","","","","","","","","","","","","","","","",""
"psychophysics","190","448201","0.0-16.0-0.6","609d22a7186f9da021fb4a70","636d03e66a32c7f65a0397df","636d05d08e9d1bb13d34acaf","null","","","","null","","","","key","16.640288135593252","683","312.5","","","","","","","","","","","","","","","","","","","",""
"psychophysics","191","448708","0.0-16.0-1.6","609d22a7186f9da021fb4a70","636d03e66a32c7f65a0397df","636d05d08e9d1bb13d34acaf","null","","","","null","","","","key","16.644566666666652","683","312.5","","","","","","","","","","","","","140","-1","3","false","","","",""
"psychophysics","192","449537","0.0-16.0-2.6","609d22a7186f9da021fb4a70","636d03e66a32c7f65a0397df","636d05d08e9d1bb13d34acaf","826.5","","","","77","","","","key","16.995808510638604","683","312.5","","","","","","","","","","","","","","","","","","","",""
"psychophysics","193","450541","0.0-16.0-0.7","609d22a7186f9da021fb4a70","636d03e66a32c7f65a0397df","636d05d08e9d1bb13d34acaf","null","","","","null","","","","key","16.64033333333403","683","312.5","","","","","","","","","","","","","","","","","","","",""
"psychophysics","194","451046","0.0-16.0-1.7","609d22a7186f9da021fb4a70","636d03e66a32c7f65a0397df","636d05d08e9d1bb13d34acaf","null","","","","null","","","","key","16.64203448275883","683","312.5","","","","","","","","","","","","","140","-1","6","false","","","",""
"psychophysics","195","451334","0.0-16.0-2.7","609d22a7186f9da021fb4a70","636d03e66a32c7f65a0397df","636d05d08e9d1bb13d34acaf","276.90000000596046","","","","77","","","","key","16.65382352941464","683","312.5","","","","","","","","","","","","","","","","","","","",""
"psychophysics","196","452341","0.0-16.0-0.8","609d22a7186f9da021fb4a70","636d03e66a32c7f65a0397df","636d05d08e9d1bb13d34acaf","null","","","","null","","","","key","16.644338983050904","683","312.5","","","","","","","","","","","","","","","","","","","",""
"psychophysics","197","452848","0.0-16.0-1.8","609d22a7186f9da021fb4a70","636d03e66a32c7f65a0397df","636d05d08e9d1bb13d34acaf","null","","","","null","","","","key","16.64169999999964","683","312.5","","","","","","","","","","","","","140","1","5","false","","","",""
"psychophysics","198","453032","0.0-16.0-2.8","609d22a7186f9da021fb4a70","636d03e66a32c7f65a0397df","636d05d08e9d1bb13d34acaf","181","","","","77","","","","key","16.641444444442943","683","312.5","","","","","","","","","","","","","","","","","","","",""
"psychophysics","199","454038","0.0-16.0-0.9","609d22a7186f9da021fb4a70","636d03e66a32c7f65a0397df","636d05d08e9d1bb13d34acaf","null","","","","null","","","","key","16.922508474576517","683","312.5","","","","","","","","","","","","","","","","","","","",""
"psychophysics","200","454544","0.0-16.0-1.9","609d22a7186f9da021fb4a70","636d03e66a32c7f65a0397df","636d05d08e9d1bb13d34acaf","null","","","","null","","","","key","16.641517241381045","683","312.5","","","","","","","","","","","","","140","-1","4","false","","","",""
"psychophysics","201","454768","0.0-16.0-2.9","609d22a7186f9da021fb4a70","636d03e66a32c7f65a0397df","636d05d08e9d1bb13d34acaf","219.2000000178814","","","","77","","","","key","16.642000000001506","683","312.5","","","","","","","","","","","","","","","","","","","",""
"psychophysics","202","455773","0.0-16.0-0.10","609d22a7186f9da021fb4a70","636d03e66a32c7f65a0397df","636d05d08e9d1bb13d34acaf","null","","","","null","","","","key","16.637305084746174","683","312.5","","","","","","","","","","","","","","","","","","","",""
"psychophysics","203","456286","0.0-16.0-1.10","609d22a7186f9da021fb4a70","636d03e66a32c7f65a0397df","636d05d08e9d1bb13d34acaf","null","","","","null","","","","key","16.641433333333893","683","312.5","","","","","","","","","","","","","140","-1","2","false","","","",""
"psychophysics","204","456544","0.0-16.0-2.10","609d22a7186f9da021fb4a70","636d03e66a32c7f65a0397df","636d05d08e9d1bb13d34acaf","256.19999998807907","","","","90","","","","key","16.642000000000312","683","312.5","","","","","","","","","","","","","","","","","","","",""
"psychophysics","205","457549","0.0-16.0-0.11","609d22a7186f9da021fb4a70","636d03e66a32c7f65a0397df","636d05d08e9d1bb13d34acaf","null","","","","null","","","","key","16.641796610169152","683","312.5","","","","","","","","","","","","","","","","","","","",""
"psychophysics","206","458054","0.0-16.0-1.11","609d22a7186f9da021fb4a70","636d03e66a32c7f65a0397df","636d05d08e9d1bb13d34acaf","null","","","","null","","","","key","17.239714285714268","683","312.5","","","","","","","","","","","","","140","-1","0","false","","","",""
"psychophysics","207","458471","0.0-16.0-2.11","609d22a7186f9da021fb4a70","636d03e66a32c7f65a0397df","636d05d08e9d1bb13d34acaf","410.19999998807907","","","","90","","","","key","16.64341666666587","683","312.5","","","","","","","","","","","","","","","","","","","",""
"psychophysics","208","459478","0.0-16.0-0.12","609d22a7186f9da021fb4a70","636d03e66a32c7f65a0397df","636d05d08e9d1bb13d34acaf","null","","","","null","","","","key","16.639816666666107","683","312.5","","","","","","","","","","","","","","","","","","","",""
"psychophysics","209","459984","0.0-16.0-1.12","609d22a7186f9da021fb4a70","636d03e66a32c7f65a0397df","636d05d08e9d1bb13d34acaf","null","","","","null","","","","key","16.637999999999263","683","312.5","","","","","","","","","","","","","140","-1","4","false","","","",""
"psychophysics","210","460178","0.0-16.0-2.12","609d22a7186f9da021fb4a70","636d03e66a32c7f65a0397df","636d05d08e9d1bb13d34acaf","185.59999999403954","","","","77","","","","key","16.637909090908412","683","312.5","","","","","","","","","","","","","","","","","","","",""
"psychophysics","211","461181","0.0-16.0-0.13","609d22a7186f9da021fb4a70","636d03e66a32c7f65a0397df","636d05d08e9d1bb13d34acaf","null","","","","null","","","","key","16.641254237287686","683","312.5","","","","","","","","","","","","","","","","","","","",""
"psychophysics","212","461694","0.0-16.0-1.13","609d22a7186f9da021fb4a70","636d03e66a32c7f65a0397df","636d05d08e9d1bb13d34acaf","null","","","","null","","","","key","16.63550000000008","683","312.5","","","","","","","","","","","","","140","-1","3","false","","","",""
"psychophysics","213","461869","0.0-16.0-2.13","609d22a7186f9da021fb4a70","636d03e66a32c7f65a0397df","636d05d08e9d1bb13d34acaf","171.80000001192093","","","","77","","","","key","18.72175000000425","683","312.5","","","","","","","","","","","","","","","","","","","",""
"psychophysics","214","462878","0.0-16.0-0.14","609d22a7186f9da021fb4a70","636d03e66a32c7f65a0397df","636d05d08e9d1bb13d34acaf","null","","","","null","","","","key","16.64510000000009","683","312.5","","","","","","","","","","","","","","","","","","","",""
"psychophysics","215","463390","0.0-16.0-1.14","609d22a7186f9da021fb4a70","636d03e66a32c7f65a0397df","636d05d08e9d1bb13d34acaf","null","","","","null","","","","key","16.641300000000047","683","312.5","","","","","","","","","","","","","140","-1","2","false","","","",""
"psychophysics","216","463588","0.0-16.0-2.14","609d22a7186f9da021fb4a70","636d03e66a32c7f65a0397df","636d05d08e9d1bb13d34acaf","195.09999999403954","","","","77","","","","key","16.645090909092687","683","312.5","","","","","","","","","","","","","","","","","","","",""
"psychophysics","217","464594","0.0-16.0-0.15","609d22a7186f9da021fb4a70","636d03e66a32c7f65a0397df","636d05d08e9d1bb13d34acaf","null","","","","null","","","","key","16.646254237288396","683","312.5","","","","","","","","","","","","","","","","","","","",""
"psychophysics","218","465101","0.0-16.0-1.15","609d22a7186f9da021fb4a70","636d03e66a32c7f65a0397df","636d05d08e9d1bb13d34acaf","null","","","","null","","","","key","16.64173333333262","683","312.5","","","","","","","","","","","","","140","-1","0","false","","","",""
"psychophysics","219","466063","0.0-16.0-2.15","609d22a7186f9da021fb4a70","636d03e66a32c7f65a0397df","636d05d08e9d1bb13d34acaf","959.0999999940395","","","","77","","","","key","16.93623214285721","683","312.5","","","","","","","","","","","","","","","","","","","",""
"psychophysics","220","467070","0.0-16.0-0.16","609d22a7186f9da021fb4a70","636d03e66a32c7f65a0397df","636d05d08e9d1bb13d34acaf","null","","","","null","","","","key","16.92884482758557","683","312.5","","","","","","","","","","","","","","","","","","","",""
"psychophysics","221","467582","0.0-16.0-1.16","609d22a7186f9da021fb4a70","636d03e66a32c7f65a0397df","636d05d08e9d1bb13d34acaf","null","","","","null","","","","key","16.639199999999256","683","312.5","","","","","","","","","","","","","140","1","0","false","","","",""
"psychophysics","222","467969","0.0-16.0-2.16","609d22a7186f9da021fb4a70","636d03e66a32c7f65a0397df","636d05d08e9d1bb13d34acaf","384.90000000596046","","","","90","","","","key","16.642499999997778","683","312.5","","","","","","","","","","","","","","","","","","","",""
"psychophysics","223","468974","0.0-16.0-0.17","609d22a7186f9da021fb4a70","636d03e66a32c7f65a0397df","636d05d08e9d1bb13d34acaf","null","","","","null","","","","key","16.630999999999766","683","312.5","","","","","","","","","","","","","","","","","","","",""
"psychophysics","224","469477","0.0-16.0-1.17","609d22a7186f9da021fb4a70","636d03e66a32c7f65a0397df","636d05d08e9d1bb13d34acaf","null","","","","null","","","","key","16.64172413793256","683","312.5","","","","","","","","","","","","","140","-1","6","false","","","",""
"psychophysics","225","469730","0.0-16.0-2.17","609d22a7186f9da021fb4a70","636d03e66a32c7f65a0397df","636d05d08e9d1bb13d34acaf","250.80000001192093","","","","77","","","","key","16.66064285714362","683","312.5","","","","","","","","","","","","","","","","","","","",""
"psychophysics","226","470733","0.0-16.0-0.18","609d22a7186f9da021fb4a70","636d03e66a32c7f65a0397df","636d05d08e9d1bb13d34acaf","null","","","","null","","","","key","16.645491525424266","683","312.5","","","","","","","","","","","","","","","","","","","",""
"psychophysics","227","471245","0.0-16.0-1.18","609d22a7186f9da021fb4a70","636d03e66a32c7f65a0397df","636d05d08e9d1bb13d34acaf","null","","","","null","","","","key","17.21544827586281","683","312.5","","","","","","","","","","","","","140","-1","5","false","","","",""
"psychophysics","228","471661","0.0-16.0-2.18","609d22a7186f9da021fb4a70","636d03e66a32c7f65a0397df","636d05d08e9d1bb13d34acaf","413.7999999821186","","","","77","","","","key","16.65804166666688","683","312.5","","","","","","","","","","","","","","","","","","","",""
"psychophysics","229","472667","0.0-16.0-0.19","609d22a7186f9da021fb4a70","636d03e66a32c7f65a0397df","636d05d08e9d1bb13d34acaf","null","","","","null","","","","key","16.641983050847095","683","312.5","","","","","","","","","","","","","","","","","","","",""
"psychophysics","230","473173","0.0-16.0-1.19","609d22a7186f9da021fb4a70","636d03e66a32c7f65a0397df","636d05d08e9d1bb13d34acaf","null","","","","null","","","","key","16.642166666667134","683","312.5","","","","","","","","","","","","","140","1","5","false","","","",""
"psychophysics","231","473585","0.0-16.0-2.19","609d22a7186f9da021fb4a70","636d03e66a32c7f65a0397df","636d05d08e9d1bb13d34acaf","409.59999999403954","","","","77","","","","key","16.65329166666682","683","312.5","","","","","","","","","","","","","","","","","","","",""
"psychophysics","232","474589","0.0-16.0-0.20","609d22a7186f9da021fb4a70","636d03e66a32c7f65a0397df","636d05d08e9d1bb13d34acaf","null","","","","null","","","","key","16.64189830508529","683","312.5","","","","","","","","","","","","","","","","","","","",""
"psychophysics","233","475093","0.0-16.0-1.20","609d22a7186f9da021fb4a70","636d03e66a32c7f65a0397df","636d05d08e9d1bb13d34acaf","null","","","","null","","","","key","16.641379310346032","683","312.5","","","","","","","","","","","","","140","1","2","false","","","",""
"psychophysics","234","475340","0.0-16.0-2.20","609d22a7186f9da021fb4a70","636d03e66a32c7f65a0397df","636d05d08e9d1bb13d34acaf","239.2000000178814","","","","90","","","","key","16.64071428571645","683","312.5","","","","","","","","","","","","","","","","","","","",""
"psychophysics","235","476347","0.0-16.0-0.21","609d22a7186f9da021fb4a70","636d03e66a32c7f65a0397df","636d05d08e9d1bb13d34acaf","null","","","","null","","","","key","16.643416666666358","683","312.5","","","","","","","","","","","","","","","","","","","",""
"psychophysics","236","476853","0.0-16.0-1.21","609d22a7186f9da021fb4a70","636d03e66a32c7f65a0397df","636d05d08e9d1bb13d34acaf","null","","","","null","","","","key","16.64206896551708","683","312.5","","","","","","","","","","","","","140","1","4","false","","","",""
"psychophysics","237","477929","0.0-16.0-2.21","609d22a7186f9da021fb4a70","636d03e66a32c7f65a0397df","636d05d08e9d1bb13d34acaf","1073.699999988079","","","","77","","","","key","16.906015873015377","683","312.5","","","","","","","","","","","","","","","","","","","",""
"psychophysics","238","478933","0.0-16.0-0.22","609d22a7186f9da021fb4a70","636d03e66a32c7f65a0397df","636d05d08e9d1bb13d34acaf","null","","","","null","","","","key","16.64166101694928","683","312.5","","","","","","","","","","","","","","","","","","","",""
"psychophysics","239","479437","0.0-16.0-1.22","609d22a7186f9da021fb4a70","636d03e66a32c7f65a0397df","636d05d08e9d1bb13d34acaf","null","","","","null","","","","key","16.642103448275332","683","312.5","","","","","","","","","","","","","140","1","3","false","","","",""
"psychophysics","240","479822","0.0-16.0-2.22","609d22a7186f9da021fb4a70","636d03e66a32c7f65a0397df","636d05d08e9d1bb13d34acaf","380.40000000596046","","","","90","","","","key","16.64140909090797","683","312.5","","","","","","","","","","","","","","","","","","","",""
"psychophysics","241","480829","0.0-16.0-0.23","609d22a7186f9da021fb4a70","636d03e66a32c7f65a0397df","636d05d08e9d1bb13d34acaf","null","","","","null","","","","key","16.63979999999962","683","312.5","","","","","","","","","","","","","","","","","","","",""
"psychophysics","242","481333","0.0-16.0-1.23","609d22a7186f9da021fb4a70","636d03e66a32c7f65a0397df","636d05d08e9d1bb13d34acaf","null","","","","null","","","","key","16.644931034482052","683","312.5","","","","","","","","","","","","","140","1","6","false","","","",""
"psychophysics","243","481611","0.0-16.0-2.23","609d22a7186f9da021fb4a70","636d03e66a32c7f65a0397df","636d05d08e9d1bb13d34acaf","275.7999999821186","","","","77","","","","key","16.642687499999738","683","312.5","","","","","","","","","","","","","","","","","","","",""
"html-keyboard-response","244","491136","0.0-17.0","609d22a7186f9da021fb4a70","636d03e66a32c7f65a0397df","636d05d08e9d1bb13d34acaf","9521.300000011921","<p>Well Done !</p><p>Training Complete. Press the spacebar to start.</p><p>DON'T EXIT THE FULL SCREEN MODE</p>","","","32","","","","","","","","","","","","","","","","","","","","","","","","","","",""
"psychophysics","245","494149","0.0-18.0-0.0","609d22a7186f9da021fb4a70","636d03e66a32c7f65a0397df","636d05d08e9d1bb13d34acaf","null","","","","null","","","","key","16.590566666666806","683","312.5","","","","","","","","","","","","","","","","","","","",""
"psychophysics","246","494661","0.0-18.0-1.0","609d22a7186f9da021fb4a70","636d03e66a32c7f65a0397df","636d05d08e9d1bb13d34acaf","null","","","","null","","","","key","16.64163333333369","683","312.5","","","","","","","","","","","","","140","1","0","true","","","",""
"psychophysics","247","495372","0.0-18.0-2.0","609d22a7186f9da021fb4a70","636d03e66a32c7f65a0397df","636d05d08e9d1bb13d34acaf","708.8000000119209","","","","90","","","","key","16.64176190476116","683","312.5","","","","","","","","","","","","","","","","","","","",""
"psychophysics","248","496384","0.0-18.0-0.1","609d22a7186f9da021fb4a70","636d03e66a32c7f65a0397df","636d05d08e9d1bb13d34acaf","null","","","","null","","","","key","16.641783333334025","683","312.5","","","","","","","","","","","","","","","","","","","",""
"psychophysics","249","496893","0.0-18.0-1.1","609d22a7186f9da021fb4a70","636d03e66a32c7f65a0397df","636d05d08e9d1bb13d34acaf","null","","","","null","","","","key","16.64158620689554","683","312.5","","","","","","","","","","","","","140","-1","0","true","","","",""
"psychophysics","250","497100","0.0-18.0-2.1","609d22a7186f9da021fb4a70","636d03e66a32c7f65a0397df","636d05d08e9d1bb13d34acaf","205","","","","77","","","","key","16.639166666665307","683","312.5","","","","","","","","","","","","","","","","","","","",""
"psychophysics","251","498131","0.0-18.0-0.2","609d22a7186f9da021fb4a70","636d03e66a32c7f65a0397df","636d05d08e9d1bb13d34acaf","null","","","","null","","","","key","16.641819672131355","683","312.5","","","","","","","","","","","","","","","","","","","",""
"psychophysics","252","498637","0.0-18.0-1.2","609d22a7186f9da021fb4a70","636d03e66a32c7f65a0397df","636d05d08e9d1bb13d34acaf","null","","","","null","","","","key","16.64155172413729","683","312.5","","","","","","","","","","","","","140","1","2","true","","","",""
"psychophysics","253","499324","0.0-18.0-2.2","609d22a7186f9da021fb4a70","636d03e66a32c7f65a0397df","636d05d08e9d1bb13d34acaf","684.0999999940395","","","","77","","","","key","16.641899999999442","683","312.5","","","","","","","","","","","","","","","","","","","",""
"psychophysics","254","500329","0.0-18.0-0.3","609d22a7186f9da021fb4a70","636d03e66a32c7f65a0397df","636d05d08e9d1bb13d34acaf","null","","","","null","","","","key","16.644916666666784","683","312.5","","","","","","","","","","","","","","","","","","","",""
"psychophysics","255","500838","0.0-18.0-1.3","609d22a7186f9da021fb4a70","636d03e66a32c7f65a0397df","636d05d08e9d1bb13d34acaf","null","","","","null","","","","key","16.641862068965565","683","312.5","","","","","","","","","","","","","140","1","6","true","","","",""
"psychophysics","256","500847","0.0-18.0-2.3","609d22a7186f9da021fb4a70","636d03e66a32c7f65a0397df","636d05d08e9d1bb13d34acaf","0.5","","","","77","","","","key","NaN","683","312.5","","","","","","","","","","","","","","","","","","","",""
"psychophysics","257","501854","0.0-18.0-0.4","609d22a7186f9da021fb4a70","636d03e66a32c7f65a0397df","636d05d08e9d1bb13d34acaf","null","","","","null","","","","key","16.63980000000059","683","312.5","","","","","","","","","","","","","","","","","","","",""
"psychophysics","258","502365","0.0-18.0-1.4","609d22a7186f9da021fb4a70","636d03e66a32c7f65a0397df","636d05d08e9d1bb13d34acaf","null","","","","null","","","","key","17.214379310344974","683","312.5","","","","","","","","","","","","","140","-1","5","true","","","",""
"psychophysics","259","504165","0.0-18.0-2.4","609d22a7186f9da021fb4a70","636d03e66a32c7f65a0397df","636d05d08e9d1bb13d34acaf","1796.5999999940395","","","","77","","","","key","16.642626168224286","683","312.5","","","","","","","","","","","","","","","","","","","",""
"psychophysics","260","505168","0.0-18.0-0.5","609d22a7186f9da021fb4a70","636d03e66a32c7f65a0397df","636d05d08e9d1bb13d34acaf","null","","","","null","","","","key","16.636525423728695","683","312.5","","","","","","","","","","","","","","","","","","","",""
"psychophysics","261","505678","0.0-18.0-1.5","609d22a7186f9da021fb4a70","636d03e66a32c7f65a0397df","636d05d08e9d1bb13d34acaf","null","","","","null","","","","key","16.6516333333333","683","312.5","","","","","","","","","","","","","140","-1","6","true","","","",""
"psychophysics","262","505915","0.0-18.0-2.5","609d22a7186f9da021fb4a70","636d03e66a32c7f65a0397df","636d05d08e9d1bb13d34acaf","233.10000002384186","","","","77","","","","key","16.609692307695067","683","312.5","","","","","","","","","","","","","","","","","","","",""
"psychophysics","263","506918","0.0-18.0-0.6","609d22a7186f9da021fb4a70","636d03e66a32c7f65a0397df","636d05d08e9d1bb13d34acaf","null","","","","null","","","","key","16.64169999999964","683","312.5","","","","","","","","","","","","","","","","","","","",""
"psychophysics","264","507422","0.0-18.0-1.6","609d22a7186f9da021fb4a70","636d03e66a32c7f65a0397df","636d05d08e9d1bb13d34acaf","null","","","","null","","","","key","16.65337931034396","683","312.5","","","","","","","","","","","","","140","1","4","true","","","",""
"psychophysics","265","508503","0.0-18.0-2.6","609d22a7186f9da021fb4a70","636d03e66a32c7f65a0397df","636d05d08e9d1bb13d34acaf","1079","","","","77","","","","key","16.902523809523757","683","312.5","","","","","","","","","","","","","","","","","","","",""
"psychophysics","266","509509","0.0-18.0-0.7","609d22a7186f9da021fb4a70","636d03e66a32c7f65a0397df","636d05d08e9d1bb13d34acaf","null","","","","null","","","","key","16.638949152541947","683","312.5","","","","","","","","","","","","","","","","","","","",""
"psychophysics","267","510022","0.0-18.0-1.7","609d22a7186f9da021fb4a70","636d03e66a32c7f65a0397df","636d05d08e9d1bb13d34acaf","null","","","","null","","","","key","16.64293333333335","683","312.5","","","","","","","","","","","","","140","-1","2","true","","","",""
"psychophysics","268","510220","0.0-18.0-2.7","609d22a7186f9da021fb4a70","636d03e66a32c7f65a0397df","636d05d08e9d1bb13d34acaf","194.10000002384186","","","","90","","","","key","16.637090909093704","683","312.5","","","","","","","","","","","","","","","","","","","",""
"psychophysics","269","511230","0.0-18.0-0.8","609d22a7186f9da021fb4a70","636d03e66a32c7f65a0397df","636d05d08e9d1bb13d34acaf","null","","","","null","","","","key","16.640599999999782","683","312.5","","","","","","","","","","","","","","","","","","","",""
"psychophysics","270","511734","0.0-18.0-1.8","609d22a7186f9da021fb4a70","636d03e66a32c7f65a0397df","636d05d08e9d1bb13d34acaf","null","","","","null","","","","key","16.638862068965583","683","312.5","","","","","","","","","","","","","140","-1","3","true","","","",""
"psychophysics","271","512163","0.0-18.0-2.8","609d22a7186f9da021fb4a70","636d03e66a32c7f65a0397df","636d05d08e9d1bb13d34acaf","425.7999999821186","","","","77","","","","key","16.650416666666086","683","312.5","","","","","","","","","","","","","","","","","","","",""
"psychophysics","272","513176","0.0-18.0-0.9","609d22a7186f9da021fb4a70","636d03e66a32c7f65a0397df","636d05d08e9d1bb13d34acaf","null","","","","null","","","","key","16.916233333333125","683","312.5","","","","","","","","","","","","","","","","","","","",""
"psychophysics","273","513686","0.0-18.0-1.9","609d22a7186f9da021fb4a70","636d03e66a32c7f65a0397df","636d05d08e9d1bb13d34acaf","null","","","","null","","","","key","16.641862068965565","683","312.5","","","","","","","","","","","","","140","1","5","true","","","",""
"psychophysics","274","514361","0.0-18.0-2.9","609d22a7186f9da021fb4a70","636d03e66a32c7f65a0397df","636d05d08e9d1bb13d34acaf","670.3000000119209","","","","77","","","","key","16.63982499999984","683","312.5","","","","","","","","","","","","","","","","","","","",""
"psychophysics","275","515365","0.0-18.0-0.10","609d22a7186f9da021fb4a70","636d03e66a32c7f65a0397df","636d05d08e9d1bb13d34acaf","null","","","","null","","","","key","16.642271186440187","683","312.5","","","","","","","","","","","","","","","","","","","",""
"psychophysics","276","515871","0.0-18.0-1.10","609d22a7186f9da021fb4a70","636d03e66a32c7f65a0397df","636d05d08e9d1bb13d34acaf","null","","","","null","","","","key","16.64226666666606","683","312.5","","","","","","","","","","","","","140","1","3","true","","","",""
"psychophysics","277","515958","0.0-18.0-2.10","609d22a7186f9da021fb4a70","636d03e66a32c7f65a0397df","636d05d08e9d1bb13d34acaf","83.7000000178814","","","","77","","","","key","16.635249999992084","683","312.5","","","","","","","","","","","","","","","","","","","",""
"psychophysics","278","516970","0.0-18.0-0.11","609d22a7186f9da021fb4a70","636d03e66a32c7f65a0397df","636d05d08e9d1bb13d34acaf","null","","","","null","","","","key","16.64181666666603","683","312.5","","","","","","","","","","","","","","","","","","","",""
"psychophysics","279","517477","0.0-18.0-1.11","609d22a7186f9da021fb4a70","636d03e66a32c7f65a0397df","636d05d08e9d1bb13d34acaf","null","","","","null","","","","key","16.641931034484074","683","312.5","","","","","","","","","","","","","140","-1","4","true","","","",""
"psychophysics","280","517751","0.0-18.0-2.11","609d22a7186f9da021fb4a70","636d03e66a32c7f65a0397df","636d05d08e9d1bb13d34acaf","271","","","","77","","","","key","16.641600000000714","683","312.5","","","","","","","","","","","","","","","","","","","",""
"psychophysics","281","518757","0.0-18.0-0.12","609d22a7186f9da021fb4a70","636d03e66a32c7f65a0397df","636d05d08e9d1bb13d34acaf","null","","","","null","","","","key","16.64090000000045","683","312.5","","","","","","","","","","","","","","","","","","","",""
"psychophysics","282","519261","0.0-18.0-1.12","609d22a7186f9da021fb4a70","636d03e66a32c7f65a0397df","636d05d08e9d1bb13d34acaf","null","","","","null","","","","key","16.641758620688805","683","312.5","","","","","","","","","","","","","140","1","3","true","","","",""
"psychophysics","283","519310","0.0-18.0-2.12","609d22a7186f9da021fb4a70","636d03e66a32c7f65a0397df","636d05d08e9d1bb13d34acaf","43.5","","","","77","","","","key","16.592499999998836","683","312.5","","","","","","","","","","","","","","","","","","","",""
"psychophysics","284","520315","0.0-18.0-0.13","609d22a7186f9da021fb4a70","636d03e66a32c7f65a0397df","636d05d08e9d1bb13d34acaf","null","","","","null","","","","key","16.64156666666677","683","312.5","","","","","","","","","","","","","","","","","","","",""
"psychophysics","285","520822","0.0-18.0-1.13","609d22a7186f9da021fb4a70","636d03e66a32c7f65a0397df","636d05d08e9d1bb13d34acaf","null","","","","null","","","","key","16.641758620690812","683","312.5","","","","","","","","","","","","","140","1","5","true","","","",""
"psychophysics","286","520923","0.0-18.0-2.13","609d22a7186f9da021fb4a70","636d03e66a32c7f65a0397df","636d05d08e9d1bb13d34acaf","98.59999999403954","","","","77","","","","key","16.634799999999814","683","312.5","","","","","","","","","","","","","","","","","","","",""
"psychophysics","287","521929","0.0-18.0-0.14","609d22a7186f9da021fb4a70","636d03e66a32c7f65a0397df","636d05d08e9d1bb13d34acaf","null","","","","null","","","","key","16.640616666666272","683","312.5","","","","","","","","","","","","","","","","","","","",""
"psychophysics","288","522438","0.0-18.0-1.14","609d22a7186f9da021fb4a70","636d03e66a32c7f65a0397df","636d05d08e9d1bb13d34acaf","null","","","","null","","","","key","16.642137931033584","683","312.5","","","","","","","","","","","","","140","1","2","true","","","",""
"psychophysics","289","522706","0.0-18.0-2.14","609d22a7186f9da021fb4a70","636d03e66a32c7f65a0397df","636d05d08e9d1bb13d34acaf","262.2000000178814","","","","90","","","","key","16.64153333333476","683","312.5","","","","","","","","","","","","","","","","","","","",""
"psychophysics","290","523710","0.0-18.0-0.15","609d22a7186f9da021fb4a70","636d03e66a32c7f65a0397df","636d05d08e9d1bb13d34acaf","null","","","","null","","","","key","16.64431666666642","683","312.5","","","","","","","","","","","","","","","","","","","",""
"psychophysics","291","524214","0.0-18.0-1.15","609d22a7186f9da021fb4a70","636d03e66a32c7f65a0397df","636d05d08e9d1bb13d34acaf","null","","","","null","","","","key","16.641517241381045","683","312.5","","","","","","","","","","","","","140","-1","5","true","","","",""
"psychophysics","292","524716","0.0-18.0-2.15","609d22a7186f9da021fb4a70","636d03e66a32c7f65a0397df","636d05d08e9d1bb13d34acaf","499.09999999403954","","","","77","","","","key","17.236571428569732","683","312.5","","","","","","","","","","","","","","","","","","","",""
"psychophysics","293","525718","0.0-18.0-0.16","609d22a7186f9da021fb4a70","636d03e66a32c7f65a0397df","636d05d08e9d1bb13d34acaf","null","","","","null","","","","key","16.637254237290076","683","312.5","","","","","","","","","","","","","","","","","","","",""
"psychophysics","294","526227","0.0-18.0-1.16","609d22a7186f9da021fb4a70","636d03e66a32c7f65a0397df","636d05d08e9d1bb13d34acaf","null","","","","null","","","","key","16.64163333333175","683","312.5","","","","","","","","","","","","","140","-1","4","true","","","",""
"psychophysics","295","526740","0.0-18.0-2.16","609d22a7186f9da021fb4a70","636d03e66a32c7f65a0397df","636d05d08e9d1bb13d34acaf","509.59999999403954","","","","77","","","","key","16.641866666668406","683","312.5","","","","","","","","","","","","","","","","","","","",""
"psychophysics","296","527751","0.0-18.0-0.17","609d22a7186f9da021fb4a70","636d03e66a32c7f65a0397df","636d05d08e9d1bb13d34acaf","null","","","","null","","","","key","16.641576271186487","683","312.5","","","","","","","","","","","","","","","","","","","",""
"psychophysics","297","528254","0.0-18.0-1.17","609d22a7186f9da021fb4a70","636d03e66a32c7f65a0397df","636d05d08e9d1bb13d34acaf","null","","","","null","","","","key","16.65309999999978","683","312.5","","","","","","","","","","","","","140","-1","6","true","","","",""
"psychophysics","298","528708","0.0-18.0-2.17","609d22a7186f9da021fb4a70","636d03e66a32c7f65a0397df","636d05d08e9d1bb13d34acaf","450.2999999821186","","","","77","","","","key","16.645461538461788","683","312.5","","","","","","","","","","","","","","","","","","","",""
"psychophysics","299","529715","0.0-18.0-0.18","609d22a7186f9da021fb4a70","636d03e66a32c7f65a0397df","636d05d08e9d1bb13d34acaf","null","","","","null","","","","key","16.644440677966056","683","312.5","","","","","","","","","","","","","","","","","","","",""
"psychophysics","300","530249","0.0-18.0-1.18","609d22a7186f9da021fb4a70","636d03e66a32c7f65a0397df","636d05d08e9d1bb13d34acaf","null","","","","null","","","","key","17.166838709678082","683","312.5","","","","","","","","","","","","","140","-1","2","true","","","",""
"psychophysics","301","530604","0.0-18.0-2.18","609d22a7186f9da021fb4a70","636d03e66a32c7f65a0397df","636d05d08e9d1bb13d34acaf","351.69999998807907","","","","90","","","","key","16.644250000000465","683","312.5","","","","","","","","","","","","","","","","","","","",""
"psychophysics","302","531611","0.0-18.0-0.19","609d22a7186f9da021fb4a70","636d03e66a32c7f65a0397df","636d05d08e9d1bb13d34acaf","null","","","","null","","","","key","16.639525423728134","683","312.5","","","","","","","","","","","","","","","","","","","",""
"psychophysics","303","532118","0.0-18.0-1.19","609d22a7186f9da021fb4a70","636d03e66a32c7f65a0397df","636d05d08e9d1bb13d34acaf","null","","","","null","","","","key","16.645633333335475","683","312.5","","","","","","","","","","","","","140","1","4","true","","","",""
"psychophysics","304","532334","0.0-18.0-2.19","609d22a7186f9da021fb4a70","636d03e66a32c7f65a0397df","636d05d08e9d1bb13d34acaf","213.69999998807907","","","","77","","","","key","16.640750000001088","683","312.5","","","","","","","","","","","","","","","","","","","",""
"psychophysics","305","533341","0.0-18.0-0.20","609d22a7186f9da021fb4a70","636d03e66a32c7f65a0397df","636d05d08e9d1bb13d34acaf","null","","","","null","","","","key","16.643966101696005","683","312.5","","","","","","","","","","","","","","","","","","","",""
"psychophysics","306","533845","0.0-18.0-1.20","609d22a7186f9da021fb4a70","636d03e66a32c7f65a0397df","636d05d08e9d1bb13d34acaf","null","","","","null","","","","key","16.641333333336902","683","312.5","","","","","","","","","","","","","140","-1","3","true","","","",""
"psychophysics","307","534551","0.0-18.0-2.20","609d22a7186f9da021fb4a70","636d03e66a32c7f65a0397df","636d05d08e9d1bb13d34acaf","703.7000000178814","","","","90","","","","key","16.64695121951276","683","312.5","","","","","","","","","","","","","","","","","","","",""
"psychophysics","308","535556","0.0-18.0-0.21","609d22a7186f9da021fb4a70","636d03e66a32c7f65a0397df","636d05d08e9d1bb13d34acaf","null","","","","null","","","","key","16.64183050847486","683","312.5","","","","","","","","","","","","","","","","","","","",""
"psychophysics","309","536062","0.0-18.0-1.21","609d22a7186f9da021fb4a70","636d03e66a32c7f65a0397df","636d05d08e9d1bb13d34acaf","null","","","","null","","","","key","16.64163333333175","683","312.5","","","","","","","","","","","","","140","-1","0","true","","","",""
"psychophysics","310","536410","0.0-18.0-2.21","609d22a7186f9da021fb4a70","636d03e66a32c7f65a0397df","636d05d08e9d1bb13d34acaf","345.19999998807907","","","","77","","","","key","16.64152631579016","683","312.5","","","","","","","","","","","","","","","","","","","",""
"psychophysics","311","537414","0.0-18.0-0.22","609d22a7186f9da021fb4a70","636d03e66a32c7f65a0397df","636d05d08e9d1bb13d34acaf","null","","","","null","","","","key","16.634766666666838","683","312.5","","","","","","","","","","","","","","","","","","","",""
"psychophysics","312","537917","0.0-18.0-1.22","609d22a7186f9da021fb4a70","636d03e66a32c7f65a0397df","636d05d08e9d1bb13d34acaf","null","","","","null","","","","key","16.636896551723176","683","312.5","","","","","","","","","","","","","140","1","6","true","","","",""
"psychophysics","313","538060","0.0-18.0-2.22","609d22a7186f9da021fb4a70","636d03e66a32c7f65a0397df","636d05d08e9d1bb13d34acaf","100.90000000596046","","","","77","","","","key","19.01900000000439","683","312.5","","","","","","","","","","","","","","","","","","","",""
"psychophysics","314","539067","0.0-18.0-0.23","609d22a7186f9da021fb4a70","636d03e66a32c7f65a0397df","636d05d08e9d1bb13d34acaf","null","","","","null","","","","key","16.641813559323484","683","312.5","","","","","","","","","","","","","","","","","","","",""
"psychophysics","315","539573","0.0-18.0-1.23","609d22a7186f9da021fb4a70","636d03e66a32c7f65a0397df","636d05d08e9d1bb13d34acaf","null","","","","null","","","","key","16.642866666665455","683","312.5","","","","","","","","","","","","","140","1","0","true","","","",""
"psychophysics","316","540339","0.0-18.0-2.23","609d22a7186f9da021fb4a70","636d03e66a32c7f65a0397df","636d05d08e9d1bb13d34acaf","763","","","","77","","","","key","16.636644444446492","683","312.5","","","","","","","","","","","","","","","","","","","",""
"psychophysics","317","541342","0.0-18.0-0.24","609d22a7186f9da021fb4a70","636d03e66a32c7f65a0397df","636d05d08e9d1bb13d34acaf","null","","","","null","","","","key","16.64406779661017","683","312.5","","","","","","","","","","","","","","","","","","","",""
"psychophysics","318","541846","0.0-18.0-1.24","609d22a7186f9da021fb4a70","636d03e66a32c7f65a0397df","636d05d08e9d1bb13d34acaf","null","","","","null","","","","key","16.64165517241405","683","312.5","","","","","","","","","","","","","140","-1","3","true","","","",""
"psychophysics","319","542283","0.0-18.0-2.24","609d22a7186f9da021fb4a70","636d03e66a32c7f65a0397df","636d05d08e9d1bb13d34acaf","431.69999998807907","","","","77","","","","key","16.645807692306473","683","312.5","","","","","","","","","","","","","","","","","","","",""
"psychophysics","320","543285","0.0-18.0-0.25","609d22a7186f9da021fb4a70","636d03e66a32c7f65a0397df","636d05d08e9d1bb13d34acaf","null","","","","null","","","","key","16.648169491524904","683","312.5","","","","","","","","","","","","","","","","","","","",""
"psychophysics","321","543789","0.0-18.0-1.25","609d22a7186f9da021fb4a70","636d03e66a32c7f65a0397df","636d05d08e9d1bb13d34acaf","null","","","","null","","","","key","16.63506896551779","683","312.5","","","","","","","","","","","","","140","1","0","true","","","",""
"psychophysics","322","543930","0.0-18.0-2.25","609d22a7186f9da021fb4a70","636d03e66a32c7f65a0397df","636d05d08e9d1bb13d34acaf","138.2999999821186","","","","90","","","","key","16.639999999999418","683","312.5","","","","","","","","","","","","","","","","","","","",""
"psychophysics","323","544934","0.0-18.0-0.26","609d22a7186f9da021fb4a70","636d03e66a32c7f65a0397df","636d05d08e9d1bb13d34acaf","null","","","","null","","","","key","16.644881355933357","683","312.5","","","","","","","","","","","","","","","","","","","",""
"psychophysics","324","545436","0.0-18.0-1.26","609d22a7186f9da021fb4a70","636d03e66a32c7f65a0397df","636d05d08e9d1bb13d34acaf","null","","","","null","","","","key","16.637827586205997","683","312.5","","","","","","","","","","","","","140","-1","4","true","","","",""
"psychophysics","325","545849","0.0-18.0-2.26","609d22a7186f9da021fb4a70","636d03e66a32c7f65a0397df","636d05d08e9d1bb13d34acaf","410.59999999403954","","","","77","","","","key","16.641750000000076","683","312.5","","","","","","","","","","","","","","","","","","","",""
"psychophysics","326","546853","0.0-18.0-0.27","609d22a7186f9da021fb4a70","636d03e66a32c7f65a0397df","636d05d08e9d1bb13d34acaf","null","","","","null","","","","key","16.641627118644557","683","312.5","","","","","","","","","","","","","","","","","","","",""
"psychophysics","327","547359","0.0-18.0-1.27","609d22a7186f9da021fb4a70","636d03e66a32c7f65a0397df","636d05d08e9d1bb13d34acaf","null","","","","null","","","","key","17.219172413794098","683","312.5","","","","","","","","","","","","","140","-1","6","true","","","",""
"psychophysics","328","547617","0.0-18.0-2.27","609d22a7186f9da021fb4a70","636d03e66a32c7f65a0397df","636d05d08e9d1bb13d34acaf","255.10000002384186","","","","77","","","","key","16.63857142857575","683","312.5","","","","","","","","","","","","","","","","","","","",""
"psychophysics","329","548623","0.0-18.0-0.28","609d22a7186f9da021fb4a70","636d03e66a32c7f65a0397df","636d05d08e9d1bb13d34acaf","null","","","","null","","","","key","16.64026666666614","683","312.5","","","","","","","","","","","","","","","","","","","",""
