"trial_type","trial_index","time_elapsed","internal_node_id","PROLIFIC_PID","STUDY_ID","SESSION_ID","rt","stimulus","button_pressed","success","key_press","responses","isData","view_history","response_type","avg_frame_time","center_x","center_y","isSC","stim_side","trial_luminance","step_size","nReversal","correct","prev_ans","isThreshold","SC_threshold","final_threshold","isLuminance","FF_luminance","luminance","stimSide","ISInt","isFF","question_order","isSPQ","isCAPS","isAQ"
"pavlovia","0","10","0.0-0.0","57189f81dd9ef10011de0cb8","636d03e66a32c7f65a0397df","636d05cc1fba2abe7f3bc083","","","","","","","","","","","","","","","","","","","","","","","","","","","","","","","",""
"html-button-response","1","24651","0.0-1.0","57189f81dd9ef10011de0cb8","636d03e66a32c7f65a0397df","636d05cc1fba2abe7f3bc083","24638.79999999702","<div style='background-color: white; width:60%; margin: auto; padding: 50px; text-align: justify; text-justify: inter-word; margin-bottom: 20px;'><h1 style='text-align: center;'>Consent Form</h1><p>Please read this consent form carefully before deciding whether you would like to participate in this study. You have to be 18 years old or older to participate to this study.</p><p style='text-decoration: underline;'>Participation is voluntary:</p><p>It is your choice whether or not to participate in this research. If you choose to participate, you may change your mind and leave the study at any time. Refusal to participate or stopping your participation will involve no penalty or loss of benefits to which you are otherwise entitled.</p><p style='text-decoration: underline;'>Purpose of the Study:</p><p>To understand the mechanisms underlying human perception.</p><p style='text-decoration: underline;'>What you will do in this study:</p><p>You will be presented with a series of visual images and then you will press buttons on the keyboard of your computer to respond to simple questions about the images (e.g. Were one or two images presented?). In addition, you will be asked to complete a questionnaire concerning your beliefs and everyday mental and perceptual experiences.'</p><p style='text-decoration: underline;'> Time Required:</p><p>The study will take 40 minutes to complete. </p><p style='text-decoration: underline;'>Risks:</p><p>There are no anticipated risks associated with participating in this study that are beyond those experienced in everyday life. </p><p style='text-decoration: underline;'>Benefits:</p><p>There are no benefits to you in participating in the study. However, this study may lead to a better understanding of how different kinds of visual information are used.</p><p style='text-decoration: underline;'>Compensation:</p><p>You will be paid US$6.6/hour. </p><p style='text-decoration: underline;'>Privacy and Confidentiality:</p><p>Your participation in this study will be anonymous. No personal information about your name or identity will be asked or recorded. This anonymous data will be stored for several years and may be used for a variety of research purposes. The overall results of the study may be published, or the data files may be shared with other researchers, but your identity will not be revealed in any way. The online services we are using for this study may temporarily store your data, but this data will be downloaded and then promptly deleted from those services.Your data will not be permanently associated with your name, IP address, or any other identifiable information (e.g., your information will only be connected to your payment, not to any of your responses), though they may be temporarily stored together before we download and separate them. Even so, no guarantee of internet survey security can be given because, although unlikely, transmissions can be intercepted and IP addresses can be identified. The anonymous data may be shared publicly (for example, in conjunction with a resulting academic publication).</p><p style='text-decoration: underline;'>Participation and Withdrawal:</p><p>Your participation in this study is completely voluntary. You may stop responding to the stimuli or stop answering questions if you so choose and without penalty by exiting the full screen mode, closing this tab of your browser or redirecting it to a different website.</p><p style='text-decoration: underline;'>Contact Info of the Researcher: </p><p>If you have questions about this study, or if you would like to talk to the research team, please contact David Melcher (david.melcher@nyu.edu, md5050@nyu.edu) at the Perception and Active Cognition Laboratory, New York University Abu Dhabi, Computational Research Building, Saadiyat Island, Abu Dhabi, UAE.This research has been reviewed by the New York University Abu Dhabi Institutional Review Board (NYUAD IRB). To contact about your rights in this research, for questions, suggestions, or complaints that are not addressed by the researchers, please email IRBnyuad@nyu.edu, or call the NYUAD IRB at +971 2 628 4313. </p></div>","0","","","","","","","","","","","","","","","","","","","","","","","","","","","","",""
"fullscreen","2","28219","0.0-2.0","57189f81dd9ef10011de0cb8","636d03e66a32c7f65a0397df","636d05cc1fba2abe7f3bc083","","","","true","","","","","","","","","","","","","","","","","","","","","","","","","","","",""
"html-keyboard-response","3","43204","0.0-3.0","57189f81dd9ef10011de0cb8","636d03e66a32c7f65a0397df","636d05cc1fba2abe7f3bc083","14983.699999988079","<p>Welcome !</p><p>READ CAREFULLY THE FOLLOWING INDICATIONS:</p><p>From this moment you have ~40 minutes to complete the experiment.</p><p>During the experiment you will be prompted to take several breaks. Each break should not last longer than 2-3 minutes.</p><p>Make sure that your computer is plugged in and it's not running on battery power, even if the battery is already fully charged.</p><p>Turn off your phone and music, make sure that you are in a quiet room and that you will not be distracted for the next hour.</p><p>Failure to comply with the instructions and indications provided during the experiment will most likely result in the rejection of your data.<p>Press the spacebar to start.</p>","","","32","","","","","","","","","","","","","","","","","","","","","","","","","","",""
"survey-html-form","4","50738","0.0-4.0","57189f81dd9ef10011de0cb8","636d03e66a32c7f65a0397df","636d05cc1fba2abe7f3bc083","7533.300000011921","","","","","{""age"":""50"",""sex"":""f""}","true","","","","","","","","","","","","","","","","","","","","","","","","",""
"instructions","5","111913","0.0-5.0","57189f81dd9ef10011de0cb8","636d03e66a32c7f65a0397df","636d05cc1fba2abe7f3bc083","61174.79999999702","","","","","","","[{""page_index"":0,""viewing_time"":35758.69999998808},{""page_index"":1,""viewing_time"":17311.70000000298},{""page_index"":2,""viewing_time"":8104.20000000298}]","","","","","","","","","","","","","","","","","","","","","","","",""
"psychophysics","6","122099","0.0-6.0-0.0","57189f81dd9ef10011de0cb8","636d03e66a32c7f65a0397df","636d05cc1fba2abe7f3bc083","9182.39999999106","","","","37","","","","key","16.66652864157121","960","468.5","true","-1","180","30","0","-1","","","","","","","","","","","","","",""
"psychophysics","7","123730","0.0-6.0-0.1","57189f81dd9ef10011de0cb8","636d03e66a32c7f65a0397df","636d05cc1fba2abe7f3bc083","624.6000000089407","","","","37","","","","key","16.6660412371134","960","468.5","true","-1","180","30","0","-1","-1","","","","","","","","","","","","",""
"psychophysics","8","124996","0.0-6.0-0.2","57189f81dd9ef10011de0cb8","636d03e66a32c7f65a0397df","636d05cc1fba2abe7f3bc083","256.8999999910593","","","","39","","","","key","16.66659999999994","960","468.5","true","1","150","30","0","-1","-1","","","","","","","","","","","","",""
"psychophysics","9","126153","0.0-6.0-0.3","57189f81dd9ef10011de0cb8","636d03e66a32c7f65a0397df","636d05cc1fba2abe7f3bc083","147.80000001192093","","","","39","","","","key","16.6664705882354","960","468.5","true","1","150","30","0","-1","-1","","","","","","","","","","","","",""
"psychophysics","10","131098","0.0-6.0-0.4","57189f81dd9ef10011de0cb8","636d03e66a32c7f65a0397df","636d05cc1fba2abe7f3bc083","3942.7000000029802","","","","37","","","","key","16.66652364864864","960","468.5","true","-1","129","30","0","-1","-1","","","","","","","","","","","","",""
"psychophysics","11","137386","0.0-6.0-0.5","57189f81dd9ef10011de0cb8","636d03e66a32c7f65a0397df","636d05cc1fba2abe7f3bc083","5279.70000000298","","","","39","","","","key","16.666502659574498","960","468.5","true","1","129","30","0","-1","-1","","","","","","","","","","","","",""
"psychophysics","12","139105","0.0-6.0-0.6","57189f81dd9ef10011de0cb8","636d03e66a32c7f65a0397df","636d05cc1fba2abe7f3bc083","716.3999999910593","","","","39","","","","key","16.6662352941177","960","468.5","true","1","129","30","0","-1","-1","","","","","","","","","","","","",""
"psychophysics","13","141898","0.0-6.0-0.7","57189f81dd9ef10011de0cb8","636d03e66a32c7f65a0397df","636d05cc1fba2abe7f3bc083","1785.4000000059605","","","","39","","","","key","16.666479041916144","960","468.5","true","1","129","30","0","-1","-1","","","","","","","","","","","","",""
"psychophysics","14","143746","0.0-6.0-0.8","57189f81dd9ef10011de0cb8","636d03e66a32c7f65a0397df","636d05cc1fba2abe7f3bc083","841.6000000089407","","","","37","","","","key","16.666545454545517","960","468.5","true","1","129","24","1","1","-1","","","","","","","","","","","","",""
"psychophysics","15","146353","0.0-6.0-0.9","57189f81dd9ef10011de0cb8","636d03e66a32c7f65a0397df","636d05cc1fba2abe7f3bc083","1598.1000000089407","","","","39","","","","key","16.66647096774184","960","468.5","true","1","153","24","1","-1","1","","","","","","","","","","","","",""
"psychophysics","16","154122","0.0-6.0-0.10","57189f81dd9ef10011de0cb8","636d03e66a32c7f65a0397df","636d05cc1fba2abe7f3bc083","6766.399999991059","","","","37","","","","key","16.666501075268837","960","468.5","true","-1","153","19.2","2","-1","-1","","","","","","","","","","","","",""
"psychophysics","17","156629","0.0-6.0-0.11","57189f81dd9ef10011de0cb8","636d03e66a32c7f65a0397df","636d05cc1fba2abe7f3bc083","1500.8999999910593","","","","39","","","","key","16.66655999999998","960","468.5","true","-1","133.8","15.36","3","1","-1","","","","","","","","","","","","",""
"psychophysics","18","157865","0.0-6.0-0.12","57189f81dd9ef10011de0cb8","636d03e66a32c7f65a0397df","636d05cc1fba2abe7f3bc083","229.20000000298023","","","","39","","","","key","16.66647945205507","960","468.5","true","1","149.16000000000003","15.36","3","-1","1","","","","","","","","","","","","",""
"psychophysics","19","160305","0.0-6.0-0.13","57189f81dd9ef10011de0cb8","636d03e66a32c7f65a0397df","636d05cc1fba2abe7f3bc083","1432.8999999910593","","","","37","","","","key","16.666517241379438","960","468.5","true","1","149.16000000000003","12.287999999999998","4","1","-1","","","","","","","","","","","","",""
"psychophysics","20","161679","0.0-6.0-0.14","57189f81dd9ef10011de0cb8","636d03e66a32c7f65a0397df","636d05cc1fba2abe7f3bc083","367.1000000089407","","","","37","","","","key","16.666451219512254","960","468.5","true","-1","161.44800000000004","12.287999999999998","4","-1","1","","","","","","","","","","","","",""
"psychophysics","21","163395","0.0-6.0-0.15","57189f81dd9ef10011de0cb8","636d03e66a32c7f65a0397df","636d05cc1fba2abe7f3bc083","707.0999999940395","","","","37","","","","key","16.66652941176475","960","468.5","true","-1","161.44800000000004","9.8304","5","-1","-1","","","","","","","","","","","","",""
"psychophysics","22","164906","0.0-6.0-0.16","57189f81dd9ef10011de0cb8","636d03e66a32c7f65a0397df","636d05cc1fba2abe7f3bc083","500.1000000089407","","","","37","","","","key","16.6665280898876","960","468.5","true","-1","151.61760000000004","9.8304","5","-1","-1","","","","","","","","","","","","",""
"psychophysics","23","166162","0.0-6.0-0.17","57189f81dd9ef10011de0cb8","636d03e66a32c7f65a0397df","636d05cc1fba2abe7f3bc083","250.29999999701977","","","","39","","","","key","16.6664400000001","960","468.5","true","1","151.61760000000004","9.8304","5","-1","-1","","","","","","","","","","","","",""
"psychophysics","24","167649","0.0-6.0-0.18","57189f81dd9ef10011de0cb8","636d03e66a32c7f65a0397df","636d05cc1fba2abe7f3bc083","477.59999999403954","","","","39","","","","key","16.66627272727254","960","468.5","true","1","141.78720000000004","9.8304","5","-1","-1","","","","","","","","","","","","",""
"psychophysics","25","168795","0.0-6.0-0.19","57189f81dd9ef10011de0cb8","636d03e66a32c7f65a0397df","636d05cc1fba2abe7f3bc083","140.5","","","","37","","","","key","16.666735294117483","960","468.5","true","-1","141.78720000000004","9.8304","5","-1","-1","","","","","","","","","","","","",""
"psychophysics","26","171569","0.0-6.0-0.20","57189f81dd9ef10011de0cb8","636d03e66a32c7f65a0397df","636d05cc1fba2abe7f3bc083","1764","","","","39","","","","key","16.666521212121182","960","468.5","true","-1","131.95680000000004","7.864319999999999","6","1","-1","","","","","","","","","","","","",""
"psychophysics","27","172862","0.0-6.0-0.21","57189f81dd9ef10011de0cb8","636d03e66a32c7f65a0397df","636d05cc1fba2abe7f3bc083","290.6000000089407","","","","37","","","","key","16.666506493506446","960","468.5","true","-1","139.82112000000004","7.864319999999999","6","-1","1","","","","","","","","","","","","",""
"psychophysics","28","175996","0.0-6.0-0.22","57189f81dd9ef10011de0cb8","636d03e66a32c7f65a0397df","636d05cc1fba2abe7f3bc083","2123.5","","","","39","","","","key","16.666481283422527","960","468.5","true","1","139.82112000000004","6.291456","7","-1","-1","","","","","","","","","","","","",""
"psychophysics","29","177129","0.0-6.0-0.23","57189f81dd9ef10011de0cb8","636d03e66a32c7f65a0397df","636d05cc1fba2abe7f3bc083","124.6000000089407","","","","39","","","","key","16.666552238805746","960","468.5","true","1","133.52966400000003","6.291456","7","-1","-1","","","","","","","","","","","","",""
"psychophysics","30","179629","0.0-6.0-0.24","57189f81dd9ef10011de0cb8","636d03e66a32c7f65a0397df","636d05cc1fba2abe7f3bc083","1490.300000011921","","","","37","","","","key","16.666503355704755","960","468.5","true","1","133.52966400000003","5.033164800000001","8","1","-1","","","","","","","","","","","","",""
"psychophysics","31","180801","0.0-6.0-0.25","57189f81dd9ef10011de0cb8","636d03e66a32c7f65a0397df","636d05cc1fba2abe7f3bc083","162.5","","","","37","","","","key","16.665753623188483","960","468.5","true","-1","138.56282880000003","5.033164800000001","8","-1","1","","","","","","","","","","","","",""
"psychophysics","32","182801","0.0-6.0-0.26","57189f81dd9ef10011de0cb8","636d03e66a32c7f65a0397df","636d05cc1fba2abe7f3bc083","995.7000000029802","","","","39","","","","key","16.666739495798353","960","468.5","true","1","138.56282880000003","4.0265318400000005","9","-1","-1","","","","","","","","","","","","",""
"psychophysics","33","184033","0.0-6.0-0.27","57189f81dd9ef10011de0cb8","636d03e66a32c7f65a0397df","636d05cc1fba2abe7f3bc083","228.09999999403954","","","","39","","","","key","16.66676712328766","960","468.5","true","1","134.53629696000004","4.0265318400000005","9","-1","-1","","","","","","","","","","","","",""
"psychophysics","34","185195","0.0-6.0-0.28","57189f81dd9ef10011de0cb8","636d03e66a32c7f65a0397df","636d05cc1fba2abe7f3bc083","156.5","","","","39","","","","key","16.66650724637641","960","468.5","true","1","134.53629696000004","4.0265318400000005","9","-1","-1","","","","","","","","","","","","",""
"psychophysics","35","186753","0.0-6.0-0.29","57189f81dd9ef10011de0cb8","636d03e66a32c7f65a0397df","636d05cc1fba2abe7f3bc083","548.7999999970198","","","","37","","","","key","16.666510869565094","960","468.5","true","-1","130.50976512000005","4.0265318400000005","9","-1","-1","","","","","","","","","","","","",""
"psychophysics","36","188913","0.0-6.0-0.30","57189f81dd9ef10011de0cb8","636d03e66a32c7f65a0397df","636d05cc1fba2abe7f3bc083","1158.5","","","","37","","","","key","16.666480620155","960","468.5","true","-1","130.50976512000005","4.0265318400000005","9","-1","-1","","","","","","","","","","","","",""
"psychophysics","37","190746","0.0-6.0-0.31","57189f81dd9ef10011de0cb8","636d03e66a32c7f65a0397df","636d05cc1fba2abe7f3bc083","824.2000000029802","","","","37","","","","key","16.666467889908162","960","468.5","true","-1","129","4.0265318400000005","9","-1","-1","","","","","","","","","","","","",""
"psychophysics","38","192391","0.0-6.0-0.32","57189f81dd9ef10011de0cb8","636d03e66a32c7f65a0397df","636d05cc1fba2abe7f3bc083","629.5","","","","37","","","","key","16.666340206185662","960","468.5","true","1","129","3.2212254720000004","10","1","-1","","","","","","","","","","","","",""
"psychophysics","39","194066","0.0-6.0-0.33","57189f81dd9ef10011de0cb8","636d03e66a32c7f65a0397df","636d05cc1fba2abe7f3bc083","669.9000000059605","","","","39","","","","key","16.666700000000127","960","468.5","true","-1","132.22122547200001","3.2212254720000004","10","1","1","","","","","","","","","","","","",""
"psychophysics","40","195396","0.0-6.0-0.34","57189f81dd9ef10011de0cb8","636d03e66a32c7f65a0397df","636d05cc1fba2abe7f3bc083","323.79999999701977","","","","39","","","","key","16.666632911392277","960","468.5","true","1","135.44245094400003","3.2212254720000004","10","-1","1","","","","","","","","","","","","",""
"psychophysics","41","197129","0.0-6.0-0.35","57189f81dd9ef10011de0cb8","636d03e66a32c7f65a0397df","636d05cc1fba2abe7f3bc083","726.7000000029802","","","","39","","","","key","16.666514563106634","960","468.5","true","1","135.44245094400003","2.5769803776000004","11","-1","-1","","","","","","","","","","","","",""
"psychophysics","42","198730","0.0-6.0-0.36","57189f81dd9ef10011de0cb8","636d03e66a32c7f65a0397df","636d05cc1fba2abe7f3bc083","592.4000000059605","","","","39","","","","key","16.666778947368545","960","468.5","true","-1","132.86547056640003","2.0615843020800004","12","1","-1","","","","","","","","","","","","",""
"psychophysics","43","200034","0.0-6.0-0.37","57189f81dd9ef10011de0cb8","636d03e66a32c7f65a0397df","636d05cc1fba2abe7f3bc083","295.40000000596046","","","","37","","","","key","16.666493506493598","960","468.5","true","-1","134.92705486848004","2.0615843020800004","12","-1","1","","","","","","","","","","","","",""
"psychophysics","44","201898","0.0-6.0-0.38","57189f81dd9ef10011de0cb8","636d03e66a32c7f65a0397df","636d05cc1fba2abe7f3bc083","859.4000000059605","","","","37","","","","key","16.66651351351332","960","468.5","true","-1","134.92705486848004","1.6492674416640005","13","-1","-1","","","","","","","","","","","","",""
"psychophysics","45","203433","0.0-6.0-0.39","57189f81dd9ef10011de0cb8","636d03e66a32c7f65a0397df","636d05cc1fba2abe7f3bc083","527.7000000029802","","","","37","","","","key","16.66646153846139","960","468.5","true","-1","133.27778742681605","1.6492674416640005","13","-1","-1","","","","","","","","","","","","",""
"html-keyboard-response","46","209810","0.0-7.0","57189f81dd9ef10011de0cb8","636d03e66a32c7f65a0397df","636d05cc1fba2abe7f3bc083","6376.4000000059605","<p>Well Done !</p><p>Prepare for a new block.</p><p>DON'T EXIT THE FULL SCREEN MODE</p><p>Press the Spacebar to start.</p>","","","32","","","","","","","","","","","","","","","true","133.62141845667847","","","","","","","","","","",""
"psychophysics","47","211563","0.0-8.0-0.0","57189f81dd9ef10011de0cb8","636d03e66a32c7f65a0397df","636d05cc1fba2abe7f3bc083","740.5","","","","37","","","","key","16.668904761904628","960","468.5","true","-1","180","30","0","-1","","","","","","","","","","","","","",""
"psychophysics","48","214146","0.0-8.0-0.1","57189f81dd9ef10011de0cb8","636d03e66a32c7f65a0397df","636d05cc1fba2abe7f3bc083","1574.300000011921","","","","39","","","","key","16.666344155844147","960","468.5","true","-1","180","30","0","1","-1","","","","","","","","","","","","",""
"psychophysics","49","215169","0.0-8.0-0.2","57189f81dd9ef10011de0cb8","636d03e66a32c7f65a0397df","636d05cc1fba2abe7f3bc083","13","","","","37","","","","key","16.666533333333305","960","468.5","true","-1","210","30","0","-1","1","","","","","","","","","","","","",""
"psychophysics","50","217214","0.0-8.0-0.3","57189f81dd9ef10011de0cb8","636d03e66a32c7f65a0397df","636d05cc1fba2abe7f3bc083","1041.8999999910593","","","","37","","","","key","16.666540983606552","960","468.5","true","-1","210","24","1","-1","-1","","","","","","","","","","","","",""
"psychophysics","51","218217","0.0-8.0-0.4","57189f81dd9ef10011de0cb8","636d03e66a32c7f65a0397df","636d05cc1fba2abe7f3bc083","0.20000000298023224","","","","39","","","","key","16.666847457626826","960","468.5","true","1","186","24","1","-1","-1","","","","","","","","","","","","",""
"psychophysics","52","219298","0.0-8.0-0.5","57189f81dd9ef10011de0cb8","636d03e66a32c7f65a0397df","636d05cc1fba2abe7f3bc083","76.3999999910593","","","","37","","","","key","16.666390625000076","960","468.5","true","-1","186","24","1","-1","-1","","","","","","","","","","","","",""
"psychophysics","53","221229","0.0-8.0-0.6","57189f81dd9ef10011de0cb8","636d03e66a32c7f65a0397df","636d05cc1fba2abe7f3bc083","922.5999999940395","","","","37","","","","key","16.66654782608688","960","468.5","true","1","162","19.2","2","1","-1","","","","","","","","","","","","",""
"psychophysics","54","222402","0.0-8.0-0.7","57189f81dd9ef10011de0cb8","636d03e66a32c7f65a0397df","636d05cc1fba2abe7f3bc083","165.3999999910593","","","","39","","","","key","16.666492753623363","960","468.5","true","1","181.2","19.2","2","-1","1","","","","","","","","","","","","",""
"psychophysics","55","224846","0.0-8.0-0.8","57189f81dd9ef10011de0cb8","636d03e66a32c7f65a0397df","636d05cc1fba2abe7f3bc083","1440","","","","39","","","","key","16.666479452054674","960","468.5","true","1","181.2","15.36","3","-1","-1","","","","","","","","","","","","",""
"psychophysics","56","225898","0.0-8.0-0.9","57189f81dd9ef10011de0cb8","636d03e66a32c7f65a0397df","636d05cc1fba2abe7f3bc083","45.8999999910593","","","","39","","","","key","16.666532258064702","960","468.5","true","1","165.83999999999997","15.36","3","-1","-1","","","","","","","","","","","","",""
"psychophysics","57","227314","0.0-8.0-0.10","57189f81dd9ef10011de0cb8","636d03e66a32c7f65a0397df","636d05cc1fba2abe7f3bc083","409.09999999403954","","","","39","","","","key","16.66648809523793","960","468.5","true","1","165.83999999999997","15.36","3","-1","-1","","","","","","","","","","","","",""
"psychophysics","58","228769","0.0-8.0-0.11","57189f81dd9ef10011de0cb8","636d03e66a32c7f65a0397df","636d05cc1fba2abe7f3bc083","447.40000000596046","","","","39","","","","key","16.66658139534885","960","468.5","true","1","150.47999999999996","15.36","3","-1","-1","","","","","","","","","","","","",""
"psychophysics","59","229882","0.0-8.0-0.12","57189f81dd9ef10011de0cb8","636d03e66a32c7f65a0397df","636d05cc1fba2abe7f3bc083","110.40000000596046","","","","37","","","","key","16.66648484848459","960","468.5","true","-1","150.47999999999996","15.36","3","-1","-1","","","","","","","","","","","","",""
"psychophysics","60","232018","0.0-8.0-0.13","57189f81dd9ef10011de0cb8","636d03e66a32c7f65a0397df","636d05cc1fba2abe7f3bc083","1129.2000000029802","","","","39","","","","key","16.666551181102378","960","468.5","true","1","135.11999999999995","15.36","3","-1","-1","","","","","","","","","","","","",""
"psychophysics","61","233746","0.0-8.0-0.14","57189f81dd9ef10011de0cb8","636d03e66a32c7f65a0397df","636d05cc1fba2abe7f3bc083","723.7999999970198","","","","39","","","","key","16.666388349514623","960","468.5","true","1","135.11999999999995","15.36","3","-1","-1","","","","","","","","","","","","",""
"psychophysics","62","235979","0.0-8.0-0.15","57189f81dd9ef10011de0cb8","636d03e66a32c7f65a0397df","636d05cc1fba2abe7f3bc083","1223.3999999910593","","","","37","","","","key","16.66647368421055","960","468.5","true","1","129","12.287999999999998","4","1","-1","","","","","","","","","","","","",""
"psychophysics","63","237714","0.0-8.0-0.16","57189f81dd9ef10011de0cb8","636d03e66a32c7f65a0397df","636d05cc1fba2abe7f3bc083","725.9000000059605","","","","37","","","","key","16.666495145631114","960","468.5","true","-1","141.288","12.287999999999998","4","-1","1","","","","","","","","","","","","",""
"psychophysics","64","238846","0.0-8.0-0.17","57189f81dd9ef10011de0cb8","636d03e66a32c7f65a0397df","636d05cc1fba2abe7f3bc083","124.20000000298023","","","","39","","","","key","16.666537313432773","960","468.5","true","1","141.288","9.8304","5","-1","-1","","","","","","","","","","","","",""
"psychophysics","65","239866","0.0-8.0-0.18","57189f81dd9ef10011de0cb8","636d03e66a32c7f65a0397df","636d05cc1fba2abe7f3bc083","16.799999997019768","","","","39","","","","key","16.666099999999762","960","468.5","true","-1","131.4576","7.864319999999999","6","1","-1","","","","","","","","","","","","",""
"psychophysics","66","242012","0.0-8.0-0.19","57189f81dd9ef10011de0cb8","636d03e66a32c7f65a0397df","636d05cc1fba2abe7f3bc083","1140.7999999970198","","","","37","","","","key","16.666609375000007","960","468.5","true","-1","139.32192","7.864319999999999","6","-1","1","","","","","","","","","","","","",""
"psychophysics","67","243062","0.0-8.0-0.20","57189f81dd9ef10011de0cb8","636d03e66a32c7f65a0397df","636d05cc1fba2abe7f3bc083","40.599999994039536","","","","37","","","","key","16.666500000000063","960","468.5","true","-1","139.32192","6.291456","7","-1","-1","","","","","","","","","","","","",""
"psychophysics","68","244266","0.0-8.0-0.21","57189f81dd9ef10011de0cb8","636d03e66a32c7f65a0397df","636d05cc1fba2abe7f3bc083","194.70000000298023","","","","37","","","","key","16.666183098591535","960","468.5","true","1","133.030464","5.033164800000001","8","1","-1","","","","","","","","","","","","",""
"psychophysics","69","245379","0.0-8.0-0.22","57189f81dd9ef10011de0cb8","636d03e66a32c7f65a0397df","636d05cc1fba2abe7f3bc083","107.5","","","","37","","","","key","16.66648484848503","960","468.5","true","-1","138.0636288","5.033164800000001","8","-1","1","","","","","","","","","","","","",""
"psychophysics","70","246721","0.0-8.0-0.23","57189f81dd9ef10011de0cb8","636d03e66a32c7f65a0397df","636d05cc1fba2abe7f3bc083","333.70000000298023","","","","37","","","","key","16.666632911392277","960","468.5","true","-1","138.0636288","4.0265318400000005","9","-1","-1","","","","","","","","","","","","",""
"psychophysics","71","248128","0.0-8.0-0.24","57189f81dd9ef10011de0cb8","636d03e66a32c7f65a0397df","636d05cc1fba2abe7f3bc083","399.90000000596046","","","","37","","","","key","16.666476190476153","960","468.5","true","1","134.03709696","3.2212254720000004","10","1","-1","","","","","","","","","","","","",""
"psychophysics","72","249633","0.0-8.0-0.25","57189f81dd9ef10011de0cb8","636d03e66a32c7f65a0397df","636d05cc1fba2abe7f3bc083","495.5","","","","37","","","","key","16.667112359550476","960","468.5","true","1","137.258322432","3.2212254720000004","10","1","1","","","","","","","","","","","","",""
"psychophysics","73","250785","0.0-8.0-0.26","57189f81dd9ef10011de0cb8","636d03e66a32c7f65a0397df","636d05cc1fba2abe7f3bc083","147.70000000298023","","","","37","","","","key","16.666426470588384","960","468.5","true","-1","140.47954790400001","3.2212254720000004","10","-1","1","","","","","","","","","","","","",""
"psychophysics","74","252169","0.0-8.0-0.27","57189f81dd9ef10011de0cb8","636d03e66a32c7f65a0397df","636d05cc1fba2abe7f3bc083","381.3999999910593","","","","37","","","","key","16.66647560975625","960","468.5","true","-1","140.47954790400001","2.5769803776000004","11","-1","-1","","","","","","","","","","","","",""
"psychophysics","75","253395","0.0-8.0-0.28","57189f81dd9ef10011de0cb8","636d03e66a32c7f65a0397df","636d05cc1fba2abe7f3bc083","223.5","","","","37","","","","key","16.666602739725782","960","468.5","true","-1","137.90256752640002","2.5769803776000004","11","-1","-1","","","","","","","","","","","","",""
"psychophysics","76","254862","0.0-8.0-0.29","57189f81dd9ef10011de0cb8","636d03e66a32c7f65a0397df","636d05cc1fba2abe7f3bc083","457","","","","37","","","","key","16.666367816092144","960","468.5","true","-1","137.90256752640002","2.5769803776000004","11","-1","-1","","","","","","","","","","","","",""
"psychophysics","77","256295","0.0-8.0-0.30","57189f81dd9ef10011de0cb8","636d03e66a32c7f65a0397df","636d05cc1fba2abe7f3bc083","423.80000001192093","","","","37","","","","key","16.666564705882305","960","468.5","true","-1","135.32558714880003","2.5769803776000004","11","-1","-1","","","","","","","","","","","","",""
"psychophysics","78","257369","0.0-8.0-0.31","57189f81dd9ef10011de0cb8","636d03e66a32c7f65a0397df","636d05cc1fba2abe7f3bc083","65.30000001192093","","","","39","","","","key","16.66668253968237","960","468.5","true","1","135.32558714880003","2.5769803776000004","11","-1","-1","","","","","","","","","","","","",""
"psychophysics","79","258495","0.0-8.0-0.32","57189f81dd9ef10011de0cb8","636d03e66a32c7f65a0397df","636d05cc1fba2abe7f3bc083","122.5","","","","39","","","","key","16.666417910448107","960","468.5","true","1","132.74860677120003","2.5769803776000004","11","-1","-1","","","","","","","","","","","","",""
"psychophysics","80","259937","0.0-8.0-0.33","57189f81dd9ef10011de0cb8","636d03e66a32c7f65a0397df","636d05cc1fba2abe7f3bc083","432.3999999910593","","","","39","","","","key","16.666576470588403","960","468.5","true","1","132.74860677120003","2.5769803776000004","11","-1","-1","","","","","","","","","","","","",""
"psychophysics","81","261369","0.0-8.0-0.34","57189f81dd9ef10011de0cb8","636d03e66a32c7f65a0397df","636d05cc1fba2abe7f3bc083","424.80000001192093","","","","37","","","","key","16.66660000000026","960","468.5","true","-1","130.17162639360004","2.5769803776000004","11","-1","-1","","","","","","","","","","","","",""
"psychophysics","82","262914","0.0-8.0-0.35","57189f81dd9ef10011de0cb8","636d03e66a32c7f65a0397df","636d05cc1fba2abe7f3bc083","542.5","","","","37","","","","key","16.66645652173927","960","468.5","true","1","130.17162639360004","2.0615843020800004","12","1","-1","","","","","","","","","","","","",""
"psychophysics","83","264498","0.0-8.0-0.36","57189f81dd9ef10011de0cb8","636d03e66a32c7f65a0397df","636d05cc1fba2abe7f3bc083","577","","","","37","","","","key","16.666510638297893","960","468.5","true","1","132.23321069568004","2.0615843020800004","12","1","1","","","","","","","","","","","","",""
"psychophysics","84","266129","0.0-8.0-0.37","57189f81dd9ef10011de0cb8","636d03e66a32c7f65a0397df","636d05cc1fba2abe7f3bc083","624.5999999940395","","","","37","","","","key","16.666484536082226","960","468.5","true","-1","134.29479499776005","2.0615843020800004","12","-1","1","","","","","","","","","","","","",""
"psychophysics","85","267249","0.0-8.0-0.38","57189f81dd9ef10011de0cb8","636d03e66a32c7f65a0397df","636d05cc1fba2abe7f3bc083","111.5","","","","37","","","","key","16.66660606060671","960","468.5","true","1","134.29479499776005","1.6492674416640005","13","1","-1","","","","","","","","","","","","",""
"psychophysics","86","268337","0.0-8.0-0.39","57189f81dd9ef10011de0cb8","636d03e66a32c7f65a0397df","636d05cc1fba2abe7f3bc083","82.90000000596046","","","","37","","","","key","16.666468750000604","960","468.5","true","-1","135.94406243942404","1.6492674416640005","13","-1","1","","","","","","","","","","","","",""
"html-keyboard-response","87","270523","0.0-9.0","57189f81dd9ef10011de0cb8","636d03e66a32c7f65a0397df","636d05cc1fba2abe7f3bc083","2184.0999999940395","<p>Well Done !</p><p>Prepare for a new block.</p><p>DON'T EXIT THE FULL SCREEN MODE</p><p>Press the Spacebar to start.</p>","","","32","","","","","","","","","","","","","","","true","135.15207047004165","","","","","","","","","","",""
"psychophysics","88","274345","0.0-10.0-0.0","57189f81dd9ef10011de0cb8","636d03e66a32c7f65a0397df","636d05cc1fba2abe7f3bc083","2817.3999999910593","","","","37","","","","key","16.66674235807864","960","468.5","true","1","180","30","0","1","","","","","","","","","","","","","",""
"psychophysics","89","275482","0.0-10.0-0.1","57189f81dd9ef10011de0cb8","636d03e66a32c7f65a0397df","636d05cc1fba2abe7f3bc083","127.59999999403954","","","","37","","","","key","16.66649253731385","960","468.5","true","-1","210","30","0","-1","1","","","","","","","","","","","","",""
"psychophysics","90","276553","0.0-10.0-0.2","57189f81dd9ef10011de0cb8","636d03e66a32c7f65a0397df","636d05cc1fba2abe7f3bc083","65.6000000089407","","","","37","","","","key","16.66646031746068","960","468.5","true","-1","210","24","1","-1","-1","","","","","","","","","","","","",""
"psychophysics","91","277628","0.0-10.0-0.3","57189f81dd9ef10011de0cb8","636d03e66a32c7f65a0397df","636d05cc1fba2abe7f3bc083","73.5","","","","39","","","","key","16.666546874999767","960","468.5","true","1","186","24","1","-1","-1","","","","","","","","","","","","",""
"psychophysics","92","280433","0.0-10.0-0.4","57189f81dd9ef10011de0cb8","636d03e66a32c7f65a0397df","636d05cc1fba2abe7f3bc083","1800.800000011921","","","","39","","","","key","16.766903614457725","960","468.5","true","-1","186","19.2","2","1","-1","","","","","","","","","","","","",""
"psychophysics","93","281494","0.0-10.0-0.5","57189f81dd9ef10011de0cb8","636d03e66a32c7f65a0397df","636d05cc1fba2abe7f3bc083","56.599999994039536","","","","39","","","","key","16.666571428571526","960","468.5","true","1","205.2","19.2","2","-1","1","","","","","","","","","","","","",""
"psychophysics","94","282537","0.0-10.0-0.6","57189f81dd9ef10011de0cb8","636d03e66a32c7f65a0397df","636d05cc1fba2abe7f3bc083","35.20000000298023","","","","37","","","","key","16.666459016394075","960","468.5","true","-1","205.2","15.36","3","-1","-1","","","","","","","","","","","","",""
"psychophysics","95","283569","0.0-10.0-0.7","57189f81dd9ef10011de0cb8","636d03e66a32c7f65a0397df","636d05cc1fba2abe7f3bc083","25","","","","37","","","","key","16.66613114754036","960","468.5","true","-1","189.83999999999997","15.36","3","-1","-1","","","","","","","","","","","","",""
"psychophysics","96","285278","0.0-10.0-0.8","57189f81dd9ef10011de0cb8","636d03e66a32c7f65a0397df","636d05cc1fba2abe7f3bc083","706.5","","","","37","","","","key","16.666549019607963","960","468.5","true","1","189.83999999999997","12.287999999999998","4","1","-1","","","","","","","","","","","","",""
"psychophysics","97","286879","0.0-10.0-0.9","57189f81dd9ef10011de0cb8","636d03e66a32c7f65a0397df","636d05cc1fba2abe7f3bc083","591.2000000029802","","","","37","","","","key","16.66615789473657","960","468.5","true","-1","202.128","12.287999999999998","4","-1","1","","","","","","","","","","","","",""
"psychophysics","98","287937","0.0-10.0-0.10","57189f81dd9ef10011de0cb8","636d03e66a32c7f65a0397df","636d05cc1fba2abe7f3bc083","49.6000000089407","","","","37","","","","key","16.66624193548435","960","468.5","true","-1","202.128","9.8304","5","-1","-1","","","","","","","","","","","","",""
"psychophysics","99","289665","0.0-10.0-0.11","57189f81dd9ef10011de0cb8","636d03e66a32c7f65a0397df","636d05cc1fba2abe7f3bc083","721.5","","","","37","","","","key","16.66660194174789","960","468.5","true","1","192.2976","7.864319999999999","6","1","-1","","","","","","","","","","","","",""
"psychophysics","100","291227","0.0-10.0-0.12","57189f81dd9ef10011de0cb8","636d03e66a32c7f65a0397df","636d05cc1fba2abe7f3bc083","556.5","","","","37","","","","key","16.666516129031994","960","468.5","true","-1","200.16191999999998","7.864319999999999","6","-1","1","","","","","","","","","","","","",""
"psychophysics","101","292985","0.0-10.0-0.13","57189f81dd9ef10011de0cb8","636d03e66a32c7f65a0397df","636d05cc1fba2abe7f3bc083","747.5","","","","37","","","","key","16.666375000000137","960","468.5","true","1","200.16191999999998","6.291456","7","1","-1","","","","","","","","","","","","",""
"psychophysics","102","294127","0.0-10.0-0.14","57189f81dd9ef10011de0cb8","636d03e66a32c7f65a0397df","636d05cc1fba2abe7f3bc083","140","","","","37","","","","key","16.666617647059063","960","468.5","true","-1","206.453376","6.291456","7","-1","1","","","","","","","","","","","","",""
"psychophysics","103","295265","0.0-10.0-0.15","57189f81dd9ef10011de0cb8","636d03e66a32c7f65a0397df","636d05cc1fba2abe7f3bc083","132.5","","","","37","","","","key","16.666149253731962","960","468.5","true","-1","206.453376","5.033164800000001","8","-1","-1","","","","","","","","","","","","",""
"psychophysics","104","296280","0.0-10.0-0.16","57189f81dd9ef10011de0cb8","636d03e66a32c7f65a0397df","636d05cc1fba2abe7f3bc083","8.900000005960464","","","","39","","","","key","16.665983333333863","960","468.5","true","1","201.42021119999998","5.033164800000001","8","-1","-1","","","","","","","","","","","","",""
"psychophysics","105","297847","0.0-10.0-0.17","57189f81dd9ef10011de0cb8","636d03e66a32c7f65a0397df","636d05cc1fba2abe7f3bc083","559.7999999970198","","","","37","","","","key","16.666978494623446","960","468.5","true","1","201.42021119999998","4.0265318400000005","9","1","-1","","","","","","","","","","","","",""
"psychophysics","106","299011","0.0-10.0-0.18","57189f81dd9ef10011de0cb8","636d03e66a32c7f65a0397df","636d05cc1fba2abe7f3bc083","157.5","","","","39","","","","key","16.666637681158885","960","468.5","true","1","205.44674303999997","4.0265318400000005","9","-1","1","","","","","","","","","","","","",""
"psychophysics","107","301494","0.0-10.0-0.19","57189f81dd9ef10011de0cb8","636d03e66a32c7f65a0397df","636d05cc1fba2abe7f3bc083","1472.7000000029802","","","","37","","","","key","16.66645945945945","960","468.5","true","-1","205.44674303999997","3.2212254720000004","10","-1","-1","","","","","","","","","","","","",""
"psychophysics","108","302613","0.0-10.0-0.20","57189f81dd9ef10011de0cb8","636d03e66a32c7f65a0397df","636d05cc1fba2abe7f3bc083","113.29999999701977","","","","37","","","","key","16.66568181818178","960","468.5","true","-1","202.225517568","3.2212254720000004","10","-1","-1","","","","","","","","","","","","",""
"psychophysics","109","303897","0.0-10.0-0.21","57189f81dd9ef10011de0cb8","636d03e66a32c7f65a0397df","636d05cc1fba2abe7f3bc083","277.70000000298023","","","","37","","","","key","16.66750000000052","960","468.5","true","-1","202.225517568","3.2212254720000004","10","-1","-1","","","","","","","","","","","","",""
"psychophysics","110","305345","0.0-10.0-0.22","57189f81dd9ef10011de0cb8","636d03e66a32c7f65a0397df","636d05cc1fba2abe7f3bc083","441.29999999701977","","","","37","","","","key","16.66651162790706","960","468.5","true","-1","199.00429209599997","3.2212254720000004","10","-1","-1","","","","","","","","","","","","",""
"psychophysics","111","306745","0.0-10.0-0.23","57189f81dd9ef10011de0cb8","636d03e66a32c7f65a0397df","636d05cc1fba2abe7f3bc083","390.70000000298023","","","","37","","","","key","16.66650602409647","960","468.5","true","-1","199.00429209599997","3.2212254720000004","10","-1","-1","","","","","","","","","","","","",""
"psychophysics","112","308077","0.0-10.0-0.24","57189f81dd9ef10011de0cb8","636d03e66a32c7f65a0397df","636d05cc1fba2abe7f3bc083","322.79999999701977","","","","37","","","","key","16.666518987342126","960","468.5","true","-1","195.78306662399996","3.2212254720000004","10","-1","-1","","","","","","","","","","","","",""
"psychophysics","113","309510","0.0-10.0-0.25","57189f81dd9ef10011de0cb8","636d03e66a32c7f65a0397df","636d05cc1fba2abe7f3bc083","431.70000000298023","","","","37","","","","key","16.66644705882337","960","468.5","true","-1","195.78306662399996","3.2212254720000004","10","-1","-1","","","","","","","","","","","","",""
"psychophysics","114","310553","0.0-10.0-0.26","57189f81dd9ef10011de0cb8","636d03e66a32c7f65a0397df","636d05cc1fba2abe7f3bc083","40","","","","39","","","","key","16.66583606557344","960","468.5","true","1","192.56184115199994","3.2212254720000004","10","-1","-1","","","","","","","","","","","","",""
"psychophysics","115","311800","0.0-10.0-0.27","57189f81dd9ef10011de0cb8","636d03e66a32c7f65a0397df","636d05cc1fba2abe7f3bc083","240.70000000298023","","","","39","","","","key","16.666959459459207","960","468.5","true","1","192.56184115199994","3.2212254720000004","10","-1","-1","","","","","","","","","","","","",""
"psychophysics","116","313261","0.0-10.0-0.28","57189f81dd9ef10011de0cb8","636d03e66a32c7f65a0397df","636d05cc1fba2abe7f3bc083","457.5","","","","39","","","","key","16.666459770114482","960","468.5","true","1","189.34061567999993","3.2212254720000004","10","-1","-1","","","","","","","","","","","","",""
"psychophysics","117","314811","0.0-10.0-0.29","57189f81dd9ef10011de0cb8","636d03e66a32c7f65a0397df","636d05cc1fba2abe7f3bc083","544.6000000089407","","","","39","","","","key","16.666336956521896","960","468.5","true","1","189.34061567999993","3.2212254720000004","10","-1","-1","","","","","","","","","","","","",""
"psychophysics","118","316477","0.0-10.0-0.30","57189f81dd9ef10011de0cb8","636d03e66a32c7f65a0397df","636d05cc1fba2abe7f3bc083","656.8999999910593","","","","39","","","","key","16.66667676767666","960","468.5","true","1","186.1193902079999","3.2212254720000004","10","-1","-1","","","","","","","","","","","","",""
"psychophysics","119","317656","0.0-10.0-0.31","57189f81dd9ef10011de0cb8","636d03e66a32c7f65a0397df","636d05cc1fba2abe7f3bc083","161.20000000298023","","","","37","","","","key","16.666594202898484","960","468.5","true","-1","186.1193902079999","3.2212254720000004","10","-1","-1","","","","","","","","","","","","",""
"psychophysics","120","318801","0.0-10.0-0.32","57189f81dd9ef10011de0cb8","636d03e66a32c7f65a0397df","636d05cc1fba2abe7f3bc083","142.29999999701977","","","","39","","","","key","16.66641176470576","960","468.5","true","1","182.8981647359999","3.2212254720000004","10","-1","-1","","","","","","","","","","","","",""
"psychophysics","121","319844","0.0-10.0-0.33","57189f81dd9ef10011de0cb8","636d03e66a32c7f65a0397df","636d05cc1fba2abe7f3bc083","40.400000005960464","","","","37","","","","key","16.66638709677406","960","468.5","true","-1","182.8981647359999","3.2212254720000004","10","-1","-1","","","","","","","","","","","","",""
"psychophysics","122","320968","0.0-10.0-0.34","57189f81dd9ef10011de0cb8","636d03e66a32c7f65a0397df","636d05cc1fba2abe7f3bc083","115.29999999701977","","","","39","","","","key","16.666393939393334","960","468.5","true","1","179.67693926399988","3.2212254720000004","10","-1","-1","","","","","","","","","","","","",""
"psychophysics","123","322352","0.0-10.0-0.35","57189f81dd9ef10011de0cb8","636d03e66a32c7f65a0397df","636d05cc1fba2abe7f3bc083","382.29999999701977","","","","39","","","","key","16.66648780487807","960","468.5","true","1","179.67693926399988","3.2212254720000004","10","-1","-1","","","","","","","","","","","","",""
"psychophysics","124","323893","0.0-10.0-0.36","57189f81dd9ef10011de0cb8","636d03e66a32c7f65a0397df","636d05cc1fba2abe7f3bc083","534.6000000089407","","","","39","","","","key","16.666554347826445","960","468.5","true","1","176.45571379199987","3.2212254720000004","10","-1","-1","","","","","","","","","","","","",""
"psychophysics","125","324943","0.0-10.0-0.37","57189f81dd9ef10011de0cb8","636d03e66a32c7f65a0397df","636d05cc1fba2abe7f3bc083","44.70000000298023","","","","37","","","","key","16.666096774193708","960","468.5","true","-1","176.45571379199987","3.2212254720000004","10","-1","-1","","","","","","","","","","","","",""
"psychophysics","126","325985","0.0-10.0-0.38","57189f81dd9ef10011de0cb8","636d03e66a32c7f65a0397df","636d05cc1fba2abe7f3bc083","39.20000000298023","","","","39","","","","key","16.66649180327897","960","468.5","true","1","173.23448831999985","3.2212254720000004","10","-1","-1","","","","","","","","","","","","",""
"psychophysics","127","327648","0.0-10.0-0.39","57189f81dd9ef10011de0cb8","636d03e66a32c7f65a0397df","636d05cc1fba2abe7f3bc083","661.8999999910593","","","","37","","","","key","16.66681818181832","960","468.5","true","1","173.23448831999985","2.5769803776000004","11","1","-1","","","","","","","","","","","","",""
"html-keyboard-response","128","330395","0.0-11.0","57189f81dd9ef10011de0cb8","636d03e66a32c7f65a0397df","636d05cc1fba2abe7f3bc083","2746","<p>Well Done !</p><p>Prepare for a new block.</p><p>DON'T EXIT THE FULL SCREEN MODE</p><p>Press the Spacebar to start.</p>","","","32","","","","","","","","","","","","","","","true","183.7571581951999","","","","","","","","","","",""
"psychophysics","129","332168","0.0-12.0-0.0","57189f81dd9ef10011de0cb8","636d03e66a32c7f65a0397df","636d05cc1fba2abe7f3bc083","765","","","","37","","","","key","16.825552380952562","960","468.5","true","-1","180","30","0","-1","","","","","","","","","","","","","",""
"psychophysics","130","334843","0.0-12.0-0.1","57189f81dd9ef10011de0cb8","636d03e66a32c7f65a0397df","636d05cc1fba2abe7f3bc083","1673.6000000089407","","","","37","","","","key","16.66663750000007","960","468.5","true","1","180","30","0","1","-1","","","","","","","","","","","","",""
"psychophysics","131","336010","0.0-12.0-0.2","57189f81dd9ef10011de0cb8","636d03e66a32c7f65a0397df","636d05cc1fba2abe7f3bc083","156.59999999403954","","","","39","","","","key","16.666608695651952","960","468.5","true","1","210","30","0","-1","1","","","","","","","","","","","","",""
"psychophysics","132","337729","0.0-12.0-0.3","57189f81dd9ef10011de0cb8","636d03e66a32c7f65a0397df","636d05cc1fba2abe7f3bc083","710","","","","39","","","","key","16.666450980392185","960","468.5","true","1","210","24","1","-1","-1","","","","","","","","","","","","",""
"psychophysics","133","339426","0.0-12.0-0.4","57189f81dd9ef10011de0cb8","636d03e66a32c7f65a0397df","636d05cc1fba2abe7f3bc083","690.2000000029802","","","","39","","","","key","16.6665544554454","960","468.5","true","1","186","24","1","-1","-1","","","","","","","","","","","","",""
"psychophysics","134","340929","0.0-12.0-0.5","57189f81dd9ef10011de0cb8","636d03e66a32c7f65a0397df","636d05cc1fba2abe7f3bc083","492.69999998807907","","","","39","","","","key","16.666471910112264","960","468.5","true","1","186","24","1","-1","-1","","","","","","","","","","","","",""
"psychophysics","135","342427","0.0-12.0-0.6","57189f81dd9ef10011de0cb8","636d03e66a32c7f65a0397df","636d05cc1fba2abe7f3bc083","490.3999999910593","","","","39","","","","key","16.66625842696652","960","468.5","true","1","162","24","1","-1","-1","","","","","","","","","","","","",""
"psychophysics","136","343810","0.0-12.0-0.7","57189f81dd9ef10011de0cb8","636d03e66a32c7f65a0397df","636d05cc1fba2abe7f3bc083","374.29999999701977","","","","39","","","","key","16.666378048780267","960","468.5","true","1","162","24","1","-1","-1","","","","","","","","","","","","",""
"psychophysics","137","345168","0.0-12.0-0.8","57189f81dd9ef10011de0cb8","636d03e66a32c7f65a0397df","636d05cc1fba2abe7f3bc083","350.79999999701977","","","","37","","","","key","16.66666250000053","960","468.5","true","-1","138","24","1","-1","-1","","","","","","","","","","","","",""
"psychophysics","138","346600","0.0-12.0-0.9","57189f81dd9ef10011de0cb8","636d03e66a32c7f65a0397df","636d05cc1fba2abe7f3bc083","430.70000000298023","","","","37","","","","key","16.66644705882337","960","468.5","true","-1","138","24","1","-1","-1","","","","","","","","","","","","",""
"psychophysics","139","347856","0.0-12.0-0.10","57189f81dd9ef10011de0cb8","636d03e66a32c7f65a0397df","636d05cc1fba2abe7f3bc083","252.40000000596046","","","","39","","","","key","16.666459459459844","960","468.5","true","-1","129","19.2","2","1","-1","","","","","","","","","","","","",""
"psychophysics","140","349529","0.0-12.0-0.11","57189f81dd9ef10011de0cb8","636d03e66a32c7f65a0397df","636d05cc1fba2abe7f3bc083","669.6000000089407","","","","37","","","","key","16.666500000000234","960","468.5","true","1","148.2","19.2","2","1","1","","","","","","","","","","","","",""
"psychophysics","141","350737","0.0-12.0-0.12","57189f81dd9ef10011de0cb8","636d03e66a32c7f65a0397df","636d05cc1fba2abe7f3bc083","200.80000001192093","","","","39","","","","key","16.666098591549368","960","468.5","true","1","167.39999999999998","19.2","2","-1","1","","","","","","","","","","","","",""
"psychophysics","142","352265","0.0-12.0-0.13","57189f81dd9ef10011de0cb8","636d03e66a32c7f65a0397df","636d05cc1fba2abe7f3bc083","521.4000000059605","","","","37","","","","key","16.666571428571384","960","468.5","true","-1","167.39999999999998","15.36","3","-1","-1","","","","","","","","","","","","",""
"psychophysics","143","354343","0.0-12.0-0.14","57189f81dd9ef10011de0cb8","636d03e66a32c7f65a0397df","636d05cc1fba2abe7f3bc083","1073.3999999910593","","","","39","","","","key","16.666467741935424","960","468.5","true","1","152.03999999999996","15.36","3","-1","-1","","","","","","","","","","","","",""
"psychophysics","144","355826","0.0-12.0-0.15","57189f81dd9ef10011de0cb8","636d03e66a32c7f65a0397df","636d05cc1fba2abe7f3bc083","473.6000000089407","","","","39","","","","key","16.66603409090881","960","468.5","true","-1","152.03999999999996","12.287999999999998","4","1","-1","","","","","","","","","","","","",""
"psychophysics","145","357060","0.0-12.0-0.16","57189f81dd9ef10011de0cb8","636d03e66a32c7f65a0397df","636d05cc1fba2abe7f3bc083","223.90000000596046","","","","37","","","","key","16.66646575342468","960","468.5","true","-1","164.32799999999997","12.287999999999998","4","-1","1","","","","","","","","","","","","",""
"psychophysics","146","358352","0.0-12.0-0.17","57189f81dd9ef10011de0cb8","636d03e66a32c7f65a0397df","636d05cc1fba2abe7f3bc083","286.90000000596046","","","","37","","","","key","16.666236842104762","960","468.5","true","1","164.32799999999997","9.8304","5","1","-1","","","","","","","","","","","","",""
"psychophysics","147","359552","0.0-12.0-0.18","57189f81dd9ef10011de0cb8","636d03e66a32c7f65a0397df","636d05cc1fba2abe7f3bc083","193.70000000298023","","","","37","","","","key","16.666690140845365","960","468.5","true","-1","174.15839999999997","9.8304","5","-1","1","","","","","","","","","","","","",""
"psychophysics","148","360745","0.0-12.0-0.19","57189f81dd9ef10011de0cb8","636d03e66a32c7f65a0397df","636d05cc1fba2abe7f3bc083","186.19999998807907","","","","37","","","","key","16.666295774648308","960","468.5","true","-1","174.15839999999997","7.864319999999999","6","-1","-1","","","","","","","","","","","","",""
"psychophysics","149","361816","0.0-12.0-0.20","57189f81dd9ef10011de0cb8","636d03e66a32c7f65a0397df","636d05cc1fba2abe7f3bc083","63.400000005960464","","","","39","","","","key","16.666015873016377","960","468.5","true","1","166.29407999999998","7.864319999999999","6","-1","-1","","","","","","","","","","","","",""
"psychophysics","150","362985","0.0-12.0-0.21","57189f81dd9ef10011de0cb8","636d03e66a32c7f65a0397df","636d05cc1fba2abe7f3bc083","165.6000000089407","","","","37","","","","key","16.66684057970997","960","468.5","true","-1","166.29407999999998","7.864319999999999","6","-1","-1","","","","","","","","","","","","",""
"psychophysics","151","364076","0.0-12.0-0.22","57189f81dd9ef10011de0cb8","636d03e66a32c7f65a0397df","636d05cc1fba2abe7f3bc083","89.79999999701977","","","","39","","","","key","16.666800000000066","960","468.5","true","1","158.42976","7.864319999999999","6","-1","-1","","","","","","","","","","","","",""
"psychophysics","152","365736","0.0-12.0-0.23","57189f81dd9ef10011de0cb8","636d03e66a32c7f65a0397df","636d05cc1fba2abe7f3bc083","653.6999999880791","","","","39","","","","key","16.666346938775767","960","468.5","true","-1","158.42976","6.291456","7","1","-1","","","","","","","","","","","","",""
"psychophysics","153","366875","0.0-12.0-0.24","57189f81dd9ef10011de0cb8","636d03e66a32c7f65a0397df","636d05cc1fba2abe7f3bc083","133.1000000089407","","","","39","","","","key","16.66654411764723","960","468.5","true","-1","164.721216","6.291456","7","1","1","","","","","","","","","","","","",""
"psychophysics","154","367896","0.0-12.0-0.25","57189f81dd9ef10011de0cb8","636d03e66a32c7f65a0397df","636d05cc1fba2abe7f3bc083","12.5","","","","37","","","","key","16.665983333333863","960","468.5","true","-1","171.012672","6.291456","7","-1","1","","","","","","","","","","","","",""
"psychophysics","155","369664","0.0-12.0-0.26","57189f81dd9ef10011de0cb8","636d03e66a32c7f65a0397df","636d05cc1fba2abe7f3bc083","761.8000000119209","","","","37","","","","key","16.666447619047748","960","468.5","true","-1","171.012672","5.033164800000001","8","-1","-1","","","","","","","","","","","","",""
"psychophysics","156","371232","0.0-12.0-0.27","57189f81dd9ef10011de0cb8","636d03e66a32c7f65a0397df","636d05cc1fba2abe7f3bc083","562.5999999940395","","","","39","","","","key","16.666752688171748","960","468.5","true","1","165.9795072","5.033164800000001","8","-1","-1","","","","","","","","","","","","",""
"psychophysics","157","372260","0.0-12.0-0.28","57189f81dd9ef10011de0cb8","636d03e66a32c7f65a0397df","636d05cc1fba2abe7f3bc083","24.5","","","","37","","","","key","16.666311475409188","960","468.5","true","-1","165.9795072","5.033164800000001","8","-1","-1","","","","","","","","","","","","",""
"psychophysics","158","373310","0.0-12.0-0.29","57189f81dd9ef10011de0cb8","636d03e66a32c7f65a0397df","636d05cc1fba2abe7f3bc083","40","","","","39","","","","key","16.666564516129814","960","468.5","true","1","160.9463424","5.033164800000001","8","-1","-1","","","","","","","","","","","","",""
"psychophysics","159","375211","0.0-12.0-0.30","57189f81dd9ef10011de0cb8","636d03e66a32c7f65a0397df","636d05cc1fba2abe7f3bc083","891.2000000029802","","","","37","","","","key","16.66646017699113","960","468.5","true","-1","160.9463424","5.033164800000001","8","-1","-1","","","","","","","","","","","","",""
"psychophysics","160","376800","0.0-12.0-0.31","57189f81dd9ef10011de0cb8","636d03e66a32c7f65a0397df","636d05cc1fba2abe7f3bc083","581.5","","","","39","","","","key","16.666382978723554","960","468.5","true","1","155.91317759999998","5.033164800000001","8","-1","-1","","","","","","","","","","","","",""
"psychophysics","161","377929","0.0-12.0-0.32","57189f81dd9ef10011de0cb8","636d03e66a32c7f65a0397df","636d05cc1fba2abe7f3bc083","125.70000000298023","","","","39","","","","key","16.666417910448107","960","468.5","true","1","155.91317759999998","5.033164800000001","8","-1","-1","","","","","","","","","","","","",""
"psychophysics","162","379400","0.0-12.0-0.33","57189f81dd9ef10011de0cb8","636d03e66a32c7f65a0397df","636d05cc1fba2abe7f3bc083","464.6000000089407","","","","37","","","","key","16.666436781608983","960","468.5","true","-1","150.88001279999997","5.033164800000001","8","-1","-1","","","","","","","","","","","","",""
"psychophysics","163","380961","0.0-12.0-0.34","57189f81dd9ef10011de0cb8","636d03e66a32c7f65a0397df","636d05cc1fba2abe7f3bc083","557.5","","","","37","","","","key","16.666419354838855","960","468.5","true","-1","150.88001279999997","5.033164800000001","8","-1","-1","","","","","","","","","","","","",""
"psychophysics","164","382076","0.0-12.0-0.35","57189f81dd9ef10011de0cb8","636d03e66a32c7f65a0397df","636d05cc1fba2abe7f3bc083","106","","","","37","","","","key","16.666393939394215","960","468.5","true","-1","145.84684799999997","5.033164800000001","8","-1","-1","","","","","","","","","","","","",""
"psychophysics","165","383465","0.0-12.0-0.36","57189f81dd9ef10011de0cb8","636d03e66a32c7f65a0397df","636d05cc1fba2abe7f3bc083","381.40000000596046","","","","37","","","","key","16.666170731707187","960","468.5","true","-1","145.84684799999997","5.033164800000001","8","-1","-1","","","","","","","","","","","","",""
"psychophysics","166","384584","0.0-12.0-0.37","57189f81dd9ef10011de0cb8","636d03e66a32c7f65a0397df","636d05cc1fba2abe7f3bc083","115.5","","","","39","","","","key","16.666742424242496","960","468.5","true","1","140.81368319999996","5.033164800000001","8","-1","-1","","","","","","","","","","","","",""
"psychophysics","167","385664","0.0-12.0-0.38","57189f81dd9ef10011de0cb8","636d03e66a32c7f65a0397df","636d05cc1fba2abe7f3bc083","78.70000000298023","","","","39","","","","key","16.66650000000027","960","468.5","true","1","140.81368319999996","5.033164800000001","8","-1","-1","","","","","","","","","","","","",""
"psychophysics","168","386876","0.0-12.0-0.39","57189f81dd9ef10011de0cb8","636d03e66a32c7f65a0397df","636d05cc1fba2abe7f3bc083","206.6000000089407","","","","39","","","","key","16.666402777778178","960","468.5","true","1","135.78051839999995","5.033164800000001","8","-1","-1","","","","","","","","","","","","",""
"html-keyboard-response","169","388490","0.0-13.0","57189f81dd9ef10011de0cb8","636d03e66a32c7f65a0397df","636d05cc1fba2abe7f3bc083","1611.6000000089407","<p>Well Done !</p><p>Prepare for a new block.</p><p>DON'T EXIT THE FULL SCREEN MODE</p><p>Press the Spacebar to start.</p>","","","32","","","","","","","","","","","","","","","true","154.57100032","","","","","","","","","","",""
"html-keyboard-response","170","388593","0.0-14.0","57189f81dd9ef10011de0cb8","636d03e66a32c7f65a0397df","636d05cc1fba2abe7f3bc083","null","","","","null","","","","","","","","","","","","","","","","","151.77541186048","true","175.55082372096","","","","","","","",""
"instructions","171","422752","0.0-15.0","57189f81dd9ef10011de0cb8","636d03e66a32c7f65a0397df","636d05cc1fba2abe7f3bc083","34157.29999999702","","","","","","","[{""page_index"":0,""viewing_time"":19013.39999999106},{""page_index"":1,""viewing_time"":6775.9000000059605},{""page_index"":2,""viewing_time"":8367.70000000298}]","","","","","","","","","","","","","","","","","","","","","","","",""
"psychophysics","172","425778","0.0-16.0-0.0","57189f81dd9ef10011de0cb8","636d03e66a32c7f65a0397df","636d05cc1fba2abe7f3bc083","null","","","","null","","","","key","16.66718333333362","960","468.5","","","","","","","","","","","","","","","","","","","",""
"psychophysics","173","426285","0.0-16.0-1.0","57189f81dd9ef10011de0cb8","636d03e66a32c7f65a0397df","636d05cc1fba2abe7f3bc083","null","","","","null","","","","key","16.66772413793108","960","468.5","","","","","","","","","","","","","176","1","6","false","","","",""
"psychophysics","174","428392","0.0-16.0-2.0","57189f81dd9ef10011de0cb8","636d03e66a32c7f65a0397df","636d05cc1fba2abe7f3bc083","2098.7999999970198","","","","90","","","","key","16.66617460317479","960","468.5","","","","","","","","","","","","","","","","","","","",""
"psychophysics","175","429403","0.0-16.0-0.1","57189f81dd9ef10011de0cb8","636d03e66a32c7f65a0397df","636d05cc1fba2abe7f3bc083","null","","","","null","","","","key","16.66657627118708","960","468.5","","","","","","","","","","","","","","","","","","","",""
"psychophysics","176","429928","0.0-16.0-1.1","57189f81dd9ef10011de0cb8","636d03e66a32c7f65a0397df","636d05cc1fba2abe7f3bc083","null","","","","null","","","","key","16.66703225806498","960","468.5","","","","","","","","","","","","","176","-1","3","false","","","",""
"psychophysics","177","434926","0.0-16.0-2.1","57189f81dd9ef10011de0cb8","636d03e66a32c7f65a0397df","636d05cc1fba2abe7f3bc083","4995.29999999702","","","","77","","","","key","16.666588628762533","960","468.5","","","","","","","","","","","","","","","","","","","",""
"psychophysics","178","435935","0.0-16.0-0.2","57189f81dd9ef10011de0cb8","636d03e66a32c7f65a0397df","636d05cc1fba2abe7f3bc083","null","","","","null","","","","key","16.666474576270943","960","468.5","","","","","","","","","","","","","","","","","","","",""
"psychophysics","179","436442","0.0-16.0-1.2","57189f81dd9ef10011de0cb8","636d03e66a32c7f65a0397df","636d05cc1fba2abe7f3bc083","null","","","","null","","","","key","16.66610000000025","960","468.5","","","","","","","","","","","","","176","1","0","false","","","",""
"psychophysics","180","437342","0.0-16.0-2.2","57189f81dd9ef10011de0cb8","636d03e66a32c7f65a0397df","636d05cc1fba2abe7f3bc083","898","","","","90","","","","key","16.66647169811383","960","468.5","","","","","","","","","","","","","","","","","","","",""
"psychophysics","181","438352","0.0-16.0-0.3","57189f81dd9ef10011de0cb8","636d03e66a32c7f65a0397df","636d05cc1fba2abe7f3bc083","null","","","","null","","","","key","16.66635593220343","960","468.5","","","","","","","","","","","","","","","","","","","",""
"psychophysics","182","438858","0.0-16.0-1.3","57189f81dd9ef10011de0cb8","636d03e66a32c7f65a0397df","636d05cc1fba2abe7f3bc083","null","","","","null","","","","key","16.666499999999846","960","468.5","","","","","","","","","","","","","176","1","2","false","","","",""
"psychophysics","183","440464","0.0-16.0-2.3","57189f81dd9ef10011de0cb8","636d03e66a32c7f65a0397df","636d05cc1fba2abe7f3bc083","1604.2999999970198","","","","90","","","","key","16.66628421052592","960","468.5","","","","","","","","","","","","","","","","","","","",""
"psychophysics","184","441469","0.0-16.0-0.4","57189f81dd9ef10011de0cb8","636d03e66a32c7f65a0397df","636d05cc1fba2abe7f3bc083","null","","","","null","","","","key","16.666491525423304","960","468.5","","","","","","","","","","","","","","","","","","","",""
"psychophysics","185","441976","0.0-16.0-1.4","57189f81dd9ef10011de0cb8","636d03e66a32c7f65a0397df","636d05cc1fba2abe7f3bc083","null","","","","null","","","","key","16.66569999999871","960","468.5","","","","","","","","","","","","","176","-1","4","false","","","",""
"psychophysics","186","452926","0.0-16.0-2.4","57189f81dd9ef10011de0cb8","636d03e66a32c7f65a0397df","636d05cc1fba2abe7f3bc083","10948.60000000894","","","","77","","","","key","16.666530487804888","960","468.5","","","","","","","","","","","","","","","","","","","",""
"psychophysics","187","453933","0.0-16.0-0.5","57189f81dd9ef10011de0cb8","636d03e66a32c7f65a0397df","636d05cc1fba2abe7f3bc083","null","","","","null","","","","key","16.667338983050225","960","468.5","","","","","","","","","","","","","","","","","","","",""
"psychophysics","188","454435","0.0-16.0-1.5","57189f81dd9ef10011de0cb8","636d03e66a32c7f65a0397df","636d05cc1fba2abe7f3bc083","null","","","","null","","","","key","16.66437931034457","960","468.5","","","","","","","","","","","","","176","-1","2","false","","","",""
"psychophysics","189","455032","0.0-16.0-2.5","57189f81dd9ef10011de0cb8","636d03e66a32c7f65a0397df","636d05cc1fba2abe7f3bc083","589.7999999970198","","","","90","","","","key","16.668000000000134","960","468.5","","","","","","","","","","","","","","","","","","","",""
"psychophysics","190","456035","0.0-16.0-0.6","57189f81dd9ef10011de0cb8","636d03e66a32c7f65a0397df","636d05cc1fba2abe7f3bc083","null","","","","null","","","","key","16.66625423728828","960","468.5","","","","","","","","","","","","","","","","","","","",""
"psychophysics","191","456542","0.0-16.0-1.6","57189f81dd9ef10011de0cb8","636d03e66a32c7f65a0397df","636d05cc1fba2abe7f3bc083","null","","","","null","","","","key","16.665833333332557","960","468.5","","","","","","","","","","","","","176","1","5","false","","","",""
"psychophysics","192","457033","0.0-16.0-2.6","57189f81dd9ef10011de0cb8","636d03e66a32c7f65a0397df","636d05cc1fba2abe7f3bc083","489.5","","","","90","","","","key","16.666571428573143","960","468.5","","","","","","","","","","","","","","","","","","","",""
"psychophysics","193","458035","0.0-16.0-0.7","57189f81dd9ef10011de0cb8","636d03e66a32c7f65a0397df","636d05cc1fba2abe7f3bc083","null","","","","null","","","","key","16.666457627118582","960","468.5","","","","","","","","","","","","","","","","","","","",""
"psychophysics","194","458542","0.0-16.0-1.7","57189f81dd9ef10011de0cb8","636d03e66a32c7f65a0397df","636d05cc1fba2abe7f3bc083","null","","","","null","","","","key","16.666033333334294","960","468.5","","","","","","","","","","","","","176","1","3","false","","","",""
"psychophysics","195","460177","0.0-16.0-2.7","57189f81dd9ef10011de0cb8","636d03e66a32c7f65a0397df","636d05cc1fba2abe7f3bc083","1621.699999988079","","","","77","","","","key","16.666628865979387","960","468.5","","","","","","","","","","","","","","","","","","","",""
"psychophysics","196","461186","0.0-16.0-0.8","57189f81dd9ef10011de0cb8","636d03e66a32c7f65a0397df","636d05cc1fba2abe7f3bc083","null","","","","null","","","","key","16.666474576270943","960","468.5","","","","","","","","","","","","","","","","","","","",""
"psychophysics","197","461693","0.0-16.0-1.8","57189f81dd9ef10011de0cb8","636d03e66a32c7f65a0397df","636d05cc1fba2abe7f3bc083","null","","","","null","","","","key","16.666699999999643","960","468.5","","","","","","","","","","","","","176","-1","6","false","","","",""
"psychophysics","198","463575","0.0-16.0-2.8","57189f81dd9ef10011de0cb8","636d03e66a32c7f65a0397df","636d05cc1fba2abe7f3bc083","1880.3999999910593","","","","90","","","","key","16.666366071428325","960","468.5","","","","","","","","","","","","","","","","","","","",""
"psychophysics","199","464585","0.0-16.0-0.9","57189f81dd9ef10011de0cb8","636d03e66a32c7f65a0397df","636d05cc1fba2abe7f3bc083","null","","","","null","","","","key","16.666813559322105","960","468.5","","","","","","","","","","","","","","","","","","","",""
"psychophysics","200","465091","0.0-16.0-1.9","57189f81dd9ef10011de0cb8","636d03e66a32c7f65a0397df","636d05cc1fba2abe7f3bc083","null","","","","null","","","","key","16.665766666666606","960","468.5","","","","","","","","","","","","","176","-1","0","false","","","",""
"psychophysics","201","465800","0.0-16.0-2.9","57189f81dd9ef10011de0cb8","636d03e66a32c7f65a0397df","636d05cc1fba2abe7f3bc083","707","","","","90","","","","key","16.66621951219518","960","468.5","","","","","","","","","","","","","","","","","","","",""
"psychophysics","202","466803","0.0-16.0-0.10","57189f81dd9ef10011de0cb8","636d03e66a32c7f65a0397df","636d05cc1fba2abe7f3bc083","null","","","","null","","","","key","16.666389830509136","960","468.5","","","","","","","","","","","","","","","","","","","",""
"psychophysics","203","467308","0.0-16.0-1.10","57189f81dd9ef10011de0cb8","636d03e66a32c7f65a0397df","636d05cc1fba2abe7f3bc083","null","","","","null","","","","key","16.665033333333366","960","468.5","","","","","","","","","","","","","176","-1","5","false","","","",""
"psychophysics","204","472264","0.0-16.0-2.10","57189f81dd9ef10011de0cb8","636d03e66a32c7f65a0397df","636d05cc1fba2abe7f3bc083","4954.100000008941","","","","77","","","","key","16.666429054054174","960","468.5","","","","","","","","","","","","","","","","","","","",""
"psychophysics","205","473268","0.0-16.0-0.11","57189f81dd9ef10011de0cb8","636d03e66a32c7f65a0397df","636d05cc1fba2abe7f3bc083","null","","","","null","","","","key","16.66652542372901","960","468.5","","","","","","","","","","","","","","","","","","","",""
"psychophysics","206","473775","0.0-16.0-1.11","57189f81dd9ef10011de0cb8","636d03e66a32c7f65a0397df","636d05cc1fba2abe7f3bc083","null","","","","null","","","","key","16.666433333331952","960","468.5","","","","","","","","","","","","","176","1","4","false","","","",""
"psychophysics","207","474545","0.0-16.0-2.11","57189f81dd9ef10011de0cb8","636d03e66a32c7f65a0397df","636d05cc1fba2abe7f3bc083","767.7999999970198","","","","77","","","","key","16.667377777777922","960","468.5","","","","","","","","","","","","","","","","","","","",""
"psychophysics","208","475552","0.0-16.0-0.12","57189f81dd9ef10011de0cb8","636d03e66a32c7f65a0397df","636d05cc1fba2abe7f3bc083","null","","","","null","","","","key","16.665847457626686","960","468.5","","","","","","","","","","","","","","","","","","","",""
"psychophysics","209","476058","0.0-16.0-1.12","57189f81dd9ef10011de0cb8","636d03e66a32c7f65a0397df","636d05cc1fba2abe7f3bc083","null","","","","null","","","","key","16.667666666665657","960","468.5","","","","","","","","","","","","","176","1","2","false","","","",""
"psychophysics","210","479001","0.0-16.0-2.12","57189f81dd9ef10011de0cb8","636d03e66a32c7f65a0397df","636d05cc1fba2abe7f3bc083","2940.7000000029802","","","","90","","","","key","16.666771428571415","960","468.5","","","","","","","","","","","","","","","","","","","",""
"psychophysics","211","480008","0.0-16.0-0.13","57189f81dd9ef10011de0cb8","636d03e66a32c7f65a0397df","636d05cc1fba2abe7f3bc083","null","","","","null","","","","key","16.666233333333125","960","468.5","","","","","","","","","","","","","","","","","","","",""
"psychophysics","212","480519","0.0-16.0-1.13","57189f81dd9ef10011de0cb8","636d03e66a32c7f65a0397df","636d05cc1fba2abe7f3bc083","null","","","","null","","","","key","16.66651724138024","960","468.5","","","","","","","","","","","","","176","-1","6","false","","","",""
"psychophysics","213","481296","0.0-16.0-2.13","57189f81dd9ef10011de0cb8","636d03e66a32c7f65a0397df","636d05cc1fba2abe7f3bc083","769.2999999970198","","","","77","","","","key","16.665217391305106","960","468.5","","","","","","","","","","","","","","","","","","","",""
"psychophysics","214","482301","0.0-16.0-0.14","57189f81dd9ef10011de0cb8","636d03e66a32c7f65a0397df","636d05cc1fba2abe7f3bc083","null","","","","null","","","","key","16.665084745762552","960","468.5","","","","","","","","","","","","","","","","","","","",""
"psychophysics","215","482808","0.0-16.0-1.14","57189f81dd9ef10011de0cb8","636d03e66a32c7f65a0397df","636d05cc1fba2abe7f3bc083","null","","","","null","","","","key","16.66633333333302","960","468.5","","","","","","","","","","","","","176","-1","4","false","","","",""
"psychophysics","216","483443","0.0-16.0-2.14","57189f81dd9ef10011de0cb8","636d03e66a32c7f65a0397df","636d05cc1fba2abe7f3bc083","632.2999999970198","","","","77","","","","key","16.66672972972958","960","468.5","","","","","","","","","","","","","","","","","","","",""
"psychophysics","217","484449","0.0-16.0-0.15","57189f81dd9ef10011de0cb8","636d03e66a32c7f65a0397df","636d05cc1fba2abe7f3bc083","null","","","","null","","","","key","16.66657627118708","960","468.5","","","","","","","","","","","","","","","","","","","",""
"psychophysics","218","484951","0.0-16.0-1.15","57189f81dd9ef10011de0cb8","636d03e66a32c7f65a0397df","636d05cc1fba2abe7f3bc083","null","","","","null","","","","key","16.665827586207186","960","468.5","","","","","","","","","","","","","176","-1","5","false","","","",""
"psychophysics","219","485777","0.0-16.0-2.15","57189f81dd9ef10011de0cb8","636d03e66a32c7f65a0397df","636d05cc1fba2abe7f3bc083","817","","","","77","","","","key","16.66638775510186","960","468.5","","","","","","","","","","","","","","","","","","","",""
"psychophysics","220","486784","0.0-16.0-0.16","57189f81dd9ef10011de0cb8","636d03e66a32c7f65a0397df","636d05cc1fba2abe7f3bc083","null","","","","null","","","","key","16.666711864406953","960","468.5","","","","","","","","","","","","","","","","","","","",""
"psychophysics","221","487291","0.0-16.0-1.16","57189f81dd9ef10011de0cb8","636d03e66a32c7f65a0397df","636d05cc1fba2abe7f3bc083","null","","","","null","","","","key","16.666133333333224","960","468.5","","","","","","","","","","","","","176","-1","2","false","","","",""
"psychophysics","222","487745","0.0-16.0-2.16","57189f81dd9ef10011de0cb8","636d03e66a32c7f65a0397df","636d05cc1fba2abe7f3bc083","451.5","","","","77","","","","key","16.666230769230214","960","468.5","","","","","","","","","","","","","","","","","","","",""
"psychophysics","223","488751","0.0-16.0-0.17","57189f81dd9ef10011de0cb8","636d03e66a32c7f65a0397df","636d05cc1fba2abe7f3bc083","null","","","","null","","","","key","16.666559322033734","960","468.5","","","","","","","","","","","","","","","","","","","",""
"psychophysics","224","489258","0.0-16.0-1.17","57189f81dd9ef10011de0cb8","636d03e66a32c7f65a0397df","636d05cc1fba2abe7f3bc083","null","","","","null","","","","key","16.665933333333427","960","468.5","","","","","","","","","","","","","176","1","5","false","","","",""
"psychophysics","225","489859","0.0-16.0-2.17","57189f81dd9ef10011de0cb8","636d03e66a32c7f65a0397df","636d05cc1fba2abe7f3bc083","598.4000000059605","","","","77","","","","key","16.66634285714411","960","468.5","","","","","","","","","","","","","","","","","","","",""
"psychophysics","226","490868","0.0-16.0-0.18","57189f81dd9ef10011de0cb8","636d03e66a32c7f65a0397df","636d05cc1fba2abe7f3bc083","null","","","","null","","","","key","16.666186440677848","960","468.5","","","","","","","","","","","","","","","","","","","",""
"psychophysics","227","491369","0.0-16.0-1.18","57189f81dd9ef10011de0cb8","636d03e66a32c7f65a0397df","636d05cc1fba2abe7f3bc083","null","","","","null","","","","key","16.66634482758698","960","468.5","","","","","","","","","","","","","176","-1","0","false","","","",""
"psychophysics","228","492009","0.0-16.0-2.18","57189f81dd9ef10011de0cb8","636d03e66a32c7f65a0397df","636d05cc1fba2abe7f3bc083","631.5","","","","77","","","","key","16.666026315789694","960","468.5","","","","","","","","","","","","","","","","","","","",""
"psychophysics","229","493018","0.0-16.0-0.19","57189f81dd9ef10011de0cb8","636d03e66a32c7f65a0397df","636d05cc1fba2abe7f3bc083","null","","","","null","","","","key","16.666881355931547","960","468.5","","","","","","","","","","","","","","","","","","","",""
"psychophysics","230","493524","0.0-16.0-1.19","57189f81dd9ef10011de0cb8","636d03e66a32c7f65a0397df","636d05cc1fba2abe7f3bc083","null","","","","null","","","","key","16.666699999999643","960","468.5","","","","","","","","","","","","","176","1","3","false","","","",""
"psychophysics","231","494093","0.0-16.0-2.19","57189f81dd9ef10011de0cb8","636d03e66a32c7f65a0397df","636d05cc1fba2abe7f3bc083","566.0999999940395","","","","77","","","","key","16.666060606060043","960","468.5","","","","","","","","","","","","","","","","","","","",""
"psychophysics","232","495101","0.0-16.0-0.20","57189f81dd9ef10011de0cb8","636d03e66a32c7f65a0397df","636d05cc1fba2abe7f3bc083","null","","","","null","","","","key","16.66713559322091","960","468.5","","","","","","","","","","","","","","","","","","","",""
"psychophysics","233","495608","0.0-16.0-1.20","57189f81dd9ef10011de0cb8","636d03e66a32c7f65a0397df","636d05cc1fba2abe7f3bc083","null","","","","null","","","","key","16.66643333333389","960","468.5","","","","","","","","","","","","","176","1","0","false","","","",""
"psychophysics","234","496408","0.0-16.0-2.20","57189f81dd9ef10011de0cb8","636d03e66a32c7f65a0397df","636d05cc1fba2abe7f3bc083","798.4000000059605","","","","90","","","","key","16.66627659574473","960","468.5","","","","","","","","","","","","","","","","","","","",""
"psychophysics","235","497419","0.0-16.0-0.21","57189f81dd9ef10011de0cb8","636d03e66a32c7f65a0397df","636d05cc1fba2abe7f3bc083","null","","","","null","","","","key","16.665932203389474","960","468.5","","","","","","","","","","","","","","","","","","","",""
"psychophysics","236","497924","0.0-16.0-1.21","57189f81dd9ef10011de0cb8","636d03e66a32c7f65a0397df","636d05cc1fba2abe7f3bc083","null","","","","null","","","","key","16.66643333333389","960","468.5","","","","","","","","","","","","","176","1","4","false","","","",""
"psychophysics","237","498496","0.0-16.0-2.21","57189f81dd9ef10011de0cb8","636d03e66a32c7f65a0397df","636d05cc1fba2abe7f3bc083","569.7999999970198","","","","77","","","","key","16.66696969696998","960","468.5","","","","","","","","","","","","","","","","","","","",""
"psychophysics","238","499502","0.0-16.0-0.22","57189f81dd9ef10011de0cb8","636d03e66a32c7f65a0397df","636d05cc1fba2abe7f3bc083","null","","","","null","","","","key","16.66654237288137","960","468.5","","","","","","","","","","","","","","","","","","","",""
"psychophysics","239","500008","0.0-16.0-1.22","57189f81dd9ef10011de0cb8","636d03e66a32c7f65a0397df","636d05cc1fba2abe7f3bc083","null","","","","null","","","","key","16.66663333333369","960","468.5","","","","","","","","","","","","","176","1","6","false","","","",""
"psychophysics","240","500925","0.0-16.0-2.22","57189f81dd9ef10011de0cb8","636d03e66a32c7f65a0397df","636d05cc1fba2abe7f3bc083","915.0999999940395","","","","77","","","","key","16.666333333333668","960","468.5","","","","","","","","","","","","","","","","","","","",""
"psychophysics","241","501934","0.0-16.0-0.23","57189f81dd9ef10011de0cb8","636d03e66a32c7f65a0397df","636d05cc1fba2abe7f3bc083","null","","","","null","","","","key","16.666457627118582","960","468.5","","","","","","","","","","","","","","","","","","","",""
"psychophysics","242","502435","0.0-16.0-1.23","57189f81dd9ef10011de0cb8","636d03e66a32c7f65a0397df","636d05cc1fba2abe7f3bc083","null","","","","null","","","","key","16.665896551725695","960","468.5","","","","","","","","","","","","","176","-1","3","false","","","",""
"psychophysics","243","502912","0.0-16.0-2.23","57189f81dd9ef10011de0cb8","636d03e66a32c7f65a0397df","636d05cc1fba2abe7f3bc083","469.29999999701977","","","","77","","","","key","16.666142857142923","960","468.5","","","","","","","","","","","","","","","","","","","",""
"html-keyboard-response","244","505666","0.0-17.0","57189f81dd9ef10011de0cb8","636d03e66a32c7f65a0397df","636d05cc1fba2abe7f3bc083","2752.7999999970198","<p>Well Done !</p><p>Training Complete. Press the spacebar to start.</p><p>DON'T EXIT THE FULL SCREEN MODE</p>","","","32","","","","","","","","","","","","","","","","","","","","","","","","","","",""
"psychophysics","245","508675","0.0-18.0-0.0","57189f81dd9ef10011de0cb8","636d03e66a32c7f65a0397df","636d05cc1fba2abe7f3bc083","null","","","","null","","","","key","16.66771666666706","960","468.5","","","","","","","","","","","","","","","","","","","",""
"psychophysics","246","509185","0.0-18.0-1.0","57189f81dd9ef10011de0cb8","636d03e66a32c7f65a0397df","636d05cc1fba2abe7f3bc083","null","","","","null","","","","key","16.668137931034114","960","468.5","","","","","","","","","","","","","176","-1","5","true","","","",""
"psychophysics","247","511864","0.0-18.0-2.0","57189f81dd9ef10011de0cb8","636d03e66a32c7f65a0397df","636d05cc1fba2abe7f3bc083","2671.4000000059605","","","","90","","","","key","16.666218749999825","960","468.5","","","","","","","","","","","","","","","","","","","",""
"psychophysics","248","512868","0.0-18.0-0.1","57189f81dd9ef10011de0cb8","636d03e66a32c7f65a0397df","636d05cc1fba2abe7f3bc083","null","","","","null","","","","key","16.667525423729153","960","468.5","","","","","","","","","","","","","","","","","","","",""
"psychophysics","249","513385","0.0-18.0-1.1","57189f81dd9ef10011de0cb8","636d03e66a32c7f65a0397df","636d05cc1fba2abe7f3bc083","null","","","","null","","","","key","16.66636666666794","960","468.5","","","","","","","","","","","","","176","-1","0","true","","","",""
"psychophysics","250","513959","0.0-18.0-2.1","57189f81dd9ef10011de0cb8","636d03e66a32c7f65a0397df","636d05cc1fba2abe7f3bc083","565.5","","","","90","","","","key","16.665852941177196","960","468.5","","","","","","","","","","","","","","","","","","","",""
"psychophysics","251","514967","0.0-18.0-0.2","57189f81dd9ef10011de0cb8","636d03e66a32c7f65a0397df","636d05cc1fba2abe7f3bc083","null","","","","null","","","","key","16.667000000000048","960","468.5","","","","","","","","","","","","","","","","","","","",""
"psychophysics","252","515474","0.0-18.0-1.2","57189f81dd9ef10011de0cb8","636d03e66a32c7f65a0397df","636d05cc1fba2abe7f3bc083","null","","","","null","","","","key","16.664999999998447","960","468.5","","","","","","","","","","","","","176","-1","2","true","","","",""
"psychophysics","253","515992","0.0-18.0-2.2","57189f81dd9ef10011de0cb8","636d03e66a32c7f65a0397df","636d05cc1fba2abe7f3bc083","516.3999999910593","","","","90","","","","key","16.666133333333224","960","468.5","","","","","","","","","","","","","","","","","","","",""
"psychophysics","254","517001","0.0-18.0-0.3","57189f81dd9ef10011de0cb8","636d03e66a32c7f65a0397df","636d05cc1fba2abe7f3bc083","null","","","","null","","","","key","16.666135593220766","960","468.5","","","","","","","","","","","","","","","","","","","",""
"psychophysics","255","517508","0.0-18.0-1.3","57189f81dd9ef10011de0cb8","636d03e66a32c7f65a0397df","636d05cc1fba2abe7f3bc083","null","","","","null","","","","key","16.667333333332014","960","468.5","","","","","","","","","","","","","176","1","3","true","","","",""
"psychophysics","256","517664","0.0-18.0-2.3","57189f81dd9ef10011de0cb8","636d03e66a32c7f65a0397df","636d05cc1fba2abe7f3bc083","154.40000000596046","","","","77","","","","key","16.668124999996508","960","468.5","","","","","","","","","","","","","","","","","","","",""
"psychophysics","257","518667","0.0-18.0-0.4","57189f81dd9ef10011de0cb8","636d03e66a32c7f65a0397df","636d05cc1fba2abe7f3bc083","null","","","","null","","","","key","16.66650847457665","960","468.5","","","","","","","","","","","","","","","","","","","",""
"psychophysics","258","519184","0.0-18.0-1.4","57189f81dd9ef10011de0cb8","636d03e66a32c7f65a0397df","636d05cc1fba2abe7f3bc083","null","","","","null","","","","key","16.666599999998773","960","468.5","","","","","","","","","","","","","176","-1","3","true","","","",""
"psychophysics","259","519648","0.0-18.0-2.4","57189f81dd9ef10011de0cb8","636d03e66a32c7f65a0397df","636d05cc1fba2abe7f3bc083","455.5","","","","77","","","","key","16.666629629630027","960","468.5","","","","","","","","","","","","","","","","","","","",""
"psychophysics","260","520651","0.0-18.0-0.5","57189f81dd9ef10011de0cb8","636d03e66a32c7f65a0397df","636d05cc1fba2abe7f3bc083","null","","","","null","","","","key","16.66625423728828","960","468.5","","","","","","","","","","","","","","","","","","","",""
"psychophysics","261","521157","0.0-18.0-1.5","57189f81dd9ef10011de0cb8","636d03e66a32c7f65a0397df","636d05cc1fba2abe7f3bc083","null","","","","null","","","","key","16.66626666666707","960","468.5","","","","","","","","","","","","","176","1","4","true","","","",""
"psychophysics","262","521491","0.0-18.0-2.5","57189f81dd9ef10011de0cb8","636d03e66a32c7f65a0397df","636d05cc1fba2abe7f3bc083","331.20000000298023","","","","77","","","","key","16.66452631578891","960","468.5","","","","","","","","","","","","","","","","","","","",""
"psychophysics","263","522501","0.0-18.0-0.6","57189f81dd9ef10011de0cb8","636d03e66a32c7f65a0397df","636d05cc1fba2abe7f3bc083","null","","","","null","","","","key","16.666610169490816","960","468.5","","","","","","","","","","","","","","","","","","","",""
"psychophysics","264","523010","0.0-18.0-1.6","57189f81dd9ef10011de0cb8","636d03e66a32c7f65a0397df","636d05cc1fba2abe7f3bc083","null","","","","null","","","","key","16.666499999999846","960","468.5","","","","","","","","","","","","","176","1","2","true","","","",""
"psychophysics","265","523825","0.0-18.0-2.6","57189f81dd9ef10011de0cb8","636d03e66a32c7f65a0397df","636d05cc1fba2abe7f3bc083","812.9000000059605","","","","90","","","","key","16.666604166666122","960","468.5","","","","","","","","","","","","","","","","","","","",""
"psychophysics","266","524834","0.0-18.0-0.7","57189f81dd9ef10011de0cb8","636d03e66a32c7f65a0397df","636d05cc1fba2abe7f3bc083","null","","","","null","","","","key","16.666830508474465","960","468.5","","","","","","","","","","","","","","","","","","","",""
"psychophysics","267","525342","0.0-18.0-1.7","57189f81dd9ef10011de0cb8","636d03e66a32c7f65a0397df","636d05cc1fba2abe7f3bc083","null","","","","null","","","","key","16.666066666665333","960","468.5","","","","","","","","","","","","","176","1","5","true","","","",""
"psychophysics","268","525691","0.0-18.0-2.7","57189f81dd9ef10011de0cb8","636d03e66a32c7f65a0397df","636d05cc1fba2abe7f3bc083","346.5","","","","77","","","","key","16.666149999998744","960","468.5","","","","","","","","","","","","","","","","","","","",""
"psychophysics","269","526697","0.0-18.0-0.8","57189f81dd9ef10011de0cb8","636d03e66a32c7f65a0397df","636d05cc1fba2abe7f3bc083","null","","","","null","","","","key","16.666915254237257","960","468.5","","","","","","","","","","","","","","","","","","","",""
"psychophysics","270","527201","0.0-18.0-1.8","57189f81dd9ef10011de0cb8","636d03e66a32c7f65a0397df","636d05cc1fba2abe7f3bc083","null","","","","null","","","","key","16.666241379310215","960","468.5","","","","","","","","","","","","","176","1","6","true","","","",""
"psychophysics","271","527641","0.0-18.0-2.8","57189f81dd9ef10011de0cb8","636d03e66a32c7f65a0397df","636d05cc1fba2abe7f3bc083","431.8999999910593","","","","77","","","","key","16.66646153846075","960","468.5","","","","","","","","","","","","","","","","","","","",""
"psychophysics","272","528651","0.0-18.0-0.9","57189f81dd9ef10011de0cb8","636d03e66a32c7f65a0397df","636d05cc1fba2abe7f3bc083","null","","","","null","","","","key","16.666389830509136","960","468.5","","","","","","","","","","","","","","","","","","","",""
"psychophysics","273","529158","0.0-18.0-1.9","57189f81dd9ef10011de0cb8","636d03e66a32c7f65a0397df","636d05cc1fba2abe7f3bc083","null","","","","null","","","","key","16.66633333333302","960","468.5","","","","","","","","","","","","","176","-1","6","true","","","",""
"psychophysics","274","530091","0.0-18.0-2.9","57189f81dd9ef10011de0cb8","636d03e66a32c7f65a0397df","636d05cc1fba2abe7f3bc083","931.5","","","","77","","","","key","16.666527272727002","960","468.5","","","","","","","","","","","","","","","","","","","",""
"psychophysics","275","531097","0.0-18.0-0.10","57189f81dd9ef10011de0cb8","636d03e66a32c7f65a0397df","636d05cc1fba2abe7f3bc083","null","","","","null","","","","key","16.666355932202443","960","468.5","","","","","","","","","","","","","","","","","","","",""
"psychophysics","276","531602","0.0-18.0-1.10","57189f81dd9ef10011de0cb8","636d03e66a32c7f65a0397df","636d05cc1fba2abe7f3bc083","null","","","","null","","","","key","16.666275862070474","960","468.5","","","","","","","","","","","","","176","1","0","true","","","",""
"psychophysics","277","532091","0.0-18.0-2.10","57189f81dd9ef10011de0cb8","636d03e66a32c7f65a0397df","636d05cc1fba2abe7f3bc083","481.6000000089407","","","","90","","","","key","16.666482758619985","960","468.5","","","","","","","","","","","","","","","","","","","",""
"psychophysics","278","533100","0.0-18.0-0.11","57189f81dd9ef10011de0cb8","636d03e66a32c7f65a0397df","636d05cc1fba2abe7f3bc083","null","","","","null","","","","key","16.666559322032747","960","468.5","","","","","","","","","","","","","","","","","","","",""
"psychophysics","279","533607","0.0-18.0-1.11","57189f81dd9ef10011de0cb8","636d03e66a32c7f65a0397df","636d05cc1fba2abe7f3bc083","null","","","","null","","","","key","16.666700000001583","960","468.5","","","","","","","","","","","","","176","-1","4","true","","","",""
"psychophysics","280","534032","0.0-18.0-2.11","57189f81dd9ef10011de0cb8","636d03e66a32c7f65a0397df","636d05cc1fba2abe7f3bc083","423.20000000298023","","","","77","","","","key","16.665291666669265","960","468.5","","","","","","","","","","","","","","","","","","","",""
"psychophysics","281","535034","0.0-18.0-0.12","57189f81dd9ef10011de0cb8","636d03e66a32c7f65a0397df","636d05cc1fba2abe7f3bc083","null","","","","null","","","","key","16.667271186439795","960","468.5","","","","","","","","","","","","","","","","","","","",""
"psychophysics","282","535541","0.0-18.0-1.12","57189f81dd9ef10011de0cb8","636d03e66a32c7f65a0397df","636d05cc1fba2abe7f3bc083","null","","","","null","","","","key","16.666533333334762","960","468.5","","","","","","","","","","","","","176","1","3","true","","","",""
"psychophysics","283","536161","0.0-18.0-2.12","57189f81dd9ef10011de0cb8","636d03e66a32c7f65a0397df","636d05cc1fba2abe7f3bc083","618","","","","90","","","","key","16.66658333333261","960","468.5","","","","","","","","","","","","","","","","","","","",""
"psychophysics","284","537167","0.0-18.0-0.13","57189f81dd9ef10011de0cb8","636d03e66a32c7f65a0397df","636d05cc1fba2abe7f3bc083","null","","","","null","","","","key","16.666389830509136","960","468.5","","","","","","","","","","","","","","","","","","","",""
"psychophysics","285","537674","0.0-18.0-1.13","57189f81dd9ef10011de0cb8","636d03e66a32c7f65a0397df","636d05cc1fba2abe7f3bc083","null","","","","null","","","","key","16.666499999999846","960","468.5","","","","","","","","","","","","","176","-1","4","true","","","",""
"psychophysics","286","538080","0.0-18.0-2.13","57189f81dd9ef10011de0cb8","636d03e66a32c7f65a0397df","636d05cc1fba2abe7f3bc083","404.29999999701977","","","","77","","","","key","16.666217391303256","960","468.5","","","","","","","","","","","","","","","","","","","",""
"psychophysics","287","539084","0.0-18.0-0.14","57189f81dd9ef10011de0cb8","636d03e66a32c7f65a0397df","636d05cc1fba2abe7f3bc083","null","","","","null","","","","key","16.666474576269955","960","468.5","","","","","","","","","","","","","","","","","","","",""
"psychophysics","288","539590","0.0-18.0-1.14","57189f81dd9ef10011de0cb8","636d03e66a32c7f65a0397df","636d05cc1fba2abe7f3bc083","null","","","","null","","","","key","16.666399999998976","960","468.5","","","","","","","","","","","","","176","1","0","true","","","",""
"psychophysics","289","541191","0.0-18.0-2.14","57189f81dd9ef10011de0cb8","636d03e66a32c7f65a0397df","636d05cc1fba2abe7f3bc083","1598.2999999970198","","","","77","","","","key","16.666536842105224","960","468.5","","","","","","","","","","","","","","","","","","","",""
"psychophysics","290","542201","0.0-18.0-0.15","57189f81dd9ef10011de0cb8","636d03e66a32c7f65a0397df","636d05cc1fba2abe7f3bc083","null","","","","null","","","","key","16.66672881355833","960","468.5","","","","","","","","","","","","","","","","","","","",""
"psychophysics","291","542707","0.0-18.0-1.15","57189f81dd9ef10011de0cb8","636d03e66a32c7f65a0397df","636d05cc1fba2abe7f3bc083","null","","","","null","","","","key","16.665500000002794","960","468.5","","","","","","","","","","","","","176","1","4","true","","","",""
"psychophysics","292","543792","0.0-18.0-2.15","57189f81dd9ef10011de0cb8","636d03e66a32c7f65a0397df","636d05cc1fba2abe7f3bc083","1082.8999999910593","","","","77","","","","key","16.666796875000728","960","468.5","","","","","","","","","","","","","","","","","","","",""
"psychophysics","293","544800","0.0-18.0-0.16","57189f81dd9ef10011de0cb8","636d03e66a32c7f65a0397df","636d05cc1fba2abe7f3bc083","null","","","","null","","","","key","16.66654237288137","960","468.5","","","","","","","","","","","","","","","","","","","",""
"psychophysics","294","545307","0.0-18.0-1.16","57189f81dd9ef10011de0cb8","636d03e66a32c7f65a0397df","636d05cc1fba2abe7f3bc083","null","","","","null","","","","key","16.665566666664866","960","468.5","","","","","","","","","","","","","176","-1","6","true","","","",""
"psychophysics","295","550112","0.0-18.0-2.16","57189f81dd9ef10011de0cb8","636d03e66a32c7f65a0397df","636d05cc1fba2abe7f3bc083","4803.70000000298","","","","90","","","","key","16.666560975609602","960","468.5","","","","","","","","","","","","","","","","","","","",""
"psychophysics","296","551117","0.0-18.0-0.17","57189f81dd9ef10011de0cb8","636d03e66a32c7f65a0397df","636d05cc1fba2abe7f3bc083","null","","","","null","","","","key","16.666474576271927","960","468.5","","","","","","","","","","","","","","","","","","","",""
"psychophysics","297","551624","0.0-18.0-1.17","57189f81dd9ef10011de0cb8","636d03e66a32c7f65a0397df","636d05cc1fba2abe7f3bc083","null","","","","null","","","","key","16.66643333333389","960","468.5","","","","","","","","","","","","","176","1","5","true","","","",""
"psychophysics","298","552108","0.0-18.0-2.17","57189f81dd9ef10011de0cb8","636d03e66a32c7f65a0397df","636d05cc1fba2abe7f3bc083","481.29999999701977","","","","77","","","","key","16.66653571428781","960","468.5","","","","","","","","","","","","","","","","","","","",""
"psychophysics","299","553118","0.0-18.0-0.18","57189f81dd9ef10011de0cb8","636d03e66a32c7f65a0397df","636d05cc1fba2abe7f3bc083","null","","","","null","","","","key","16.666406779660512","960","468.5","","","","","","","","","","","","","","","","","","","",""
"psychophysics","300","553624","0.0-18.0-1.18","57189f81dd9ef10011de0cb8","636d03e66a32c7f65a0397df","636d05cc1fba2abe7f3bc083","null","","","","null","","","","key","16.66633333333302","960","468.5","","","","","","","","","","","","","176","-1","0","true","","","",""
"psychophysics","301","554497","0.0-18.0-2.18","57189f81dd9ef10011de0cb8","636d03e66a32c7f65a0397df","636d05cc1fba2abe7f3bc083","870.7000000029802","","","","90","","","","key","16.66643137254926","960","468.5","","","","","","","","","","","","","","","","","","","",""
"psychophysics","302","555501","0.0-18.0-0.19","57189f81dd9ef10011de0cb8","636d03e66a32c7f65a0397df","636d05cc1fba2abe7f3bc083","null","","","","null","","","","key","16.66615254237214","960","468.5","","","","","","","","","","","","","","","","","","","",""
"psychophysics","303","556008","0.0-18.0-1.19","57189f81dd9ef10011de0cb8","636d03e66a32c7f65a0397df","636d05cc1fba2abe7f3bc083","null","","","","null","","","","key","16.66746666666586","960","468.5","","","","","","","","","","","","","176","1","6","true","","","",""
"psychophysics","304","556358","0.0-18.0-2.19","57189f81dd9ef10011de0cb8","636d03e66a32c7f65a0397df","636d05cc1fba2abe7f3bc083","348.20000000298023","","","","77","","","","key","16.665950000000883","960","468.5","","","","","","","","","","","","","","","","","","","",""
"psychophysics","305","557362","0.0-18.0-0.20","57189f81dd9ef10011de0cb8","636d03e66a32c7f65a0397df","636d05cc1fba2abe7f3bc083","null","","","","null","","","","key","16.666440677965234","960","468.5","","","","","","","","","","","","","","","","","","","",""
"psychophysics","306","557866","0.0-18.0-1.20","57189f81dd9ef10011de0cb8","636d03e66a32c7f65a0397df","636d05cc1fba2abe7f3bc083","null","","","","null","","","","key","16.666448275859725","960","468.5","","","","","","","","","","","","","176","-1","3","true","","","",""
"psychophysics","307","561541","0.0-18.0-2.20","57189f81dd9ef10011de0cb8","636d03e66a32c7f65a0397df","636d05cc1fba2abe7f3bc083","3674.800000011921","","","","77","","","","key","16.66647272727304","960","468.5","","","","","","","","","","","","","","","","","","","",""
"psychophysics","308","562551","0.0-18.0-0.21","57189f81dd9ef10011de0cb8","636d03e66a32c7f65a0397df","636d05cc1fba2abe7f3bc083","null","","","","null","","","","key","16.666152542374114","960","468.5","","","","","","","","","","","","","","","","","","","",""
"psychophysics","309","563057","0.0-18.0-1.21","57189f81dd9ef10011de0cb8","636d03e66a32c7f65a0397df","636d05cc1fba2abe7f3bc083","null","","","","null","","","","key","16.666499999999846","960","468.5","","","","","","","","","","","","","176","1","2","true","","","",""
"psychophysics","310","567544","0.0-18.0-2.21","57189f81dd9ef10011de0cb8","636d03e66a32c7f65a0397df","636d05cc1fba2abe7f3bc083","4485.100000008941","","","","77","","","","key","16.666384328358266","960","468.5","","","","","","","","","","","","","","","","","","","",""
"psychophysics","311","568551","0.0-18.0-0.22","57189f81dd9ef10011de0cb8","636d03e66a32c7f65a0397df","636d05cc1fba2abe7f3bc083","null","","","","null","","","","key","16.666389830509136","960","468.5","","","","","","","","","","","","","","","","","","","",""
"psychophysics","312","569060","0.0-18.0-1.22","57189f81dd9ef10011de0cb8","636d03e66a32c7f65a0397df","636d05cc1fba2abe7f3bc083","null","","","","null","","","","key","16.667133333336096","960","468.5","","","","","","","","","","","","","176","-1","2","true","","","",""
"psychophysics","313","569232","0.0-18.0-2.22","57189f81dd9ef10011de0cb8","636d03e66a32c7f65a0397df","636d05cc1fba2abe7f3bc083","171.09999999403954","","","","90","","","","key","16.667000000002897","960","468.5","","","","","","","","","","","","","","","","","","","",""
"psychophysics","314","570244","0.0-18.0-0.23","57189f81dd9ef10011de0cb8","636d03e66a32c7f65a0397df","636d05cc1fba2abe7f3bc083","null","","","","null","","","","key","16.66643333333389","960","468.5","","","","","","","","","","","","","","","","","","","",""
"psychophysics","315","570751","0.0-18.0-1.23","57189f81dd9ef10011de0cb8","636d03e66a32c7f65a0397df","636d05cc1fba2abe7f3bc083","null","","","","null","","","","key","16.666586206896746","960","468.5","","","","","","","","","","","","","176","-1","5","true","","","",""
"psychophysics","316","571158","0.0-18.0-2.23","57189f81dd9ef10011de0cb8","636d03e66a32c7f65a0397df","636d05cc1fba2abe7f3bc083","399.09999999403954","","","","77","","","","key","16.66645833333314","960","468.5","","","","","","","","","","","","","","","","","","","",""
"psychophysics","317","572168","0.0-18.0-0.24","57189f81dd9ef10011de0cb8","636d03e66a32c7f65a0397df","636d05cc1fba2abe7f3bc083","null","","","","null","","","","key","16.666118644067417","960","468.5","","","","","","","","","","","","","","","","","","","",""
"psychophysics","318","572674","0.0-18.0-1.24","57189f81dd9ef10011de0cb8","636d03e66a32c7f65a0397df","636d05cc1fba2abe7f3bc083","null","","","","null","","","","key","16.665733333331687","960","468.5","","","","","","","","","","","","","176","-1","2","true","","","",""
"psychophysics","319","572961","0.0-18.0-2.24","57189f81dd9ef10011de0cb8","636d03e66a32c7f65a0397df","636d05cc1fba2abe7f3bc083","284.70000000298023","","","","90","","","","key","16.667499999995925","960","468.5","","","","","","","","","","","","","","","","","","","",""
"psychophysics","320","573967","0.0-18.0-0.25","57189f81dd9ef10011de0cb8","636d03e66a32c7f65a0397df","636d05cc1fba2abe7f3bc083","null","","","","null","","","","key","16.66650847457665","960","468.5","","","","","","","","","","","","","","","","","","","",""
"psychophysics","321","574474","0.0-18.0-1.25","57189f81dd9ef10011de0cb8","636d03e66a32c7f65a0397df","636d05cc1fba2abe7f3bc083","null","","","","null","","","","key","16.66679999999857","960","468.5","","","","","","","","","","","","","176","1","0","true","","","",""
"psychophysics","322","574891","0.0-18.0-2.25","57189f81dd9ef10011de0cb8","636d03e66a32c7f65a0397df","636d05cc1fba2abe7f3bc083","415","","","","77","","","","key","16.666583333334227","960","468.5","","","","","","","","","","","","","","","","","","","",""
"psychophysics","323","575901","0.0-18.0-0.26","57189f81dd9ef10011de0cb8","636d03e66a32c7f65a0397df","636d05cc1fba2abe7f3bc083","null","","","","null","","","","key","16.666389830509136","960","468.5","","","","","","","","","","","","","","","","","","","",""
"psychophysics","324","576407","0.0-18.0-1.26","57189f81dd9ef10011de0cb8","636d03e66a32c7f65a0397df","636d05cc1fba2abe7f3bc083","null","","","","null","","","","key","16.666499999999846","960","468.5","","","","","","","","","","","","","176","1","3","true","","","",""
"psychophysics","325","576676","0.0-18.0-2.26","57189f81dd9ef10011de0cb8","636d03e66a32c7f65a0397df","636d05cc1fba2abe7f3bc083","266.20000000298023","","","","77","","","","key","16.666533333334762","960","468.5","","","","","","","","","","","","","","","","","","","",""
"psychophysics","326","577684","0.0-18.0-0.27","57189f81dd9ef10011de0cb8","636d03e66a32c7f65a0397df","636d05cc1fba2abe7f3bc083","null","","","","null","","","","key","16.66650847457665","960","468.5","","","","","","","","","","","","","","","","","","","",""
"psychophysics","327","578191","0.0-18.0-1.27","57189f81dd9ef10011de0cb8","636d03e66a32c7f65a0397df","636d05cc1fba2abe7f3bc083","null","","","","null","","","","key","16.666533333330882","960","468.5","","","","","","","","","","","","","176","-1","6","true","","","",""
"psychophysics","328","578357","0.0-18.0-2.27","57189f81dd9ef10011de0cb8","636d03e66a32c7f65a0397df","636d05cc1fba2abe7f3bc083","164.40000000596046","","","","90","","","","key","16.661444444442168","960","468.5","","","","","","","","","","","","","","","","","","","",""
