"trial_type","trial_index","time_elapsed","internal_node_id","PROLIFIC_PID","STUDY_ID","SESSION_ID","rt","stimulus","button_pressed","success","key_press","responses","isData","view_history","response_type","avg_frame_time","center_x","center_y","isSC","stim_side","trial_luminance","step_size","nReversal","correct","prev_ans","isThreshold","SC_threshold","final_threshold","isLuminance","FF_luminance","luminance","stimSide","ISInt","isFF","question_order","isSPQ","isCAPS","isAQ"
"pavlovia","0","27","0.0-0.0","5f3bd56999a44d9324b76ddb","636d03e66a32c7f65a0397df","636d0799e45856e59f07eff3","","","","","","","","","","","","","","","","","","","","","","","","","","","","","","","",""
"html-button-response","1","11181","0.0-1.0","5f3bd56999a44d9324b76ddb","636d03e66a32c7f65a0397df","636d0799e45856e59f07eff3","11152.299999999988","<div style='background-color: white; width:60%; margin: auto; padding: 50px; text-align: justify; text-justify: inter-word; margin-bottom: 20px;'><h1 style='text-align: center;'>Consent Form</h1><p>Please read this consent form carefully before deciding whether you would like to participate in this study. You have to be 18 years old or older to participate to this study.</p><p style='text-decoration: underline;'>Participation is voluntary:</p><p>It is your choice whether or not to participate in this research. If you choose to participate, you may change your mind and leave the study at any time. Refusal to participate or stopping your participation will involve no penalty or loss of benefits to which you are otherwise entitled.</p><p style='text-decoration: underline;'>Purpose of the Study:</p><p>To understand the mechanisms underlying human perception.</p><p style='text-decoration: underline;'>What you will do in this study:</p><p>You will be presented with a series of visual images and then you will press buttons on the keyboard of your computer to respond to simple questions about the images (e.g. Were one or two images presented?). In addition, you will be asked to complete a questionnaire concerning your beliefs and everyday mental and perceptual experiences.'</p><p style='text-decoration: underline;'> Time Required:</p><p>The study will take 40 minutes to complete. </p><p style='text-decoration: underline;'>Risks:</p><p>There are no anticipated risks associated with participating in this study that are beyond those experienced in everyday life. </p><p style='text-decoration: underline;'>Benefits:</p><p>There are no benefits to you in participating in the study. However, this study may lead to a better understanding of how different kinds of visual information are used.</p><p style='text-decoration: underline;'>Compensation:</p><p>You will be paid US$6.6/hour. </p><p style='text-decoration: underline;'>Privacy and Confidentiality:</p><p>Your participation in this study will be anonymous. No personal information about your name or identity will be asked or recorded. This anonymous data will be stored for several years and may be used for a variety of research purposes. The overall results of the study may be published, or the data files may be shared with other researchers, but your identity will not be revealed in any way. The online services we are using for this study may temporarily store your data, but this data will be downloaded and then promptly deleted from those services.Your data will not be permanently associated with your name, IP address, or any other identifiable information (e.g., your information will only be connected to your payment, not to any of your responses), though they may be temporarily stored together before we download and separate them. Even so, no guarantee of internet survey security can be given because, although unlikely, transmissions can be intercepted and IP addresses can be identified. The anonymous data may be shared publicly (for example, in conjunction with a resulting academic publication).</p><p style='text-decoration: underline;'>Participation and Withdrawal:</p><p>Your participation in this study is completely voluntary. You may stop responding to the stimuli or stop answering questions if you so choose and without penalty by exiting the full screen mode, closing this tab of your browser or redirecting it to a different website.</p><p style='text-decoration: underline;'>Contact Info of the Researcher: </p><p>If you have questions about this study, or if you would like to talk to the research team, please contact David Melcher (david.melcher@nyu.edu, md5050@nyu.edu) at the Perception and Active Cognition Laboratory, New York University Abu Dhabi, Computational Research Building, Saadiyat Island, Abu Dhabi, UAE.This research has been reviewed by the New York University Abu Dhabi Institutional Review Board (NYUAD IRB). To contact about your rights in this research, for questions, suggestions, or complaints that are not addressed by the researchers, please email IRBnyuad@nyu.edu, or call the NYUAD IRB at +971 2 628 4313. </p></div>","0","","","","","","","","","","","","","","","","","","","","","","","","","","","","",""
"fullscreen","2","13366","0.0-2.0","5f3bd56999a44d9324b76ddb","636d03e66a32c7f65a0397df","636d0799e45856e59f07eff3","","","","true","","","","","","","","","","","","","","","","","","","","","","","","","","","",""
"html-keyboard-response","3","29536","0.0-3.0","5f3bd56999a44d9324b76ddb","636d03e66a32c7f65a0397df","636d0799e45856e59f07eff3","16168.599999999977","<p>Welcome !</p><p>READ CAREFULLY THE FOLLOWING INDICATIONS:</p><p>From this moment you have ~40 minutes to complete the experiment.</p><p>During the experiment you will be prompted to take several breaks. Each break should not last longer than 2-3 minutes.</p><p>Make sure that your computer is plugged in and it's not running on battery power, even if the battery is already fully charged.</p><p>Turn off your phone and music, make sure that you are in a quiet room and that you will not be distracted for the next hour.</p><p>Failure to comply with the instructions and indications provided during the experiment will most likely result in the rejection of your data.<p>Press the spacebar to start.</p>","","","32","","","","","","","","","","","","","","","","","","","","","","","","","","",""
"survey-html-form","4","44683","0.0-4.0","5f3bd56999a44d9324b76ddb","636d03e66a32c7f65a0397df","636d0799e45856e59f07eff3","15145.299999999988","","","","","{""age"":""37"",""sex"":""Male""}","true","","","","","","","","","","","","","","","","","","","","","","","","",""
"instructions","5","97001","0.0-5.0","5f3bd56999a44d9324b76ddb","636d03e66a32c7f65a0397df","636d0799e45856e59f07eff3","52317.20000000001","","","","","","","[{""page_index"":0,""viewing_time"":36368.5},{""page_index"":1,""viewing_time"":10729.200000000012},{""page_index"":2,""viewing_time"":5218.799999999988}]","","","","","","","","","","","","","","","","","","","","","","","",""
"psychophysics","6","100050","0.0-6.0-0.0","5f3bd56999a44d9324b76ddb","636d03e66a32c7f65a0397df","636d0799e45856e59f07eff3","2040.399999999965","","","","37","","","","key","16.66660989010991","768","361","true","-1","180","30","0","-1","","","","","","","","","","","","","",""
"psychophysics","7","101438","0.0-6.0-0.1","5f3bd56999a44d9324b76ddb","636d03e66a32c7f65a0397df","636d0799e45856e59f07eff3","385.79999999998836","","","","39","","","","key","16.667108433734885","768","361","true","1","180","30","0","-1","-1","","","","","","","","","","","","",""
"psychophysics","8","102517","0.0-6.0-0.2","5f3bd56999a44d9324b76ddb","636d03e66a32c7f65a0397df","636d0799e45856e59f07eff3","74.59999999997672","","","","37","","","","key","16.665126984127074","768","361","true","-1","150","30","0","-1","-1","","","","","","","","","","","","",""
"psychophysics","9","103604","0.0-6.0-0.3","5f3bd56999a44d9324b76ddb","636d03e66a32c7f65a0397df","636d0799e45856e59f07eff3","85.09999999997672","","","","37","","","","key","16.66446153846135","768","361","true","-1","150","30","0","-1","-1","","","","","","","","","","","","",""
"psychophysics","10","106572","0.0-6.0-0.4","5f3bd56999a44d9324b76ddb","636d03e66a32c7f65a0397df","636d0799e45856e59f07eff3","1962.5999999999767","","","","37","","","","key","16.76027272727267","768","361","true","1","129","24","1","1","-1","","","","","","","","","","","","",""
"psychophysics","11","107696","0.0-6.0-0.5","5f3bd56999a44d9324b76ddb","636d03e66a32c7f65a0397df","636d0799e45856e59f07eff3","117.70000000001164","","","","37","","","","key","16.66651515151501","768","361","true","1","153","24","1","1","1","","","","","","","","","","","","",""
"psychophysics","12","109018","0.0-6.0-0.6","5f3bd56999a44d9324b76ddb","636d03e66a32c7f65a0397df","636d0799e45856e59f07eff3","318.29999999998836","","","","37","","","","key","16.665012658227756","768","361","true","-1","177","24","1","-1","1","","","","","","","","","","","","",""
"psychophysics","13","113962","0.0-6.0-0.7","5f3bd56999a44d9324b76ddb","636d03e66a32c7f65a0397df","636d0799e45856e59f07eff3","3935","","","","39","","","","key","16.666067796610186","768","361","true","1","177","19.2","2","-1","-1","","","","","","","","","","","","",""
"psychophysics","14","115167","0.0-6.0-0.8","5f3bd56999a44d9324b76ddb","636d03e66a32c7f65a0397df","636d0799e45856e59f07eff3","200.29999999998836","","","","37","","","","key","16.666408450704257","768","361","true","-1","157.8","19.2","2","-1","-1","","","","","","","","","","","","",""
"psychophysics","15","116477","0.0-6.0-0.9","5f3bd56999a44d9324b76ddb","636d03e66a32c7f65a0397df","636d0799e45856e59f07eff3","308.9000000000233","","","","39","","","","key","16.666089743589765","768","361","true","1","157.8","19.2","2","-1","-1","","","","","","","","","","","","",""
"psychophysics","16","117631","0.0-6.0-0.10","5f3bd56999a44d9324b76ddb","636d03e66a32c7f65a0397df","636d0799e45856e59f07eff3","148.70000000001164","","","","39","","","","key","16.664794117646927","768","361","true","1","138.60000000000002","19.2","2","-1","-1","","","","","","","","","","","","",""
"psychophysics","17","119014","0.0-6.0-0.11","5f3bd56999a44d9324b76ddb","636d03e66a32c7f65a0397df","636d0799e45856e59f07eff3","379.1000000000349","","","","37","","","","key","16.665865853658655","768","361","true","-1","138.60000000000002","19.2","2","-1","-1","","","","","","","","","","","","",""
"psychophysics","18","121477","0.0-6.0-0.12","5f3bd56999a44d9324b76ddb","636d03e66a32c7f65a0397df","636d0799e45856e59f07eff3","1460.7000000000116","","","","39","","","","key","16.66614965986394","768","361","true","1","129","19.2","2","-1","-1","","","","","","","","","","","","",""
"psychophysics","19","123793","0.0-6.0-0.13","5f3bd56999a44d9324b76ddb","636d03e66a32c7f65a0397df","636d0799e45856e59f07eff3","1310","","","","39","","","","key","16.66624637681156","768","361","true","-1","129","15.36","3","1","-1","","","","","","","","","","","","",""
"psychophysics","20","124935","0.0-6.0-0.14","5f3bd56999a44d9324b76ddb","636d03e66a32c7f65a0397df","636d0799e45856e59f07eff3","135.89999999996508","","","","39","","","","key","16.66560294117645","768","361","true","1","144.36","15.36","3","-1","1","","","","","","","","","","","","",""
"psychophysics","21","126364","0.0-6.0-0.15","5f3bd56999a44d9324b76ddb","636d03e66a32c7f65a0397df","636d0799e45856e59f07eff3","426.79999999998836","","","","37","","","","key","16.665821428571473","768","361","true","-1","144.36","12.287999999999998","4","-1","-1","","","","","","","","","","","","",""
"psychophysics","22","129048","0.0-6.0-0.16","5f3bd56999a44d9324b76ddb","636d03e66a32c7f65a0397df","636d0799e45856e59f07eff3","1679.5","","","","37","","","","key","16.666318749999938","768","361","true","1","132.072","9.8304","5","1","-1","","","","","","","","","","","","",""
"psychophysics","23","130202","0.0-6.0-0.17","5f3bd56999a44d9324b76ddb","636d03e66a32c7f65a0397df","636d0799e45856e59f07eff3","149.79999999998836","","","","39","","","","key","16.666463768115797","768","361","true","1","141.9024","9.8304","5","-1","1","","","","","","","","","","","","",""
"psychophysics","24","131287","0.0-6.0-0.18","5f3bd56999a44d9324b76ddb","636d03e66a32c7f65a0397df","636d0799e45856e59f07eff3","76.5","","","","39","","","","key","16.664999999999964","768","361","true","1","141.9024","7.864319999999999","6","-1","-1","","","","","","","","","","","","",""
"psychophysics","25","132385","0.0-6.0-0.19","5f3bd56999a44d9324b76ddb","636d03e66a32c7f65a0397df","636d0799e45856e59f07eff3","95.59999999997672","","","","37","","","","key","16.6648461538461","768","361","true","-1","134.03808","7.864319999999999","6","-1","-1","","","","","","","","","","","","",""
"psychophysics","26","133412","0.0-6.0-0.20","5f3bd56999a44d9324b76ddb","636d03e66a32c7f65a0397df","636d0799e45856e59f07eff3","18.79999999998836","","","","39","","","","key","16.66568333333368","768","361","true","1","134.03808","7.864319999999999","6","-1","-1","","","","","","","","","","","","",""
"psychophysics","27","135097","0.0-6.0-0.21","5f3bd56999a44d9324b76ddb","636d03e66a32c7f65a0397df","636d0799e45856e59f07eff3","682.0999999999767","","","","39","","","","key","16.66628999999986","768","361","true","1","129","7.864319999999999","6","-1","-1","","","","","","","","","","","","",""
"psychophysics","28","138290","0.0-6.0-0.22","5f3bd56999a44d9324b76ddb","636d03e66a32c7f65a0397df","636d0799e45856e59f07eff3","2191.0999999999767","","","","37","","","","key","16.754000000000048","768","361","true","1","129","6.291456","7","1","-1","","","","","","","","","","","","",""
"psychophysics","29","139388","0.0-6.0-0.23","5f3bd56999a44d9324b76ddb","636d03e66a32c7f65a0397df","636d0799e45856e59f07eff3","89.39999999996508","","","","37","","","","key","16.66578461538481","768","361","true","-1","135.291456","6.291456","7","-1","1","","","","","","","","","","","","",""
"psychophysics","30","140511","0.0-6.0-0.24","5f3bd56999a44d9324b76ddb","636d03e66a32c7f65a0397df","636d0799e45856e59f07eff3","113.5","","","","39","","","","key","16.66543939393975","768","361","true","1","135.291456","5.033164800000001","8","-1","-1","","","","","","","","","","","","",""
"psychophysics","31","142166","0.0-6.0-0.25","5f3bd56999a44d9324b76ddb","636d03e66a32c7f65a0397df","636d0799e45856e59f07eff3","650.7000000000116","","","","39","","","","key","16.66552525252513","768","361","true","1","130.2582912","5.033164800000001","8","-1","-1","","","","","","","","","","","","",""
"psychophysics","32","145391","0.0-6.0-0.26","5f3bd56999a44d9324b76ddb","636d03e66a32c7f65a0397df","636d0799e45856e59f07eff3","2224.2000000000116","","","","39","","","","key","16.666005208333292","768","361","true","-1","130.2582912","4.0265318400000005","9","1","-1","","","","","","","","","","","","",""
"psychophysics","33","146856","0.0-6.0-0.27","5f3bd56999a44d9324b76ddb","636d03e66a32c7f65a0397df","636d0799e45856e59f07eff3","463","","","","37","","","","key","16.664091954022798","768","361","true","-1","134.28482304","4.0265318400000005","9","-1","1","","","","","","","","","","","","",""
"psychophysics","34","150056","0.0-6.0-0.28","5f3bd56999a44d9324b76ddb","636d03e66a32c7f65a0397df","636d0799e45856e59f07eff3","2190.9000000000233","","","","37","","","","key","16.66592670157058","768","361","true","-1","134.28482304","3.2212254720000004","10","-1","-1","","","","","","","","","","","","",""
"psychophysics","35","151924","0.0-6.0-0.29","5f3bd56999a44d9324b76ddb","636d03e66a32c7f65a0397df","636d0799e45856e59f07eff3","859.1000000000349","","","","37","","","","key","16.66543243243228","768","361","true","-1","131.06359756799998","3.2212254720000004","10","-1","-1","","","","","","","","","","","","",""
"psychophysics","36","154050","0.0-6.0-0.30","5f3bd56999a44d9324b76ddb","636d03e66a32c7f65a0397df","636d0799e45856e59f07eff3","1118.5999999999767","","","","37","","","","key","16.665338582677105","768","361","true","-1","131.06359756799998","3.2212254720000004","10","-1","-1","","","","","","","","","","","","",""
"psychophysics","37","156572","0.0-6.0-0.31","5f3bd56999a44d9324b76ddb","636d03e66a32c7f65a0397df","636d0799e45856e59f07eff3","1513.3000000000466","","","","39","","","","key","16.665439999999943","768","361","true","1","129","3.2212254720000004","10","-1","-1","","","","","","","","","","","","",""
"psychophysics","38","158464","0.0-6.0-0.32","5f3bd56999a44d9324b76ddb","636d03e66a32c7f65a0397df","636d0799e45856e59f07eff3","886.3999999999651","","","","39","","","","key","16.666187499999847","768","361","true","-1","129","2.5769803776000004","11","1","-1","","","","","","","","","","","","",""
"psychophysics","39","160311","0.0-6.0-0.33","5f3bd56999a44d9324b76ddb","636d03e66a32c7f65a0397df","636d0799e45856e59f07eff3","838.1000000000349","","","","39","","","","key","16.666454545454524","768","361","true","-1","131.5769803776","2.5769803776000004","11","1","1","","","","","","","","","","","","",""
"psychophysics","40","162299","0.0-6.0-0.34","5f3bd56999a44d9324b76ddb","636d03e66a32c7f65a0397df","636d0799e45856e59f07eff3","986","","","","39","","","","key","16.665949579831867","768","361","true","-1","134.1539607552","2.5769803776000004","11","1","1","","","","","","","","","","","","",""
"psychophysics","41","163700","0.0-6.0-0.35","5f3bd56999a44d9324b76ddb","636d03e66a32c7f65a0397df","636d0799e45856e59f07eff3","394.5","","","","37","","","","key","16.665421686747113","768","361","true","-1","136.73094113279998","2.5769803776000004","11","-1","1","","","","","","","","","","","","",""
"psychophysics","42","164888","0.0-6.0-0.36","5f3bd56999a44d9324b76ddb","636d03e66a32c7f65a0397df","636d0799e45856e59f07eff3","181.09999999997672","","","","39","","","","key","16.66515714285737","768","361","true","1","136.73094113279998","2.0615843020800004","12","-1","-1","","","","","","","","","","","","",""
"psychophysics","43","166148","0.0-6.0-0.37","5f3bd56999a44d9324b76ddb","636d03e66a32c7f65a0397df","636d0799e45856e59f07eff3","258.4000000000233","","","","37","","","","key","16.665121621621388","768","361","true","-1","134.66935683071998","2.0615843020800004","12","-1","-1","","","","","","","","","","","","",""
"psychophysics","44","167310","0.0-6.0-0.38","5f3bd56999a44d9324b76ddb","636d03e66a32c7f65a0397df","636d0799e45856e59f07eff3","160.19999999995343","","","","39","","","","key","16.66598550724608","768","361","true","1","134.66935683071998","2.0615843020800004","12","-1","-1","","","","","","","","","","","","",""
"psychophysics","45","169465","0.0-6.0-0.39","5f3bd56999a44d9324b76ddb","636d03e66a32c7f65a0397df","636d0799e45856e59f07eff3","1150.7999999999884","","","","37","","","","key","16.666195312499894","768","361","true","1","132.60777252863997","1.6492674416640005","13","1","-1","","","","","","","","","","","","",""
"html-keyboard-response","46","173443","0.0-7.0","5f3bd56999a44d9324b76ddb","636d03e66a32c7f65a0397df","636d0799e45856e59f07eff3","3976.5","<p>Well Done !</p><p>Prepare for a new block.</p><p>DON'T EXIT THE FULL SCREEN MODE</p><p>Press the Spacebar to start.</p>","","","32","","","","","","","","","","","","","","","true","132.690182213632","","","","","","","","","","",""
"psychophysics","47","176895","0.0-8.0-0.0","5f3bd56999a44d9324b76ddb","636d03e66a32c7f65a0397df","636d0799e45856e59f07eff3","2447.5","","","","39","","","","key","16.666652173913057","768","361","true","1","180","30","0","-1","","","","","","","","","","","","","",""
"psychophysics","48","178271","0.0-8.0-0.1","5f3bd56999a44d9324b76ddb","636d03e66a32c7f65a0397df","636d0799e45856e59f07eff3","373.3999999999651","","","","37","","","","key","16.66593902439011","768","361","true","-1","180","30","0","-1","-1","","","","","","","","","","","","",""
"psychophysics","49","179654","0.0-8.0-0.2","5f3bd56999a44d9324b76ddb","636d03e66a32c7f65a0397df","636d0799e45856e59f07eff3","380.5999999999767","","","","39","","","","key","16.66547560975596","768","361","true","1","150","30","0","-1","-1","","","","","","","","","","","","",""
"psychophysics","50","181265","0.0-8.0-0.3","5f3bd56999a44d9324b76ddb","636d03e66a32c7f65a0397df","636d0799e45856e59f07eff3","606.8999999999651","","","","37","","","","key","16.66559374999997","768","361","true","-1","150","30","0","-1","-1","","","","","","","","","","","","",""
"psychophysics","51","183856","0.0-8.0-0.4","5f3bd56999a44d9324b76ddb","636d03e66a32c7f65a0397df","636d0799e45856e59f07eff3","1581.2000000000116","","","","37","","","","key","16.665941558441514","768","361","true","-1","129","30","0","-1","-1","","","","","","","","","","","","",""
"psychophysics","52","185998","0.0-8.0-0.5","5f3bd56999a44d9324b76ddb","636d03e66a32c7f65a0397df","636d0799e45856e59f07eff3","1133.399999999965","","","","37","","","","key","16.66624999999999","768","361","true","-1","129","30","0","-1","-1","","","","","","","","","","","","",""
"psychophysics","53","188132","0.0-8.0-0.6","5f3bd56999a44d9324b76ddb","636d03e66a32c7f65a0397df","636d0799e45856e59f07eff3","1130.8000000000466","","","","37","","","","key","16.66616535433073","768","361","true","-1","129","30","0","-1","-1","","","","","","","","","","","","",""
"psychophysics","54","190414","0.0-8.0-0.7","5f3bd56999a44d9324b76ddb","636d03e66a32c7f65a0397df","636d0799e45856e59f07eff3","1276","","","","37","","","","key","16.666000000000025","768","361","true","1","129","24","1","1","-1","","","","","","","","","","","","",""
"psychophysics","55","192024","0.0-8.0-0.8","5f3bd56999a44d9324b76ddb","636d03e66a32c7f65a0397df","636d0799e45856e59f07eff3","608.0999999999767","","","","37","","","","key","16.66486458333323","768","361","true","-1","153","24","1","-1","1","","","","","","","","","","","","",""
"psychophysics","56","193561","0.0-8.0-0.9","5f3bd56999a44d9324b76ddb","636d03e66a32c7f65a0397df","636d0799e45856e59f07eff3","534.2999999999884","","","","39","","","","key","16.666065934065866","768","361","true","1","153","19.2","2","-1","-1","","","","","","","","","","","","",""
"psychophysics","57","195341","0.0-8.0-0.10","5f3bd56999a44d9324b76ddb","636d03e66a32c7f65a0397df","636d0799e45856e59f07eff3","777.5999999999767","","","","39","","","","key","16.666254716981335","768","361","true","1","133.8","19.2","2","-1","-1","","","","","","","","","","","","",""
"psychophysics","58","198062","0.0-8.0-0.11","5f3bd56999a44d9324b76ddb","636d03e66a32c7f65a0397df","636d0799e45856e59f07eff3","1716","","","","37","","","","key","16.66621604938269","768","361","true","-1","133.8","19.2","2","-1","-1","","","","","","","","","","","","",""
"psychophysics","59","199884","0.0-8.0-0.12","5f3bd56999a44d9324b76ddb","636d03e66a32c7f65a0397df","636d0799e45856e59f07eff3","820.0999999999767","","","","37","","","","key","16.66504587155955","768","361","true","-1","129","19.2","2","-1","-1","","","","","","","","","","","","",""
"psychophysics","60","201620","0.0-8.0-0.13","5f3bd56999a44d9324b76ddb","636d03e66a32c7f65a0397df","636d0799e45856e59f07eff3","729.5999999999767","","","","37","","","","key","16.666194174757162","768","361","true","-1","129","19.2","2","-1","-1","","","","","","","","","","","","",""
"psychophysics","61","203231","0.0-8.0-0.14","5f3bd56999a44d9324b76ddb","636d03e66a32c7f65a0397df","636d0799e45856e59f07eff3","603.7999999999884","","","","37","","","","key","16.666147368421203","768","361","true","1","129","15.36","3","1","-1","","","","","","","","","","","","",""
"psychophysics","62","204776","0.0-8.0-0.15","5f3bd56999a44d9324b76ddb","636d03e66a32c7f65a0397df","636d0799e45856e59f07eff3","542.2999999999884","","","","37","","","","key","16.665521739130465","768","361","true","-1","144.36","15.36","3","-1","1","","","","","","","","","","","","",""
"psychophysics","63","206252","0.0-8.0-0.16","5f3bd56999a44d9324b76ddb","636d03e66a32c7f65a0397df","636d0799e45856e59f07eff3","474.29999999998836","","","","37","","","","key","16.8576781609194","768","361","true","-1","144.36","12.287999999999998","4","-1","-1","","","","","","","","","","","","",""
"psychophysics","64","208764","0.0-8.0-0.17","5f3bd56999a44d9324b76ddb","636d03e66a32c7f65a0397df","636d0799e45856e59f07eff3","1505.2999999999884","","","","39","","","","key","16.666275167785194","768","361","true","-1","132.072","9.8304","5","1","-1","","","","","","","","","","","","",""
"psychophysics","65","210183","0.0-8.0-0.18","5f3bd56999a44d9324b76ddb","636d03e66a32c7f65a0397df","636d0799e45856e59f07eff3","416.29999999998836","","","","39","","","","key","16.666882352941492","768","361","true","1","141.9024","9.8304","5","-1","1","","","","","","","","","","","","",""
"psychophysics","66","211659","0.0-8.0-0.19","5f3bd56999a44d9324b76ddb","636d03e66a32c7f65a0397df","636d0799e45856e59f07eff3","473.70000000001164","","","","39","","","","key","16.66608045977037","768","361","true","1","141.9024","7.864319999999999","6","-1","-1","","","","","","","","","","","","",""
"psychophysics","67","213124","0.0-8.0-0.20","5f3bd56999a44d9324b76ddb","636d03e66a32c7f65a0397df","636d0799e45856e59f07eff3","460.3999999999651","","","","37","","","","key","16.666287356321888","768","361","true","-1","134.03808","7.864319999999999","6","-1","-1","","","","","","","","","","","","",""
"psychophysics","68","215423","0.0-8.0-0.21","5f3bd56999a44d9324b76ddb","636d03e66a32c7f65a0397df","636d0799e45856e59f07eff3","1293.2999999999884","","","","37","","","","key","16.66606569343058","768","361","true","-1","134.03808","7.864319999999999","6","-1","-1","","","","","","","","","","","","",""
"psychophysics","69","217126","0.0-8.0-0.22","5f3bd56999a44d9324b76ddb","636d03e66a32c7f65a0397df","636d0799e45856e59f07eff3","699.0999999999767","","","","37","","","","key","16.66616831683193","768","361","true","1","129","6.291456","7","1","-1","","","","","","","","","","","","",""
"psychophysics","70","218591","0.0-8.0-0.23","5f3bd56999a44d9324b76ddb","636d03e66a32c7f65a0397df","636d0799e45856e59f07eff3","461.4000000000233","","","","39","","","","key","16.66609195402279","768","361","true","1","135.291456","6.291456","7","-1","1","","","","","","","","","","","","",""
"psychophysics","71","221389","0.0-8.0-0.24","5f3bd56999a44d9324b76ddb","636d03e66a32c7f65a0397df","636d0799e45856e59f07eff3","1794.7000000000698","","","","39","","","","key","16.66630538922165","768","361","true","-1","135.291456","5.033164800000001","8","1","-1","","","","","","","","","","","","",""
"psychophysics","72","222784","0.0-8.0-0.25","5f3bd56999a44d9324b76ddb","636d03e66a32c7f65a0397df","636d0799e45856e59f07eff3","389.39999999990687","","","","37","","","","key","16.666024096385527","768","361","true","-1","140.32462080000002","5.033164800000001","8","-1","1","","","","","","","","","","","","",""
"psychophysics","73","224139","0.0-8.0-0.26","5f3bd56999a44d9324b76ddb","636d03e66a32c7f65a0397df","636d0799e45856e59f07eff3","352.30000000004657","","","","37","","","","key","16.665999999999986","768","361","true","-1","140.32462080000002","4.0265318400000005","9","-1","-1","","","","","","","","","","","","",""
"psychophysics","74","225982","0.0-8.0-0.27","5f3bd56999a44d9324b76ddb","636d03e66a32c7f65a0397df","636d0799e45856e59f07eff3","836.2999999999302","","","","39","","","","key","16.66618181818181","768","361","true","1","136.29808896000003","4.0265318400000005","9","-1","-1","","","","","","","","","","","","",""
"psychophysics","75","228135","0.0-8.0-0.28","5f3bd56999a44d9324b76ddb","636d03e66a32c7f65a0397df","636d0799e45856e59f07eff3","1149","","","","39","","","","key","16.666085937500156","768","361","true","1","136.29808896000003","4.0265318400000005","9","-1","-1","","","","","","","","","","","","",""
"psychophysics","76","230419","0.0-8.0-0.29","5f3bd56999a44d9324b76ddb","636d03e66a32c7f65a0397df","636d0799e45856e59f07eff3","1280.4000000000233","","","","37","","","","key","16.666183823529376","768","361","true","1","132.27155712000004","3.2212254720000004","10","1","-1","","","","","","","","","","","","",""
"psychophysics","77","231798","0.0-8.0-0.30","5f3bd56999a44d9324b76ddb","636d03e66a32c7f65a0397df","636d0799e45856e59f07eff3","371.30000000004657","","","","39","","","","key","16.66603658536574","768","361","true","1","135.49278259200003","3.2212254720000004","10","-1","1","","","","","","","","","","","","",""
"psychophysics","78","233401","0.0-8.0-0.31","5f3bd56999a44d9324b76ddb","636d03e66a32c7f65a0397df","636d0799e45856e59f07eff3","598.7999999999302","","","","39","","","","key","16.666347368420897","768","361","true","1","135.49278259200003","2.5769803776000004","11","-1","-1","","","","","","","","","","","","",""
"psychophysics","79","235121","0.0-8.0-0.32","5f3bd56999a44d9324b76ddb","636d03e66a32c7f65a0397df","636d0799e45856e59f07eff3","711","","","","37","","","","key","16.665960784313583","768","361","true","1","132.91580221440003","2.0615843020800004","12","1","-1","","","","","","","","","","","","",""
"psychophysics","80","237548","0.0-8.0-0.33","5f3bd56999a44d9324b76ddb","636d03e66a32c7f65a0397df","636d0799e45856e59f07eff3","1417.8000000000466","","","","37","","","","key","16.66615172413796","768","361","true","1","134.97738651648004","2.0615843020800004","12","1","1","","","","","","","","","","","","",""
"psychophysics","81","238902","0.0-8.0-0.34","5f3bd56999a44d9324b76ddb","636d03e66a32c7f65a0397df","636d0799e45856e59f07eff3","347.69999999995343","","","","39","","","","key","16.666525000000185","768","361","true","1","137.03897081856005","2.0615843020800004","12","-1","1","","","","","","","","","","","","",""
"psychophysics","82","240210","0.0-8.0-0.35","5f3bd56999a44d9324b76ddb","636d03e66a32c7f65a0397df","636d0799e45856e59f07eff3","303.10000000009313","","","","37","","","","key","16.66409090909103","768","361","true","-1","137.03897081856005","1.6492674416640005","13","-1","-1","","","","","","","","","","","","",""
"psychophysics","83","242592","0.0-8.0-0.36","5f3bd56999a44d9324b76ddb","636d03e66a32c7f65a0397df","636d0799e45856e59f07eff3","1378.6999999999534","","","","37","","","","key","16.666105633802815","768","361","true","-1","135.38970337689605","1.6492674416640005","13","-1","-1","","","","","","","","","","","","",""
"psychophysics","84","243971","0.0-8.0-0.37","5f3bd56999a44d9324b76ddb","636d03e66a32c7f65a0397df","636d0799e45856e59f07eff3","376.5","","","","39","","","","key","16.666195121951183","768","361","true","1","135.38970337689605","1.6492674416640005","13","-1","-1","","","","","","","","","","","","",""
"psychophysics","85","246032","0.0-8.0-0.38","5f3bd56999a44d9324b76ddb","636d03e66a32c7f65a0397df","636d0799e45856e59f07eff3","1054","","","","37","","","","key","16.80265573770491","768","361","true","-1","133.74043593523206","1.6492674416640005","13","-1","-1","","","","","","","","","","","","",""
"psychophysics","86","248881","0.0-8.0-0.39","5f3bd56999a44d9324b76ddb","636d03e66a32c7f65a0397df","636d0799e45856e59f07eff3","1846","","","","37","","","","key","16.666082352941157","768","361","true","1","133.74043593523206","1.3194139533312006","14","1","-1","","","","","","","","","","","","",""
"html-keyboard-response","87","250964","0.0-9.0","5f3bd56999a44d9324b76ddb","636d03e66a32c7f65a0397df","636d0799e45856e59f07eff3","2082.5999999999767","<p>Well Done !</p><p>Prepare for a new block.</p><p>DON'T EXIT THE FULL SCREEN MODE</p><p>Press the Spacebar to start.</p>","","","32","","","","","","","","","","","","","","","true","135.78226338775042","","","","","","","","","","",""
"psychophysics","88","252525","0.0-10.0-0.0","5f3bd56999a44d9324b76ddb","636d03e66a32c7f65a0397df","636d0799e45856e59f07eff3","556","","","","39","","","","key","16.666279569892552","768","361","true","1","180","30","0","-1","","","","","","","","","","","","","",""
"psychophysics","89","253920","0.0-10.0-0.1","5f3bd56999a44d9324b76ddb","636d03e66a32c7f65a0397df","636d0799e45856e59f07eff3","391.30000000004657","","","","37","","","","key","16.666072289156446","768","361","true","-1","180","30","0","-1","-1","","","","","","","","","","","","",""
"psychophysics","90","255036","0.0-10.0-0.2","5f3bd56999a44d9324b76ddb","636d03e66a32c7f65a0397df","636d0799e45856e59f07eff3","114.70000000006985","","","","37","","","","key","16.666636363636687","768","361","true","-1","150","30","0","-1","-1","","","","","","","","","","","","",""
"psychophysics","91","256086","0.0-10.0-0.3","5f3bd56999a44d9324b76ddb","636d03e66a32c7f65a0397df","636d0799e45856e59f07eff3","43.59999999997672","","","","39","","","","key","16.666048387096982","768","361","true","1","150","30","0","-1","-1","","","","","","","","","","","","",""
"psychophysics","92","258073","0.0-10.0-0.4","5f3bd56999a44d9324b76ddb","636d03e66a32c7f65a0397df","636d0799e45856e59f07eff3","983.4000000000233","","","","39","","","","key","16.666135593220517","768","361","true","-1","129","24","1","1","-1","","","","","","","","","","","","",""
"psychophysics","93","259417","0.0-10.0-0.5","5f3bd56999a44d9324b76ddb","636d03e66a32c7f65a0397df","636d0799e45856e59f07eff3","339.4000000000233","","","","39","","","","key","16.66617499999993","768","361","true","1","153","24","1","-1","1","","","","","","","","","","","","",""
"psychophysics","94","260717","0.0-10.0-0.6","5f3bd56999a44d9324b76ddb","636d03e66a32c7f65a0397df","636d0799e45856e59f07eff3","291.39999999990687","","","","39","","","","key","16.665636363636562","768","361","true","1","153","19.2","2","-1","-1","","","","","","","","","","","","",""
"psychophysics","95","263849","0.0-10.0-0.7","5f3bd56999a44d9324b76ddb","636d03e66a32c7f65a0397df","636d0799e45856e59f07eff3","2126.8000000000466","","","","37","","","","key","16.666139037432995","768","361","true","-1","133.8","19.2","2","-1","-1","","","","","","","","","","","","",""
"psychophysics","96","265844","0.0-10.0-0.8","5f3bd56999a44d9324b76ddb","636d03e66a32c7f65a0397df","636d0799e45856e59f07eff3","985.5999999999767","","","","37","","","","key","16.66601694915276","768","361","true","1","133.8","15.36","3","1","-1","","","","","","","","","","","","",""
"psychophysics","97","267097","0.0-10.0-0.9","5f3bd56999a44d9324b76ddb","636d03e66a32c7f65a0397df","636d0799e45856e59f07eff3","251.5","","","","39","","","","key","16.66638666666656","768","361","true","1","149.16000000000003","15.36","3","-1","1","","","","","","","","","","","","",""
"psychophysics","98","268521","0.0-10.0-0.10","5f3bd56999a44d9324b76ddb","636d03e66a32c7f65a0397df","636d0799e45856e59f07eff3","415.5999999999767","","","","39","","","","key","16.6661547619047","768","361","true","1","149.16000000000003","12.287999999999998","4","-1","-1","","","","","","","","","","","","",""
"psychophysics","99","269825","0.0-10.0-0.11","5f3bd56999a44d9324b76ddb","636d03e66a32c7f65a0397df","636d0799e45856e59f07eff3","297","","","","37","","","","key","16.666025974025782","768","361","true","-1","136.872","12.287999999999998","4","-1","-1","","","","","","","","","","","","",""
"psychophysics","100","271079","0.0-10.0-0.12","5f3bd56999a44d9324b76ddb","636d03e66a32c7f65a0397df","636d0799e45856e59f07eff3","250.5","","","","37","","","","key","16.666106666667233","768","361","true","-1","136.872","12.287999999999998","4","-1","-1","","","","","","","","","","","","",""
"psychophysics","101","272701","0.0-10.0-0.13","5f3bd56999a44d9324b76ddb","636d03e66a32c7f65a0397df","636d0799e45856e59f07eff3","619.2999999999302","","","","37","","","","key","16.666093750000073","768","361","true","-1","129","12.287999999999998","4","-1","-1","","","","","","","","","","","","",""
"psychophysics","102","274147","0.0-10.0-0.14","5f3bd56999a44d9324b76ddb","636d03e66a32c7f65a0397df","636d0799e45856e59f07eff3","441.5","","","","37","","","","key","16.66624418604675","768","361","true","-1","129","12.287999999999998","4","-1","-1","","","","","","","","","","","","",""
"psychophysics","103","275540","0.0-10.0-0.15","5f3bd56999a44d9324b76ddb","636d03e66a32c7f65a0397df","636d0799e45856e59f07eff3","386.0999999999767","","","","37","","","","key","16.66626829268246","768","361","true","-1","129","12.287999999999998","4","-1","-1","","","","","","","","","","","","",""
"psychophysics","104","277162","0.0-10.0-0.16","5f3bd56999a44d9324b76ddb","636d03e66a32c7f65a0397df","636d0799e45856e59f07eff3","617.4000000000233","","","","37","","","","key","16.666083333333518","768","361","true","-1","129","12.287999999999998","4","-1","-1","","","","","","","","","","","","",""
"psychophysics","105","278800","0.0-10.0-0.17","5f3bd56999a44d9324b76ddb","636d03e66a32c7f65a0397df","636d0799e45856e59f07eff3","630.3000000000466","","","","37","","","","key","16.66655102040861","768","361","true","-1","129","12.287999999999998","4","-1","-1","","","","","","","","","","","","",""
"psychophysics","106","281397","0.0-10.0-0.18","5f3bd56999a44d9324b76ddb","636d03e66a32c7f65a0397df","636d0799e45856e59f07eff3","1596.4000000000233","","","","39","","","","key","16.666193548387156","768","361","true","1","129","12.287999999999998","4","-1","-1","","","","","","","","","","","","",""
"psychophysics","107","283257","0.0-10.0-0.19","5f3bd56999a44d9324b76ddb","636d03e66a32c7f65a0397df","636d0799e45856e59f07eff3","856.5","","","","39","","","","key","16.66600909090908","768","361","true","1","129","12.287999999999998","4","-1","-1","","","","","","","","","","","","",""
"psychophysics","108","284714","0.0-10.0-0.20","5f3bd56999a44d9324b76ddb","636d03e66a32c7f65a0397df","636d0799e45856e59f07eff3","452.9000000000233","","","","39","","","","key","16.66720689655196","768","361","true","1","129","12.287999999999998","4","-1","-1","","","","","","","","","","","","",""
"psychophysics","109","286261","0.0-10.0-0.21","5f3bd56999a44d9324b76ddb","636d03e66a32c7f65a0397df","636d0799e45856e59f07eff3","542.2999999999302","","","","39","","","","key","16.665945054944682","768","361","true","-1","129","9.8304","5","1","-1","","","","","","","","","","","","",""
"psychophysics","110","288913","0.0-10.0-0.22","5f3bd56999a44d9324b76ddb","636d03e66a32c7f65a0397df","636d0799e45856e59f07eff3","1650.1999999999534","","","","39","","","","key","16.665911949685565","768","361","true","1","138.8304","9.8304","5","-1","1","","","","","","","","","","","","",""
"psychophysics","111","290332","0.0-10.0-0.23","5f3bd56999a44d9324b76ddb","636d03e66a32c7f65a0397df","636d0799e45856e59f07eff3","410","","","","37","","","","key","16.665916666666384","768","361","true","-1","138.8304","7.864319999999999","6","-1","-1","","","","","","","","","","","","",""
"psychophysics","112","293736","0.0-10.0-0.24","5f3bd56999a44d9324b76ddb","636d03e66a32c7f65a0397df","636d0799e45856e59f07eff3","2398.0999999999767","","","","39","","","","key","16.666339901477794","768","361","true","1","130.96608","7.864319999999999","6","-1","-1","","","","","","","","","","","","",""
"psychophysics","113","295574","0.0-10.0-0.25","5f3bd56999a44d9324b76ddb","636d03e66a32c7f65a0397df","636d0799e45856e59f07eff3","830.5","","","","37","","","","key","16.66615596330306","768","361","true","1","130.96608","6.291456","7","1","-1","","","","","","","","","","","","",""
"psychophysics","114","296961","0.0-10.0-0.26","5f3bd56999a44d9324b76ddb","636d03e66a32c7f65a0397df","636d0799e45856e59f07eff3","382.9000000000233","","","","39","","","","key","16.666121951219903","768","361","true","1","137.25753600000002","6.291456","7","-1","1","","","","","","","","","","","","",""
"psychophysics","115","301633","0.0-10.0-0.27","5f3bd56999a44d9324b76ddb","636d03e66a32c7f65a0397df","636d0799e45856e59f07eff3","3671.1999999999534","","","","39","","","","key","16.665682142857154","768","361","true","-1","137.25753600000002","5.033164800000001","8","1","-1","","","","","","","","","","","","",""
"psychophysics","116","305088","0.0-10.0-0.28","5f3bd56999a44d9324b76ddb","636d03e66a32c7f65a0397df","636d0799e45856e59f07eff3","2446.1999999999534","","","","39","","","","key","16.747492682926993","768","361","true","-1","142.29070080000002","5.033164800000001","8","1","1","","","","","","","","","","","","",""
"psychophysics","117","308016","0.0-10.0-0.29","5f3bd56999a44d9324b76ddb","636d03e66a32c7f65a0397df","636d0799e45856e59f07eff3","1922.4000000000233","","","","39","","","","key","16.76155747126436","768","361","true","1","147.32386560000003","5.033164800000001","8","-1","1","","","","","","","","","","","","",""
"psychophysics","118","309448","0.0-10.0-0.30","5f3bd56999a44d9324b76ddb","636d03e66a32c7f65a0397df","636d0799e45856e59f07eff3","421.89999999990687","","","","37","","","","key","16.66629411764717","768","361","true","-1","147.32386560000003","4.0265318400000005","9","-1","-1","","","","","","","","","","","","",""
"psychophysics","119","310803","0.0-10.0-0.31","5f3bd56999a44d9324b76ddb","636d03e66a32c7f65a0397df","636d0799e45856e59f07eff3","345.9000000000233","","","","37","","","","key","16.66599999999962","768","361","true","-1","143.29733376000004","4.0265318400000005","9","-1","-1","","","","","","","","","","","","",""
"psychophysics","120","312140","0.0-10.0-0.32","5f3bd56999a44d9324b76ddb","636d03e66a32c7f65a0397df","636d0799e45856e59f07eff3","330.4000000000233","","","","39","","","","key","16.665898734176842","768","361","true","1","143.29733376000004","4.0265318400000005","9","-1","-1","","","","","","","","","","","","",""
"psychophysics","121","313585","0.0-10.0-0.33","5f3bd56999a44d9324b76ddb","636d03e66a32c7f65a0397df","636d0799e45856e59f07eff3","441","","","","39","","","","key","16.665034883720583","768","361","true","1","139.27080192000005","4.0265318400000005","9","-1","-1","","","","","","","","","","","","",""
"psychophysics","122","314997","0.0-10.0-0.34","5f3bd56999a44d9324b76ddb","636d03e66a32c7f65a0397df","636d0799e45856e59f07eff3","403.20000000006985","","","","39","","","","key","16.666083333333344","768","361","true","1","139.27080192000005","4.0265318400000005","9","-1","-1","","","","","","","","","","","","",""
"psychophysics","123","317286","0.0-10.0-0.35","5f3bd56999a44d9324b76ddb","636d03e66a32c7f65a0397df","636d0799e45856e59f07eff3","1283.3000000000466","","","","37","","","","key","16.665514705882423","768","361","true","1","135.24427008000006","3.2212254720000004","10","1","-1","","","","","","","","","","","","",""
"psychophysics","124","318630","0.0-10.0-0.36","5f3bd56999a44d9324b76ddb","636d03e66a32c7f65a0397df","636d0799e45856e59f07eff3","339.70000000006985","","","","37","","","","key","16.666487500000223","768","361","true","-1","138.46549555200005","3.2212254720000004","10","-1","1","","","","","","","","","","","","",""
"psychophysics","125","321265","0.0-10.0-0.37","5f3bd56999a44d9324b76ddb","636d03e66a32c7f65a0397df","636d0799e45856e59f07eff3","1630.6999999999534","","","","37","","","","key","16.665999999999848","768","361","true","-1","138.46549555200005","2.5769803776000004","11","-1","-1","","","","","","","","","","","","",""
"psychophysics","126","323564","0.0-10.0-0.38","5f3bd56999a44d9324b76ddb","636d03e66a32c7f65a0397df","636d0799e45856e59f07eff3","1289.3000000000466","","","","37","","","","key","16.66613138686138","768","361","true","1","135.88851517440006","2.0615843020800004","12","1","-1","","","","","","","","","","","","",""
"psychophysics","127","325367","0.0-10.0-0.39","5f3bd56999a44d9324b76ddb","636d03e66a32c7f65a0397df","636d0799e45856e59f07eff3","797.0999999999767","","","","37","","","","key","16.666345794392516","768","361","true","-1","137.95009947648006","2.0615843020800004","12","-1","1","","","","","","","","","","","","",""
"html-keyboard-response","128","461013","0.0-11.0","5f3bd56999a44d9324b76ddb","636d03e66a32c7f65a0397df","636d0799e45856e59f07eff3","135645.80000000005","<p>Well Done !</p><p>Prepare for a new block.</p><p>DON'T EXIT THE FULL SCREEN MODE</p><p>Press the Spacebar to start.</p>","","","32","","","","","","","","","","","","","","","true","139.57131541299202","","","","","","","","","","",""
"psychophysics","129","465615","0.0-12.0-0.0","5f3bd56999a44d9324b76ddb","636d03e66a32c7f65a0397df","636d0799e45856e59f07eff3","3596.6999999999534","","","","39","","","","key","16.67279347826084","768","361","true","1","180","30","0","-1","","","","","","","","","","","","","",""
"psychophysics","130","466692","0.0-12.0-0.1","5f3bd56999a44d9324b76ddb","636d03e66a32c7f65a0397df","636d0799e45856e59f07eff3","73","","","","39","","","","key","16.665359374999753","768","361","true","1","180","30","0","-1","-1","","","","","","","","","","","","",""
"psychophysics","131","468681","0.0-12.0-0.2","5f3bd56999a44d9324b76ddb","636d03e66a32c7f65a0397df","636d0799e45856e59f07eff3","984","","","","37","","","","key","16.665838983050996","768","361","true","-1","150","30","0","-1","-1","","","","","","","","","","","","",""
"psychophysics","132","469695","0.0-12.0-0.3","5f3bd56999a44d9324b76ddb","636d03e66a32c7f65a0397df","636d0799e45856e59f07eff3","5.300000000046566","","","","39","","","","key","16.665133333333262","768","361","true","1","150","30","0","-1","-1","","","","","","","","","","","","",""
"psychophysics","133","471829","0.0-12.0-0.4","5f3bd56999a44d9324b76ddb","636d03e66a32c7f65a0397df","636d0799e45856e59f07eff3","1131.7999999999302","","","","39","","","","key","16.666196850393387","768","361","true","-1","129","24","1","1","-1","","","","","","","","","","","","",""
"psychophysics","134","473142","0.0-12.0-0.5","5f3bd56999a44d9324b76ddb","636d03e66a32c7f65a0397df","636d0799e45856e59f07eff3","308.4000000000233","","","","39","","","","key","16.665628205128133","768","361","true","1","153","24","1","-1","1","","","","","","","","","","","","",""
"psychophysics","135","474788","0.0-12.0-0.6","5f3bd56999a44d9324b76ddb","636d03e66a32c7f65a0397df","636d0799e45856e59f07eff3","641.1000000000931","","","","37","","","","key","16.666505154639307","768","361","true","-1","153","19.2","2","-1","-1","","","","","","","","","","","","",""
"psychophysics","136","477102","0.0-12.0-0.7","5f3bd56999a44d9324b76ddb","636d03e66a32c7f65a0397df","636d0799e45856e59f07eff3","1312","","","","37","","","","key","16.666391304347822","768","361","true","-1","133.8","19.2","2","-1","-1","","","","","","","","","","","","",""
"psychophysics","137","478768","0.0-12.0-0.8","5f3bd56999a44d9324b76ddb","636d03e66a32c7f65a0397df","636d0799e45856e59f07eff3","661.7000000000698","","","","37","","","","key","16.66618181818172","768","361","true","1","133.8","15.36","3","1","-1","","","","","","","","","","","","",""
"psychophysics","138","480097","0.0-12.0-0.9","5f3bd56999a44d9324b76ddb","636d03e66a32c7f65a0397df","636d0799e45856e59f07eff3","324.20000000006985","","","","37","","","","key","16.666113924050904","768","361","true","-1","149.16000000000003","15.36","3","-1","1","","","","","","","","","","","","",""
"psychophysics","139","481190","0.0-12.0-0.10","5f3bd56999a44d9324b76ddb","636d03e66a32c7f65a0397df","636d0799e45856e59f07eff3","84.09999999997672","","","","39","","","","key","16.666062499999498","768","361","true","1","149.16000000000003","12.287999999999998","4","-1","-1","","","","","","","","","","","","",""
"psychophysics","140","482549","0.0-12.0-0.11","5f3bd56999a44d9324b76ddb","636d03e66a32c7f65a0397df","636d0799e45856e59f07eff3","354.80000000004657","","","","39","","","","key","16.661888888889038","768","361","true","1","136.872","12.287999999999998","4","-1","-1","","","","","","","","","","","","",""
"psychophysics","141","483727","0.0-12.0-0.12","5f3bd56999a44d9324b76ddb","636d03e66a32c7f65a0397df","636d0799e45856e59f07eff3","172.09999999997672","","","","39","","","","key","16.665399999999707","768","361","true","1","136.872","12.287999999999998","4","-1","-1","","","","","","","","","","","","",""
"psychophysics","142","485570","0.0-12.0-0.13","5f3bd56999a44d9324b76ddb","636d03e66a32c7f65a0397df","636d0799e45856e59f07eff3","840.5","","","","39","","","","key","16.66572477064232","768","361","true","-1","129","9.8304","5","1","-1","","","","","","","","","","","","",""
"psychophysics","143","487191","0.0-12.0-0.14","5f3bd56999a44d9324b76ddb","636d03e66a32c7f65a0397df","636d0799e45856e59f07eff3","618.5999999999767","","","","37","","","","key","16.666268041236783","768","361","true","-1","138.8304","9.8304","5","-1","1","","","","","","","","","","","","",""
"psychophysics","144","488502","0.0-12.0-0.15","5f3bd56999a44d9324b76ddb","636d03e66a32c7f65a0397df","636d0799e45856e59f07eff3","307.69999999995343","","","","37","","","","key","16.66537662337658","768","361","true","-1","138.8304","7.864319999999999","6","-1","-1","","","","","","","","","","","","",""
"psychophysics","145","490690","0.0-12.0-0.16","5f3bd56999a44d9324b76ddb","636d03e66a32c7f65a0397df","636d0799e45856e59f07eff3","1184.4000000000233","","","","39","","","","key","16.665876923077022","768","361","true","1","130.96608","7.864319999999999","6","-1","-1","","","","","","","","","","","","",""
"psychophysics","146","492021","0.0-12.0-0.17","5f3bd56999a44d9324b76ddb","636d03e66a32c7f65a0397df","636d0799e45856e59f07eff3","323.5","","","","39","","","","key","16.66549367088562","768","361","true","-1","130.96608","6.291456","7","1","-1","","","","","","","","","","","","",""
"psychophysics","147","493319","0.0-12.0-0.18","5f3bd56999a44d9324b76ddb","636d03e66a32c7f65a0397df","636d0799e45856e59f07eff3","294.70000000006985","","","","37","","","","key","16.66588311688294","768","361","true","-1","137.25753600000002","6.291456","7","-1","1","","","","","","","","","","","","",""
"psychophysics","148","494643","0.0-12.0-0.19","5f3bd56999a44d9324b76ddb","636d03e66a32c7f65a0397df","636d0799e45856e59f07eff3","321.19999999995343","","","","39","","","","key","16.666316455695778","768","361","true","1","137.25753600000002","5.033164800000001","8","-1","-1","","","","","","","","","","","","",""
"psychophysics","149","496554","0.0-12.0-0.20","5f3bd56999a44d9324b76ddb","636d03e66a32c7f65a0397df","636d0799e45856e59f07eff3","904.4000000000233","","","","39","","","","key","16.665398230088517","768","361","true","1","132.2243712","5.033164800000001","8","-1","-1","","","","","","","","","","","","",""
"psychophysics","150","498157","0.0-12.0-0.21","5f3bd56999a44d9324b76ddb","636d03e66a32c7f65a0397df","636d0799e45856e59f07eff3","601.6000000000931","","","","39","","","","key","16.6663020833336","768","361","true","1","132.2243712","5.033164800000001","8","-1","-1","","","","","","","","","","","","",""
"psychophysics","151","499703","0.0-12.0-0.22","5f3bd56999a44d9324b76ddb","636d03e66a32c7f65a0397df","636d0799e45856e59f07eff3","541.5999999999767","","","","39","","","","key","16.665604395604472","768","361","true","1","129","5.033164800000001","8","-1","-1","","","","","","","","","","","","",""
"psychophysics","152","501698","0.0-12.0-0.23","5f3bd56999a44d9324b76ddb","636d03e66a32c7f65a0397df","636d0799e45856e59f07eff3","993.3999999999069","","","","37","","","","key","16.666075630252397","768","361","true","-1","129","5.033164800000001","8","-1","-1","","","","","","","","","","","","",""
"psychophysics","153","503304","0.0-12.0-0.24","5f3bd56999a44d9324b76ddb","636d03e66a32c7f65a0397df","636d0799e45856e59f07eff3","598.5999999999767","","","","39","","","","key","16.665210526315864","768","361","true","1","129","5.033164800000001","8","-1","-1","","","","","","","","","","","","",""
"psychophysics","154","504775","0.0-12.0-0.25","5f3bd56999a44d9324b76ddb","636d03e66a32c7f65a0397df","636d0799e45856e59f07eff3","469.79999999993015","","","","39","","","","key","16.664545454545244","768","361","true","1","129","5.033164800000001","8","-1","-1","","","","","","","","","","","","",""
"psychophysics","155","506306","0.0-12.0-0.26","5f3bd56999a44d9324b76ddb","636d03e66a32c7f65a0397df","636d0799e45856e59f07eff3","528.9000000000233","","","","39","","","","key","16.665011111110733","768","361","true","-1","129","4.0265318400000005","9","1","-1","","","","","","","","","","","","",""
"psychophysics","156","508256","0.0-12.0-0.27","5f3bd56999a44d9324b76ddb","636d03e66a32c7f65a0397df","636d0799e45856e59f07eff3","942.3000000000466","","","","37","","","","key","16.666482758620987","768","361","true","-1","133.02653184","4.0265318400000005","9","-1","1","","","","","","","","","","","","",""
"psychophysics","157","509763","0.0-12.0-0.28","5f3bd56999a44d9324b76ddb","636d03e66a32c7f65a0397df","636d0799e45856e59f07eff3","506.30000000004657","","","","37","","","","key","16.66381111111065","768","361","true","1","133.02653184","3.2212254720000004","10","1","-1","","","","","","","","","","","","",""
"psychophysics","158","511107","0.0-12.0-0.29","5f3bd56999a44d9324b76ddb","636d03e66a32c7f65a0397df","636d0799e45856e59f07eff3","337.79999999993015","","","","39","","","","key","16.66547500000015","768","361","true","1","136.24775731199998","3.2212254720000004","10","-1","1","","","","","","","","","","","","",""
"psychophysics","159","512740","0.0-12.0-0.30","5f3bd56999a44d9324b76ddb","636d03e66a32c7f65a0397df","636d0799e45856e59f07eff3","625.6999999999534","","","","39","","","","key","16.665092783504807","768","361","true","-1","136.24775731199998","2.5769803776000004","11","1","-1","","","","","","","","","","","","",""
"psychophysics","160","514160","0.0-12.0-0.31","5f3bd56999a44d9324b76ddb","636d03e66a32c7f65a0397df","636d0799e45856e59f07eff3","414.5","","","","37","","","","key","16.665607142857404","768","361","true","-1","138.82473768959997","2.5769803776000004","11","-1","1","","","","","","","","","","","","",""
"psychophysics","161","515502","0.0-12.0-0.32","5f3bd56999a44d9324b76ddb","636d03e66a32c7f65a0397df","636d0799e45856e59f07eff3","333","","","","37","","","","key","16.665987341772304","768","361","true","-1","138.82473768959997","2.0615843020800004","12","-1","-1","","","","","","","","","","","","",""
"psychophysics","162","517556","0.0-12.0-0.33","5f3bd56999a44d9324b76ddb","636d03e66a32c7f65a0397df","636d0799e45856e59f07eff3","1051.1000000000931","","","","39","","","","key","16.665926829268173","768","361","true","1","136.76315338751996","2.0615843020800004","12","-1","-1","","","","","","","","","","","","",""
"psychophysics","163","519534","0.0-12.0-0.34","5f3bd56999a44d9324b76ddb","636d03e66a32c7f65a0397df","636d0799e45856e59f07eff3","972.6000000000931","","","","39","","","","key","16.664076923077296","768","361","true","-1","136.76315338751996","1.6492674416640005","13","1","-1","","","","","","","","","","","","",""
"psychophysics","164","521040","0.0-12.0-0.35","5f3bd56999a44d9324b76ddb","636d03e66a32c7f65a0397df","636d0799e45856e59f07eff3","502.30000000004657","","","","37","","","","key","16.66507777777798","768","361","true","1","138.41242082918396","1.6492674416640005","13","1","1","","","","","","","","","","","","",""
"psychophysics","165","522586","0.0-12.0-0.36","5f3bd56999a44d9324b76ddb","636d03e66a32c7f65a0397df","636d0799e45856e59f07eff3","536.2000000000698","","","","37","","","","key","16.66613186813205","768","361","true","-1","140.06168827084795","1.6492674416640005","13","-1","1","","","","","","","","","","","","",""
"psychophysics","166","523824","0.0-12.0-0.37","5f3bd56999a44d9324b76ddb","636d03e66a32c7f65a0397df","636d0799e45856e59f07eff3","235.39999999990687","","","","37","","","","key","16.665878378378693","768","361","true","-1","140.06168827084795","1.3194139533312006","14","-1","-1","","","","","","","","","","","","",""
"psychophysics","167","525136","0.0-12.0-0.38","5f3bd56999a44d9324b76ddb","636d03e66a32c7f65a0397df","636d0799e45856e59f07eff3","309.9000000000233","","","","37","","","","key","16.663532467531766","768","361","true","-1","138.74227431751675","1.3194139533312006","14","-1","-1","","","","","","","","","","","","",""
"psychophysics","168","527108","0.0-12.0-0.39","5f3bd56999a44d9324b76ddb","636d03e66a32c7f65a0397df","636d0799e45856e59f07eff3","969.5","","","","37","","","","key","16.665830508474325","768","361","true","1","138.74227431751675","1.0555311626649604","15","1","-1","","","","","","","","","","","","",""
"html-keyboard-response","169","541424","0.0-13.0","5f3bd56999a44d9324b76ddb","636d03e66a32c7f65a0397df","636d0799e45856e59f07eff3","14314.599999999977","<p>Well Done !</p><p>Prepare for a new block.</p><p>DON'T EXIT THE FULL SCREEN MODE</p><p>Press the Spacebar to start.</p>","","","32","","","","","","","","","","","","","","","true","136.2496470976102","","","","","","","","","","",""
"html-keyboard-response","170","541534","0.0-14.0","5f3bd56999a44d9324b76ddb","636d03e66a32c7f65a0397df","636d0799e45856e59f07eff3","null","","","","null","","","","","","","","","","","","","","","","","136.07335202799618","true","144.14670405599236","","","","","","","",""
"instructions","171","579385","0.0-15.0","5f3bd56999a44d9324b76ddb","636d03e66a32c7f65a0397df","636d0799e45856e59f07eff3","37849.20000000007","","","","","","","[{""page_index"":0,""viewing_time"":31829.5},{""page_index"":1,""viewing_time"":3346.5999999999767},{""page_index"":2,""viewing_time"":2672.20000000007}]","","","","","","","","","","","","","","","","","","","","","","","",""
"psychophysics","172","582403","0.0-16.0-0.0","5f3bd56999a44d9324b76ddb","636d03e66a32c7f65a0397df","636d0799e45856e59f07eff3","null","","","","null","","","","key","16.66610000000025","768","361","","","","","","","","","","","","","","","","","","","",""
"psychophysics","173","582906","0.0-16.0-1.0","5f3bd56999a44d9324b76ddb","636d03e66a32c7f65a0397df","636d0799e45856e59f07eff3","null","","","","null","","","","key","16.665499999998914","768","361","","","","","","","","","","","","","144","-1","4","false","","","",""
"psychophysics","174","584586","0.0-16.0-2.0","5f3bd56999a44d9324b76ddb","636d03e66a32c7f65a0397df","636d0799e45856e59f07eff3","1677.6999999999534","","","","90","","","","key","16.66561616161683","768","361","","","","","","","","","","","","","","","","","","","",""
"psychophysics","175","585588","0.0-16.0-0.1","5f3bd56999a44d9324b76ddb","636d03e66a32c7f65a0397df","636d0799e45856e59f07eff3","null","","","","null","","","","key","16.666550000000278","768","361","","","","","","","","","","","","","","","","","","","",""
"psychophysics","176","586097","0.0-16.0-1.1","5f3bd56999a44d9324b76ddb","636d03e66a32c7f65a0397df","636d0799e45856e59f07eff3","null","","","","null","","","","key","16.66462068965434","768","361","","","","","","","","","","","","","144","1","0","false","","","",""
"psychophysics","177","586966","0.0-16.0-2.1","5f3bd56999a44d9324b76ddb","636d03e66a32c7f65a0397df","636d0799e45856e59f07eff3","867.0999999999767","","","","90","","","","key","16.666607843136745","768","361","","","","","","","","","","","","","","","","","","","",""
"psychophysics","178","587970","0.0-16.0-0.2","5f3bd56999a44d9324b76ddb","636d03e66a32c7f65a0397df","636d0799e45856e59f07eff3","null","","","","null","","","","key","16.666525423728025","768","361","","","","","","","","","","","","","","","","","","","",""
"psychophysics","179","588471","0.0-16.0-1.2","5f3bd56999a44d9324b76ddb","636d03e66a32c7f65a0397df","636d0799e45856e59f07eff3","null","","","","null","","","","key","16.66543333333296","768","361","","","","","","","","","","","","","144","1","6","false","","","",""
"psychophysics","180","589089","0.0-16.0-2.2","5f3bd56999a44d9324b76ddb","636d03e66a32c7f65a0397df","636d0799e45856e59f07eff3","616.8999999999069","","","","77","","","","key","16.665027777777546","768","361","","","","","","","","","","","","","","","","","","","",""
"psychophysics","181","590098","0.0-16.0-0.3","5f3bd56999a44d9324b76ddb","636d03e66a32c7f65a0397df","636d0799e45856e59f07eff3","null","","","","null","","","","key","16.66581355932295","768","361","","","","","","","","","","","","","","","","","","","",""
"psychophysics","182","590610","0.0-16.0-1.3","5f3bd56999a44d9324b76ddb","636d03e66a32c7f65a0397df","636d0799e45856e59f07eff3","null","","","","null","","","","key","16.66570000000065","768","361","","","","","","","","","","","","","144","-1","0","false","","","",""
"psychophysics","183","592989","0.0-16.0-2.3","5f3bd56999a44d9324b76ddb","636d03e66a32c7f65a0397df","636d0799e45856e59f07eff3","2378","","","","77","","","","key","16.666316901408234","768","361","","","","","","","","","","","","","","","","","","","",""
"psychophysics","184","593994","0.0-16.0-0.4","5f3bd56999a44d9324b76ddb","636d03e66a32c7f65a0397df","636d0799e45856e59f07eff3","null","","","","null","","","","key","16.66501694915311","768","361","","","","","","","","","","","","","","","","","","","",""
"psychophysics","185","594498","0.0-16.0-1.4","5f3bd56999a44d9324b76ddb","636d03e66a32c7f65a0397df","636d0799e45856e59f07eff3","null","","","","null","","","","key","16.664241379311566","768","361","","","","","","","","","","","","","144","1","2","false","","","",""
"psychophysics","186","594972","0.0-16.0-2.4","5f3bd56999a44d9324b76ddb","636d03e66a32c7f65a0397df","636d0799e45856e59f07eff3","473.19999999995343","","","","90","","","","key","16.662285714285513","768","361","","","","","","","","","","","","","","","","","","","",""
"psychophysics","187","595979","0.0-16.0-0.5","5f3bd56999a44d9324b76ddb","636d03e66a32c7f65a0397df","636d0799e45856e59f07eff3","null","","","","null","","","","key","16.6655932203393","768","361","","","","","","","","","","","","","","","","","","","",""
"psychophysics","188","596482","0.0-16.0-1.5","5f3bd56999a44d9324b76ddb","636d03e66a32c7f65a0397df","636d0799e45856e59f07eff3","null","","","","null","","","","key","16.665206896554647","768","361","","","","","","","","","","","","","144","1","4","false","","","",""
"psychophysics","189","597360","0.0-16.0-2.5","5f3bd56999a44d9324b76ddb","636d03e66a32c7f65a0397df","636d0799e45856e59f07eff3","876.2999999999302","","","","77","","","","key","16.66563461538485","768","361","","","","","","","","","","","","","","","","","","","",""
"psychophysics","190","598361","0.0-16.0-0.6","5f3bd56999a44d9324b76ddb","636d03e66a32c7f65a0397df","636d0799e45856e59f07eff3","null","","","","null","","","","key","16.666440677965234","768","361","","","","","","","","","","","","","","","","","","","",""
"psychophysics","191","598867","0.0-16.0-1.6","5f3bd56999a44d9324b76ddb","636d03e66a32c7f65a0397df","636d0799e45856e59f07eff3","null","","","","null","","","","key","16.663172413791724","768","361","","","","","","","","","","","","","144","-1","5","false","","","",""
"psychophysics","192","600082","0.0-16.0-2.6","5f3bd56999a44d9324b76ddb","636d03e66a32c7f65a0397df","636d0799e45856e59f07eff3","1214.2000000000698","","","","77","","","","key","16.666930555555155","768","361","","","","","","","","","","","","","","","","","","","",""
"psychophysics","193","601086","0.0-16.0-0.7","5f3bd56999a44d9324b76ddb","636d03e66a32c7f65a0397df","636d0799e45856e59f07eff3","null","","","","null","","","","key","16.666457627118582","768","361","","","","","","","","","","","","","","","","","","","",""
"psychophysics","194","601595","0.0-16.0-1.7","5f3bd56999a44d9324b76ddb","636d03e66a32c7f65a0397df","636d0799e45856e59f07eff3","null","","","","null","","","","key","16.66469999999972","768","361","","","","","","","","","","","","","144","-1","6","false","","","",""
"psychophysics","195","602126","0.0-16.0-2.7","5f3bd56999a44d9324b76ddb","636d03e66a32c7f65a0397df","636d0799e45856e59f07eff3","530.0999999999767","","","","77","","","","key","16.665999999998377","768","361","","","","","","","","","","","","","","","","","","","",""
"psychophysics","196","603131","0.0-16.0-0.8","5f3bd56999a44d9324b76ddb","636d03e66a32c7f65a0397df","636d0799e45856e59f07eff3","null","","","","null","","","","key","16.66562711864402","768","361","","","","","","","","","","","","","","","","","","","",""
"psychophysics","197","603634","0.0-16.0-1.8","5f3bd56999a44d9324b76ddb","636d03e66a32c7f65a0397df","636d0799e45856e59f07eff3","null","","","","null","","","","key","16.665310344827393","768","361","","","","","","","","","","","","","144","1","5","false","","","",""
"psychophysics","198","604367","0.0-16.0-2.8","5f3bd56999a44d9324b76ddb","636d03e66a32c7f65a0397df","636d0799e45856e59f07eff3","731.1999999999534","","","","77","","","","key","16.666744186047485","768","361","","","","","","","","","","","","","","","","","","","",""
"psychophysics","199","605369","0.0-16.0-0.9","5f3bd56999a44d9324b76ddb","636d03e66a32c7f65a0397df","636d0799e45856e59f07eff3","null","","","","null","","","","key","16.66706779660949","768","361","","","","","","","","","","","","","","","","","","","",""
"psychophysics","200","605871","0.0-16.0-1.9","5f3bd56999a44d9324b76ddb","636d03e66a32c7f65a0397df","636d0799e45856e59f07eff3","null","","","","null","","","","key","16.667433333334824","768","361","","","","","","","","","","","","","144","1","3","false","","","",""
"psychophysics","201","606184","0.0-16.0-2.9","5f3bd56999a44d9324b76ddb","636d03e66a32c7f65a0397df","636d0799e45856e59f07eff3","311.69999999995343","","","","77","","","","key","16.66470588235568","768","361","","","","","","","","","","","","","","","","","","","",""
"psychophysics","202","607186","0.0-16.0-0.10","5f3bd56999a44d9324b76ddb","636d03e66a32c7f65a0397df","636d0799e45856e59f07eff3","null","","","","null","","","","key","16.66620338983021","768","361","","","","","","","","","","","","","","","","","","","",""
"psychophysics","203","607687","0.0-16.0-1.10","5f3bd56999a44d9324b76ddb","636d03e66a32c7f65a0397df","636d0799e45856e59f07eff3","null","","","","null","","","","key","16.66683333333349","768","361","","","","","","","","","","","","","144","-1","2","false","","","",""
"psychophysics","204","608663","0.0-16.0-2.10","5f3bd56999a44d9324b76ddb","636d03e66a32c7f65a0397df","636d0799e45856e59f07eff3","973.9000000000233","","","","77","","","","key","16.665473684209008","768","361","","","","","","","","","","","","","","","","","","","",""
"psychophysics","205","609667","0.0-16.0-0.11","5f3bd56999a44d9324b76ddb","636d03e66a32c7f65a0397df","636d0799e45856e59f07eff3","null","","","","null","","","","key","16.666186440678835","768","361","","","","","","","","","","","","","","","","","","","",""
"psychophysics","206","610169","0.0-16.0-1.11","5f3bd56999a44d9324b76ddb","636d03e66a32c7f65a0397df","636d0799e45856e59f07eff3","null","","","","null","","","","key","16.66858620689941","768","361","","","","","","","","","","","","","144","-1","3","false","","","",""
"psychophysics","207","610801","0.0-16.0-2.11","5f3bd56999a44d9324b76ddb","636d03e66a32c7f65a0397df","636d0799e45856e59f07eff3","629.3000000000466","","","","90","","","","key","16.66818918918914","768","361","","","","","","","","","","","","","","","","","","","",""
"psychophysics","208","611803","0.0-16.0-0.12","5f3bd56999a44d9324b76ddb","636d03e66a32c7f65a0397df","636d0799e45856e59f07eff3","null","","","","null","","","","key","16.66618333333366","768","361","","","","","","","","","","","","","","","","","","","",""
"psychophysics","209","612306","0.0-16.0-1.12","5f3bd56999a44d9324b76ddb","636d03e66a32c7f65a0397df","636d0799e45856e59f07eff3","null","","","","null","","","","key","16.665620689653664","768","361","","","","","","","","","","","","","144","1","4","false","","","",""
"psychophysics","210","613235","0.0-16.0-2.12","5f3bd56999a44d9324b76ddb","636d03e66a32c7f65a0397df","636d0799e45856e59f07eff3","927.5999999999767","","","","77","","","","key","16.667592592593454","768","361","","","","","","","","","","","","","","","","","","","",""
"psychophysics","211","614236","0.0-16.0-0.13","5f3bd56999a44d9324b76ddb","636d03e66a32c7f65a0397df","636d0799e45856e59f07eff3","null","","","","null","","","","key","16.666149999998744","768","361","","","","","","","","","","","","","","","","","","","",""
"psychophysics","212","614747","0.0-16.0-1.13","5f3bd56999a44d9324b76ddb","636d03e66a32c7f65a0397df","636d0799e45856e59f07eff3","null","","","","null","","","","key","16.66634482758698","768","361","","","","","","","","","","","","","144","-1","4","false","","","",""
"psychophysics","213","615686","0.0-16.0-2.13","5f3bd56999a44d9324b76ddb","636d03e66a32c7f65a0397df","636d0799e45856e59f07eff3","937.9000000000233","","","","77","","","","key","16.666454545455053","768","361","","","","","","","","","","","","","","","","","","","",""
"psychophysics","214","616687","0.0-16.0-0.14","5f3bd56999a44d9324b76ddb","636d03e66a32c7f65a0397df","636d0799e45856e59f07eff3","null","","","","null","","","","key","16.666049999999814","768","361","","","","","","","","","","","","","","","","","","","",""
"psychophysics","215","617194","0.0-16.0-1.14","5f3bd56999a44d9324b76ddb","636d03e66a32c7f65a0397df","636d0799e45856e59f07eff3","null","","","","null","","","","key","16.668275862069127","768","361","","","","","","","","","","","","","144","-1","5","false","","","",""
"psychophysics","216","617484","0.0-16.0-2.14","5f3bd56999a44d9324b76ddb","636d03e66a32c7f65a0397df","636d0799e45856e59f07eff3","288.79999999993015","","","","77","","","","key","16.664874999994936","768","361","","","","","","","","","","","","","","","","","","","",""
"psychophysics","217","618486","0.0-16.0-0.15","5f3bd56999a44d9324b76ddb","636d03e66a32c7f65a0397df","636d0799e45856e59f07eff3","null","","","","null","","","","key","16.66608333333279","768","361","","","","","","","","","","","","","","","","","","","",""
"psychophysics","218","618995","0.0-16.0-1.15","5f3bd56999a44d9324b76ddb","636d03e66a32c7f65a0397df","636d0799e45856e59f07eff3","null","","","","null","","","","key","16.66686206896677","768","361","","","","","","","","","","","","","144","-1","6","false","","","",""
"psychophysics","219","619274","0.0-16.0-2.15","5f3bd56999a44d9324b76ddb","636d03e66a32c7f65a0397df","636d0799e45856e59f07eff3","277.79999999993015","","","","77","","","","key","16.662374999999884","768","361","","","","","","","","","","","","","","","","","","","",""
"psychophysics","220","620282","0.0-16.0-0.16","5f3bd56999a44d9324b76ddb","636d03e66a32c7f65a0397df","636d0799e45856e59f07eff3","null","","","","null","","","","key","16.666169491525487","768","361","","","","","","","","","","","","","","","","","","","",""
"psychophysics","221","620785","0.0-16.0-1.16","5f3bd56999a44d9324b76ddb","636d03e66a32c7f65a0397df","636d0799e45856e59f07eff3","null","","","","null","","","","key","16.66631034482672","768","361","","","","","","","","","","","","","144","1","0","false","","","",""
"psychophysics","222","620993","0.0-16.0-2.16","5f3bd56999a44d9324b76ddb","636d03e66a32c7f65a0397df","636d0799e45856e59f07eff3","201.29999999993015","","","","77","","","","key","16.667416666663485","768","361","","","","","","","","","","","","","","","","","","","",""
"psychophysics","223","622002","0.0-16.0-0.17","5f3bd56999a44d9324b76ddb","636d03e66a32c7f65a0397df","636d0799e45856e59f07eff3","null","","","","null","","","","key","16.66711864406756","768","361","","","","","","","","","","","","","","","","","","","",""
"psychophysics","224","622505","0.0-16.0-1.17","5f3bd56999a44d9324b76ddb","636d03e66a32c7f65a0397df","636d0799e45856e59f07eff3","null","","","","null","","","","key","16.668633333329733","768","361","","","","","","","","","","","","","144","1","6","false","","","",""
"psychophysics","225","622771","0.0-16.0-2.17","5f3bd56999a44d9324b76ddb","636d03e66a32c7f65a0397df","636d0799e45856e59f07eff3","264.39999999990687","","","","77","","","","key","16.671000000004035","768","361","","","","","","","","","","","","","","","","","","","",""
"psychophysics","226","623779","0.0-16.0-0.18","5f3bd56999a44d9324b76ddb","636d03e66a32c7f65a0397df","636d0799e45856e59f07eff3","null","","","","null","","","","key","16.665203389830065","768","361","","","","","","","","","","","","","","","","","","","",""
"psychophysics","227","624282","0.0-16.0-1.18","5f3bd56999a44d9324b76ddb","636d03e66a32c7f65a0397df","636d0799e45856e59f07eff3","null","","","","null","","","","key","16.666448275859725","768","361","","","","","","","","","","","","","144","-1","3","false","","","",""
"psychophysics","228","624681","0.0-16.0-2.18","5f3bd56999a44d9324b76ddb","636d03e66a32c7f65a0397df","636d0799e45856e59f07eff3","397.30000000004657","","","","90","","","","key","16.665782608694155","768","361","","","","","","","","","","","","","","","","","","","",""
"psychophysics","229","625685","0.0-16.0-0.19","5f3bd56999a44d9324b76ddb","636d03e66a32c7f65a0397df","636d0799e45856e59f07eff3","null","","","","null","","","","key","16.666355932204414","768","361","","","","","","","","","","","","","","","","","","","",""
"psychophysics","230","626186","0.0-16.0-1.19","5f3bd56999a44d9324b76ddb","636d03e66a32c7f65a0397df","636d0799e45856e59f07eff3","null","","","","null","","","","key","16.668500000001707","768","361","","","","","","","","","","","","","144","1","2","false","","","",""
"psychophysics","231","626941","0.0-16.0-2.19","5f3bd56999a44d9324b76ddb","636d03e66a32c7f65a0397df","636d0799e45856e59f07eff3","752.3000000000466","","","","90","","","","key","16.668545454544734","768","361","","","","","","","","","","","","","","","","","","","",""
"psychophysics","232","627946","0.0-16.0-0.20","5f3bd56999a44d9324b76ddb","636d03e66a32c7f65a0397df","636d0799e45856e59f07eff3","null","","","","null","","","","key","16.66637288135579","768","361","","","","","","","","","","","","","","","","","","","",""
"psychophysics","233","628450","0.0-16.0-1.20","5f3bd56999a44d9324b76ddb","636d03e66a32c7f65a0397df","636d0799e45856e59f07eff3","null","","","","null","","","","key","16.669172413791692","768","361","","","","","","","","","","","","","144","1","5","false","","","",""
"psychophysics","234","628739","0.0-16.0-2.20","5f3bd56999a44d9324b76ddb","636d03e66a32c7f65a0397df","636d0799e45856e59f07eff3","288","","","","77","","","","key","16.664647058823476","768","361","","","","","","","","","","","","","","","","","","","",""
"psychophysics","235","629746","0.0-16.0-0.21","5f3bd56999a44d9324b76ddb","636d03e66a32c7f65a0397df","636d0799e45856e59f07eff3","null","","","","null","","","","key","16.66672881355833","768","361","","","","","","","","","","","","","","","","","","","",""
"psychophysics","236","630250","0.0-16.0-1.21","5f3bd56999a44d9324b76ddb","636d03e66a32c7f65a0397df","636d0799e45856e59f07eff3","null","","","","null","","","","key","16.665965517244206","768","361","","","","","","","","","","","","","144","-1","0","false","","","",""
"psychophysics","237","630548","0.0-16.0-2.21","5f3bd56999a44d9324b76ddb","636d03e66a32c7f65a0397df","636d0799e45856e59f07eff3","295.80000000004657","","","","90","","","","key","16.66370588234927","768","361","","","","","","","","","","","","","","","","","","","",""
"psychophysics","238","631552","0.0-16.0-0.22","5f3bd56999a44d9324b76ddb","636d03e66a32c7f65a0397df","636d0799e45856e59f07eff3","null","","","","null","","","","key","16.666491525423304","768","361","","","","","","","","","","","","","","","","","","","",""
"psychophysics","239","632053","0.0-16.0-1.22","5f3bd56999a44d9324b76ddb","636d03e66a32c7f65a0397df","636d0799e45856e59f07eff3","null","","","","null","","","","key","16.66573333333557","768","361","","","","","","","","","","","","","144","1","3","false","","","",""
"psychophysics","240","632899","0.0-16.0-2.22","5f3bd56999a44d9324b76ddb","636d03e66a32c7f65a0397df","636d0799e45856e59f07eff3","844.2000000000698","","","","90","","","","key","16.665979591837363","768","361","","","","","","","","","","","","","","","","","","","",""
"psychophysics","241","633902","0.0-16.0-0.23","5f3bd56999a44d9324b76ddb","636d03e66a32c7f65a0397df","636d0799e45856e59f07eff3","null","","","","null","","","","key","16.6662372881369","768","361","","","","","","","","","","","","","","","","","","","",""
"psychophysics","242","634410","0.0-16.0-1.23","5f3bd56999a44d9324b76ddb","636d03e66a32c7f65a0397df","636d0799e45856e59f07eff3","null","","","","null","","","","key","16.66610000000025","768","361","","","","","","","","","","","","","144","-1","2","false","","","",""
"psychophysics","243","634724","0.0-16.0-2.23","5f3bd56999a44d9324b76ddb","636d03e66a32c7f65a0397df","636d0799e45856e59f07eff3","312.80000000004657","","","","90","","","","key","16.664055555560886","768","361","","","","","","","","","","","","","","","","","","","",""
"html-keyboard-response","244","635911","0.0-17.0","5f3bd56999a44d9324b76ddb","636d03e66a32c7f65a0397df","636d0799e45856e59f07eff3","1185.4000000000233","<p>Well Done !</p><p>Training Complete. Press the spacebar to start.</p><p>DON'T EXIT THE FULL SCREEN MODE</p>","","","32","","","","","","","","","","","","","","","","","","","","","","","","","","",""
"psychophysics","245","638923","0.0-18.0-0.0","5f3bd56999a44d9324b76ddb","636d03e66a32c7f65a0397df","636d0799e45856e59f07eff3","null","","","","null","","","","key","16.667033333333286","768","361","","","","","","","","","","","","","","","","","","","",""
"psychophysics","246","639426","0.0-18.0-1.0","5f3bd56999a44d9324b76ddb","636d03e66a32c7f65a0397df","636d0799e45856e59f07eff3","null","","","","null","","","","key","16.665689655170166","768","361","","","","","","","","","","","","","144","1","6","true","","","",""
"psychophysics","247","639794","0.0-18.0-2.0","5f3bd56999a44d9324b76ddb","636d03e66a32c7f65a0397df","636d0799e45856e59f07eff3","366.9000000000233","","","","77","","","","key","16.66657142857245","768","361","","","","","","","","","","","","","","","","","","","",""
"psychophysics","248","640802","0.0-18.0-0.1","5f3bd56999a44d9324b76ddb","636d03e66a32c7f65a0397df","636d0799e45856e59f07eff3","null","","","","null","","","","key","16.666864406781162","768","361","","","","","","","","","","","","","","","","","","","",""
"psychophysics","249","641304","0.0-18.0-1.1","5f3bd56999a44d9324b76ddb","636d03e66a32c7f65a0397df","636d0799e45856e59f07eff3","null","","","","null","","","","key","16.665266666666138","768","361","","","","","","","","","","","","","144","-1","2","true","","","",""
"psychophysics","250","641579","0.0-18.0-2.1","5f3bd56999a44d9324b76ddb","636d03e66a32c7f65a0397df","636d0799e45856e59f07eff3","274.5999999999767","","","","90","","","","key","16.669133333334077","768","361","","","","","","","","","","","","","","","","","","","",""
"psychophysics","251","642585","0.0-18.0-0.2","5f3bd56999a44d9324b76ddb","636d03e66a32c7f65a0397df","636d0799e45856e59f07eff3","null","","","","null","","","","key","16.664830508474182","768","361","","","","","","","","","","","","","","","","","","","",""
"psychophysics","252","643089","0.0-18.0-1.2","5f3bd56999a44d9324b76ddb","636d03e66a32c7f65a0397df","636d0799e45856e59f07eff3","null","","","","null","","","","key","16.6661666666662","768","361","","","","","","","","","","","","","144","1","2","true","","","",""
"psychophysics","253","643503","0.0-18.0-2.2","5f3bd56999a44d9324b76ddb","636d03e66a32c7f65a0397df","636d0799e45856e59f07eff3","412.19999999995343","","","","90","","","","key","16.66691666666884","768","361","","","","","","","","","","","","","","","","","","","",""
"psychophysics","254","644506","0.0-18.0-0.3","5f3bd56999a44d9324b76ddb","636d03e66a32c7f65a0397df","636d0799e45856e59f07eff3","null","","","","null","","","","key","16.664474576271644","768","361","","","","","","","","","","","","","","","","","","","",""
"psychophysics","255","645009","0.0-18.0-1.3","5f3bd56999a44d9324b76ddb","636d03e66a32c7f65a0397df","636d0799e45856e59f07eff3","null","","","","null","","","","key","16.665379310343898","768","361","","","","","","","","","","","","","144","1","4","true","","","",""
"psychophysics","256","645179","0.0-18.0-2.3","5f3bd56999a44d9324b76ddb","636d03e66a32c7f65a0397df","636d0799e45856e59f07eff3","168.90000000002328","","","","77","","","","key","16.668111111115042","768","361","","","","","","","","","","","","","","","","","","","",""
"psychophysics","257","646185","0.0-18.0-0.4","5f3bd56999a44d9324b76ddb","636d03e66a32c7f65a0397df","636d0799e45856e59f07eff3","null","","","","null","","","","key","16.664999999999765","768","361","","","","","","","","","","","","","","","","","","","",""
"psychophysics","258","646689","0.0-18.0-1.4","5f3bd56999a44d9324b76ddb","636d03e66a32c7f65a0397df","636d0799e45856e59f07eff3","null","","","","null","","","","key","16.65940000000022","768","361","","","","","","","","","","","","","144","-1","3","true","","","",""
"psychophysics","259","647778","0.0-18.0-2.4","5f3bd56999a44d9324b76ddb","636d03e66a32c7f65a0397df","636d0799e45856e59f07eff3","1087.4000000000233","","","","77","","","","key","16.666281249999884","768","361","","","","","","","","","","","","","","","","","","","",""
"psychophysics","260","648785","0.0-18.0-0.5","5f3bd56999a44d9324b76ddb","636d03e66a32c7f65a0397df","636d0799e45856e59f07eff3","null","","","","null","","","","key","16.66461666666631","768","361","","","","","","","","","","","","","","","","","","","",""
"psychophysics","261","649289","0.0-18.0-1.5","5f3bd56999a44d9324b76ddb","636d03e66a32c7f65a0397df","636d0799e45856e59f07eff3","null","","","","null","","","","key","16.664862068964105","768","361","","","","","","","","","","","","","144","-1","0","true","","","",""
"psychophysics","262","649550","0.0-18.0-2.5","5f3bd56999a44d9324b76ddb","636d03e66a32c7f65a0397df","636d0799e45856e59f07eff3","259.70000000006985","","","","90","","","","key","16.66664285715004","768","361","","","","","","","","","","","","","","","","","","","",""
"psychophysics","263","650552","0.0-18.0-0.6","5f3bd56999a44d9324b76ddb","636d03e66a32c7f65a0397df","636d0799e45856e59f07eff3","null","","","","null","","","","key","16.666066666665333","768","361","","","","","","","","","","","","","","","","","","","",""
"psychophysics","264","651058","0.0-18.0-1.6","5f3bd56999a44d9324b76ddb","636d03e66a32c7f65a0397df","636d0799e45856e59f07eff3","null","","","","null","","","","key","16.66468965517084","768","361","","","","","","","","","","","","","144","1","3","true","","","",""
"psychophysics","265","651585","0.0-18.0-2.6","5f3bd56999a44d9324b76ddb","636d03e66a32c7f65a0397df","636d0799e45856e59f07eff3","525.0999999999767","","","","90","","","","key","16.6656333333347","768","361","","","","","","","","","","","","","","","","","","","",""
"psychophysics","266","652593","0.0-18.0-0.7","5f3bd56999a44d9324b76ddb","636d03e66a32c7f65a0397df","636d0799e45856e59f07eff3","null","","","","null","","","","key","16.66496666666547","768","361","","","","","","","","","","","","","","","","","","","",""
"psychophysics","267","653097","0.0-18.0-1.7","5f3bd56999a44d9324b76ddb","636d03e66a32c7f65a0397df","636d0799e45856e59f07eff3","null","","","","null","","","","key","16.664448275865087","768","361","","","","","","","","","","","","","144","1","5","true","","","",""
"psychophysics","268","653420","0.0-18.0-2.7","5f3bd56999a44d9324b76ddb","636d03e66a32c7f65a0397df","636d0799e45856e59f07eff3","321.0999999999767","","","","77","","","","key","16.664473684210527","768","361","","","","","","","","","","","","","","","","","","","",""
"psychophysics","269","654427","0.0-18.0-0.8","5f3bd56999a44d9324b76ddb","636d03e66a32c7f65a0397df","636d0799e45856e59f07eff3","null","","","","null","","","","key","16.6653559322023","768","361","","","","","","","","","","","","","","","","","","","",""
"psychophysics","270","654931","0.0-18.0-1.8","5f3bd56999a44d9324b76ddb","636d03e66a32c7f65a0397df","636d0799e45856e59f07eff3","null","","","","null","","","","key","16.661448275863098","768","361","","","","","","","","","","","","","144","-1","4","true","","","",""
"psychophysics","271","655395","0.0-18.0-2.8","5f3bd56999a44d9324b76ddb","636d03e66a32c7f65a0397df","636d0799e45856e59f07eff3","463.20000000006985","","","","77","","","","key","16.666666666666668","768","361","","","","","","","","","","","","","","","","","","","",""
"psychophysics","272","656401","0.0-18.0-0.9","5f3bd56999a44d9324b76ddb","636d03e66a32c7f65a0397df","636d0799e45856e59f07eff3","null","","","","null","","","","key","16.664677966101948","768","361","","","","","","","","","","","","","","","","","","","",""
"psychophysics","273","656905","0.0-18.0-1.9","5f3bd56999a44d9324b76ddb","636d03e66a32c7f65a0397df","636d0799e45856e59f07eff3","null","","","","null","","","","key","16.66799999999736","768","361","","","","","","","","","","","","","144","-1","6","true","","","",""
"psychophysics","274","657138","0.0-18.0-2.9","5f3bd56999a44d9324b76ddb","636d03e66a32c7f65a0397df","636d0799e45856e59f07eff3","231.09999999997672","","","","77","","","","key","16.666076923075778","768","361","","","","","","","","","","","","","","","","","","","",""
"psychophysics","275","658145","0.0-18.0-0.10","5f3bd56999a44d9324b76ddb","636d03e66a32c7f65a0397df","636d0799e45856e59f07eff3","null","","","","null","","","","key","16.66476271186474","768","361","","","","","","","","","","","","","","","","","","","",""
"psychophysics","276","658651","0.0-18.0-1.10","5f3bd56999a44d9324b76ddb","636d03e66a32c7f65a0397df","636d0799e45856e59f07eff3","null","","","","null","","","","key","16.66706896551628","768","361","","","","","","","","","","","","","144","-1","5","true","","","",""
"psychophysics","277","658853","0.0-18.0-2.10","5f3bd56999a44d9324b76ddb","636d03e66a32c7f65a0397df","636d0799e45856e59f07eff3","199.59999999997672","","","","77","","","","key","16.673666666669305","768","361","","","","","","","","","","","","","","","","","","","",""
"psychophysics","278","659858","0.0-18.0-0.11","5f3bd56999a44d9324b76ddb","636d03e66a32c7f65a0397df","636d0799e45856e59f07eff3","null","","","","null","","","","key","16.664661016950575","768","361","","","","","","","","","","","","","","","","","","","",""
"psychophysics","279","660362","0.0-18.0-1.11","5f3bd56999a44d9324b76ddb","636d03e66a32c7f65a0397df","636d0799e45856e59f07eff3","null","","","","null","","","","key","16.665310344827393","768","361","","","","","","","","","","","","","144","1","0","true","","","",""
"psychophysics","280","660835","0.0-18.0-2.11","5f3bd56999a44d9324b76ddb","636d03e66a32c7f65a0397df","636d0799e45856e59f07eff3","471.5","","","","90","","","","key","16.662222222222393","768","361","","","","","","","","","","","","","","","","","","","",""
"psychophysics","281","661841","0.0-18.0-0.12","5f3bd56999a44d9324b76ddb","636d03e66a32c7f65a0397df","636d0799e45856e59f07eff3","null","","","","null","","","","key","16.667166666667132","768","361","","","","","","","","","","","","","","","","","","","",""
"psychophysics","282","662346","0.0-18.0-1.12","5f3bd56999a44d9324b76ddb","636d03e66a32c7f65a0397df","636d0799e45856e59f07eff3","null","","","","null","","","","key","16.668379310341873","768","361","","","","","","","","","","","","","144","-1","3","true","","","",""
"psychophysics","283","662602","0.0-18.0-2.12","5f3bd56999a44d9324b76ddb","636d03e66a32c7f65a0397df","636d0799e45856e59f07eff3","255","","","","77","","","","key","16.667399999996025","768","361","","","","","","","","","","","","","","","","","","","",""
"psychophysics","284","663610","0.0-18.0-0.13","5f3bd56999a44d9324b76ddb","636d03e66a32c7f65a0397df","636d0799e45856e59f07eff3","null","","","","null","","","","key","16.66567796610209","768","361","","","","","","","","","","","","","","","","","","","",""
"psychophysics","285","664113","0.0-18.0-1.13","5f3bd56999a44d9324b76ddb","636d03e66a32c7f65a0397df","636d0799e45856e59f07eff3","null","","","","null","","","","key","16.665103448277886","768","361","","","","","","","","","","","","","144","1","3","true","","","",""
"psychophysics","286","665148","0.0-18.0-2.13","5f3bd56999a44d9324b76ddb","636d03e66a32c7f65a0397df","636d0799e45856e59f07eff3","1033.2999999999302","","","","77","","","","key","16.666409836064826","768","361","","","","","","","","","","","","","","","","","","","",""
"psychophysics","287","666151","0.0-18.0-0.14","5f3bd56999a44d9324b76ddb","636d03e66a32c7f65a0397df","636d0799e45856e59f07eff3","null","","","","null","","","","key","16.666694915253604","768","361","","","","","","","","","","","","","","","","","","","",""
"psychophysics","288","666658","0.0-18.0-1.14","5f3bd56999a44d9324b76ddb","636d03e66a32c7f65a0397df","636d0799e45856e59f07eff3","null","","","","null","","","","key","16.665333333332093","768","361","","","","","","","","","","","","","144","-1","0","true","","","",""
"psychophysics","289","667006","0.0-18.0-2.14","5f3bd56999a44d9324b76ddb","636d03e66a32c7f65a0397df","636d0799e45856e59f07eff3","346.69999999995343","","","","90","","","","key","16.662799999996786","768","361","","","","","","","","","","","","","","","","","","","",""
"psychophysics","290","668010","0.0-18.0-0.15","5f3bd56999a44d9324b76ddb","636d03e66a32c7f65a0397df","636d0799e45856e59f07eff3","null","","","","null","","","","key","16.664338983050783","768","361","","","","","","","","","","","","","","","","","","","",""
"psychophysics","291","668514","0.0-18.0-1.15","5f3bd56999a44d9324b76ddb","636d03e66a32c7f65a0397df","636d0799e45856e59f07eff3","null","","","","null","","","","key","16.665379310343898","768","361","","","","","","","","","","","","","144","1","2","true","","","",""
"psychophysics","292","669073","0.0-18.0-2.15","5f3bd56999a44d9324b76ddb","636d03e66a32c7f65a0397df","636d0799e45856e59f07eff3","557.9000000000233","","","","90","","","","key","16.66187878787715","768","361","","","","","","","","","","","","","","","","","","","",""
"psychophysics","293","670082","0.0-18.0-0.16","5f3bd56999a44d9324b76ddb","636d03e66a32c7f65a0397df","636d0799e45856e59f07eff3","null","","","","null","","","","key","16.666457627118582","768","361","","","","","","","","","","","","","","","","","","","",""
"psychophysics","294","670584","0.0-18.0-1.16","5f3bd56999a44d9324b76ddb","636d03e66a32c7f65a0397df","636d0799e45856e59f07eff3","null","","","","null","","","","key","16.666793103446253","768","361","","","","","","","","","","","","","144","-1","4","true","","","",""
"psychophysics","295","671631","0.0-18.0-2.16","5f3bd56999a44d9324b76ddb","636d03e66a32c7f65a0397df","636d0799e45856e59f07eff3","1043.7999999999302","","","","77","","","","key","16.665806451613353","768","361","","","","","","","","","","","","","","","","","","","",""
"psychophysics","296","672634","0.0-18.0-0.17","5f3bd56999a44d9324b76ddb","636d03e66a32c7f65a0397df","636d0799e45856e59f07eff3","null","","","","null","","","","key","16.665745762711534","768","361","","","","","","","","","","","","","","","","","","","",""
"psychophysics","297","673137","0.0-18.0-1.17","5f3bd56999a44d9324b76ddb","636d03e66a32c7f65a0397df","636d0799e45856e59f07eff3","null","","","","null","","","","key","16.66589999999851","768","361","","","","","","","","","","","","","144","1","5","true","","","",""
"psychophysics","298","673546","0.0-18.0-2.17","5f3bd56999a44d9324b76ddb","636d03e66a32c7f65a0397df","636d0799e45856e59f07eff3","407","","","","77","","","","key","16.655478260869607","768","361","","","","","","","","","","","","","","","","","","","",""
"psychophysics","299","674550","0.0-18.0-0.18","5f3bd56999a44d9324b76ddb","636d03e66a32c7f65a0397df","636d0799e45856e59f07eff3","null","","","","null","","","","key","16.666067796611323","768","361","","","","","","","","","","","","","","","","","","","",""
"psychophysics","300","675058","0.0-18.0-1.18","5f3bd56999a44d9324b76ddb","636d03e66a32c7f65a0397df","636d0799e45856e59f07eff3","null","","","","null","","","","key","16.666866666664525","768","361","","","","","","","","","","","","","144","1","4","true","","","",""
"psychophysics","301","676207","0.0-18.0-2.18","5f3bd56999a44d9324b76ddb","636d03e66a32c7f65a0397df","636d0799e45856e59f07eff3","1140.7999999999302","","","","77","","","","key","16.666338235295637","768","361","","","","","","","","","","","","","","","","","","","",""
"psychophysics","302","677209","0.0-18.0-0.19","5f3bd56999a44d9324b76ddb","636d03e66a32c7f65a0397df","636d0799e45856e59f07eff3","null","","","","null","","","","key","16.664203389829925","768","361","","","","","","","","","","","","","","","","","","","",""
"psychophysics","303","677714","0.0-18.0-1.19","5f3bd56999a44d9324b76ddb","636d03e66a32c7f65a0397df","636d0799e45856e59f07eff3","null","","","","null","","","","key","16.664448275865087","768","361","","","","","","","","","","","","","144","1","0","true","","","",""
"psychophysics","304","679287","0.0-18.0-2.19","5f3bd56999a44d9324b76ddb","636d03e66a32c7f65a0397df","636d0799e45856e59f07eff3","1572.3000000000466","","","","77","","","","key","16.66645744680848","768","361","","","","","","","","","","","","","","","","","","","",""
"psychophysics","305","680290","0.0-18.0-0.20","5f3bd56999a44d9324b76ddb","636d03e66a32c7f65a0397df","636d0799e45856e59f07eff3","null","","","","null","","","","key","16.664728813558042","768","361","","","","","","","","","","","","","","","","","","","",""
"psychophysics","306","680793","0.0-18.0-1.20","5f3bd56999a44d9324b76ddb","636d03e66a32c7f65a0397df","636d0799e45856e59f07eff3","null","","","","null","","","","key","16.66548275862066","768","361","","","","","","","","","","","","","144","-1","6","true","","","",""
"psychophysics","307","681269","0.0-18.0-2.20","5f3bd56999a44d9324b76ddb","636d03e66a32c7f65a0397df","636d0799e45856e59f07eff3","473.69999999995343","","","","77","","","","key","16.666214285713586","768","361","","","","","","","","","","","","","","","","","","","",""
"psychophysics","308","682274","0.0-18.0-0.21","5f3bd56999a44d9324b76ddb","636d03e66a32c7f65a0397df","636d0799e45856e59f07eff3","null","","","","null","","","","key","16.665423728813717","768","361","","","","","","","","","","","","","","","","","","","",""
"psychophysics","309","682778","0.0-18.0-1.21","5f3bd56999a44d9324b76ddb","636d03e66a32c7f65a0397df","636d0799e45856e59f07eff3","null","","","","null","","","","key","16.663724137931773","768","361","","","","","","","","","","","","","144","-1","2","true","","","",""
"psychophysics","310","683181","0.0-18.0-2.21","5f3bd56999a44d9324b76ddb","636d03e66a32c7f65a0397df","636d0799e45856e59f07eff3","400.4000000000233","","","","90","","","","key","16.66843478261169","768","361","","","","","","","","","","","","","","","","","","","",""
"psychophysics","311","684183","0.0-18.0-0.22","5f3bd56999a44d9324b76ddb","636d03e66a32c7f65a0397df","636d0799e45856e59f07eff3","null","","","","null","","","","key","16.667423728814","768","361","","","","","","","","","","","","","","","","","","","",""
"psychophysics","312","684685","0.0-18.0-1.22","5f3bd56999a44d9324b76ddb","636d03e66a32c7f65a0397df","636d0799e45856e59f07eff3","null","","","","null","","","","key","16.66626666666707","768","361","","","","","","","","","","","","","144","1","6","true","","","",""
"psychophysics","313","684947","0.0-18.0-2.22","5f3bd56999a44d9324b76ddb","636d03e66a32c7f65a0397df","636d0799e45856e59f07eff3","260.30000000004657","","","","77","","","","key","16.669642857142858","768","361","","","","","","","","","","","","","","","","","","","",""
"psychophysics","314","685950","0.0-18.0-0.23","5f3bd56999a44d9324b76ddb","636d03e66a32c7f65a0397df","636d0799e45856e59f07eff3","null","","","","null","","","","key","16.666644067795538","768","361","","","","","","","","","","","","","","","","","","","",""
"psychophysics","315","686453","0.0-18.0-1.23","5f3bd56999a44d9324b76ddb","636d03e66a32c7f65a0397df","636d0799e45856e59f07eff3","null","","","","null","","","","key","16.669599999999626","768","361","","","","","","","","","","","","","144","-1","5","true","","","",""
"psychophysics","316","686952","0.0-18.0-2.23","5f3bd56999a44d9324b76ddb","636d03e66a32c7f65a0397df","636d0799e45856e59f07eff3","498.19999999995343","","","","77","","","","key","17.25974999999744","768","361","","","","","","","","","","","","","","","","","","","",""
"psychophysics","317","687962","0.0-18.0-0.24","5f3bd56999a44d9324b76ddb","636d03e66a32c7f65a0397df","636d0799e45856e59f07eff3","null","","","","null","","","","key","16.664186440676577","768","361","","","","","","","","","","","","","","","","","","","",""
"psychophysics","318","688466","0.0-18.0-1.24","5f3bd56999a44d9324b76ddb","636d03e66a32c7f65a0397df","636d0799e45856e59f07eff3","null","","","","null","","","","key","16.66651724138024","768","361","","","","","","","","","","","","","144","-1","6","true","","","",""
"psychophysics","319","688779","0.0-18.0-2.24","5f3bd56999a44d9324b76ddb","636d03e66a32c7f65a0397df","636d0799e45856e59f07eff3","306.0999999999767","","","","77","","","","key","16.66627777777224","768","361","","","","","","","","","","","","","","","","","","","",""
"psychophysics","320","689783","0.0-18.0-0.25","5f3bd56999a44d9324b76ddb","636d03e66a32c7f65a0397df","636d0799e45856e59f07eff3","null","","","","null","","","","key","16.66620338983218","768","361","","","","","","","","","","","","","","","","","","","",""
"psychophysics","321","690290","0.0-18.0-1.25","5f3bd56999a44d9324b76ddb","636d03e66a32c7f65a0397df","636d0799e45856e59f07eff3","null","","","","null","","","","key","16.666966666665395","768","361","","","","","","","","","","","","","144","1","3","true","","","",""
"psychophysics","322","690671","0.0-18.0-2.25","5f3bd56999a44d9324b76ddb","636d03e66a32c7f65a0397df","636d0799e45856e59f07eff3","379.20000000006985","","","","77","","","","key","16.664045454547953","768","361","","","","","","","","","","","","","","","","","","","",""
"psychophysics","323","691673","0.0-18.0-0.26","5f3bd56999a44d9324b76ddb","636d03e66a32c7f65a0397df","636d0799e45856e59f07eff3","null","","","","null","","","","key","16.664423728813574","768","361","","","","","","","","","","","","","","","","","","","",""
"psychophysics","324","692178","0.0-18.0-1.26","5f3bd56999a44d9324b76ddb","636d03e66a32c7f65a0397df","636d0799e45856e59f07eff3","null","","","","null","","","","key","16.663689655171513","768","361","","","","","","","","","","","","","144","-1","3","true","","","",""
"psychophysics","325","694705","0.0-18.0-2.26","5f3bd56999a44d9324b76ddb","636d03e66a32c7f65a0397df","636d0799e45856e59f07eff3","2525.79999999993","","","","77","","","","key","16.665999999999944","768","361","","","","","","","","","","","","","","","","","","","",""
"psychophysics","326","695713","0.0-18.0-0.27","5f3bd56999a44d9324b76ddb","636d03e66a32c7f65a0397df","636d0799e45856e59f07eff3","null","","","","null","","","","key","16.664762711862764","768","361","","","","","","","","","","","","","","","","","","","",""
"psychophysics","327","696216","0.0-18.0-1.27","5f3bd56999a44d9324b76ddb","636d03e66a32c7f65a0397df","636d0799e45856e59f07eff3","null","","","","null","","","","key","16.668000000003115","768","361","","","","","","","","","","","","","144","-1","0","true","","","",""
"psychophysics","328","697452","0.0-18.0-2.27","5f3bd56999a44d9324b76ddb","636d03e66a32c7f65a0397df","636d0799e45856e59f07eff3","1231.6000000000931","","","","77","","","","key","16.666324324323796","768","361","","","","","","","","","","","","","","","","","","","",""
"psychophysics","329","698457","0.0-18.0-0.28","5f3bd56999a44d9324b76ddb","636d03e66a32c7f65a0397df","636d0799e45856e59f07eff3","null","","","","null","","","","key","16.66633898305107","768","361","","","","","","","","","","","","","","","","","","","",""
"psychophysics","330","698962","0.0-18.0-1.28","5f3bd56999a44d9324b76ddb","636d03e66a32c7f65a0397df","636d0799e45856e59f07eff3","null","","","","null","","","","key","16.664586206898093","768","361","","","","","","","","","","","","","144","-1","2","true","","","",""
"psychophysics","331","699335","0.0-18.0-2.28","5f3bd56999a44d9324b76ddb","636d03e66a32c7f65a0397df","636d0799e45856e59f07eff3","371.5","","","","90","","","","key","16.66699999999996","768","361","","","","","","","","","","","","","","","","","","","",""
"psychophysics","332","700337","0.0-18.0-0.29","5f3bd56999a44d9324b76ddb","636d03e66a32c7f65a0397df","636d0799e45856e59f07eff3","null","","","","null","","","","key","16.664830508474182","768","361","","","","","","","","","","","","","","","","","","","",""
