"trial_type","trial_index","time_elapsed","internal_node_id","PROLIFIC_PID","STUDY_ID","SESSION_ID","rt","stimulus","button_pressed","success","key_press","responses","isData","view_history","response_type","avg_frame_time","center_x","center_y","isSC","stim_side","trial_luminance","step_size","nReversal","correct","prev_ans","isThreshold","SC_threshold","final_threshold","isLuminance","FF_luminance","luminance","stimSide","ISInt","isFF","question_order","isSPQ","isCAPS","isAQ"
"pavlovia","0","5","0.0-0.0","60459f654004876e609870e9","636d03e66a32c7f65a0397df","636d07a6832e27e14d925508","","","","","","","","","","","","","","","","","","","","","","","","","","","","","","","",""
"html-button-response","1","19588","0.0-1.0","60459f654004876e609870e9","636d03e66a32c7f65a0397df","636d07a6832e27e14d925508","19581.299999952316","<div style='background-color: white; width:60%; margin: auto; padding: 50px; text-align: justify; text-justify: inter-word; margin-bottom: 20px;'><h1 style='text-align: center;'>Consent Form</h1><p>Please read this consent form carefully before deciding whether you would like to participate in this study. You have to be 18 years old or older to participate to this study.</p><p style='text-decoration: underline;'>Participation is voluntary:</p><p>It is your choice whether or not to participate in this research. If you choose to participate, you may change your mind and leave the study at any time. Refusal to participate or stopping your participation will involve no penalty or loss of benefits to which you are otherwise entitled.</p><p style='text-decoration: underline;'>Purpose of the Study:</p><p>To understand the mechanisms underlying human perception.</p><p style='text-decoration: underline;'>What you will do in this study:</p><p>You will be presented with a series of visual images and then you will press buttons on the keyboard of your computer to respond to simple questions about the images (e.g. Were one or two images presented?). In addition, you will be asked to complete a questionnaire concerning your beliefs and everyday mental and perceptual experiences.'</p><p style='text-decoration: underline;'> Time Required:</p><p>The study will take 40 minutes to complete. </p><p style='text-decoration: underline;'>Risks:</p><p>There are no anticipated risks associated with participating in this study that are beyond those experienced in everyday life. </p><p style='text-decoration: underline;'>Benefits:</p><p>There are no benefits to you in participating in the study. However, this study may lead to a better understanding of how different kinds of visual information are used.</p><p style='text-decoration: underline;'>Compensation:</p><p>You will be paid US$6.6/hour. </p><p style='text-decoration: underline;'>Privacy and Confidentiality:</p><p>Your participation in this study will be anonymous. No personal information about your name or identity will be asked or recorded. This anonymous data will be stored for several years and may be used for a variety of research purposes. The overall results of the study may be published, or the data files may be shared with other researchers, but your identity will not be revealed in any way. The online services we are using for this study may temporarily store your data, but this data will be downloaded and then promptly deleted from those services.Your data will not be permanently associated with your name, IP address, or any other identifiable information (e.g., your information will only be connected to your payment, not to any of your responses), though they may be temporarily stored together before we download and separate them. Even so, no guarantee of internet survey security can be given because, although unlikely, transmissions can be intercepted and IP addresses can be identified. The anonymous data may be shared publicly (for example, in conjunction with a resulting academic publication).</p><p style='text-decoration: underline;'>Participation and Withdrawal:</p><p>Your participation in this study is completely voluntary. You may stop responding to the stimuli or stop answering questions if you so choose and without penalty by exiting the full screen mode, closing this tab of your browser or redirecting it to a different website.</p><p style='text-decoration: underline;'>Contact Info of the Researcher: </p><p>If you have questions about this study, or if you would like to talk to the research team, please contact David Melcher (david.melcher@nyu.edu, md5050@nyu.edu) at the Perception and Active Cognition Laboratory, New York University Abu Dhabi, Computational Research Building, Saadiyat Island, Abu Dhabi, UAE.This research has been reviewed by the New York University Abu Dhabi Institutional Review Board (NYUAD IRB). To contact about your rights in this research, for questions, suggestions, or complaints that are not addressed by the researchers, please email IRBnyuad@nyu.edu, or call the NYUAD IRB at +971 2 628 4313. </p></div>","0","","","","","","","","","","","","","","","","","","","","","","","","","","","","",""
"fullscreen","2","25462","0.0-2.0","60459f654004876e609870e9","636d03e66a32c7f65a0397df","636d07a6832e27e14d925508","","","","true","","","","","","","","","","","","","","","","","","","","","","","","","","","",""
"html-keyboard-response","3","41074","0.0-3.0","60459f654004876e609870e9","636d03e66a32c7f65a0397df","636d07a6832e27e14d925508","15610.299999952316","<p>Welcome !</p><p>READ CAREFULLY THE FOLLOWING INDICATIONS:</p><p>From this moment you have ~40 minutes to complete the experiment.</p><p>During the experiment you will be prompted to take several breaks. Each break should not last longer than 2-3 minutes.</p><p>Make sure that your computer is plugged in and it's not running on battery power, even if the battery is already fully charged.</p><p>Turn off your phone and music, make sure that you are in a quiet room and that you will not be distracted for the next hour.</p><p>Failure to comply with the instructions and indications provided during the experiment will most likely result in the rejection of your data.<p>Press the spacebar to start.</p>","","","32","","","","","","","","","","","","","","","","","","","","","","","","","","",""
"survey-html-form","4","49091","0.0-4.0","60459f654004876e609870e9","636d03e66a32c7f65a0397df","636d07a6832e27e14d925508","8015.200000047684","","","","","{""age"":""45"",""sex"":""M""}","true","","","","","","","","","","","","","","","","","","","","","","","","",""
"instructions","5","100129","0.0-5.0","60459f654004876e609870e9","636d03e66a32c7f65a0397df","636d07a6832e27e14d925508","51036.799999952316","","","","","","","[{""page_index"":0,""viewing_time"":25620},{""page_index"":1,""viewing_time"":18200.39999985695},{""page_index"":2,""viewing_time"":7216}]","","","","","","","","","","","","","","","","","","","","","","","",""
"psychophysics","6","102815","0.0-6.0-0.0","60459f654004876e609870e9","636d03e66a32c7f65a0397df","636d07a6832e27e14d925508","1668.8999998569489","","","","39","","","","key","16.666335403726702","800","394.5","true","1","180","30","0","-1","","","","","","","","","","","","","",""
"psychophysics","7","104340","0.0-6.0-0.1","60459f654004876e609870e9","636d03e66a32c7f65a0397df","636d07a6832e27e14d925508","509.89999985694885","","","","39","","","","key","16.665736263736207","800","394.5","true","1","180","30","0","-1","-1","","","","","","","","","","","","",""
"psychophysics","8","105724","0.0-6.0-0.2","60459f654004876e609870e9","636d03e66a32c7f65a0397df","636d07a6832e27e14d925508","373.10000014305115","","","","37","","","","key","16.66718292682912","800","394.5","true","-1","150","30","0","-1","-1","","","","","","","","","","","","",""
"psychophysics","9","106918","0.0-6.0-0.3","60459f654004876e609870e9","636d03e66a32c7f65a0397df","636d07a6832e27e14d925508","183.79999995231628","","","","37","","","","key","16.668699999999912","800","394.5","true","-1","150","30","0","-1","-1","","","","","","","","","","","","",""
"psychophysics","10","110363","0.0-6.0-0.4","60459f654004876e609870e9","636d03e66a32c7f65a0397df","636d07a6832e27e14d925508","2429.399999856949","","","","37","","","","key","16.664087378640758","800","394.5","true","1","129","24","1","1","-1","","","","","","","","","","","","",""
"psychophysics","11","112062","0.0-6.0-0.5","60459f654004876e609870e9","636d03e66a32c7f65a0397df","636d07a6832e27e14d925508","690.5","","","","39","","","","key","16.66630693069313","800","394.5","true","1","153","24","1","-1","1","","","","","","","","","","","","",""
"psychophysics","12","113399","0.0-6.0-0.6","60459f654004876e609870e9","636d03e66a32c7f65a0397df","636d07a6832e27e14d925508","327.40000009536743","","","","39","","","","key","16.66644303797456","800","394.5","true","1","153","19.2","2","-1","-1","","","","","","","","","","","","",""
"psychophysics","13","114841","0.0-6.0-0.7","60459f654004876e609870e9","636d03e66a32c7f65a0397df","636d07a6832e27e14d925508","425.90000009536743","","","","39","","","","key","16.664976744185985","800","394.5","true","1","133.8","19.2","2","-1","-1","","","","","","","","","","","","",""
"psychophysics","14","116193","0.0-6.0-0.8","60459f654004876e609870e9","636d03e66a32c7f65a0397df","636d07a6832e27e14d925508","346.09999990463257","","","","39","","","","key","16.66805000000004","800","394.5","true","1","133.8","19.2","2","-1","-1","","","","","","","","","","","","",""
"psychophysics","15","118792","0.0-6.0-0.9","60459f654004876e609870e9","636d03e66a32c7f65a0397df","636d07a6832e27e14d925508","1587.7000000476837","","","","37","","","","key","16.663903225806443","800","394.5","true","-1","129","19.2","2","-1","-1","","","","","","","","","","","","",""
"psychophysics","16","121139","0.0-6.0-0.10","60459f654004876e609870e9","636d03e66a32c7f65a0397df","636d07a6832e27e14d925508","1341.4000000953674","","","","37","","","","key","16.6663571428571","800","394.5","true","-1","129","19.2","2","-1","-1","","","","","","","","","","","","",""
"psychophysics","17","124418","0.0-6.0-0.11","60459f654004876e609870e9","636d03e66a32c7f65a0397df","636d07a6832e27e14d925508","2276.5","","","","39","","","","key","16.666456410256423","800","394.5","true","1","129","19.2","2","-1","-1","","","","","","","","","","","","",""
"psychophysics","18","126219","0.0-6.0-0.12","60459f654004876e609870e9","636d03e66a32c7f65a0397df","636d07a6832e27e14d925508","788.6999998092651","","","","37","","","","key","16.667009345794348","800","394.5","true","-1","129","19.2","2","-1","-1","","","","","","","","","","","","",""
"psychophysics","19","127934","0.0-6.0-0.13","60459f654004876e609870e9","636d03e66a32c7f65a0397df","636d07a6832e27e14d925508","703.2999999523163","","","","39","","","","key","16.832326732673145","800","394.5","true","1","129","19.2","2","-1","-1","","","","","","","","","","","","",""
"psychophysics","20","129614","0.0-6.0-0.14","60459f654004876e609870e9","636d03e66a32c7f65a0397df","636d07a6832e27e14d925508","660.5","","","","37","","","","key","16.66644","800","394.5","true","-1","129","19.2","2","-1","-1","","","","","","","","","","","","",""
"psychophysics","21","131862","0.0-6.0-0.15","60459f654004876e609870e9","636d03e66a32c7f65a0397df","636d07a6832e27e14d925508","1224.5999999046326","","","","39","","","","key","16.665104477611802","800","394.5","true","-1","129","15.36","3","1","-1","","","","","","","","","","","","",""
"psychophysics","22","133426","0.0-6.0-0.16","60459f654004876e609870e9","636d03e66a32c7f65a0397df","636d07a6832e27e14d925508","555.2000000476837","","","","39","","","","key","16.667279569892482","800","394.5","true","1","144.36","15.36","3","-1","1","","","","","","","","","","","","",""
"psychophysics","23","134569","0.0-6.0-0.17","60459f654004876e609870e9","636d03e66a32c7f65a0397df","636d07a6832e27e14d925508","132.10000014305115","","","","37","","","","key","16.66528358208945","800","394.5","true","-1","144.36","12.287999999999998","4","-1","-1","","","","","","","","","","","","",""
"psychophysics","24","136395","0.0-6.0-0.18","60459f654004876e609870e9","636d03e66a32c7f65a0397df","636d07a6832e27e14d925508","808.7000000476837","","","","39","","","","key","16.975373831775887","800","394.5","true","1","132.072","12.287999999999998","4","-1","-1","","","","","","","","","","","","",""
"psychophysics","25","138585","0.0-6.0-0.19","60459f654004876e609870e9","636d03e66a32c7f65a0397df","636d07a6832e27e14d925508","1182","","","","37","","","","key","16.92728124999985","800","394.5","true","1","132.072","9.8304","5","1","-1","","","","","","","","","","","","",""
"psychophysics","26","139866","0.0-6.0-0.20","60459f654004876e609870e9","636d03e66a32c7f65a0397df","636d07a6832e27e14d925508","267.7999999523163","","","","37","","","","key","16.66775000000014","800","394.5","true","-1","141.9024","9.8304","5","-1","1","","","","","","","","","","","","",""
"psychophysics","27","141334","0.0-6.0-0.21","60459f654004876e609870e9","636d03e66a32c7f65a0397df","636d07a6832e27e14d925508","456","","","","39","","","","key","16.665344827586313","800","394.5","true","1","141.9024","7.864319999999999","6","-1","-1","","","","","","","","","","","","",""
"psychophysics","28","142740","0.0-6.0-0.22","60459f654004876e609870e9","636d03e66a32c7f65a0397df","636d07a6832e27e14d925508","402.7000000476837","","","","37","","","","key","16.668746987951735","800","394.5","true","-1","134.03808","7.864319999999999","6","-1","-1","","","","","","","","","","","","",""
"psychophysics","29","144112","0.0-6.0-0.23","60459f654004876e609870e9","636d03e66a32c7f65a0397df","636d07a6832e27e14d925508","361.69999980926514","","","","39","","","","key","16.65443902439012","800","394.5","true","1","134.03808","7.864319999999999","6","-1","-1","","","","","","","","","","","","",""
"psychophysics","30","146041","0.0-6.0-0.24","60459f654004876e609870e9","636d03e66a32c7f65a0397df","636d07a6832e27e14d925508","922.5","","","","37","","","","key","16.661695652173922","800","394.5","true","-1","129","7.864319999999999","6","-1","-1","","","","","","","","","","","","",""
"psychophysics","31","147693","0.0-6.0-0.25","60459f654004876e609870e9","636d03e66a32c7f65a0397df","636d07a6832e27e14d925508","646.9000000953674","","","","39","","","","key","16.838742268041315","800","394.5","true","1","129","7.864319999999999","6","-1","-1","","","","","","","","","","","","",""
"psychophysics","32","149324","0.0-6.0-0.26","60459f654004876e609870e9","636d03e66a32c7f65a0397df","636d07a6832e27e14d925508","620.5999999046326","","","","37","","","","key","16.661350515464047","800","394.5","true","-1","129","7.864319999999999","6","-1","-1","","","","","","","","","","","","",""
"psychophysics","33","151350","0.0-6.0-0.27","60459f654004876e609870e9","636d03e66a32c7f65a0397df","636d07a6832e27e14d925508","1013.2999999523163","","","","39","","","","key","16.66535833333328","800","394.5","true","1","129","7.864319999999999","6","-1","-1","","","","","","","","","","","","",""
"psychophysics","34","154289","0.0-6.0-0.28","60459f654004876e609870e9","636d03e66a32c7f65a0397df","636d07a6832e27e14d925508","1921.6999998092651","","","","37","","","","key","16.66538857142857","800","394.5","true","-1","129","7.864319999999999","6","-1","-1","","","","","","","","","","","","",""
"psychophysics","35","157143","0.0-6.0-0.29","60459f654004876e609870e9","636d03e66a32c7f65a0397df","636d07a6832e27e14d925508","1849.2000000476837","","","","39","","","","key","16.666497076023337","800","394.5","true","1","129","7.864319999999999","6","-1","-1","","","","","","","","","","","","",""
"psychophysics","36","160114","0.0-6.0-0.30","60459f654004876e609870e9","636d03e66a32c7f65a0397df","636d07a6832e27e14d925508","1958.5","","","","37","","","","key","16.666548022598825","800","394.5","true","-1","129","7.864319999999999","6","-1","-1","","","","","","","","","","","","",""
"psychophysics","37","162074","0.0-6.0-0.31","60459f654004876e609870e9","636d03e66a32c7f65a0397df","636d07a6832e27e14d925508","948.5","","","","39","","","","key","16.66448717948714","800","394.5","true","-1","129","6.291456","7","1","-1","","","","","","","","","","","","",""
"psychophysics","38","164059","0.0-6.0-0.32","60459f654004876e609870e9","636d03e66a32c7f65a0397df","636d07a6832e27e14d925508","980.2000000476837","","","","37","","","","key","16.667737288135637","800","394.5","true","-1","135.291456","6.291456","7","-1","1","","","","","","","","","","","","",""
"psychophysics","39","165564","0.0-6.0-0.33","60459f654004876e609870e9","636d03e66a32c7f65a0397df","636d07a6832e27e14d925508","495","","","","37","","","","key","16.665910112359587","800","394.5","true","-1","135.291456","5.033164800000001","8","-1","-1","","","","","","","","","","","","",""
"psychophysics","40","167263","0.0-6.0-0.34","60459f654004876e609870e9","636d03e66a32c7f65a0397df","636d07a6832e27e14d925508","679.9000000953674","","","","39","","","","key","16.83380999999994","800","394.5","true","-1","130.2582912","4.0265318400000005","9","1","-1","","","","","","","","","","","","",""
"psychophysics","41","168693","0.0-6.0-0.35","60459f654004876e609870e9","636d03e66a32c7f65a0397df","636d07a6832e27e14d925508","424.5","","","","39","","","","key","16.66457647058825","800","394.5","true","1","134.28482304","4.0265318400000005","9","-1","1","","","","","","","","","","","","",""
"psychophysics","42","170032","0.0-6.0-0.36","60459f654004876e609870e9","636d03e66a32c7f65a0397df","636d07a6832e27e14d925508","329.40000009536743","","","","37","","","","key","16.668215189873287","800","394.5","true","-1","134.28482304","3.2212254720000004","10","-1","-1","","","","","","","","","","","","",""
"psychophysics","43","171773","0.0-6.0-0.37","60459f654004876e609870e9","636d03e66a32c7f65a0397df","636d07a6832e27e14d925508","720.5","","","","39","","","","key","16.6662980769232","800","394.5","true","1","131.06359756799998","3.2212254720000004","10","-1","-1","","","","","","","","","","","","",""
"psychophysics","44","173856","0.0-6.0-0.38","60459f654004876e609870e9","636d03e66a32c7f65a0397df","636d07a6832e27e14d925508","1070.9000000953674","","","","37","","","","key","16.666669354838604","800","394.5","true","1","131.06359756799998","2.5769803776000004","11","1","-1","","","","","","","","","","","","",""
"psychophysics","45","175178","0.0-6.0-0.39","60459f654004876e609870e9","636d03e66a32c7f65a0397df","636d07a6832e27e14d925508","309","","","","37","","","","key","16.668487179487084","800","394.5","true","-1","133.64057794559997","2.5769803776000004","11","-1","1","","","","","","","","","","","","",""
"html-keyboard-response","46","197290","0.0-7.0","60459f654004876e609870e9","636d03e66a32c7f65a0397df","636d07a6832e27e14d925508","22109.400000095367","<p>Well Done !</p><p>Prepare for a new block.</p><p>DON'T EXIT THE FULL SCREEN MODE</p><p>Press the Spacebar to start.</p>","","","32","","","","","","","","","","","","","","","true","131.21190815743998","","","","","","","","","","",""
"psychophysics","47","198531","0.0-8.0-0.0","60459f654004876e609870e9","636d03e66a32c7f65a0397df","636d07a6832e27e14d925508","230.29999995231628","","","","37","","","","key","16.685216216216293","800","394.5","true","-1","180","30","0","-1","","","","","","","","","","","","","",""
"psychophysics","48","201130","0.0-8.0-0.1","60459f654004876e609870e9","636d03e66a32c7f65a0397df","636d07a6832e27e14d925508","1584","","","","39","","","","key","16.66604516129028","800","394.5","true","-1","180","30","0","1","-1","","","","","","","","","","","","",""
"psychophysics","49","203795","0.0-8.0-0.2","60459f654004876e609870e9","636d03e66a32c7f65a0397df","636d07a6832e27e14d925508","1644.3999998569489","","","","37","","","","key","16.665591194968542","800","394.5","true","-1","210","30","0","-1","1","","","","","","","","","","","","",""
"psychophysics","50","205222","0.0-8.0-0.3","60459f654004876e609870e9","636d03e66a32c7f65a0397df","636d07a6832e27e14d925508","421.09999990463257","","","","37","","","","key","16.66702352941194","800","394.5","true","-1","210","24","1","-1","-1","","","","","","","","","","","","",""
"psychophysics","51","207677","0.0-8.0-0.4","60459f654004876e609870e9","636d03e66a32c7f65a0397df","636d07a6832e27e14d925508","1443.4000000953674","","","","37","","","","key","16.666246575342445","800","394.5","true","-1","186","24","1","-1","-1","","","","","","","","","","","","",""
"psychophysics","52","209156","0.0-8.0-0.5","60459f654004876e609870e9","636d03e66a32c7f65a0397df","636d07a6832e27e14d925508","472","","","","37","","","","key","16.665647727272617","800","394.5","true","-1","186","24","1","-1","-1","","","","","","","","","","","","",""
"psychophysics","53","210507","0.0-8.0-0.6","60459f654004876e609870e9","636d03e66a32c7f65a0397df","636d07a6832e27e14d925508","339.5","","","","39","","","","key","16.666062500000045","800","394.5","true","1","162","24","1","-1","-1","","","","","","","","","","","","",""
"psychophysics","54","211920","0.0-8.0-0.7","60459f654004876e609870e9","636d03e66a32c7f65a0397df","636d07a6832e27e14d925508","402.60000014305115","","","","39","","","","key","16.665440476190444","800","394.5","true","1","162","24","1","-1","-1","","","","","","","","","","","","",""
"psychophysics","55","213555","0.0-8.0-0.8","60459f654004876e609870e9","636d03e66a32c7f65a0397df","636d07a6832e27e14d925508","627.4000000953674","","","","39","","","","key","16.667350515463696","800","394.5","true","1","138","24","1","-1","-1","","","","","","","","","","","","",""
"psychophysics","56","214921","0.0-8.0-0.9","60459f654004876e609870e9","636d03e66a32c7f65a0397df","636d07a6832e27e14d925508","354.09999990463257","","","","37","","","","key","16.666617283950785","800","394.5","true","-1","138","24","1","-1","-1","","","","","","","","","","","","",""
"psychophysics","57","216399","0.0-8.0-0.10","60459f654004876e609870e9","636d03e66a32c7f65a0397df","636d07a6832e27e14d925508","465.30000019073486","","","","39","","","","key","16.66718390804579","800","394.5","true","1","129","24","1","-1","-1","","","","","","","","","","","","",""
"psychophysics","58","218112","0.0-8.0-0.11","60459f654004876e609870e9","636d03e66a32c7f65a0397df","636d07a6832e27e14d925508","694.8999998569489","","","","37","","","","key","16.6658137254902","800","394.5","true","-1","129","24","1","-1","-1","","","","","","","","","","","","",""
"psychophysics","59","220020","0.0-8.0-0.12","60459f654004876e609870e9","636d03e66a32c7f65a0397df","636d07a6832e27e14d925508","901.6000001430511","","","","39","","","","key","16.66561403508776","800","394.5","true","-1","129","19.2","2","1","-1","","","","","","","","","","","","",""
"psychophysics","60","221434","0.0-8.0-0.13","60459f654004876e609870e9","636d03e66a32c7f65a0397df","636d07a6832e27e14d925508","400.39999985694885","","","","39","","","","key","16.666228915662547","800","394.5","true","1","148.2","19.2","2","-1","1","","","","","","","","","","","","",""
"psychophysics","61","222835","0.0-8.0-0.14","60459f654004876e609870e9","636d03e66a32c7f65a0397df","636d07a6832e27e14d925508","384.2000000476837","","","","39","","","","key","16.66525301204837","800","394.5","true","1","148.2","15.36","3","-1","-1","","","","","","","","","","","","",""
"psychophysics","62","224448","0.0-8.0-0.15","60459f654004876e609870e9","636d03e66a32c7f65a0397df","636d07a6832e27e14d925508","601.2000000476837","","","","39","","","","key","16.66715624999991","800","394.5","true","1","132.83999999999997","15.36","3","-1","-1","","","","","","","","","","","","",""
"psychophysics","63","225807","0.0-8.0-0.16","60459f654004876e609870e9","636d03e66a32c7f65a0397df","636d07a6832e27e14d925508","345.19999980926514","","","","37","","","","key","16.665654320987358","800","394.5","true","-1","132.83999999999997","15.36","3","-1","-1","","","","","","","","","","","","",""
"psychophysics","64","227414","0.0-8.0-0.17","60459f654004876e609870e9","636d03e66a32c7f65a0397df","636d07a6832e27e14d925508","597.7000000476837","","","","39","","","","key","16.667705263157902","800","394.5","true","-1","129","12.287999999999998","4","1","-1","","","","","","","","","","","","",""
"psychophysics","65","228885","0.0-8.0-0.18","60459f654004876e609870e9","636d03e66a32c7f65a0397df","636d07a6832e27e14d925508","452.5","","","","39","","","","key","16.66586363636353","800","394.5","true","1","141.288","12.287999999999998","4","-1","1","","","","","","","","","","","","",""
"psychophysics","66","230305","0.0-8.0-0.19","60459f654004876e609870e9","636d03e66a32c7f65a0397df","636d07a6832e27e14d925508","409.7999999523163","","","","37","","","","key","16.667654761904572","800","394.5","true","-1","141.288","9.8304","5","-1","-1","","","","","","","","","","","","",""
"psychophysics","67","231751","0.0-8.0-0.20","60459f654004876e609870e9","636d03e66a32c7f65a0397df","636d07a6832e27e14d925508","434","","","","37","","","","key","16.665799999999923","800","394.5","true","-1","131.4576","9.8304","5","-1","-1","","","","","","","","","","","","",""
"psychophysics","68","233722","0.0-8.0-0.21","60459f654004876e609870e9","636d03e66a32c7f65a0397df","636d07a6832e27e14d925508","955.5","","","","39","","","","key","16.665779661016995","800","394.5","true","1","131.4576","9.8304","5","-1","-1","","","","","","","","","","","","",""
"psychophysics","69","235391","0.0-8.0-0.22","60459f654004876e609870e9","636d03e66a32c7f65a0397df","636d07a6832e27e14d925508","658.2999999523163","","","","39","","","","key","16.666101010100896","800","394.5","true","1","129","9.8304","5","-1","-1","","","","","","","","","","","","",""
"psychophysics","70","237364","0.0-8.0-0.23","60459f654004876e609870e9","636d03e66a32c7f65a0397df","636d07a6832e27e14d925508","964.0999999046326","","","","39","","","","key","16.66576923076914","800","394.5","true","1","129","9.8304","5","-1","-1","","","","","","","","","","","","",""
"psychophysics","71","238811","0.0-8.0-0.24","60459f654004876e609870e9","636d03e66a32c7f65a0397df","636d07a6832e27e14d925508","427.7000000476837","","","","39","","","","key","16.666360465116288","800","394.5","true","1","129","9.8304","5","-1","-1","","","","","","","","","","","","",""
"psychophysics","72","240500","0.0-8.0-0.25","60459f654004876e609870e9","636d03e66a32c7f65a0397df","636d07a6832e27e14d925508","683.5999999046326","","","","39","","","","key","16.66695000000007","800","394.5","true","1","129","9.8304","5","-1","-1","","","","","","","","","","","","",""
"psychophysics","73","243755","0.0-8.0-0.26","60459f654004876e609870e9","636d03e66a32c7f65a0397df","636d07a6832e27e14d925508","2238.7000000476837","","","","37","","","","key","16.665979487179534","800","394.5","true","-1","129","9.8304","5","-1","-1","","","","","","","","","","","","",""
"psychophysics","74","246029","0.0-8.0-0.27","60459f654004876e609870e9","636d03e66a32c7f65a0397df","636d07a6832e27e14d925508","1246.2999999523163","","","","39","","","","key","16.666333333333238","800","394.5","true","-1","129","7.864319999999999","6","1","-1","","","","","","","","","","","","",""
"psychophysics","75","247398","0.0-8.0-0.28","60459f654004876e609870e9","636d03e66a32c7f65a0397df","636d07a6832e27e14d925508","348.5","","","","37","","","","key","16.66727160493826","800","394.5","true","-1","136.86432","7.864319999999999","6","-1","1","","","","","","","","","","","","",""
"psychophysics","76","248811","0.0-8.0-0.29","60459f654004876e609870e9","636d03e66a32c7f65a0397df","636d07a6832e27e14d925508","396.09999990463257","","","","39","","","","key","16.666011904761987","800","394.5","true","1","136.86432","6.291456","7","-1","-1","","","","","","","","","","","","",""
"psychophysics","77","250849","0.0-8.0-0.30","60459f654004876e609870e9","636d03e66a32c7f65a0397df","636d07a6832e27e14d925508","1017.7999999523163","","","","37","","","","key","16.665024793388618","800","394.5","true","1","130.57286399999998","5.033164800000001","8","1","-1","","","","","","","","","","","","",""
"psychophysics","78","252437","0.0-8.0-0.31","60459f654004876e609870e9","636d03e66a32c7f65a0397df","636d07a6832e27e14d925508","581.0999999046326","","","","39","","","","key","16.666073684210545","800","394.5","true","1","135.6060288","5.033164800000001","8","-1","1","","","","","","","","","","","","",""
"psychophysics","79","254012","0.0-8.0-0.32","60459f654004876e609870e9","636d03e66a32c7f65a0397df","636d07a6832e27e14d925508","562.9000000953674","","","","39","","","","key","16.666279569892552","800","394.5","true","1","135.6060288","4.0265318400000005","9","-1","-1","","","","","","","","","","","","",""
"psychophysics","80","255836","0.0-8.0-0.33","60459f654004876e609870e9","636d03e66a32c7f65a0397df","636d07a6832e27e14d925508","821.0999999046326","","","","37","","","","key","16.666917431192555","800","394.5","true","-1","131.57949696","4.0265318400000005","9","-1","-1","","","","","","","","","","","","",""
"psychophysics","81","257420","0.0-8.0-0.34","60459f654004876e609870e9","636d03e66a32c7f65a0397df","636d07a6832e27e14d925508","571.6999998092651","","","","39","","","","key","16.666382978723554","800","394.5","true","-1","131.57949696","3.2212254720000004","10","1","-1","","","","","","","","","","","","",""
"psychophysics","82","259049","0.0-8.0-0.35","60459f654004876e609870e9","636d03e66a32c7f65a0397df","636d07a6832e27e14d925508","600.5","","","","39","","","","key","16.667385416666548","800","394.5","true","1","134.800722432","3.2212254720000004","10","-1","1","","","","","","","","","","","","",""
"psychophysics","83","260646","0.0-8.0-0.36","60459f654004876e609870e9","636d03e66a32c7f65a0397df","636d07a6832e27e14d925508","581","","","","39","","","","key","16.660978947368474","800","394.5","true","1","134.800722432","2.5769803776000004","11","-1","-1","","","","","","","","","","","","",""
"psychophysics","84","262241","0.0-8.0-0.37","60459f654004876e609870e9","636d03e66a32c7f65a0397df","636d07a6832e27e14d925508","576.4000000953674","","","","37","","","","key","16.666147368421203","800","394.5","true","1","132.2237420544","2.0615843020800004","12","1","-1","","","","","","","","","","","","",""
"psychophysics","85","263628","0.0-8.0-0.38","60459f654004876e609870e9","636d03e66a32c7f65a0397df","636d07a6832e27e14d925508","380","","","","39","","","","key","16.666524390244245","800","394.5","true","-1","134.28532635648","2.0615843020800004","12","1","1","","","","","","","","","","","","",""
"psychophysics","86","265045","0.0-8.0-0.39","60459f654004876e609870e9","636d03e66a32c7f65a0397df","636d07a6832e27e14d925508","410.5","","","","37","","","","key","16.666857142857182","800","394.5","true","-1","136.34691065856","2.0615843020800004","12","-1","1","","","","","","","","","","","","",""
"html-keyboard-response","87","303999","0.0-9.0","60459f654004876e609870e9","636d03e66a32c7f65a0397df","636d07a6832e27e14d925508","38953.89999985695","<p>Well Done !</p><p>Prepare for a new block.</p><p>DON'T EXIT THE FULL SCREEN MODE</p><p>Press the Spacebar to start.</p>","","","32","","","","","","","","","","","","","","","true","133.208665296896","","","","","","","","","","",""
"psychophysics","88","306173","0.0-10.0-0.0","60459f654004876e609870e9","636d03e66a32c7f65a0397df","636d07a6832e27e14d925508","1165.5999999046326","","","","37","","","","key","16.68668461538484","800","394.5","true","-1","180","30","0","-1","","","","","","","","","","","","","",""
"psychophysics","89","307230","0.0-10.0-0.1","60459f654004876e609870e9","636d03e66a32c7f65a0397df","636d07a6832e27e14d925508","49.09999990463257","","","","39","","","","key","16.66516129032243","800","394.5","true","1","180","30","0","-1","-1","","","","","","","","","","","","",""
"psychophysics","90","308589","0.0-10.0-0.2","60459f654004876e609870e9","636d03e66a32c7f65a0397df","636d07a6832e27e14d925508","342.40000009536743","","","","39","","","","key","16.66623456790155","800","394.5","true","1","150","30","0","-1","-1","","","","","","","","","","","","",""
"psychophysics","91","309885","0.0-10.0-0.3","60459f654004876e609870e9","636d03e66a32c7f65a0397df","636d07a6832e27e14d925508","288.80000019073486","","","","39","","","","key","16.66468831168884","800","394.5","true","1","150","30","0","-1","-1","","","","","","","","","","","","",""
"psychophysics","92","311204","0.0-10.0-0.4","60459f654004876e609870e9","636d03e66a32c7f65a0397df","636d07a6832e27e14d925508","309.40000009536743","","","","37","","","","key","16.665423076922963","800","394.5","true","-1","129","30","0","-1","-1","","","","","","","","","","","","",""
"psychophysics","93","312692","0.0-10.0-0.5","60459f654004876e609870e9","636d03e66a32c7f65a0397df","636d07a6832e27e14d925508","479.09999990463257","","","","39","","","","key","16.668249999999798","800","394.5","true","-1","129","24","1","1","-1","","","","","","","","","","","","",""
"psychophysics","94","314006","0.0-10.0-0.6","60459f654004876e609870e9","636d03e66a32c7f65a0397df","636d07a6832e27e14d925508","294.90000009536743","","","","37","","","","key","16.667307692307542","800","394.5","true","-1","153","24","1","-1","1","","","","","","","","","","","","",""
"psychophysics","95","315403","0.0-10.0-0.7","60459f654004876e609870e9","636d03e66a32c7f65a0397df","636d07a6832e27e14d925508","389.69999980926514","","","","39","","","","key","16.664096385542113","800","394.5","true","1","153","19.2","2","-1","-1","","","","","","","","","","","","",""
"psychophysics","96","318151","0.0-10.0-0.8","60459f654004876e609870e9","636d03e66a32c7f65a0397df","636d07a6832e27e14d925508","1743.5","","","","37","","","","key","16.666847560975683","800","394.5","true","-1","133.8","19.2","2","-1","-1","","","","","","","","","","","","",""
"psychophysics","97","320176","0.0-10.0-0.9","60459f654004876e609870e9","636d03e66a32c7f65a0397df","636d07a6832e27e14d925508","1013.4000000953674","","","","37","","","","key","16.66188333333363","800","394.5","true","-1","133.8","19.2","2","-1","-1","","","","","","","","","","","","",""
"psychophysics","98","322221","0.0-10.0-0.10","60459f654004876e609870e9","636d03e66a32c7f65a0397df","636d07a6832e27e14d925508","1041.4000000953674","","","","39","","","","key","16.667795081967373","800","394.5","true","-1","129","15.36","3","1","-1","","","","","","","","","","","","",""
"psychophysics","99","323581","0.0-10.0-0.11","60459f654004876e609870e9","636d03e66a32c7f65a0397df","636d07a6832e27e14d925508","351.5","","","","39","","","","key","16.665437500000554","800","394.5","true","1","144.36","15.36","3","-1","1","","","","","","","","","","","","",""
"psychophysics","100","325216","0.0-10.0-0.12","60459f654004876e609870e9","636d03e66a32c7f65a0397df","636d07a6832e27e14d925508","626.2999999523163","","","","39","","","","key","16.661081632653286","800","394.5","true","1","144.36","12.287999999999998","4","-1","-1","","","","","","","","","","","","",""
"psychophysics","101","326569","0.0-10.0-0.13","60459f654004876e609870e9","636d03e66a32c7f65a0397df","636d07a6832e27e14d925508","347.5","","","","37","","","","key","16.667012500000418","800","394.5","true","1","132.072","9.8304","5","1","-1","","","","","","","","","","","","",""
"psychophysics","102","327871","0.0-10.0-0.14","60459f654004876e609870e9","636d03e66a32c7f65a0397df","636d07a6832e27e14d925508","297","","","","39","","","","key","16.66676623376567","800","394.5","true","1","141.9024","9.8304","5","-1","1","","","","","","","","","","","","",""
"psychophysics","103","329161","0.0-10.0-0.15","60459f654004876e609870e9","636d03e66a32c7f65a0397df","636d07a6832e27e14d925508","283","","","","39","","","","key","16.668368421053042","800","394.5","true","1","141.9024","7.864319999999999","6","-1","-1","","","","","","","","","","","","",""
"psychophysics","104","330448","0.0-10.0-0.16","60459f654004876e609870e9","636d03e66a32c7f65a0397df","636d07a6832e27e14d925508","275.10000014305115","","","","37","","","","key","16.6658181818187","800","394.5","true","-1","134.03808","7.864319999999999","6","-1","-1","","","","","","","","","","","","",""
"psychophysics","105","331688","0.0-10.0-0.17","60459f654004876e609870e9","636d03e66a32c7f65a0397df","636d07a6832e27e14d925508","234.69999980926514","","","","37","","","","key","16.666972602739108","800","394.5","true","-1","134.03808","7.864319999999999","6","-1","-1","","","","","","","","","","","","",""
"psychophysics","106","333003","0.0-10.0-0.18","60459f654004876e609870e9","636d03e66a32c7f65a0397df","636d07a6832e27e14d925508","306.89999985694885","","","","37","","","","key","16.668653846153457","800","394.5","true","-1","129","7.864319999999999","6","-1","-1","","","","","","","","","","","","",""
"psychophysics","107","334440","0.0-10.0-0.19","60459f654004876e609870e9","636d03e66a32c7f65a0397df","636d07a6832e27e14d925508","427.7000000476837","","","","37","","","","key","16.66544705882381","800","394.5","true","1","129","6.291456","7","1","-1","","","","","","","","","","","","",""
"psychophysics","108","335722","0.0-10.0-0.20","60459f654004876e609870e9","636d03e66a32c7f65a0397df","636d07a6832e27e14d925508","276.39999985694885","","","","37","","","","key","16.668684210526408","800","394.5","true","-1","135.291456","6.291456","7","-1","1","","","","","","","","","","","","",""
"psychophysics","109","337052","0.0-10.0-0.21","60459f654004876e609870e9","636d03e66a32c7f65a0397df","636d07a6832e27e14d925508","320.09999990463257","","","","37","","","","key","16.666291139240354","800","394.5","true","-1","135.291456","5.033164800000001","8","-1","-1","","","","","","","","","","","","",""
"psychophysics","110","338924","0.0-10.0-0.22","60459f654004876e609870e9","636d03e66a32c7f65a0397df","636d07a6832e27e14d925508","861.7000000476837","","","","39","","","","key","16.66602702702706","800","394.5","true","1","130.2582912","5.033164800000001","8","-1","-1","","","","","","","","","","","","",""
"psychophysics","111","340987","0.0-10.0-0.23","60459f654004876e609870e9","636d03e66a32c7f65a0397df","636d07a6832e27e14d925508","1060.8999998569489","","","","37","","","","key","16.66703252032507","800","394.5","true","1","130.2582912","4.0265318400000005","9","1","-1","","","","","","","","","","","","",""
"psychophysics","112","343343","0.0-10.0-0.24","60459f654004876e609870e9","636d03e66a32c7f65a0397df","636d07a6832e27e14d925508","1346.3000001907349","","","","37","","","","key","16.665935714285922","800","394.5","true","-1","134.28482304","4.0265318400000005","9","-1","1","","","","","","","","","","","","",""
"psychophysics","113","344438","0.0-10.0-0.25","60459f654004876e609870e9","636d03e66a32c7f65a0397df","636d07a6832e27e14d925508","79.90000009536743","","","","39","","","","key","16.665692307692595","800","394.5","true","1","134.28482304","3.2212254720000004","10","-1","-1","","","","","","","","","","","","",""
"psychophysics","114","345988","0.0-10.0-0.26","60459f654004876e609870e9","636d03e66a32c7f65a0397df","636d07a6832e27e14d925508","542.2000000476837","","","","39","","","","key","16.66828260869585","800","394.5","true","-1","131.06359756799998","2.5769803776000004","11","1","-1","","","","","","","","","","","","",""
"psychophysics","115","347394","0.0-10.0-0.27","60459f654004876e609870e9","636d03e66a32c7f65a0397df","636d07a6832e27e14d925508","398.89999985694885","","","","39","","","","key","16.665578313253214","800","394.5","true","1","133.64057794559997","2.5769803776000004","11","-1","1","","","","","","","","","","","","",""
"psychophysics","116","348835","0.0-10.0-0.28","60459f654004876e609870e9","636d03e66a32c7f65a0397df","636d07a6832e27e14d925508","437.89999985694885","","","","39","","","","key","16.668674418605256","800","394.5","true","1","133.64057794559997","2.0615843020800004","12","-1","-1","","","","","","","","","","","","",""
"psychophysics","117","351524","0.0-10.0-0.29","60459f654004876e609870e9","636d03e66a32c7f65a0397df","636d07a6832e27e14d925508","1679.5999999046326","","","","39","","","","key","16.66622500000012","800","394.5","true","-1","131.57899364351996","1.6492674416640005","13","1","-1","","","","","","","","","","","","",""
"psychophysics","118","352846","0.0-10.0-0.30","60459f654004876e609870e9","636d03e66a32c7f65a0397df","636d07a6832e27e14d925508","316.7999999523163","","","","37","","","","key","16.667884615384256","800","394.5","true","-1","133.22826108518396","1.6492674416640005","13","-1","1","","","","","","","","","","","","",""
"psychophysics","119","354484","0.0-10.0-0.31","60459f654004876e609870e9","636d03e66a32c7f65a0397df","636d07a6832e27e14d925508","586.9000000953674","","","","37","","","","key","17.009677083333372","800","394.5","true","1","133.22826108518396","1.3194139533312006","14","1","-1","","","","","","","","","","","","",""
"psychophysics","120","355884","0.0-10.0-0.32","60459f654004876e609870e9","636d03e66a32c7f65a0397df","636d07a6832e27e14d925508","389.59999990463257","","","","39","","","","key","16.667771084337208","800","394.5","true","1","134.54767503851517","1.3194139533312006","14","-1","1","","","","","","","","","","","","",""
"psychophysics","121","357354","0.0-10.0-0.33","60459f654004876e609870e9","636d03e66a32c7f65a0397df","636d07a6832e27e14d925508","459","","","","39","","","","key","16.666620689654994","800","394.5","true","1","134.54767503851517","1.0555311626649604","15","-1","-1","","","","","","","","","","","","",""
"psychophysics","122","358799","0.0-10.0-0.34","60459f654004876e609870e9","636d03e66a32c7f65a0397df","636d07a6832e27e14d925508","435.7999999523163","","","","37","","","","key","16.66701162790712","800","394.5","true","-1","133.49214387585022","1.0555311626649604","15","-1","-1","","","","","","","","","","","","",""
"psychophysics","123","360654","0.0-10.0-0.35","60459f654004876e609870e9","636d03e66a32c7f65a0397df","636d07a6832e27e14d925508","843.5999999046326","","","","39","","","","key","16.66658181818149","800","394.5","true","1","133.49214387585022","1.0555311626649604","15","-1","-1","","","","","","","","","","","","",""
"psychophysics","124","362449","0.0-10.0-0.36","60459f654004876e609870e9","636d03e66a32c7f65a0397df","636d07a6832e27e14d925508","787.6000001430511","","","","37","","","","key","16.666261682242794","800","394.5","true","1","132.43661271318527","1","16","1","-1","","","","","","","","","","","","",""
"psychophysics","125","364123","0.0-10.0-0.37","60459f654004876e609870e9","636d03e66a32c7f65a0397df","636d07a6832e27e14d925508","661.2000000476837","","","","39","","","","key","16.666898989898854","800","394.5","true","-1","133.43661271318527","1","16","1","1","","","","","","","","","","","","",""
"psychophysics","126","365674","0.0-10.0-0.38","60459f654004876e609870e9","636d03e66a32c7f65a0397df","636d07a6832e27e14d925508","531.9000000953674","","","","37","","","","key","16.666934782608777","800","394.5","true","-1","134.43661271318527","1","16","-1","1","","","","","","","","","","","","",""
"psychophysics","127","367147","0.0-10.0-0.39","60459f654004876e609870e9","636d03e66a32c7f65a0397df","636d07a6832e27e14d925508","469.10000014305115","","","","37","","","","key","16.665431818182036","800","394.5","true","-1","134.43661271318527","1","17","-1","-1","","","","","","","","","","","","",""
"html-keyboard-response","128","388821","0.0-11.0","60459f654004876e609870e9","636d03e66a32c7f65a0397df","636d07a6832e27e14d925508","21670.099999904633","<p>Well Done !</p><p>Prepare for a new block.</p><p>DON'T EXIT THE FULL SCREEN MODE</p><p>Press the Spacebar to start.</p>","","","32","","","","","","","","","","","","","","","true","133.4327453996373","","","","","","","","","","",""
"psychophysics","129","390091","0.0-12.0-0.0","60459f654004876e609870e9","636d03e66a32c7f65a0397df","636d07a6832e27e14d925508","255.90000009536743","","","","39","","","","key","16.66531578947309","800","394.5","true","1","180","30","0","-1","","","","","","","","","","","","","",""
"psychophysics","130","392529","0.0-12.0-0.1","60459f654004876e609870e9","636d03e66a32c7f65a0397df","636d07a6832e27e14d925508","1432.6999998092651","","","","39","","","","key","16.665462068965304","800","394.5","true","-1","180","30","0","1","-1","","","","","","","","","","","","",""
"psychophysics","131","393735","0.0-12.0-0.2","60459f654004876e609870e9","636d03e66a32c7f65a0397df","636d07a6832e27e14d925508","191.5","","","","37","","","","key","16.664388888889032","800","394.5","true","-1","210","30","0","-1","1","","","","","","","","","","","","",""
"psychophysics","132","395072","0.0-12.0-0.3","60459f654004876e609870e9","636d03e66a32c7f65a0397df","636d07a6832e27e14d925508","328.2000000476837","","","","39","","","","key","16.66893670886027","800","394.5","true","1","210","24","1","-1","-1","","","","","","","","","","","","",""
"psychophysics","133","396402","0.0-12.0-0.4","60459f654004876e609870e9","636d03e66a32c7f65a0397df","636d07a6832e27e14d925508","324.59999990463257","","","","37","","","","key","16.660025316455602","800","394.5","true","-1","186","24","1","-1","-1","","","","","","","","","","","","",""
"psychophysics","134","397712","0.0-12.0-0.5","60459f654004876e609870e9","636d03e66a32c7f65a0397df","636d07a6832e27e14d925508","301.39999985694885","","","","39","","","","key","16.66291025641019","800","394.5","true","1","186","24","1","-1","-1","","","","","","","","","","","","",""
"psychophysics","135","399112","0.0-12.0-0.6","60459f654004876e609870e9","636d03e66a32c7f65a0397df","636d07a6832e27e14d925508","387.10000014305115","","","","39","","","","key","16.66587951807207","800","394.5","true","1","162","24","1","-1","-1","","","","","","","","","","","","",""
"psychophysics","136","400362","0.0-12.0-0.7","60459f654004876e609870e9","636d03e66a32c7f65a0397df","636d07a6832e27e14d925508","235.70000004768372","","","","37","","","","key","16.666743243243733","800","394.5","true","-1","162","24","1","-1","-1","","","","","","","","","","","","",""
"psychophysics","137","401657","0.0-12.0-0.8","60459f654004876e609870e9","636d03e66a32c7f65a0397df","636d07a6832e27e14d925508","289.7000000476837","","","","39","","","","key","16.66598684210514","800","394.5","true","1","138","24","1","-1","-1","","","","","","","","","","","","",""
"psychophysics","138","402969","0.0-12.0-0.9","60459f654004876e609870e9","636d03e66a32c7f65a0397df","636d07a6832e27e14d925508","292.59999990463257","","","","39","","","","key","16.669371794871925","800","394.5","true","1","138","24","1","-1","-1","","","","","","","","","","","","",""
"psychophysics","139","404672","0.0-12.0-0.10","60459f654004876e609870e9","636d03e66a32c7f65a0397df","636d07a6832e27e14d925508","682.3000001907349","","","","37","","","","key","16.831500000000233","800","394.5","true","-1","129","24","1","-1","-1","","","","","","","","","","","","",""
"psychophysics","140","406033","0.0-12.0-0.11","60459f654004876e609870e9","636d03e66a32c7f65a0397df","636d07a6832e27e14d925508","357","","","","39","","","","key","16.668061728395212","800","394.5","true","1","129","24","1","-1","-1","","","","","","","","","","","","",""
"psychophysics","141","407531","0.0-12.0-0.12","60459f654004876e609870e9","636d03e66a32c7f65a0397df","636d07a6832e27e14d925508","490.30000019073486","","","","37","","","","key","16.66675280898893","800","394.5","true","-1","129","24","1","-1","-1","","","","","","","","","","","","",""
"psychophysics","142","409087","0.0-12.0-0.13","60459f654004876e609870e9","636d03e66a32c7f65a0397df","636d07a6832e27e14d925508","543.9000000953674","","","","39","","","","key","16.667652173913034","800","394.5","true","1","129","24","1","-1","-1","","","","","","","","","","","","",""
"psychophysics","143","411000","0.0-12.0-0.14","60459f654004876e609870e9","636d03e66a32c7f65a0397df","636d07a6832e27e14d925508","906.5","","","","37","","","","key","16.666385964912223","800","394.5","true","-1","129","24","1","-1","-1","","","","","","","","","","","","",""
"psychophysics","144","412571","0.0-12.0-0.15","60459f654004876e609870e9","636d03e66a32c7f65a0397df","636d07a6832e27e14d925508","561.5","","","","39","","","","key","16.666989247311502","800","394.5","true","1","129","24","1","-1","-1","","","","","","","","","","","","",""
"psychophysics","145","414138","0.0-12.0-0.16","60459f654004876e609870e9","636d03e66a32c7f65a0397df","636d07a6832e27e14d925508","547.3999998569489","","","","39","","","","key","16.66538709677413","800","394.5","true","-1","129","19.2","2","1","-1","","","","","","","","","","","","",""
"psychophysics","146","415931","0.0-12.0-0.17","60459f654004876e609870e9","636d03e66a32c7f65a0397df","636d07a6832e27e14d925508","788.2999999523163","","","","37","","","","key","16.66724299065438","800","394.5","true","-1","148.2","19.2","2","-1","1","","","","","","","","","","","","",""
"psychophysics","147","417498","0.0-12.0-0.18","60459f654004876e609870e9","636d03e66a32c7f65a0397df","636d07a6832e27e14d925508","555","","","","39","","","","key","16.665946236559346","800","394.5","true","1","148.2","15.36","3","-1","-1","","","","","","","","","","","","",""
"psychophysics","148","419104","0.0-12.0-0.19","60459f654004876e609870e9","636d03e66a32c7f65a0397df","636d07a6832e27e14d925508","595.1000001430511","","","","37","","","","key","16.666989473684225","800","394.5","true","-1","132.83999999999997","15.36","3","-1","-1","","","","","","","","","","","","",""
"psychophysics","149","420687","0.0-12.0-0.20","60459f654004876e609870e9","636d03e66a32c7f65a0397df","636d07a6832e27e14d925508","576.7999999523163","","","","39","","","","key","16.663989361701905","800","394.5","true","1","132.83999999999997","15.36","3","-1","-1","","","","","","","","","","","","",""
"psychophysics","150","422382","0.0-12.0-0.21","60459f654004876e609870e9","636d03e66a32c7f65a0397df","636d07a6832e27e14d925508","678.5","","","","37","","","","key","16.666099009901114","800","394.5","true","1","129","12.287999999999998","4","1","-1","","","","","","","","","","","","",""
"psychophysics","151","423869","0.0-12.0-0.22","60459f654004876e609870e9","636d03e66a32c7f65a0397df","636d07a6832e27e14d925508","477.80000019073486","","","","39","","","","key","16.667749999999863","800","394.5","true","1","141.288","12.287999999999998","4","-1","1","","","","","","","","","","","","",""
"psychophysics","152","425388","0.0-12.0-0.23","60459f654004876e609870e9","636d03e66a32c7f65a0397df","636d07a6832e27e14d925508","511.09999990463257","","","","39","","","","key","16.666677777778304","800","394.5","true","1","141.288","9.8304","5","-1","-1","","","","","","","","","","","","",""
"psychophysics","153","426900","0.0-12.0-0.24","60459f654004876e609870e9","636d03e66a32c7f65a0397df","636d07a6832e27e14d925508","500.7999999523163","","","","39","","","","key","16.667633333333328","800","394.5","true","-1","131.4576","7.864319999999999","6","1","-1","","","","","","","","","","","","",""
"psychophysics","154","428459","0.0-12.0-0.25","60459f654004876e609870e9","636d03e66a32c7f65a0397df","636d07a6832e27e14d925508","548.7999999523163","","","","39","","","","key","16.66657608695665","800","394.5","true","1","139.32192","7.864319999999999","6","-1","1","","","","","","","","","","","","",""
"psychophysics","155","429717","0.0-12.0-0.26","60459f654004876e609870e9","636d03e66a32c7f65a0397df","636d07a6832e27e14d925508","243.59999990463257","","","","37","","","","key","16.666146666666805","800","394.5","true","-1","139.32192","6.291456","7","-1","-1","","","","","","","","","","","","",""
"psychophysics","156","431091","0.0-12.0-0.27","60459f654004876e609870e9","636d03e66a32c7f65a0397df","636d07a6832e27e14d925508","365","","","","37","","","","key","16.665543209876358","800","394.5","true","-1","133.030464","6.291456","7","-1","-1","","","","","","","","","","","","",""
"psychophysics","157","432401","0.0-12.0-0.28","60459f654004876e609870e9","636d03e66a32c7f65a0397df","636d07a6832e27e14d925508","304.90000009536743","","","","37","","","","key","16.665397435897596","800","394.5","true","-1","133.030464","6.291456","7","-1","-1","","","","","","","","","","","","",""
"psychophysics","158","433860","0.0-12.0-0.29","60459f654004876e609870e9","636d03e66a32c7f65a0397df","636d07a6832e27e14d925508","449.40000009536743","","","","39","","","","key","16.854941176470398","800","394.5","true","-1","129","5.033164800000001","8","1","-1","","","","","","","","","","","","",""
"psychophysics","159","435282","0.0-12.0-0.30","60459f654004876e609870e9","636d03e66a32c7f65a0397df","636d07a6832e27e14d925508","406.09999990463257","","","","39","","","","key","16.661282352940866","800","394.5","true","1","134.0331648","5.033164800000001","8","-1","1","","","","","","","","","","","","",""
"psychophysics","160","437282","0.0-12.0-0.31","60459f654004876e609870e9","636d03e66a32c7f65a0397df","636d07a6832e27e14d925508","993.5","","","","37","","","","key","16.666369747899243","800","394.5","true","1","134.0331648","4.0265318400000005","9","1","-1","","","","","","","","","","","","",""
"psychophysics","161","438801","0.0-12.0-0.32","60459f654004876e609870e9","636d03e66a32c7f65a0397df","636d07a6832e27e14d925508","511.40000009536743","","","","37","","","","key","16.665866666666826","800","394.5","true","-1","138.05969664","4.0265318400000005","9","-1","1","","","","","","","","","","","","",""
"psychophysics","162","440297","0.0-12.0-0.33","60459f654004876e609870e9","636d03e66a32c7f65a0397df","636d07a6832e27e14d925508","487.90000009536743","","","","39","","","","key","16.66593258426946","800","394.5","true","1","138.05969664","3.2212254720000004","10","-1","-1","","","","","","","","","","","","",""
"psychophysics","163","441806","0.0-12.0-0.34","60459f654004876e609870e9","636d03e66a32c7f65a0397df","636d07a6832e27e14d925508","498.59999990463257","","","","39","","","","key","16.665573033707588","800","394.5","true","1","134.838471168","3.2212254720000004","10","-1","-1","","","","","","","","","","","","",""
"psychophysics","164","443215","0.0-12.0-0.35","60459f654004876e609870e9","636d03e66a32c7f65a0397df","636d07a6832e27e14d925508","389.2000000476837","","","","37","","","","key","17.072463414633912","800","394.5","true","-1","134.838471168","3.2212254720000004","10","-1","-1","","","","","","","","","","","","",""
"psychophysics","165","445316","0.0-12.0-0.36","60459f654004876e609870e9","636d03e66a32c7f65a0397df","636d07a6832e27e14d925508","1089.7000000476837","","","","39","","","","key","16.667263999999967","800","394.5","true","-1","131.617245696","2.5769803776000004","11","1","-1","","","","","","","","","","","","",""
"psychophysics","166","446557","0.0-12.0-0.37","60459f654004876e609870e9","636d03e66a32c7f65a0397df","636d07a6832e27e14d925508","231","","","","37","","","","key","16.66591780821949","800","394.5","true","-1","134.1942260736","2.5769803776000004","11","-1","1","","","","","","","","","","","","",""
"psychophysics","167","447838","0.0-12.0-0.38","60459f654004876e609870e9","636d03e66a32c7f65a0397df","636d07a6832e27e14d925508","262","","","","37","","","","key","16.669434210526035","800","394.5","true","-1","134.1942260736","2.0615843020800004","12","-1","-1","","","","","","","","","","","","",""
"psychophysics","168","449545","0.0-12.0-0.39","60459f654004876e609870e9","636d03e66a32c7f65a0397df","636d07a6832e27e14d925508","702.8999998569489","","","","39","","","","key","16.660039215685924","800","394.5","true","1","132.13264177151999","2.0615843020800004","12","-1","-1","","","","","","","","","","","","",""
"html-keyboard-response","169","475403","0.0-13.0","60459f654004876e609870e9","636d03e66a32c7f65a0397df","636d07a6832e27e14d925508","25856.400000095367","<p>Well Done !</p><p>Prepare for a new block.</p><p>DON'T EXIT THE FULL SCREEN MODE</p><p>Press the Spacebar to start.</p>","","","32","","","","","","","","","","","","","","","true","134.64705152204803","","","","","","","","","","",""
"html-keyboard-response","170","475522","0.0-14.0","60459f654004876e609870e9","636d03e66a32c7f65a0397df","636d07a6832e27e14d925508","null","","","","null","","","","","","","","","","","","","","","","","133.12509259400534","true","138.25018518801068","","","","","","","",""
"instructions","171","527658","0.0-15.0","60459f654004876e609870e9","636d03e66a32c7f65a0397df","636d07a6832e27e14d925508","52135.10000014305","","","","","","","[{""page_index"":0,""viewing_time"":25138.700000047684},{""page_index"":1,""viewing_time"":15817},{""page_index"":2,""viewing_time"":11179.099999904633}]","","","","","","","","","","","","","","","","","","","","","","","",""
"psychophysics","172","530673","0.0-16.0-0.0","60459f654004876e609870e9","636d03e66a32c7f65a0397df","636d07a6832e27e14d925508","null","","","","null","","","","key","16.668550000000202","800","394.5","","","","","","","","","","","","","","","","","","","",""
"psychophysics","173","531189","0.0-16.0-1.0","60459f654004876e609870e9","636d03e66a32c7f65a0397df","636d07a6832e27e14d925508","null","","","","null","","","","key","16.667033333335226","800","394.5","","","","","","","","","","","","","138","1","5","false","","","",""
"psychophysics","174","531398","0.0-16.0-2.0","60459f654004876e609870e9","636d03e66a32c7f65a0397df","636d07a6832e27e14d925508","199.40000009536743","","","","77","","","","key","16.655083333326427","800","394.5","","","","","","","","","","","","","","","","","","","",""
"psychophysics","175","532405","0.0-16.0-0.1","60459f654004876e609870e9","636d03e66a32c7f65a0397df","636d07a6832e27e14d925508","null","","","","null","","","","key","16.667796610169887","800","394.5","","","","","","","","","","","","","","","","","","","",""
"psychophysics","176","532921","0.0-16.0-1.1","60459f654004876e609870e9","636d03e66a32c7f65a0397df","636d07a6832e27e14d925508","null","","","","null","","","","key","16.665200000000187","800","394.5","","","","","","","","","","","","","138","-1","0","false","","","",""
"psychophysics","177","534333","0.0-16.0-2.1","60459f654004876e609870e9","636d03e66a32c7f65a0397df","636d07a6832e27e14d925508","1408.5","","","","90","","","","key","16.667273809523543","800","394.5","","","","","","","","","","","","","","","","","","","",""
"psychophysics","178","535339","0.0-16.0-0.2","60459f654004876e609870e9","636d03e66a32c7f65a0397df","636d07a6832e27e14d925508","null","","","","null","","","","key","16.667491525423443","800","394.5","","","","","","","","","","","","","","","","","","","",""
"psychophysics","179","535855","0.0-16.0-1.2","60459f654004876e609870e9","636d03e66a32c7f65a0397df","636d07a6832e27e14d925508","null","","","","null","","","","key","16.665333333332093","800","394.5","","","","","","","","","","","","","138","1","0","false","","","",""
"psychophysics","180","536202","0.0-16.0-2.2","60459f654004876e609870e9","636d03e66a32c7f65a0397df","636d07a6832e27e14d925508","340.7999999523163","","","","90","","","","key","16.665749999997207","800","394.5","","","","","","","","","","","","","","","","","","","",""
"psychophysics","181","537205","0.0-16.0-0.3","60459f654004876e609870e9","636d03e66a32c7f65a0397df","636d07a6832e27e14d925508","null","","","","null","","","","key","16.664932203390318","800","394.5","","","","","","","","","","","","","","","","","","","",""
"psychophysics","182","537721","0.0-16.0-1.3","60459f654004876e609870e9","636d03e66a32c7f65a0397df","636d07a6832e27e14d925508","null","","","","null","","","","key","16.66633333333302","800","394.5","","","","","","","","","","","","","138","-1","2","false","","","",""
"psychophysics","183","538063","0.0-16.0-2.3","60459f654004876e609870e9","636d03e66a32c7f65a0397df","636d07a6832e27e14d925508","338.80000019073486","","","","90","","","","key","16.666199999995296","800","394.5","","","","","","","","","","","","","","","","","","","",""
"psychophysics","184","539071","0.0-16.0-0.4","60459f654004876e609870e9","636d03e66a32c7f65a0397df","636d07a6832e27e14d925508","null","","","","null","","","","key","16.6662372881369","800","394.5","","","","","","","","","","","","","","","","","","","",""
"psychophysics","185","539583","0.0-16.0-1.4","60459f654004876e609870e9","636d03e66a32c7f65a0397df","636d07a6832e27e14d925508","null","","","","null","","","","key","16.665933333333427","800","394.5","","","","","","","","","","","","","138","1","3","false","","","",""
"psychophysics","186","540140","0.0-16.0-2.4","60459f654004876e609870e9","636d03e66a32c7f65a0397df","636d07a6832e27e14d925508","555.5999999046326","","","","90","","","","key","16.66596969697187","800","394.5","","","","","","","","","","","","","","","","","","","",""
"psychophysics","187","541155","0.0-16.0-0.5","60459f654004876e609870e9","636d03e66a32c7f65a0397df","636d07a6832e27e14d925508","null","","","","null","","","","key","16.667813559323232","800","394.5","","","","","","","","","","","","","","","","","","","",""
"psychophysics","188","541668","0.0-16.0-1.5","60459f654004876e609870e9","636d03e66a32c7f65a0397df","636d07a6832e27e14d925508","null","","","","null","","","","key","16.665733333331687","800","394.5","","","","","","","","","","","","","138","1","6","false","","","",""
"psychophysics","189","542451","0.0-16.0-2.5","60459f654004876e609870e9","636d03e66a32c7f65a0397df","636d07a6832e27e14d925508","781.2000000476837","","","","77","","","","key","16.668108695652336","800","394.5","","","","","","","","","","","","","","","","","","","",""
"psychophysics","190","543455","0.0-16.0-0.6","60459f654004876e609870e9","636d03e66a32c7f65a0397df","636d07a6832e27e14d925508","null","","","","null","","","","key","16.66615254237214","800","394.5","","","","","","","","","","","","","","","","","","","",""
"psychophysics","191","543972","0.0-16.0-1.6","60459f654004876e609870e9","636d03e66a32c7f65a0397df","636d07a6832e27e14d925508","null","","","","null","","","","key","16.667299999999038","800","394.5","","","","","","","","","","","","","138","1","4","false","","","",""
"psychophysics","192","544486","0.0-16.0-2.6","60459f654004876e609870e9","636d03e66a32c7f65a0397df","636d07a6832e27e14d925508","507.7999999523163","","","","90","","","","key","16.66489999999758","800","394.5","","","","","","","","","","","","","","","","","","","",""
"psychophysics","193","545488","0.0-16.0-0.7","60459f654004876e609870e9","636d03e66a32c7f65a0397df","636d07a6832e27e14d925508","null","","","","null","","","","key","16.664983050848388","800","394.5","","","","","","","","","","","","","","","","","","","",""
"psychophysics","194","546005","0.0-16.0-1.7","60459f654004876e609870e9","636d03e66a32c7f65a0397df","636d07a6832e27e14d925508","null","","","","null","","","","key","16.667700000002515","800","394.5","","","","","","","","","","","","","138","1","2","false","","","",""
"psychophysics","195","546817","0.0-16.0-2.7","60459f654004876e609870e9","636d03e66a32c7f65a0397df","636d07a6832e27e14d925508","807.7000000476837","","","","77","","","","key","16.66397916666756","800","394.5","","","","","","","","","","","","","","","","","","","",""
"psychophysics","196","547822","0.0-16.0-0.8","60459f654004876e609870e9","636d03e66a32c7f65a0397df","636d07a6832e27e14d925508","null","","","","null","","","","key","16.669423728814284","800","394.5","","","","","","","","","","","","","","","","","","","",""
"psychophysics","197","548333","0.0-16.0-1.8","60459f654004876e609870e9","636d03e66a32c7f65a0397df","636d07a6832e27e14d925508","null","","","","null","","","","key","16.66689999999944","800","394.5","","","","","","","","","","","","","138","-1","5","false","","","",""
"psychophysics","198","549239","0.0-16.0-2.8","60459f654004876e609870e9","636d03e66a32c7f65a0397df","636d07a6832e27e14d925508","903.1000001430511","","","","77","","","","key","16.665358490565406","800","394.5","","","","","","","","","","","","","","","","","","","",""
"psychophysics","199","550248","0.0-16.0-0.9","60459f654004876e609870e9","636d03e66a32c7f65a0397df","636d07a6832e27e14d925508","null","","","","null","","","","key","17.23910344827615","800","394.5","","","","","","","","","","","","","","","","","","","",""
"psychophysics","200","550755","0.0-16.0-1.9","60459f654004876e609870e9","636d03e66a32c7f65a0397df","636d07a6832e27e14d925508","null","","","","null","","","","key","16.66227586206916","800","394.5","","","","","","","","","","","","","138","-1","6","false","","","",""
"psychophysics","201","551659","0.0-16.0-2.9","60459f654004876e609870e9","636d03e66a32c7f65a0397df","636d07a6832e27e14d925508","896.8999998569489","","","","77","","","","key","16.666111111110595","800","394.5","","","","","","","","","","","","","","","","","","","",""
"psychophysics","202","552664","0.0-16.0-0.10","60459f654004876e609870e9","636d03e66a32c7f65a0397df","636d07a6832e27e14d925508","null","","","","null","","","","key","16.667322033897864","800","394.5","","","","","","","","","","","","","","","","","","","",""
"psychophysics","203","553171","0.0-16.0-1.10","60459f654004876e609870e9","636d03e66a32c7f65a0397df","636d07a6832e27e14d925508","null","","","","null","","","","key","16.6672758620698","800","394.5","","","","","","","","","","","","","138","-1","3","false","","","",""
"psychophysics","204","553690","0.0-16.0-2.10","60459f654004876e609870e9","636d03e66a32c7f65a0397df","636d07a6832e27e14d925508","514.2999999523163","","","","90","","","","key","16.66551612903394","800","394.5","","","","","","","","","","","","","","","","","","","",""
"psychophysics","205","554696","0.0-16.0-0.11","60459f654004876e609870e9","636d03e66a32c7f65a0397df","636d07a6832e27e14d925508","null","","","","null","","","","key","16.668983050846983","800","394.5","","","","","","","","","","","","","","","","","","","",""
"psychophysics","206","555205","0.0-16.0-1.11","60459f654004876e609870e9","636d03e66a32c7f65a0397df","636d07a6832e27e14d925508","null","","","","null","","","","key","16.666965517239518","800","394.5","","","","","","","","","","","","","138","-1","4","false","","","",""
"psychophysics","207","555720","0.0-16.0-2.11","60459f654004876e609870e9","636d03e66a32c7f65a0397df","636d07a6832e27e14d925508","508.59999990463257","","","","90","","","","key","16.665933333333427","800","394.5","","","","","","","","","","","","","","","","","","","",""
"psychophysics","208","556735","0.0-16.0-0.12","60459f654004876e609870e9","636d03e66a32c7f65a0397df","636d07a6832e27e14d925508","null","","","","null","","","","key","16.66701666666777","800","394.5","","","","","","","","","","","","","","","","","","","",""
"psychophysics","209","557238","0.0-16.0-1.12","60459f654004876e609870e9","636d03e66a32c7f65a0397df","636d07a6832e27e14d925508","null","","","","null","","","","key","16.67003448275801","800","394.5","","","","","","","","","","","","","138","1","3","false","","","",""
"psychophysics","210","558012","0.0-16.0-2.12","60459f654004876e609870e9","636d03e66a32c7f65a0397df","636d07a6832e27e14d925508","767.7999999523163","","","","90","","","","key","16.66508695652263","800","394.5","","","","","","","","","","","","","","","","","","","",""
"psychophysics","211","559019","0.0-16.0-0.13","60459f654004876e609870e9","636d03e66a32c7f65a0397df","636d07a6832e27e14d925508","null","","","","null","","","","key","16.666457627118582","800","394.5","","","","","","","","","","","","","","","","","","","",""
"psychophysics","212","559523","0.0-16.0-1.13","60459f654004876e609870e9","636d03e66a32c7f65a0397df","636d07a6832e27e14d925508","null","","","","null","","","","key","16.662833333333644","800","394.5","","","","","","","","","","","","","138","1","0","false","","","",""
"psychophysics","213","560312","0.0-16.0-2.13","60459f654004876e609870e9","636d03e66a32c7f65a0397df","636d07a6832e27e14d925508","786.8000001907349","","","","90","","","","key","16.667913043479253","800","394.5","","","","","","","","","","","","","","","","","","","",""
"psychophysics","214","561321","0.0-16.0-0.14","60459f654004876e609870e9","636d03e66a32c7f65a0397df","636d07a6832e27e14d925508","null","","","","null","","","","key","16.667949152544093","800","394.5","","","","","","","","","","","","","","","","","","","",""
"psychophysics","215","561838","0.0-16.0-1.14","60459f654004876e609870e9","636d03e66a32c7f65a0397df","636d07a6832e27e14d925508","null","","","","null","","","","key","16.66350000000093","800","394.5","","","","","","","","","","","","","138","-1","0","false","","","",""
"psychophysics","216","562483","0.0-16.0-2.14","60459f654004876e609870e9","636d03e66a32c7f65a0397df","636d07a6832e27e14d925508","641.8999998569489","","","","90","","","","key","16.66768421052563","800","394.5","","","","","","","","","","","","","","","","","","","",""
"psychophysics","217","563488","0.0-16.0-0.15","60459f654004876e609870e9","636d03e66a32c7f65a0397df","636d07a6832e27e14d925508","null","","","","null","","","","key","16.66584745762767","800","394.5","","","","","","","","","","","","","","","","","","","",""
"psychophysics","218","564001","0.0-16.0-1.15","60459f654004876e609870e9","636d03e66a32c7f65a0397df","636d07a6832e27e14d925508","null","","","","null","","","","key","16.663233333333242","800","394.5","","","","","","","","","","","","","138","-1","6","false","","","",""
"psychophysics","219","565243","0.0-16.0-2.15","60459f654004876e609870e9","636d03e66a32c7f65a0397df","636d07a6832e27e14d925508","1239.5","","","","90","","","","key","16.664662162162916","800","394.5","","","","","","","","","","","","","","","","","","","",""
"psychophysics","220","566254","0.0-16.0-0.16","60459f654004876e609870e9","636d03e66a32c7f65a0397df","636d07a6832e27e14d925508","null","","","","null","","","","key","16.669033898305052","800","394.5","","","","","","","","","","","","","","","","","","","",""
"psychophysics","221","566771","0.0-16.0-1.16","60459f654004876e609870e9","636d03e66a32c7f65a0397df","636d07a6832e27e14d925508","null","","","","null","","","","key","16.664866666666544","800","394.5","","","","","","","","","","","","","138","1","5","false","","","",""
"psychophysics","222","567433","0.0-16.0-2.16","60459f654004876e609870e9","636d03e66a32c7f65a0397df","636d07a6832e27e14d925508","655.2999999523163","","","","90","","","","key","16.6665641025652","800","394.5","","","","","","","","","","","","","","","","","","","",""
"psychophysics","223","568438","0.0-16.0-0.17","60459f654004876e609870e9","636d03e66a32c7f65a0397df","636d07a6832e27e14d925508","null","","","","null","","","","key","16.666762711865022","800","394.5","","","","","","","","","","","","","","","","","","","",""
"psychophysics","224","568954","0.0-16.0-1.17","60459f654004876e609870e9","636d03e66a32c7f65a0397df","636d07a6832e27e14d925508","null","","","","null","","","","key","16.666566666665798","800","394.5","","","","","","","","","","","","","138","-1","2","false","","","",""
"psychophysics","225","569376","0.0-16.0-2.17","60459f654004876e609870e9","636d03e66a32c7f65a0397df","636d07a6832e27e14d925508","416.5","","","","90","","","","key","16.66600000000093","800","394.5","","","","","","","","","","","","","","","","","","","",""
"psychophysics","226","570388","0.0-16.0-0.18","60459f654004876e609870e9","636d03e66a32c7f65a0397df","636d07a6832e27e14d925508","null","","","","null","","","","key","16.667152542372282","800","394.5","","","","","","","","","","","","","","","","","","","",""
"psychophysics","227","570904","0.0-16.0-1.18","60459f654004876e609870e9","636d03e66a32c7f65a0397df","636d07a6832e27e14d925508","null","","","","null","","","","key","16.665833333332557","800","394.5","","","","","","","","","","","","","138","-1","5","false","","","",""
"psychophysics","228","571419","0.0-16.0-2.18","60459f654004876e609870e9","636d03e66a32c7f65a0397df","636d07a6832e27e14d925508","466.5","","","","90","","","","key","17.241655172414852","800","394.5","","","","","","","","","","","","","","","","","","","",""
"psychophysics","229","572433","0.0-16.0-0.19","60459f654004876e609870e9","636d03e66a32c7f65a0397df","636d07a6832e27e14d925508","null","","","","null","","","","key","16.66624999999961","800","394.5","","","","","","","","","","","","","","","","","","","",""
"psychophysics","230","572937","0.0-16.0-1.19","60459f654004876e609870e9","636d03e66a32c7f65a0397df","636d07a6832e27e14d925508","null","","","","null","","","","key","16.668241379308867","800","394.5","","","","","","","","","","","","","138","1","6","false","","","",""
"psychophysics","231","573631","0.0-16.0-2.19","60459f654004876e609870e9","636d03e66a32c7f65a0397df","636d07a6832e27e14d925508","689.3000001907349","","","","77","","","","key","16.663804878049145","800","394.5","","","","","","","","","","","","","","","","","","","",""
"psychophysics","232","574638","0.0-16.0-0.20","60459f654004876e609870e9","636d03e66a32c7f65a0397df","636d07a6832e27e14d925508","null","","","","null","","","","key","16.66925423728673","800","394.5","","","","","","","","","","","","","","","","","","","",""
"psychophysics","233","575154","0.0-16.0-1.20","60459f654004876e609870e9","636d03e66a32c7f65a0397df","636d07a6832e27e14d925508","null","","","","null","","","","key","16.665400000001924","800","394.5","","","","","","","","","","","","","138","-1","4","false","","","",""
"psychophysics","234","576145","0.0-16.0-2.20","60459f654004876e609870e9","636d03e66a32c7f65a0397df","636d07a6832e27e14d925508","985","","","","90","","","","key","16.66598305084853","800","394.5","","","","","","","","","","","","","","","","","","","",""
"psychophysics","235","577154","0.0-16.0-0.21","60459f654004876e609870e9","636d03e66a32c7f65a0397df","636d07a6832e27e14d925508","null","","","","null","","","","key","16.666406779660512","800","394.5","","","","","","","","","","","","","","","","","","","",""
"psychophysics","236","577671","0.0-16.0-1.21","60459f654004876e609870e9","636d03e66a32c7f65a0397df","636d07a6832e27e14d925508","null","","","","null","","","","key","16.666766666667534","800","394.5","","","","","","","","","","","","","138","1","4","false","","","",""
"psychophysics","237","578253","0.0-16.0-2.21","60459f654004876e609870e9","636d03e66a32c7f65a0397df","636d07a6832e27e14d925508","570.7000000476837","","","","90","","","","key","16.664176470589798","800","394.5","","","","","","","","","","","","","","","","","","","",""
"psychophysics","238","579256","0.0-16.0-0.22","60459f654004876e609870e9","636d03e66a32c7f65a0397df","636d07a6832e27e14d925508","null","","","","null","","","","key","16.668633333333613","800","394.5","","","","","","","","","","","","","","","","","","","",""
"psychophysics","239","579771","0.0-16.0-1.22","60459f654004876e609870e9","636d03e66a32c7f65a0397df","636d07a6832e27e14d925508","null","","","","null","","","","key","16.668206896552622","800","394.5","","","","","","","","","","","","","138","1","2","false","","","",""
"psychophysics","240","580146","0.0-16.0-2.22","60459f654004876e609870e9","636d03e66a32c7f65a0397df","636d07a6832e27e14d925508","369.2999999523163","","","","90","","","","key","16.660818181815557","800","394.5","","","","","","","","","","","","","","","","","","","",""
"psychophysics","241","581153","0.0-16.0-0.23","60459f654004876e609870e9","636d03e66a32c7f65a0397df","636d07a6832e27e14d925508","null","","","","null","","","","key","16.66601694915128","800","394.5","","","","","","","","","","","","","","","","","","","",""
"psychophysics","242","581670","0.0-16.0-1.23","60459f654004876e609870e9","636d03e66a32c7f65a0397df","636d07a6832e27e14d925508","null","","","","null","","","","key","16.66589999999851","800","394.5","","","","","","","","","","","","","138","-1","3","false","","","",""
"psychophysics","243","581976","0.0-16.0-2.23","60459f654004876e609870e9","636d03e66a32c7f65a0397df","636d07a6832e27e14d925508","303","","","","90","","","","key","16.666000000000672","800","394.5","","","","","","","","","","","","","","","","","","","",""
"html-keyboard-response","244","626001","0.0-17.0","60459f654004876e609870e9","636d03e66a32c7f65a0397df","636d07a6832e27e14d925508","44023","<p>Well Done !</p><p>Training Complete. Press the spacebar to start.</p><p>DON'T EXIT THE FULL SCREEN MODE</p>","","","32","","","","","","","","","","","","","","","","","","","","","","","","","","",""
"psychophysics","245","629014","0.0-18.0-0.0","60459f654004876e609870e9","636d03e66a32c7f65a0397df","636d07a6832e27e14d925508","null","","","","null","","","","key","16.67150000000062","800","394.5","","","","","","","","","","","","","","","","","","","",""
"psychophysics","246","629519","0.0-18.0-1.0","60459f654004876e609870e9","636d03e66a32c7f65a0397df","636d07a6832e27e14d925508","null","","","","null","","","","key","16.668931034481922","800","394.5","","","","","","","","","","","","","138","1","6","true","","","",""
"psychophysics","247","629940","0.0-18.0-2.0","60459f654004876e609870e9","636d03e66a32c7f65a0397df","636d07a6832e27e14d925508","416.09999990463257","","","","77","","","","key","16.66276000000071","800","394.5","","","","","","","","","","","","","","","","","","","",""
"psychophysics","248","630951","0.0-18.0-0.1","60459f654004876e609870e9","636d03e66a32c7f65a0397df","636d07a6832e27e14d925508","null","","","","null","","","","key","16.95367241379251","800","394.5","","","","","","","","","","","","","","","","","","","",""
"psychophysics","249","631464","0.0-18.0-1.1","60459f654004876e609870e9","636d03e66a32c7f65a0397df","636d07a6832e27e14d925508","null","","","","null","","","","key","16.66836666666592","800","394.5","","","","","","","","","","","","","138","1","3","true","","","",""
"psychophysics","250","631989","0.0-18.0-2.1","60459f654004876e609870e9","636d03e66a32c7f65a0397df","636d07a6832e27e14d925508","519.0999999046326","","","","90","","","","key","16.665870967741697","800","394.5","","","","","","","","","","","","","","","","","","","",""
"psychophysics","251","633001","0.0-18.0-0.2","60459f654004876e609870e9","636d03e66a32c7f65a0397df","636d07a6832e27e14d925508","null","","","","null","","","","key","16.66589830508377","800","394.5","","","","","","","","","","","","","","","","","","","",""
"psychophysics","252","633509","0.0-18.0-1.2","60459f654004876e609870e9","636d03e66a32c7f65a0397df","636d07a6832e27e14d925508","null","","","","null","","","","key","16.66699999999643","800","394.5","","","","","","","","","","","","","138","-1","4","true","","","",""
"psychophysics","253","633955","0.0-18.0-2.2","60459f654004876e609870e9","636d03e66a32c7f65a0397df","636d07a6832e27e14d925508","443.89999985694885","","","","90","","","","key","16.665576923078895","800","394.5","","","","","","","","","","","","","","","","","","","",""
"psychophysics","254","634969","0.0-18.0-0.3","60459f654004876e609870e9","636d03e66a32c7f65a0397df","636d07a6832e27e14d925508","null","","","","null","","","","key","16.667898305086023","800","394.5","","","","","","","","","","","","","","","","","","","",""
"psychophysics","255","635484","0.0-18.0-1.3","60459f654004876e609870e9","636d03e66a32c7f65a0397df","636d07a6832e27e14d925508","null","","","","null","","","","key","16.659500000001085","800","394.5","","","","","","","","","","","","","138","-1","3","true","","","",""
"psychophysics","256","635858","0.0-18.0-2.3","60459f654004876e609870e9","636d03e66a32c7f65a0397df","636d07a6832e27e14d925508","366.19999980926514","","","","90","","","","key","16.671863636361774","800","394.5","","","","","","","","","","","","","","","","","","","",""
"psychophysics","257","636868","0.0-18.0-0.4","60459f654004876e609870e9","636d03e66a32c7f65a0397df","636d07a6832e27e14d925508","null","","","","null","","","","key","16.66820338983049","800","394.5","","","","","","","","","","","","","","","","","","","",""
"psychophysics","258","637385","0.0-18.0-1.4","60459f654004876e609870e9","636d03e66a32c7f65a0397df","636d07a6832e27e14d925508","null","","","","null","","","","key","16.665233333331223","800","394.5","","","","","","","","","","","","","138","-1","0","true","","","",""
"psychophysics","259","637786","0.0-18.0-2.4","60459f654004876e609870e9","636d03e66a32c7f65a0397df","636d07a6832e27e14d925508","395.39999985694885","","","","90","","","","key","16.665999999998704","800","394.5","","","","","","","","","","","","","","","","","","","",""
"psychophysics","260","638793","0.0-18.0-0.5","60459f654004876e609870e9","636d03e66a32c7f65a0397df","636d07a6832e27e14d925508","null","","","","null","","","","key","16.666666666666668","800","394.5","","","","","","","","","","","","","","","","","","","",""
"psychophysics","261","639302","0.0-18.0-1.5","60459f654004876e609870e9","636d03e66a32c7f65a0397df","636d07a6832e27e14d925508","null","","","","null","","","","key","16.66565517241392","800","394.5","","","","","","","","","","","","","138","1","2","true","","","",""
"psychophysics","262","639678","0.0-18.0-2.5","60459f654004876e609870e9","636d03e66a32c7f65a0397df","636d07a6832e27e14d925508","370.89999985694885","","","","90","","","","key","16.665636363635052","800","394.5","","","","","","","","","","","","","","","","","","","",""
"psychophysics","263","640685","0.0-18.0-0.6","60459f654004876e609870e9","636d03e66a32c7f65a0397df","636d07a6832e27e14d925508","null","","","","null","","","","key","17.252999999999528","800","394.5","","","","","","","","","","","","","","","","","","","",""
"psychophysics","264","641202","0.0-18.0-1.6","60459f654004876e609870e9","636d03e66a32c7f65a0397df","636d07a6832e27e14d925508","null","","","","null","","","","key","16.668266666668934","800","394.5","","","","","","","","","","","","","138","1","4","true","","","",""
"psychophysics","265","641666","0.0-18.0-2.6","60459f654004876e609870e9","636d03e66a32c7f65a0397df","636d07a6832e27e14d925508","455.59999990463257","","","","90","","","","key","16.66070370370505","800","394.5","","","","","","","","","","","","","","","","","","","",""
"psychophysics","266","642670","0.0-18.0-0.7","60459f654004876e609870e9","636d03e66a32c7f65a0397df","636d07a6832e27e14d925508","null","","","","null","","","","key","16.667983333333783","800","394.5","","","","","","","","","","","","","","","","","","","",""
"psychophysics","267","643185","0.0-18.0-1.7","60459f654004876e609870e9","636d03e66a32c7f65a0397df","636d07a6832e27e14d925508","null","","","","null","","","","key","16.669965517241508","800","394.5","","","","","","","","","","","","","138","-1","5","true","","","",""
"psychophysics","268","643626","0.0-18.0-2.7","60459f654004876e609870e9","636d03e66a32c7f65a0397df","636d07a6832e27e14d925508","434.5","","","","90","","","","key","16.66603846153549","800","394.5","","","","","","","","","","","","","","","","","","","",""
"psychophysics","269","644635","0.0-18.0-0.8","60459f654004876e609870e9","636d03e66a32c7f65a0397df","636d07a6832e27e14d925508","null","","","","null","","","","key","16.667237288135073","800","394.5","","","","","","","","","","","","","","","","","","","",""
"psychophysics","270","645151","0.0-18.0-1.8","60459f654004876e609870e9","636d03e66a32c7f65a0397df","636d07a6832e27e14d925508","null","","","","null","","","","key","16.660900000001615","800","394.5","","","","","","","","","","","","","138","-1","6","true","","","",""
"psychophysics","271","645559","0.0-18.0-2.8","60459f654004876e609870e9","636d03e66a32c7f65a0397df","636d07a6832e27e14d925508","405.19999980926514","","","","90","","","","key","16.673666666669305","800","394.5","","","","","","","","","","","","","","","","","","","",""
"psychophysics","272","646566","0.0-18.0-0.9","60459f654004876e609870e9","636d03e66a32c7f65a0397df","636d07a6832e27e14d925508","null","","","","null","","","","key","16.66822033898384","800","394.5","","","","","","","","","","","","","","","","","","","",""
"psychophysics","273","647082","0.0-18.0-1.9","60459f654004876e609870e9","636d03e66a32c7f65a0397df","636d07a6832e27e14d925508","null","","","","null","","","","key","16.665033333333366","800","394.5","","","","","","","","","","","","","138","1","5","true","","","",""
"psychophysics","274","647348","0.0-18.0-2.9","60459f654004876e609870e9","636d03e66a32c7f65a0397df","636d07a6832e27e14d925508","262.5","","","","90","","","","key","16.661266666666293","800","394.5","","","","","","","","","","","","","","","","","","","",""
"psychophysics","275","648351","0.0-18.0-0.10","60459f654004876e609870e9","636d03e66a32c7f65a0397df","636d07a6832e27e14d925508","null","","","","null","","","","key","16.669203389828663","800","394.5","","","","","","","","","","","","","","","","","","","",""
"psychophysics","276","648868","0.0-18.0-1.10","60459f654004876e609870e9","636d03e66a32c7f65a0397df","636d07a6832e27e14d925508","null","","","","null","","","","key","16.669599999999626","800","394.5","","","","","","","","","","","","","138","-1","2","true","","","",""
"psychophysics","277","649364","0.0-18.0-2.10","60459f654004876e609870e9","636d03e66a32c7f65a0397df","636d07a6832e27e14d925508","483","","","","90","","","","key","16.664448275861073","800","394.5","","","","","","","","","","","","","","","","","","","",""
"psychophysics","278","650368","0.0-18.0-0.11","60459f654004876e609870e9","636d03e66a32c7f65a0397df","636d07a6832e27e14d925508","null","","","","null","","","","key","16.66581355932295","800","394.5","","","","","","","","","","","","","","","","","","","",""
"psychophysics","279","650884","0.0-18.0-1.11","60459f654004876e609870e9","636d03e66a32c7f65a0397df","636d07a6832e27e14d925508","null","","","","null","","","","key","16.665733333331687","800","394.5","","","","","","","","","","","","","138","1","0","true","","","",""
"psychophysics","280","651553","0.0-18.0-2.11","60459f654004876e609870e9","636d03e66a32c7f65a0397df","636d07a6832e27e14d925508","662.5","","","","90","","","","key","16.670435897435826","800","394.5","","","","","","","","","","","","","","","","","","","",""
"psychophysics","281","652567","0.0-18.0-0.12","60459f654004876e609870e9","636d03e66a32c7f65a0397df","636d07a6832e27e14d925508","null","","","","null","","","","key","16.66431666666758","800","394.5","","","","","","","","","","","","","","","","","","","",""
"psychophysics","282","653085","0.0-18.0-1.12","60459f654004876e609870e9","636d03e66a32c7f65a0397df","636d07a6832e27e14d925508","null","","","","null","","","","key","16.672000000001088","800","394.5","","","","","","","","","","","","","138","1","6","true","","","",""
"psychophysics","283","653687","0.0-18.0-2.12","60459f654004876e609870e9","636d03e66a32c7f65a0397df","636d07a6832e27e14d925508","596.5","","","","90","","","","key","16.66634285714411","800","394.5","","","","","","","","","","","","","","","","","","","",""
"psychophysics","284","654699","0.0-18.0-0.13","60459f654004876e609870e9","636d03e66a32c7f65a0397df","636d07a6832e27e14d925508","null","","","","null","","","","key","16.66571666666617","800","394.5","","","","","","","","","","","","","","","","","","","",""
"psychophysics","285","655209","0.0-18.0-1.13","60459f654004876e609870e9","636d03e66a32c7f65a0397df","636d07a6832e27e14d925508","null","","","","null","","","","key","16.66536666666701","800","394.5","","","","","","","","","","","","","138","-1","3","true","","","",""
"psychophysics","286","655523","0.0-18.0-2.13","60459f654004876e609870e9","636d03e66a32c7f65a0397df","636d07a6832e27e14d925508","311.7000000476837","","","","90","","","","key","16.661555555552088","800","394.5","","","","","","","","","","","","","","","","","","","",""
"psychophysics","287","656533","0.0-18.0-0.14","60459f654004876e609870e9","636d03e66a32c7f65a0397df","636d07a6832e27e14d925508","null","","","","null","","","","key","16.665966101695183","800","394.5","","","","","","","","","","","","","","","","","","","",""
"psychophysics","288","657036","0.0-18.0-1.14","60459f654004876e609870e9","636d03e66a32c7f65a0397df","636d07a6832e27e14d925508","null","","","","null","","","","key","16.672400000000682","800","394.5","","","","","","","","","","","","","138","1","0","true","","","",""
"psychophysics","289","657389","0.0-18.0-2.14","60459f654004876e609870e9","636d03e66a32c7f65a0397df","636d07a6832e27e14d925508","350","","","","90","","","","key","16.661149999999907","800","394.5","","","","","","","","","","","","","","","","","","","",""
"psychophysics","290","658399","0.0-18.0-0.15","60459f654004876e609870e9","636d03e66a32c7f65a0397df","636d07a6832e27e14d925508","null","","","","null","","","","key","16.669271186440078","800","394.5","","","","","","","","","","","","","","","","","","","",""
"psychophysics","291","658902","0.0-18.0-1.15","60459f654004876e609870e9","636d03e66a32c7f65a0397df","636d07a6832e27e14d925508","null","","","","null","","","","key","16.66746666666586","800","394.5","","","","","","","","","","","","","138","1","3","true","","","",""
"psychophysics","292","659183","0.0-18.0-2.15","60459f654004876e609870e9","636d03e66a32c7f65a0397df","636d07a6832e27e14d925508","277.2999999523163","","","","90","","","","key","17.855857142862597","800","394.5","","","","","","","","","","","","","","","","","","","",""
"psychophysics","293","660193","0.0-18.0-0.16","60459f654004876e609870e9","636d03e66a32c7f65a0397df","636d07a6832e27e14d925508","null","","","","null","","","","key","16.666483333332387","800","394.5","","","","","","","","","","","","","","","","","","","",""
"psychophysics","294","660700","0.0-18.0-1.16","60459f654004876e609870e9","636d03e66a32c7f65a0397df","636d07a6832e27e14d925508","null","","","","null","","","","key","16.663379310345245","800","394.5","","","","","","","","","","","","","138","-1","5","true","","","",""
"psychophysics","295","660936","0.0-18.0-2.16","60459f654004876e609870e9","636d03e66a32c7f65a0397df","636d07a6832e27e14d925508","229.20000004768372","","","","77","","","","key","16.65371428571442","800","394.5","","","","","","","","","","","","","","","","","","","",""
"psychophysics","296","661943","0.0-18.0-0.17","60459f654004876e609870e9","636d03e66a32c7f65a0397df","636d07a6832e27e14d925508","null","","","","null","","","","key","16.6690508474584","800","394.5","","","","","","","","","","","","","","","","","","","",""
"psychophysics","297","662450","0.0-18.0-1.17","60459f654004876e609870e9","636d03e66a32c7f65a0397df","636d07a6832e27e14d925508","null","","","","null","","","","key","16.66586206896343","800","394.5","","","","","","","","","","","","","138","-1","4","true","","","",""
"psychophysics","298","663291","0.0-18.0-2.17","60459f654004876e609870e9","636d03e66a32c7f65a0397df","636d07a6832e27e14d925508","831","","","","77","","","","key","16.66621999999974","800","394.5","","","","","","","","","","","","","","","","","","","",""
"psychophysics","299","664300","0.0-18.0-0.18","60459f654004876e609870e9","636d03e66a32c7f65a0397df","636d07a6832e27e14d925508","null","","","","null","","","","key","16.664864406780875","800","394.5","","","","","","","","","","","","","","","","","","","",""
"psychophysics","300","664817","0.0-18.0-1.18","60459f654004876e609870e9","636d03e66a32c7f65a0397df","636d07a6832e27e14d925508","null","","","","null","","","","key","16.66756666666673","800","394.5","","","","","","","","","","","","","138","1","4","true","","","",""
"psychophysics","301","665445","0.0-18.0-2.18","60459f654004876e609870e9","636d03e66a32c7f65a0397df","636d07a6832e27e14d925508","622.5","","","","90","","","","key","16.664756756757285","800","394.5","","","","","","","","","","","","","","","","","","","",""
"psychophysics","302","666449","0.0-18.0-0.19","60459f654004876e609870e9","636d03e66a32c7f65a0397df","636d07a6832e27e14d925508","null","","","","null","","","","key","16.66528813559483","800","394.5","","","","","","","","","","","","","","","","","","","",""
"psychophysics","303","666952","0.0-18.0-1.19","60459f654004876e609870e9","636d03e66a32c7f65a0397df","636d07a6832e27e14d925508","null","","","","null","","","","key","16.669266666665983","800","394.5","","","","","","","","","","","","","138","-1","2","true","","","",""
"psychophysics","304","667468","0.0-18.0-2.19","60459f654004876e609870e9","636d03e66a32c7f65a0397df","636d07a6832e27e14d925508","512.7000000476837","","","","90","","","","key","16.66713793103278","800","394.5","","","","","","","","","","","","","","","","","","","",""
"psychophysics","305","668480","0.0-18.0-0.20","60459f654004876e609870e9","636d03e66a32c7f65a0397df","636d07a6832e27e14d925508","null","","","","null","","","","key","16.66233333333512","800","394.5","","","","","","","","","","","","","","","","","","","",""
"psychophysics","306","668992","0.0-18.0-1.20","60459f654004876e609870e9","636d03e66a32c7f65a0397df","636d07a6832e27e14d925508","null","","","","null","","","","key","16.66689999999944","800","394.5","","","","","","","","","","","","","138","1","2","true","","","",""
"psychophysics","307","669781","0.0-18.0-2.20","60459f654004876e609870e9","636d03e66a32c7f65a0397df","636d07a6832e27e14d925508","786","","","","90","","","","key","16.663652173914116","800","394.5","","","","","","","","","","","","","","","","","","","",""
"psychophysics","308","670783","0.0-18.0-0.21","60459f654004876e609870e9","636d03e66a32c7f65a0397df","636d07a6832e27e14d925508","null","","","","null","","","","key","16.66855932203303","800","394.5","","","","","","","","","","","","","","","","","","","",""
"psychophysics","309","671299","0.0-18.0-1.21","60459f654004876e609870e9","636d03e66a32c7f65a0397df","636d07a6832e27e14d925508","null","","","","null","","","","key","16.663199999998323","800","394.5","","","","","","","","","","","","","138","-1","6","true","","","",""
"psychophysics","310","671891","0.0-18.0-2.21","60459f654004876e609870e9","636d03e66a32c7f65a0397df","636d07a6832e27e14d925508","588.9000000953674","","","","90","","","","key","16.667857142857144","800","394.5","","","","","","","","","","","","","","","","","","","",""
"psychophysics","311","672900","0.0-18.0-0.22","60459f654004876e609870e9","636d03e66a32c7f65a0397df","636d07a6832e27e14d925508","null","","","","null","","","","key","16.66786440677933","800","394.5","","","","","","","","","","","","","","","","","","","",""
"psychophysics","312","673416","0.0-18.0-1.22","60459f654004876e609870e9","636d03e66a32c7f65a0397df","636d07a6832e27e14d925508","null","","","","null","","","","key","16.66580000000152","800","394.5","","","","","","","","","","","","","138","-1","0","true","","","",""
"psychophysics","313","673824","0.0-18.0-2.22","60459f654004876e609870e9","636d03e66a32c7f65a0397df","636d07a6832e27e14d925508","397.40000009536743","","","","90","","","","key","16.66616666666717","800","394.5","","","","","","","","","","","","","","","","","","","",""
"psychophysics","314","674831","0.0-18.0-0.23","60459f654004876e609870e9","636d03e66a32c7f65a0397df","636d07a6832e27e14d925508","null","","","","null","","","","key","16.667186440677003","800","394.5","","","","","","","","","","","","","","","","","","","",""
"psychophysics","315","675345","0.0-18.0-1.23","60459f654004876e609870e9","636d03e66a32c7f65a0397df","636d07a6832e27e14d925508","null","","","","null","","","","key","16.667900000000373","800","394.5","","","","","","","","","","","","","138","1","5","true","","","",""
"psychophysics","316","675788","0.0-18.0-2.23","60459f654004876e609870e9","636d03e66a32c7f65a0397df","636d07a6832e27e14d925508","441.59999990463257","","","","90","","","","key","16.664423076923974","800","394.5","","","","","","","","","","","","","","","","","","","",""
"psychophysics","317","676800","0.0-18.0-0.24","60459f654004876e609870e9","636d03e66a32c7f65a0397df","636d07a6832e27e14d925508","null","","","","null","","","","key","16.666169491525487","800","394.5","","","","","","","","","","","","","","","","","","","",""
"psychophysics","318","677316","0.0-18.0-1.24","60459f654004876e609870e9","636d03e66a32c7f65a0397df","636d07a6832e27e14d925508","null","","","","null","","","","key","16.66543333333296","800","394.5","","","","","","","","","","","","","138","1","3","true","","","",""
"psychophysics","319","677744","0.0-18.0-2.24","60459f654004876e609870e9","636d03e66a32c7f65a0397df","636d07a6832e27e14d925508","414.2999999523163","","","","90","","","","key","16.65976000000257","800","394.5","","","","","","","","","","","","","","","","","","","",""
"psychophysics","320","678749","0.0-18.0-0.25","60459f654004876e609870e9","636d03e66a32c7f65a0397df","636d07a6832e27e14d925508","null","","","","null","","","","key","16.667491525423443","800","394.5","","","","","","","","","","","","","","","","","","","",""
"psychophysics","321","679252","0.0-18.0-1.25","60459f654004876e609870e9","636d03e66a32c7f65a0397df","636d07a6832e27e14d925508","null","","","","null","","","","key","16.670433333333737","800","394.5","","","","","","","","","","","","","138","1","2","true","","","",""
"psychophysics","322","679873","0.0-18.0-2.25","60459f654004876e609870e9","636d03e66a32c7f65a0397df","636d07a6832e27e14d925508","617.4000000953674","","","","77","","","","key","16.664222222222534","800","394.5","","","","","","","","","","","","","","","","","","","",""
"psychophysics","323","680880","0.0-18.0-0.26","60459f654004876e609870e9","636d03e66a32c7f65a0397df","636d07a6832e27e14d925508","null","","","","null","","","","key","16.664457627118296","800","394.5","","","","","","","","","","","","","","","","","","","",""
"psychophysics","324","681383","0.0-18.0-1.26","60459f654004876e609870e9","636d03e66a32c7f65a0397df","636d07a6832e27e14d925508","null","","","","null","","","","key","16.670000000001767","800","394.5","","","","","","","","","","","","","138","-1","6","true","","","",""
"psychophysics","325","681804","0.0-18.0-2.26","60459f654004876e609870e9","636d03e66a32c7f65a0397df","636d07a6832e27e14d925508","415.7000000476837","","","","90","","","","key","16.666400000001303","800","394.5","","","","","","","","","","","","","","","","","","","",""
"psychophysics","326","682816","0.0-18.0-0.27","60459f654004876e609870e9","636d03e66a32c7f65a0397df","636d07a6832e27e14d925508","null","","","","null","","","","key","16.95489655172348","800","394.5","","","","","","","","","","","","","","","","","","","",""
"psychophysics","327","683329","0.0-18.0-1.27","60459f654004876e609870e9","636d03e66a32c7f65a0397df","636d07a6832e27e14d925508","null","","","","null","","","","key","16.66633333333302","800","394.5","","","","","","","","","","","","","138","-1","5","true","","","",""
"psychophysics","328","683864","0.0-18.0-2.27","60459f654004876e609870e9","636d03e66a32c7f65a0397df","636d07a6832e27e14d925508","528.5","","","","90","","","","key","16.66393548387268","800","394.5","","","","","","","","","","","","","","","","","","","",""
"psychophysics","329","684866","0.0-18.0-0.28","60459f654004876e609870e9","636d03e66a32c7f65a0397df","636d07a6832e27e14d925508","null","","","","null","","","","key","16.667745762711817","800","394.5","","","","","","","","","","","","","","","","","","","",""
"psychophysics","330","685383","0.0-18.0-1.28","60459f654004876e609870e9","636d03e66a32c7f65a0397df","636d07a6832e27e14d925508","null","","","","null","","","","key","16.665566666664866","800","394.5","","","","","","","","","","","","","138","1","6","true","","","",""
"psychophysics","331","687345","0.0-18.0-2.28","60459f654004876e609870e9","636d03e66a32c7f65a0397df","636d07a6832e27e14d925508","1956.3999998569489","","","","77","","","","key","16.666615384615934","800","394.5","","","","","","","","","","","","","","","","","","","",""
"psychophysics","332","688349","0.0-18.0-0.29","60459f654004876e609870e9","636d03e66a32c7f65a0397df","636d07a6832e27e14d925508","null","","","","null","","","","key","16.66733898305121","800","394.5","","","","","","","","","","","","","","","","","","","",""
"psychophysics","333","688864","0.0-18.0-1.29","60459f654004876e609870e9","636d03e66a32c7f65a0397df","636d07a6832e27e14d925508","null","","","","null","","","","key","16.662466666665082","800","394.5","","","","","","","","","","","","","138","1","5","true","","","",""
