"trial_type","trial_index","time_elapsed","internal_node_id","PROLIFIC_PID","STUDY_ID","SESSION_ID","rt","stimulus","button_pressed","success","key_press","responses","isData","view_history","response_type","avg_frame_time","center_x","center_y","isSC","stim_side","trial_luminance","step_size","nReversal","correct","prev_ans","isThreshold","SC_threshold","final_threshold","isLuminance","FF_luminance","luminance","stimSide","ISInt","isFF","question_order","isSPQ","isCAPS","isAQ"
"pavlovia","0","8","0.0-0.0","5777d392d8e8880001b3041d","636d03e66a32c7f65a0397df","636d0825cc58e4f3afd9d6d4","","","","","","","","","","","","","","","","","","","","","","","","","","","","","","","",""
"html-button-response","1","3235","0.0-1.0","5777d392d8e8880001b3041d","636d03e66a32c7f65a0397df","636d0825cc58e4f3afd9d6d4","3224.4000000953674","<div style='background-color: white; width:60%; margin: auto; padding: 50px; text-align: justify; text-justify: inter-word; margin-bottom: 20px;'><h1 style='text-align: center;'>Consent Form</h1><p>Please read this consent form carefully before deciding whether you would like to participate in this study. You have to be 18 years old or older to participate to this study.</p><p style='text-decoration: underline;'>Participation is voluntary:</p><p>It is your choice whether or not to participate in this research. If you choose to participate, you may change your mind and leave the study at any time. Refusal to participate or stopping your participation will involve no penalty or loss of benefits to which you are otherwise entitled.</p><p style='text-decoration: underline;'>Purpose of the Study:</p><p>To understand the mechanisms underlying human perception.</p><p style='text-decoration: underline;'>What you will do in this study:</p><p>You will be presented with a series of visual images and then you will press buttons on the keyboard of your computer to respond to simple questions about the images (e.g. Were one or two images presented?). In addition, you will be asked to complete a questionnaire concerning your beliefs and everyday mental and perceptual experiences.'</p><p style='text-decoration: underline;'> Time Required:</p><p>The study will take 40 minutes to complete. </p><p style='text-decoration: underline;'>Risks:</p><p>There are no anticipated risks associated with participating in this study that are beyond those experienced in everyday life. </p><p style='text-decoration: underline;'>Benefits:</p><p>There are no benefits to you in participating in the study. However, this study may lead to a better understanding of how different kinds of visual information are used.</p><p style='text-decoration: underline;'>Compensation:</p><p>You will be paid US$6.6/hour. </p><p style='text-decoration: underline;'>Privacy and Confidentiality:</p><p>Your participation in this study will be anonymous. No personal information about your name or identity will be asked or recorded. This anonymous data will be stored for several years and may be used for a variety of research purposes. The overall results of the study may be published, or the data files may be shared with other researchers, but your identity will not be revealed in any way. The online services we are using for this study may temporarily store your data, but this data will be downloaded and then promptly deleted from those services.Your data will not be permanently associated with your name, IP address, or any other identifiable information (e.g., your information will only be connected to your payment, not to any of your responses), though they may be temporarily stored together before we download and separate them. Even so, no guarantee of internet survey security can be given because, although unlikely, transmissions can be intercepted and IP addresses can be identified. The anonymous data may be shared publicly (for example, in conjunction with a resulting academic publication).</p><p style='text-decoration: underline;'>Participation and Withdrawal:</p><p>Your participation in this study is completely voluntary. You may stop responding to the stimuli or stop answering questions if you so choose and without penalty by exiting the full screen mode, closing this tab of your browser or redirecting it to a different website.</p><p style='text-decoration: underline;'>Contact Info of the Researcher: </p><p>If you have questions about this study, or if you would like to talk to the research team, please contact David Melcher (david.melcher@nyu.edu, md5050@nyu.edu) at the Perception and Active Cognition Laboratory, New York University Abu Dhabi, Computational Research Building, Saadiyat Island, Abu Dhabi, UAE.This research has been reviewed by the New York University Abu Dhabi Institutional Review Board (NYUAD IRB). To contact about your rights in this research, for questions, suggestions, or complaints that are not addressed by the researchers, please email IRBnyuad@nyu.edu, or call the NYUAD IRB at +971 2 628 4313. </p></div>","0","","","","","","","","","","","","","","","","","","","","","","","","","","","","",""
"fullscreen","2","6440","0.0-2.0","5777d392d8e8880001b3041d","636d03e66a32c7f65a0397df","636d0825cc58e4f3afd9d6d4","","","","true","","","","","","","","","","","","","","","","","","","","","","","","","","","",""
"html-keyboard-response","3","23267","0.0-3.0","5777d392d8e8880001b3041d","636d03e66a32c7f65a0397df","636d0825cc58e4f3afd9d6d4","16823.800000190735","<p>Welcome !</p><p>READ CAREFULLY THE FOLLOWING INDICATIONS:</p><p>From this moment you have ~40 minutes to complete the experiment.</p><p>During the experiment you will be prompted to take several breaks. Each break should not last longer than 2-3 minutes.</p><p>Make sure that your computer is plugged in and it's not running on battery power, even if the battery is already fully charged.</p><p>Turn off your phone and music, make sure that you are in a quiet room and that you will not be distracted for the next hour.</p><p>Failure to comply with the instructions and indications provided during the experiment will most likely result in the rejection of your data.<p>Press the spacebar to start.</p>","","","32","","","","","","","","","","","","","","","","","","","","","","","","","","",""
"survey-html-form","4","35858","0.0-4.0","5777d392d8e8880001b3041d","636d03e66a32c7f65a0397df","636d0825cc58e4f3afd9d6d4","12587.099999904633","","","","","{""age"":""43"",""sex"":""F""}","true","","","","","","","","","","","","","","","","","","","","","","","","",""
"instructions","5","124999","0.0-5.0","5777d392d8e8880001b3041d","636d03e66a32c7f65a0397df","636d0825cc58e4f3afd9d6d4","89139.29999995232","","","","","","","[{""page_index"":0,""viewing_time"":56443.200000047684},{""page_index"":1,""viewing_time"":24047.599999904633},{""page_index"":2,""viewing_time"":8647.900000095367}]","","","","","","","","","","","","","","","","","","","","","","","",""
"psychophysics","6","129786","0.0-6.0-0.0","5777d392d8e8880001b3041d","636d03e66a32c7f65a0397df","636d0825cc58e4f3afd9d6d4","3756.899999856949","","","","39","","","","key","16.666641114982532","800","378.5","true","1","180","30","0","-1","","","","","","","","","","","","","",""
"psychophysics","7","131209","0.0-6.0-0.1","5777d392d8e8880001b3041d","636d03e66a32c7f65a0397df","636d0825cc58e4f3afd9d6d4","414","","","","39","","","","key","16.667211764706092","800","378.5","true","1","180","30","0","-1","-1","","","","","","","","","","","","",""
"psychophysics","8","132360","0.0-6.0-0.2","5777d392d8e8880001b3041d","636d03e66a32c7f65a0397df","636d0825cc58e4f3afd9d6d4","140","","","","37","","","","key","16.66663235294083","800","378.5","true","-1","150","30","0","-1","-1","","","","","","","","","","","","",""
"psychophysics","9","133521","0.0-6.0-0.3","5777d392d8e8880001b3041d","636d03e66a32c7f65a0397df","636d0825cc58e4f3afd9d6d4","149.79999995231628","","","","37","","","","key","16.666749999999677","800","378.5","true","-1","150","30","0","-1","-1","","","","","","","","","","","","",""
"psychophysics","10","135815","0.0-6.0-0.4","5777d392d8e8880001b3041d","636d03e66a32c7f65a0397df","636d0825cc58e4f3afd9d6d4","1278.5","","","","39","","","","key","16.789750000000126","800","378.5","true","-1","129","24","1","1","-1","","","","","","","","","","","","",""
"psychophysics","11","136967","0.0-6.0-0.5","5777d392d8e8880001b3041d","636d03e66a32c7f65a0397df","636d0825cc58e4f3afd9d6d4","147.09999990463257","","","","39","","","","key","16.667102941176648","800","378.5","true","1","153","24","1","-1","1","","","","","","","","","","","","",""
"psychophysics","12","138127","0.0-6.0-0.6","5777d392d8e8880001b3041d","636d03e66a32c7f65a0397df","636d0825cc58e4f3afd9d6d4","153.20000004768372","","","","39","","","","key","16.66807246376782","800","378.5","true","1","153","19.2","2","-1","-1","","","","","","","","","","","","",""
"psychophysics","13","141675","0.0-6.0-0.7","5777d392d8e8880001b3041d","636d03e66a32c7f65a0397df","636d0825cc58e4f3afd9d6d4","2543.0999999046326","","","","39","","","","key","16.666311320754726","800","378.5","true","1","133.8","19.2","2","-1","-1","","","","","","","","","","","","",""
"psychophysics","14","143943","0.0-6.0-0.8","5777d392d8e8880001b3041d","636d03e66a32c7f65a0397df","636d0825cc58e4f3afd9d6d4","1256.2999999523163","","","","39","","","","key","16.667000000000094","800","378.5","true","1","133.8","19.2","2","-1","-1","","","","","","","","","","","","",""
"psychophysics","15","145799","0.0-6.0-0.9","5777d392d8e8880001b3041d","636d03e66a32c7f65a0397df","636d0825cc58e4f3afd9d6d4","845.7999999523163","","","","39","","","","key","16.666609090909002","800","378.5","true","-1","129","15.36","3","1","-1","","","","","","","","","","","","",""
"psychophysics","16","146951","0.0-6.0-0.10","5777d392d8e8880001b3041d","636d03e66a32c7f65a0397df","636d0825cc58e4f3afd9d6d4","147.90000009536743","","","","39","","","","key","16.667279411764707","800","378.5","true","1","144.36","15.36","3","-1","1","","","","","","","","","","","","",""
"psychophysics","17","148119","0.0-6.0-0.11","5777d392d8e8880001b3041d","636d03e66a32c7f65a0397df","636d0825cc58e4f3afd9d6d4","161.5","","","","37","","","","key","16.667768115942042","800","378.5","true","-1","144.36","12.287999999999998","4","-1","-1","","","","","","","","","","","","",""
"psychophysics","18","151816","0.0-6.0-0.12","5777d392d8e8880001b3041d","636d03e66a32c7f65a0397df","636d0825cc58e4f3afd9d6d4","2679.5","","","","39","","","","key","16.667108597285118","800","378.5","true","1","132.072","12.287999999999998","4","-1","-1","","","","","","","","","","","","",""
"psychophysics","19","153799","0.0-6.0-0.13","5777d392d8e8880001b3041d","636d03e66a32c7f65a0397df","636d0825cc58e4f3afd9d6d4","976.3000001907349","","","","39","","","","key","16.667042372881443","800","378.5","true","1","132.072","12.287999999999998","4","-1","-1","","","","","","","","","","","","",""
"psychophysics","20","156175","0.0-6.0-0.14","5777d392d8e8880001b3041d","636d03e66a32c7f65a0397df","636d0825cc58e4f3afd9d6d4","1372.1999998092651","","","","39","","","","key","16.66666197183097","800","378.5","true","1","129","12.287999999999998","4","-1","-1","","","","","","","","","","","","",""
"psychophysics","21","159335","0.0-6.0-0.15","5777d392d8e8880001b3041d","636d03e66a32c7f65a0397df","636d0825cc58e4f3afd9d6d4","2152.399999856949","","","","39","","","","key","16.66633510638302","800","378.5","true","-1","129","9.8304","5","1","-1","","","","","","","","","","","","",""
"psychophysics","22","160759","0.0-6.0-0.16","5777d392d8e8880001b3041d","636d03e66a32c7f65a0397df","636d0825cc58e4f3afd9d6d4","407.09999990463257","","","","39","","","","key","16.66691764705876","800","378.5","true","1","138.8304","9.8304","5","-1","1","","","","","","","","","","","","",""
"psychophysics","23","162495","0.0-6.0-0.17","5777d392d8e8880001b3041d","636d03e66a32c7f65a0397df","636d0825cc58e4f3afd9d6d4","728.2000000476837","","","","37","","","","key","16.665349514563275","800","378.5","true","-1","138.8304","7.864319999999999","6","-1","-1","","","","","","","","","","","","",""
"psychophysics","24","164320","0.0-6.0-0.18","5777d392d8e8880001b3041d","636d03e66a32c7f65a0397df","636d0825cc58e4f3afd9d6d4","816.5","","","","39","","","","key","16.66715740740754","800","378.5","true","1","130.96608","7.864319999999999","6","-1","-1","","","","","","","","","","","","",""
"psychophysics","25","165959","0.0-6.0-0.19","5777d392d8e8880001b3041d","636d03e66a32c7f65a0397df","636d0825cc58e4f3afd9d6d4","624.1000001430511","","","","39","","","","key","16.666418367347024","800","378.5","true","-1","130.96608","6.291456","7","1","-1","","","","","","","","","","","","",""
"psychophysics","26","167158","0.0-6.0-0.20","5777d392d8e8880001b3041d","636d03e66a32c7f65a0397df","636d0825cc58e4f3afd9d6d4","189","","","","37","","","","key","16.66591549295773","800","378.5","true","-1","137.25753600000002","6.291456","7","-1","1","","","","","","","","","","","","",""
"psychophysics","27","168327","0.0-6.0-0.21","5777d392d8e8880001b3041d","636d03e66a32c7f65a0397df","636d0825cc58e4f3afd9d6d4","161.09999990463257","","","","37","","","","key","16.667739130434686","800","378.5","true","-1","137.25753600000002","5.033164800000001","8","-1","-1","","","","","","","","","","","","",""
"psychophysics","28","171177","0.0-6.0-0.22","5777d392d8e8880001b3041d","636d03e66a32c7f65a0397df","636d0825cc58e4f3afd9d6d4","1840.8999998569489","","","","39","","","","key","16.66616666666665","800","378.5","true","1","132.2243712","5.033164800000001","8","-1","-1","","","","","","","","","","","","",""
"psychophysics","29","172924","0.0-6.0-0.23","5777d392d8e8880001b3041d","636d03e66a32c7f65a0397df","636d0825cc58e4f3afd9d6d4","737.5","","","","39","","","","key","16.666707547169832","800","378.5","true","-1","132.2243712","4.0265318400000005","9","1","-1","","","","","","","","","","","","",""
"psychophysics","30","174135","0.0-6.0-0.24","5777d392d8e8880001b3041d","636d03e66a32c7f65a0397df","636d0825cc58e4f3afd9d6d4","198.59999990463257","","","","39","","","","key","16.66695774647876","800","378.5","true","1","136.25090304","4.0265318400000005","9","-1","1","","","","","","","","","","","","",""
"psychophysics","31","175663","0.0-6.0-0.25","5777d392d8e8880001b3041d","636d03e66a32c7f65a0397df","636d0825cc58e4f3afd9d6d4","509.60000014305115","","","","37","","","","key","16.666406593406712","800","378.5","true","-1","136.25090304","3.2212254720000004","10","-1","-1","","","","","","","","","","","","",""
"psychophysics","32","177825","0.0-6.0-0.26","5777d392d8e8880001b3041d","636d03e66a32c7f65a0397df","636d0825cc58e4f3afd9d6d4","1154.9000000953674","","","","39","","","","key","16.797539062499936","800","378.5","true","-1","133.029677568","2.5769803776000004","11","1","-1","","","","","","","","","","","","",""
"psychophysics","33","179824","0.0-6.0-0.27","5777d392d8e8880001b3041d","636d03e66a32c7f65a0397df","636d0825cc58e4f3afd9d6d4","988","","","","39","","","","key","16.666983193277428","800","378.5","true","-1","135.6066579456","2.5769803776000004","11","1","1","","","","","","","","","","","","",""
"psychophysics","34","180967","0.0-6.0-0.28","5777d392d8e8880001b3041d","636d03e66a32c7f65a0397df","636d0825cc58e4f3afd9d6d4","130.5","","","","37","","","","key","16.66708955223891","800","378.5","true","-1","138.1836383232","2.5769803776000004","11","-1","1","","","","","","","","","","","","",""
"psychophysics","35","181983","0.0-6.0-0.29","5777d392d8e8880001b3041d","636d03e66a32c7f65a0397df","636d0825cc58e4f3afd9d6d4","13.399999856948853","","","","39","","","","key","16.66700000000031","800","378.5","true","1","138.1836383232","2.0615843020800004","12","-1","-1","","","","","","","","","","","","",""
"psychophysics","36","183143","0.0-6.0-0.30","5777d392d8e8880001b3041d","636d03e66a32c7f65a0397df","636d0825cc58e4f3afd9d6d4","154.29999995231628","","","","39","","","","key","16.667391304347657","800","378.5","true","1","136.12205402112","2.0615843020800004","12","-1","-1","","","","","","","","","","","","",""
"psychophysics","37","184926","0.0-6.0-0.31","5777d392d8e8880001b3041d","636d03e66a32c7f65a0397df","636d0825cc58e4f3afd9d6d4","777.7999999523163","","","","39","","","","key","16.66668867924523","800","378.5","true","-1","136.12205402112","1.6492674416640005","13","1","-1","","","","","","","","","","","","",""
"psychophysics","38","186041","0.0-6.0-0.32","5777d392d8e8880001b3041d","636d03e66a32c7f65a0397df","636d0825cc58e4f3afd9d6d4","105.20000004768372","","","","37","","","","key","16.66756060606029","800","378.5","true","-1","137.771321462784","1.6492674416640005","13","-1","1","","","","","","","","","","","","",""
"psychophysics","39","187142","0.0-6.0-0.33","5777d392d8e8880001b3041d","636d03e66a32c7f65a0397df","636d0825cc58e4f3afd9d6d4","89.69999980926514","","","","39","","","","key","16.66392307692306","800","378.5","true","1","137.771321462784","1.3194139533312006","14","-1","-1","","","","","","","","","","","","",""
"psychophysics","40","188278","0.0-6.0-0.34","5777d392d8e8880001b3041d","636d03e66a32c7f65a0397df","636d0825cc58e4f3afd9d6d4","125.70000004768372","","","","39","","","","key","16.667477611940157","800","378.5","true","1","136.45190750945278","1.3194139533312006","14","-1","-1","","","","","","","","","","","","",""
"psychophysics","41","189782","0.0-6.0-0.35","5777d392d8e8880001b3041d","636d03e66a32c7f65a0397df","636d0825cc58e4f3afd9d6d4","496.40000009536743","","","","39","","","","key","16.66761797752815","800","378.5","true","-1","136.45190750945278","1.0555311626649604","15","1","-1","","","","","","","","","","","","",""
"psychophysics","42","190934","0.0-6.0-0.36","5777d392d8e8880001b3041d","636d03e66a32c7f65a0397df","636d0825cc58e4f3afd9d6d4","148.40000009536743","","","","37","","","","key","16.6677352941179","800","378.5","true","-1","137.50743867211773","1.0555311626649604","15","-1","1","","","","","","","","","","","","",""
"psychophysics","43","192391","0.0-6.0-0.37","5777d392d8e8880001b3041d","636d03e66a32c7f65a0397df","636d0825cc58e4f3afd9d6d4","438.39999985694885","","","","37","","","","key","16.667758620689668","800","378.5","true","-1","137.50743867211773","1","16","-1","-1","","","","","","","","","","","","",""
"psychophysics","44","193496","0.0-6.0-0.38","5777d392d8e8880001b3041d","636d03e66a32c7f65a0397df","636d0825cc58e4f3afd9d6d4","93.79999995231628","","","","39","","","","key","16.92812499999991","800","378.5","true","1","136.50743867211773","1","16","-1","-1","","","","","","","","","","","","",""
"psychophysics","45","194614","0.0-6.0-0.39","5777d392d8e8880001b3041d","636d03e66a32c7f65a0397df","636d0825cc58e4f3afd9d6d4","111.90000009536743","","","","39","","","","key","16.666378787878784","800","378.5","true","1","136.50743867211773","1","16","-1","-1","","","","","","","","","","","","",""
"html-keyboard-response","46","199583","0.0-7.0","5777d392d8e8880001b3041d","636d03e66a32c7f65a0397df","636d0825cc58e4f3afd9d6d4","4966","<p>Well Done !</p><p>Prepare for a new block.</p><p>DON'T EXIT THE FULL SCREEN MODE</p><p>Press the Spacebar to start.</p>","","","32","","","","","","","","","","","","","","","true","136.66498905834567","","","","","","","","","","",""
"psychophysics","47","202182","0.0-8.0-0.0","5777d392d8e8880001b3041d","636d03e66a32c7f65a0397df","636d0825cc58e4f3afd9d6d4","1593.3999998569489","","","","39","","","","key","16.6682115384616","800","378.5","true","1","180","30","0","-1","","","","","","","","","","","","","",""
"psychophysics","48","203224","0.0-8.0-0.1","5777d392d8e8880001b3041d","636d03e66a32c7f65a0397df","636d0825cc58e4f3afd9d6d4","38.200000047683716","","","","37","","","","key","16.668112903225964","800","378.5","true","-1","180","30","0","-1","-1","","","","","","","","","","","","",""
"psychophysics","49","204242","0.0-8.0-0.2","5777d392d8e8880001b3041d","636d03e66a32c7f65a0397df","636d0825cc58e4f3afd9d6d4","5.8999998569488525","","","","39","","","","key","16.667349999999956","800","378.5","true","1","150","30","0","-1","-1","","","","","","","","","","","","",""
"psychophysics","50","205290","0.0-8.0-0.3","5777d392d8e8880001b3041d","636d03e66a32c7f65a0397df","636d0825cc58e4f3afd9d6d4","37.60000014305115","","","","37","","","","key","16.666500000000063","800","378.5","true","-1","150","30","0","-1","-1","","","","","","","","","","","","",""
"psychophysics","51","206550","0.0-8.0-0.4","5777d392d8e8880001b3041d","636d03e66a32c7f65a0397df","636d0825cc58e4f3afd9d6d4","247.79999995231628","","","","37","","","","key","16.66770270270275","800","378.5","true","1","129","24","1","1","-1","","","","","","","","","","","","",""
"psychophysics","52","207567","0.0-8.0-0.5","5777d392d8e8880001b3041d","636d03e66a32c7f65a0397df","636d0825cc58e4f3afd9d6d4","10.800000190734863","","","","37","","","","key","16.66748333333332","800","378.5","true","-1","153","24","1","-1","1","","","","","","","","","","","","",""
"psychophysics","53","210182","0.0-8.0-0.6","5777d392d8e8880001b3041d","636d03e66a32c7f65a0397df","636d0825cc58e4f3afd9d6d4","1612.8000001907349","","","","39","","","","key","16.666238709677373","800","378.5","true","1","153","19.2","2","-1","-1","","","","","","","","","","","","",""
"psychophysics","54","211319","0.0-8.0-0.7","5777d392d8e8880001b3041d","636d03e66a32c7f65a0397df","636d0825cc58e4f3afd9d6d4","132.5","","","","37","","","","key","16.668941176470767","800","378.5","true","-1","133.8","19.2","2","-1","-1","","","","","","","","","","","","",""
"psychophysics","55","212846","0.0-8.0-0.8","5777d392d8e8880001b3041d","636d03e66a32c7f65a0397df","636d0825cc58e4f3afd9d6d4","510.59999990463257","","","","39","","","","key","16.667120879121025","800","378.5","true","1","133.8","19.2","2","-1","-1","","","","","","","","","","","","",""
"psychophysics","56","214480","0.0-8.0-0.9","5777d392d8e8880001b3041d","636d03e66a32c7f65a0397df","636d0825cc58e4f3afd9d6d4","627","","","","39","","","","key","16.667082474226753","800","378.5","true","-1","129","15.36","3","1","-1","","","","","","","","","","","","",""
"psychophysics","57","215599","0.0-8.0-0.10","5777d392d8e8880001b3041d","636d03e66a32c7f65a0397df","636d0825cc58e4f3afd9d6d4","112.89999985694885","","","","39","","","","key","16.66722727272744","800","378.5","true","1","144.36","15.36","3","-1","1","","","","","","","","","","","","",""
"psychophysics","58","216662","0.0-8.0-0.11","5777d392d8e8880001b3041d","636d03e66a32c7f65a0397df","636d0825cc58e4f3afd9d6d4","59.799999952316284","","","","39","","","","key","16.667634920635177","800","378.5","true","1","144.36","12.287999999999998","4","-1","-1","","","","","","","","","","","","",""
"psychophysics","59","218241","0.0-8.0-0.12","5777d392d8e8880001b3041d","636d03e66a32c7f65a0397df","636d0825cc58e4f3afd9d6d4","573.3999998569489","","","","39","","","","key","16.666808510638223","800","378.5","true","-1","132.072","9.8304","5","1","-1","","","","","","","","","","","","",""
"psychophysics","60","219582","0.0-8.0-0.13","5777d392d8e8880001b3041d","636d03e66a32c7f65a0397df","636d0825cc58e4f3afd9d6d4","329.5","","","","39","","","","key","16.66607594936703","800","378.5","true","1","141.9024","9.8304","5","-1","1","","","","","","","","","","","","",""
"psychophysics","61","220674","0.0-8.0-0.14","5777d392d8e8880001b3041d","636d03e66a32c7f65a0397df","636d0825cc58e4f3afd9d6d4","87.5","","","","37","","","","key","16.666984615384493","800","378.5","true","-1","141.9024","7.864319999999999","6","-1","-1","","","","","","","","","","","","",""
"psychophysics","62","221782","0.0-8.0-0.15","5777d392d8e8880001b3041d","636d03e66a32c7f65a0397df","636d0825cc58e4f3afd9d6d4","96.29999995231628","","","","39","","","","key","16.667184615384592","800","378.5","true","1","134.03808","7.864319999999999","6","-1","-1","","","","","","","","","","","","",""
"psychophysics","63","222927","0.0-8.0-0.16","5777d392d8e8880001b3041d","636d03e66a32c7f65a0397df","636d0825cc58e4f3afd9d6d4","140.60000014305115","","","","37","","","","key","16.66776470588229","800","378.5","true","-1","134.03808","7.864319999999999","6","-1","-1","","","","","","","","","","","","",""
"psychophysics","64","224632","0.0-8.0-0.17","5777d392d8e8880001b3041d","636d03e66a32c7f65a0397df","636d0825cc58e4f3afd9d6d4","695.3999998569489","","","","37","","","","key","16.66719801980186","800","378.5","true","1","129","6.291456","7","1","-1","","","","","","","","","","","","",""
"psychophysics","65","225824","0.0-8.0-0.18","5777d392d8e8880001b3041d","636d03e66a32c7f65a0397df","636d0825cc58e4f3afd9d6d4","188.09999990463257","","","","37","","","","key","16.66747887323948","800","378.5","true","-1","135.291456","6.291456","7","-1","1","","","","","","","","","","","","",""
"psychophysics","66","227607","0.0-8.0-0.19","5777d392d8e8880001b3041d","636d03e66a32c7f65a0397df","636d0825cc58e4f3afd9d6d4","771.3999998569489","","","","39","","","","key","16.667433962264077","800","378.5","true","-1","135.291456","5.033164800000001","8","1","-1","","","","","","","","","","","","",""
"psychophysics","67","228782","0.0-8.0-0.20","5777d392d8e8880001b3041d","636d03e66a32c7f65a0397df","636d0825cc58e4f3afd9d6d4","163.10000014305115","","","","39","","","","key","16.91207352941188","800","378.5","true","1","140.32462080000002","5.033164800000001","8","-1","1","","","","","","","","","","","","",""
"psychophysics","68","231446","0.0-8.0-0.21","5777d392d8e8880001b3041d","636d03e66a32c7f65a0397df","636d0825cc58e4f3afd9d6d4","1660.6000001430511","","","","39","","","","key","16.66710691823904","800","378.5","true","1","140.32462080000002","4.0265318400000005","9","-1","-1","","","","","","","","","","","","",""
"psychophysics","69","232608","0.0-8.0-0.22","5777d392d8e8880001b3041d","636d03e66a32c7f65a0397df","636d0825cc58e4f3afd9d6d4","155","","","","39","","","","key","16.666884057971217","800","378.5","true","1","136.29808896000003","4.0265318400000005","9","-1","-1","","","","","","","","","","","","",""
"psychophysics","70","233766","0.0-8.0-0.23","5777d392d8e8880001b3041d","636d03e66a32c7f65a0397df","636d0825cc58e4f3afd9d6d4","147","","","","37","","","","key","16.66647058823497","800","378.5","true","-1","136.29808896000003","4.0265318400000005","9","-1","-1","","","","","","","","","","","","",""
"psychophysics","71","235718","0.0-8.0-0.24","5777d392d8e8880001b3041d","636d03e66a32c7f65a0397df","636d0825cc58e4f3afd9d6d4","948.9000000953674","","","","37","","","","key","16.66618965517234","800","378.5","true","-1","132.27155712000004","4.0265318400000005","9","-1","-1","","","","","","","","","","","","",""
"psychophysics","72","238911","0.0-8.0-0.25","5777d392d8e8880001b3041d","636d03e66a32c7f65a0397df","636d0825cc58e4f3afd9d6d4","2188.399999856949","","","","37","","","","key","16.667324607329856","800","378.5","true","1","132.27155712000004","3.2212254720000004","10","1","-1","","","","","","","","","","","","",""
"psychophysics","73","240975","0.0-8.0-0.26","5777d392d8e8880001b3041d","636d03e66a32c7f65a0397df","636d0825cc58e4f3afd9d6d4","1055.3000001907349","","","","37","","","","key","16.66642276422765","800","378.5","true","-1","135.49278259200003","3.2212254720000004","10","-1","1","","","","","","","","","","","","",""
"psychophysics","74","242225","0.0-8.0-0.27","5777d392d8e8880001b3041d","636d03e66a32c7f65a0397df","636d0825cc58e4f3afd9d6d4","238.20000004768372","","","","39","","","","key","16.66789189189188","800","378.5","true","1","135.49278259200003","2.5769803776000004","11","-1","-1","","","","","","","","","","","","",""
"psychophysics","75","244879","0.0-8.0-0.28","5777d392d8e8880001b3041d","636d03e66a32c7f65a0397df","636d0825cc58e4f3afd9d6d4","1642.5","","","","39","","","","key","16.667183544303665","800","378.5","true","1","132.91580221440003","2.5769803776000004","11","-1","-1","","","","","","","","","","","","",""
"psychophysics","76","247138","0.0-8.0-0.29","5777d392d8e8880001b3041d","636d03e66a32c7f65a0397df","636d0825cc58e4f3afd9d6d4","1250.2000000476837","","","","39","","","","key","16.666805970149355","800","378.5","true","-1","132.91580221440003","2.0615843020800004","12","1","-1","","","","","","","","","","","","",""
"psychophysics","77","248608","0.0-8.0-0.30","5777d392d8e8880001b3041d","636d03e66a32c7f65a0397df","636d0825cc58e4f3afd9d6d4","461.09999990463257","","","","39","","","","key","16.6671136363637","800","378.5","true","-1","134.97738651648004","2.0615843020800004","12","1","1","","","","","","","","","","","","",""
"psychophysics","78","254327","0.0-8.0-0.31","5777d392d8e8880001b3041d","636d03e66a32c7f65a0397df","636d0825cc58e4f3afd9d6d4","4707.200000047684","","","","39","","","","key","16.666576023391848","800","378.5","true","-1","137.03897081856005","2.0615843020800004","12","1","1","","","","","","","","","","","","",""
"psychophysics","79","255519","0.0-8.0-0.32","5777d392d8e8880001b3041d","636d03e66a32c7f65a0397df","636d0825cc58e4f3afd9d6d4","187.5","","","","37","","","","key","16.66658571428561","800","378.5","true","-1","139.10055512064005","2.0615843020800004","12","-1","1","","","","","","","","","","","","",""
"psychophysics","80","256592","0.0-8.0-0.33","5777d392d8e8880001b3041d","636d03e66a32c7f65a0397df","636d0825cc58e4f3afd9d6d4","68.09999990463257","","","","39","","","","key","16.667484375000186","800","378.5","true","1","139.10055512064005","1.6492674416640005","13","-1","-1","","","","","","","","","","","","",""
"psychophysics","81","257712","0.0-8.0-0.34","5777d392d8e8880001b3041d","636d03e66a32c7f65a0397df","636d0825cc58e4f3afd9d6d4","116.70000004768372","","","","37","","","","key","16.66687878787872","800","378.5","true","-1","137.45128767897606","1.6492674416640005","13","-1","-1","","","","","","","","","","","","",""
"psychophysics","82","258792","0.0-8.0-0.35","5777d392d8e8880001b3041d","636d03e66a32c7f65a0397df","636d0825cc58e4f3afd9d6d4","76.59999990463257","","","","39","","","","key","16.66645312499986","800","378.5","true","1","137.45128767897606","1.6492674416640005","13","-1","-1","","","","","","","","","","","","",""
"psychophysics","83","260625","0.0-8.0-0.36","5777d392d8e8880001b3041d","636d03e66a32c7f65a0397df","636d0825cc58e4f3afd9d6d4","829.3000001907349","","","","39","","","","key","16.666651376146863","800","378.5","true","-1","135.80202023731206","1.3194139533312006","14","1","-1","","","","","","","","","","","","",""
"psychophysics","84","261919","0.0-8.0-0.37","5777d392d8e8880001b3041d","636d03e66a32c7f65a0397df","636d0825cc58e4f3afd9d6d4","284.5","","","","39","","","","key","16.666842105263065","800","378.5","true","1","137.12143419064327","1.3194139533312006","14","-1","1","","","","","","","","","","","","",""
"psychophysics","85","263175","0.0-8.0-0.38","5777d392d8e8880001b3041d","636d03e66a32c7f65a0397df","636d0825cc58e4f3afd9d6d4","244.79999995231628","","","","39","","","","key","16.66733333333318","800","378.5","true","1","137.12143419064327","1.0555311626649604","15","-1","-1","","","","","","","","","","","","",""
"psychophysics","86","264359","0.0-8.0-0.39","5777d392d8e8880001b3041d","636d03e66a32c7f65a0397df","636d0825cc58e4f3afd9d6d4","180.5","","","","37","","","","key","16.666828571428777","800","378.5","true","-1","136.06590302797832","1.0555311626649604","15","-1","-1","","","","","","","","","","","","",""
"html-keyboard-response","87","270025","0.0-9.0","5777d392d8e8880001b3041d","636d03e66a32c7f65a0397df","636d0825cc58e4f3afd9d6d4","5663.399999856949","<p>Well Done !</p><p>Prepare for a new block.</p><p>DON'T EXIT THE FULL SCREEN MODE</p><p>Press the Spacebar to start.</p>","","","32","","","","","","","","","","","","","","","true","136.02130408757662","","","","","","","","","","",""
"psychophysics","88","271120","0.0-10.0-0.0","5777d392d8e8880001b3041d","636d03e66a32c7f65a0397df","636d0825cc58e4f3afd9d6d4","84.29999995231628","","","","39","","","","key","16.670369230769573","800","378.5","true","1","180","30","0","-1","","","","","","","","","","","","","",""
"psychophysics","89","272215","0.0-10.0-0.1","5777d392d8e8880001b3041d","636d03e66a32c7f65a0397df","636d0825cc58e4f3afd9d6d4","84.59999990463257","","","","37","","","","key","16.667415384615126","800","378.5","true","-1","180","30","0","-1","-1","","","","","","","","","","","","",""
"psychophysics","90","273247","0.0-10.0-0.2","5777d392d8e8880001b3041d","636d03e66a32c7f65a0397df","636d0825cc58e4f3afd9d6d4","28.40000009536743","","","","37","","","","key","16.66665573770535","800","378.5","true","-1","150","30","0","-1","-1","","","","","","","","","","","","",""
"psychophysics","91","274274","0.0-10.0-0.3","5777d392d8e8880001b3041d","636d03e66a32c7f65a0397df","636d0825cc58e4f3afd9d6d4","23.200000047683716","","","","37","","","","key","16.66596721311493","800","378.5","true","-1","150","30","0","-1","-1","","","","","","","","","","","","",""
"psychophysics","92","276242","0.0-10.0-0.4","5777d392d8e8880001b3041d","636d03e66a32c7f65a0397df","636d0825cc58e4f3afd9d6d4","959","","","","37","","","","key","16.666666666666668","800","378.5","true","-1","129","30","0","-1","-1","","","","","","","","","","","","",""
"psychophysics","93","280475","0.0-10.0-0.5","5777d392d8e8880001b3041d","636d03e66a32c7f65a0397df","636d0825cc58e4f3afd9d6d4","3224.399999856949","","","","37","","","","key","16.66647430830046","800","378.5","true","-1","129","30","0","-1","-1","","","","","","","","","","","","",""
"psychophysics","94","282135","0.0-10.0-0.6","5777d392d8e8880001b3041d","636d03e66a32c7f65a0397df","636d0825cc58e4f3afd9d6d4","652.5999999046326","","","","39","","","","key","16.66670408163265","800","378.5","true","-1","129","24","1","1","-1","","","","","","","","","","","","",""
"psychophysics","95","283231","0.0-10.0-0.7","5777d392d8e8880001b3041d","636d03e66a32c7f65a0397df","636d0825cc58e4f3afd9d6d4","91.59999990463257","","","","37","","","","key","16.66716923076982","800","378.5","true","-1","153","24","1","-1","1","","","","","","","","","","","","",""
"psychophysics","96","284318","0.0-10.0-0.8","5777d392d8e8880001b3041d","636d03e66a32c7f65a0397df","636d0825cc58e4f3afd9d6d4","81.69999980926514","","","","37","","","","key","16.664718750000247","800","378.5","true","-1","153","19.2","2","-1","-1","","","","","","","","","","","","",""
"psychophysics","97","286486","0.0-10.0-0.9","5777d392d8e8880001b3041d","636d03e66a32c7f65a0397df","636d0825cc58e4f3afd9d6d4","1166.4000000953674","","","","37","","","","key","16.66658914728675","800","378.5","true","1","133.8","15.36","3","1","-1","","","","","","","","","","","","",""
"psychophysics","98","287526","0.0-10.0-0.10","5777d392d8e8880001b3041d","636d03e66a32c7f65a0397df","636d0825cc58e4f3afd9d6d4","34.10000014305115","","","","39","","","","key","16.666741935483692","800","378.5","true","1","149.16000000000003","15.36","3","-1","1","","","","","","","","","","","","",""
"psychophysics","99","288647","0.0-10.0-0.11","5777d392d8e8880001b3041d","636d03e66a32c7f65a0397df","636d0825cc58e4f3afd9d6d4","115.60000014305115","","","","37","","","","key","16.66839393939396","800","378.5","true","-1","149.16000000000003","12.287999999999998","4","-1","-1","","","","","","","","","","","","",""
"psychophysics","100","289720","0.0-10.0-0.12","5777d392d8e8880001b3041d","636d03e66a32c7f65a0397df","636d0825cc58e4f3afd9d6d4","66.90000009536743","","","","39","","","","key","16.935838709678315","800","378.5","true","1","136.872","12.287999999999998","4","-1","-1","","","","","","","","","","","","",""
"psychophysics","101","290737","0.0-10.0-0.13","5777d392d8e8880001b3041d","636d03e66a32c7f65a0397df","636d0825cc58e4f3afd9d6d4","1.1999998092651367","","","","39","","","","key","16.66773333333355","800","378.5","true","1","136.872","12.287999999999998","4","-1","-1","","","","","","","","","","","","",""
"psychophysics","102","292425","0.0-10.0-0.14","5777d392d8e8880001b3041d","636d03e66a32c7f65a0397df","636d0825cc58e4f3afd9d6d4","671.8999998569489","","","","39","","","","key","16.667178217821874","800","378.5","true","-1","129","9.8304","5","1","-1","","","","","","","","","","","","",""
"psychophysics","103","293679","0.0-10.0-0.15","5777d392d8e8880001b3041d","636d03e66a32c7f65a0397df","636d0825cc58e4f3afd9d6d4","242.40000009536743","","","","39","","","","key","16.66737837837836","800","378.5","true","1","138.8304","9.8304","5","-1","1","","","","","","","","","","","","",""
"psychophysics","104","294895","0.0-10.0-0.16","5777d392d8e8880001b3041d","636d03e66a32c7f65a0397df","636d0825cc58e4f3afd9d6d4","208.39999985694885","","","","39","","","","key","16.666583333333417","800","378.5","true","1","138.8304","7.864319999999999","6","-1","-1","","","","","","","","","","","","",""
"psychophysics","105","298674","0.0-10.0-0.17","5777d392d8e8880001b3041d","636d03e66a32c7f65a0397df","636d0825cc58e4f3afd9d6d4","2770.2000000476837","","","","39","","","","key","16.740297777777695","800","378.5","true","-1","130.96608","6.291456","7","1","-1","","","","","","","","","","","","",""
"psychophysics","106","299858","0.0-10.0-0.18","5777d392d8e8880001b3041d","636d03e66a32c7f65a0397df","636d0825cc58e4f3afd9d6d4","171.40000009536743","","","","39","","","","key","16.668285714286114","800","378.5","true","1","137.25753600000002","6.291456","7","-1","1","","","","","","","","","","","","",""
"psychophysics","107","301216","0.0-10.0-0.19","5777d392d8e8880001b3041d","636d03e66a32c7f65a0397df","636d0825cc58e4f3afd9d6d4","346.2000000476837","","","","39","","","","key","16.6671500000004","800","378.5","true","1","137.25753600000002","5.033164800000001","8","-1","-1","","","","","","","","","","","","",""
"psychophysics","108","302440","0.0-10.0-0.20","5777d392d8e8880001b3041d","636d03e66a32c7f65a0397df","636d0825cc58e4f3afd9d6d4","219.79999995231628","","","","39","","","","key","16.666287671233214","800","378.5","true","1","132.2243712","5.033164800000001","8","-1","-1","","","","","","","","","","","","",""
"psychophysics","109","303647","0.0-10.0-0.21","5777d392d8e8880001b3041d","636d03e66a32c7f65a0397df","636d0825cc58e4f3afd9d6d4","204","","","","39","","","","key","16.667591549296255","800","378.5","true","1","132.2243712","5.033164800000001","8","-1","-1","","","","","","","","","","","","",""
"psychophysics","110","305392","0.0-10.0-0.22","5777d392d8e8880001b3041d","636d03e66a32c7f65a0397df","636d0825cc58e4f3afd9d6d4","738.0999999046326","","","","39","","","","key","16.66633653846153","800","378.5","true","-1","129","4.0265318400000005","9","1","-1","","","","","","","","","","","","",""
"psychophysics","111","306535","0.0-10.0-0.23","5777d392d8e8880001b3041d","636d03e66a32c7f65a0397df","636d0825cc58e4f3afd9d6d4","131.80000019073486","","","","39","","","","key","16.666343283581497","800","378.5","true","1","133.02653184","4.0265318400000005","9","-1","1","","","","","","","","","","","","",""
"psychophysics","112","309760","0.0-10.0-0.24","5777d392d8e8880001b3041d","636d03e66a32c7f65a0397df","636d0825cc58e4f3afd9d6d4","2217.7000000476837","","","","39","","","","key","16.667264248704697","800","378.5","true","1","133.02653184","3.2212254720000004","10","-1","-1","","","","","","","","","","","","",""
"psychophysics","113","311744","0.0-10.0-0.25","5777d392d8e8880001b3041d","636d03e66a32c7f65a0397df","636d0825cc58e4f3afd9d6d4","974.4000000953674","","","","39","","","","key","16.666847457626826","800","378.5","true","1","129.805306368","3.2212254720000004","10","-1","-1","","","","","","","","","","","","",""
"psychophysics","114","313689","0.0-10.0-0.26","5777d392d8e8880001b3041d","636d03e66a32c7f65a0397df","636d0825cc58e4f3afd9d6d4","935.7000000476837","","","","39","","","","key","16.66701739130481","800","378.5","true","1","129.805306368","3.2212254720000004","10","-1","-1","","","","","","","","","","","","",""
"psychophysics","115","315815","0.0-10.0-0.27","5777d392d8e8880001b3041d","636d03e66a32c7f65a0397df","636d0825cc58e4f3afd9d6d4","1111.5","","","","39","","","","key","16.664559055118378","800","378.5","true","-1","129","2.5769803776000004","11","1","-1","","","","","","","","","","","","",""
"psychophysics","116","318906","0.0-10.0-0.28","5777d392d8e8880001b3041d","636d03e66a32c7f65a0397df","636d0825cc58e4f3afd9d6d4","2084.899999856949","","","","39","","","","key","16.667054347825836","800","378.5","true","-1","131.5769803776","2.5769803776000004","11","1","1","","","","","","","","","","","","",""
"psychophysics","117","322768","0.0-10.0-0.29","5777d392d8e8880001b3041d","636d03e66a32c7f65a0397df","636d0825cc58e4f3afd9d6d4","2850.600000143051","","","","39","","","","key","16.666792207792124","800","378.5","true","-1","134.1539607552","2.5769803776000004","11","1","1","","","","","","","","","","","","",""
"psychophysics","118","323895","0.0-10.0-0.30","5777d392d8e8880001b3041d","636d03e66a32c7f65a0397df","636d0825cc58e4f3afd9d6d4","114.5","","","","39","","","","key","16.667358208955925","800","378.5","true","1","136.73094113279998","2.5769803776000004","11","-1","1","","","","","","","","","","","","",""
"psychophysics","119","326304","0.0-10.0-0.31","5777d392d8e8880001b3041d","636d03e66a32c7f65a0397df","636d0825cc58e4f3afd9d6d4","1399.8999998569489","","","","39","","","","key","16.666545454545396","800","378.5","true","-1","136.73094113279998","2.0615843020800004","12","1","-1","","","","","","","","","","","","",""
"psychophysics","120","327463","0.0-10.0-0.32","5777d392d8e8880001b3041d","636d03e66a32c7f65a0397df","636d0825cc58e4f3afd9d6d4","143.10000014305115","","","","37","","","","key","16.668072463768244","800","378.5","true","-1","138.79252543488","2.0615843020800004","12","-1","1","","","","","","","","","","","","",""
"psychophysics","121","328594","0.0-10.0-0.33","5777d392d8e8880001b3041d","636d03e66a32c7f65a0397df","636d0825cc58e4f3afd9d6d4","123.69999980926514","","","","39","","","","key","16.66670769230785","800","378.5","true","1","138.79252543488","1.6492674416640005","13","-1","-1","","","","","","","","","","","","",""
"psychophysics","122","330976","0.0-10.0-0.34","5777d392d8e8880001b3041d","636d03e66a32c7f65a0397df","636d0825cc58e4f3afd9d6d4","1372.0999999046326","","","","39","","","","key","16.667541666666594","800","378.5","true","-1","137.143257993216","1.3194139533312006","14","1","-1","","","","","","","","","","","","",""
"psychophysics","123","332031","0.0-10.0-0.35","5777d392d8e8880001b3041d","636d03e66a32c7f65a0397df","636d0825cc58e4f3afd9d6d4","44.40000009536743","","","","39","","","","key","16.667387096774615","800","378.5","true","1","138.4626719465472","1.3194139533312006","14","-1","1","","","","","","","","","","","","",""
"psychophysics","124","334896","0.0-10.0-0.36","5777d392d8e8880001b3041d","636d03e66a32c7f65a0397df","636d0825cc58e4f3afd9d6d4","1859.4000000953674","","","","39","","","","key","16.76500588235281","800","378.5","true","-1","138.4626719465472","1.0555311626649604","15","1","-1","","","","","","","","","","","","",""
"psychophysics","125","336399","0.0-10.0-0.37","5777d392d8e8880001b3041d","636d03e66a32c7f65a0397df","636d0825cc58e4f3afd9d6d4","495.90000009536743","","","","39","","","","key","16.6668202247192","800","378.5","true","1","139.51820310921215","1.0555311626649604","15","-1","1","","","","","","","","","","","","",""
"psychophysics","126","339295","0.0-10.0-0.38","5777d392d8e8880001b3041d","636d03e66a32c7f65a0397df","636d0825cc58e4f3afd9d6d4","1891.9000000953674","","","","39","","","","key","16.66732369942222","800","378.5","true","-1","139.51820310921215","1","16","1","-1","","","","","","","","","","","","",""
"psychophysics","127","340463","0.0-10.0-0.39","5777d392d8e8880001b3041d","636d03e66a32c7f65a0397df","636d0825cc58e4f3afd9d6d4","159.70000004768372","","","","39","","","","key","16.910926470587796","800","378.5","true","1","140.51820310921215","1","16","-1","1","","","","","","","","","","","","",""
"html-keyboard-response","128","343080","0.0-11.0","5777d392d8e8880001b3041d","636d03e66a32c7f65a0397df","636d0825cc58e4f3afd9d6d4","2614.4000000953674","<p>Well Done !</p><p>Prepare for a new block.</p><p>DON'T EXIT THE FULL SCREEN MODE</p><p>Press the Spacebar to start.</p>","","","32","","","","","","","","","","","","","","","true","135.93411321454047","","","","","","","","","","",""
"psychophysics","129","344176","0.0-12.0-0.0","5777d392d8e8880001b3041d","636d03e66a32c7f65a0397df","636d0825cc58e4f3afd9d6d4","89.09999990463257","","","","37","","","","key","16.66834848484899","800","378.5","true","-1","180","30","0","-1","","","","","","","","","","","","","",""
"psychophysics","130","347674","0.0-12.0-0.1","5777d392d8e8880001b3041d","636d03e66a32c7f65a0397df","636d0825cc58e4f3afd9d6d4","2491.0999999046326","","","","37","","","","key","16.666521531100546","800","378.5","true","-1","180","30","0","-1","-1","","","","","","","","","","","","",""
"psychophysics","131","348735","0.0-12.0-0.2","5777d392d8e8880001b3041d","636d03e66a32c7f65a0397df","636d0825cc58e4f3afd9d6d4","48.40000009536743","","","","37","","","","key","16.666661290322324","800","378.5","true","-1","150","30","0","-1","-1","","","","","","","","","","","","",""
"psychophysics","132","349831","0.0-12.0-0.3","5777d392d8e8880001b3041d","636d03e66a32c7f65a0397df","636d0825cc58e4f3afd9d6d4","91.70000004768372","","","","37","","","","key","16.66764615384611","800","378.5","true","-1","150","30","0","-1","-1","","","","","","","","","","","","",""
"psychophysics","133","351502","0.0-12.0-0.4","5777d392d8e8880001b3041d","636d03e66a32c7f65a0397df","636d0825cc58e4f3afd9d6d4","665.3000001907349","","","","37","","","","key","16.667737373737076","800","378.5","true","1","129","24","1","1","-1","","","","","","","","","","","","",""
"psychophysics","134","352551","0.0-12.0-0.5","5777d392d8e8880001b3041d","636d03e66a32c7f65a0397df","636d0825cc58e4f3afd9d6d4","44.5","","","","39","","","","key","16.67024193548376","800","378.5","true","1","153","24","1","-1","1","","","","","","","","","","","","",""
"psychophysics","135","355496","0.0-12.0-0.6","5777d392d8e8880001b3041d","636d03e66a32c7f65a0397df","636d0825cc58e4f3afd9d6d4","1939.2000000476837","","","","39","","","","key","16.666988636363715","800","378.5","true","1","153","19.2","2","-1","-1","","","","","","","","","","","","",""
"psychophysics","136","357208","0.0-12.0-0.7","5777d392d8e8880001b3041d","636d03e66a32c7f65a0397df","636d0825cc58e4f3afd9d6d4","704.4000000953674","","","","39","","","","key","16.66531372549042","800","378.5","true","-1","133.8","15.36","3","1","-1","","","","","","","","","","","","",""
"psychophysics","137","358242","0.0-12.0-0.8","5777d392d8e8880001b3041d","636d03e66a32c7f65a0397df","636d0825cc58e4f3afd9d6d4","21.5","","","","39","","","","key","16.667098360656205","800","378.5","true","1","149.16000000000003","15.36","3","-1","1","","","","","","","","","","","","",""
"psychophysics","138","359447","0.0-12.0-0.9","5777d392d8e8880001b3041d","636d03e66a32c7f65a0397df","636d0825cc58e4f3afd9d6d4","193.5","","","","37","","","","key","16.665661971831636","800","378.5","true","-1","149.16000000000003","12.287999999999998","4","-1","-1","","","","","","","","","","","","",""
"psychophysics","139","360502","0.0-12.0-0.10","5777d392d8e8880001b3041d","636d03e66a32c7f65a0397df","636d0825cc58e4f3afd9d6d4","49.799999952316284","","","","39","","","","key","16.665403225806525","800","378.5","true","1","136.872","12.287999999999998","4","-1","-1","","","","","","","","","","","","",""
"psychophysics","140","362256","0.0-12.0-0.11","5777d392d8e8880001b3041d","636d03e66a32c7f65a0397df","636d0825cc58e4f3afd9d6d4","737.7000000476837","","","","37","","","","key","16.667466666666414","800","378.5","true","1","136.872","9.8304","5","1","-1","","","","","","","","","","","","",""
"psychophysics","141","363446","0.0-12.0-0.12","5777d392d8e8880001b3041d","636d03e66a32c7f65a0397df","636d0825cc58e4f3afd9d6d4","185.79999995231628","","","","37","","","","key","16.666528571428664","800","378.5","true","-1","146.7024","9.8304","5","-1","1","","","","","","","","","","","","",""
"psychophysics","142","364582","0.0-12.0-0.13","5777d392d8e8880001b3041d","636d03e66a32c7f65a0397df","636d0825cc58e4f3afd9d6d4","131","","","","37","","","","key","16.666686567164255","800","378.5","true","-1","146.7024","7.864319999999999","6","-1","-1","","","","","","","","","","","","",""
"psychophysics","143","365630","0.0-12.0-0.14","5777d392d8e8880001b3041d","636d03e66a32c7f65a0397df","636d0825cc58e4f3afd9d6d4","44","","","","39","","","","key","16.666403225806143","800","378.5","true","1","138.83808000000002","7.864319999999999","6","-1","-1","","","","","","","","","","","","",""
"psychophysics","144","366766","0.0-12.0-0.15","5777d392d8e8880001b3041d","636d03e66a32c7f65a0397df","636d0825cc58e4f3afd9d6d4","129.39999985694885","","","","37","","","","key","16.66641791044724","800","378.5","true","-1","138.83808000000002","7.864319999999999","6","-1","-1","","","","","","","","","","","","",""
"psychophysics","145","368458","0.0-12.0-0.16","5777d392d8e8880001b3041d","636d03e66a32c7f65a0397df","636d0825cc58e4f3afd9d6d4","688.0999999046326","","","","37","","","","key","16.668425742574243","800","378.5","true","-1","130.97376000000003","7.864319999999999","6","-1","-1","","","","","","","","","","","","",""
"psychophysics","146","370695","0.0-12.0-0.17","5777d392d8e8880001b3041d","636d03e66a32c7f65a0397df","636d0825cc58e4f3afd9d6d4","1228.3000001907349","","","","39","","","","key","16.666849624060088","800","378.5","true","-1","130.97376000000003","6.291456","7","1","-1","","","","","","","","","","","","",""
"psychophysics","147","371783","0.0-12.0-0.18","5777d392d8e8880001b3041d","636d03e66a32c7f65a0397df","636d0825cc58e4f3afd9d6d4","84.80000019073486","","","","39","","","","key","16.667328125000495","800","378.5","true","1","137.26521600000004","6.291456","7","-1","1","","","","","","","","","","","","",""
"psychophysics","148","376122","0.0-12.0-0.19","5777d392d8e8880001b3041d","636d03e66a32c7f65a0397df","636d0825cc58e4f3afd9d6d4","3335","","","","39","","","","key","16.666613899613864","800","378.5","true","1","137.26521600000004","5.033164800000001","8","-1","-1","","","","","","","","","","","","",""
"psychophysics","149","379983","0.0-12.0-0.20","5777d392d8e8880001b3041d","636d03e66a32c7f65a0397df","636d0825cc58e4f3afd9d6d4","2851.2000000476837","","","","39","","","","key","16.667073593073518","800","378.5","true","1","132.23205120000003","5.033164800000001","8","-1","-1","","","","","","","","","","","","",""
"psychophysics","150","382679","0.0-12.0-0.21","5777d392d8e8880001b3041d","636d03e66a32c7f65a0397df","636d0825cc58e4f3afd9d6d4","1688.7000000476837","","","","39","","","","key","16.666944099379045","800","378.5","true","1","132.23205120000003","5.033164800000001","8","-1","-1","","","","","","","","","","","","",""
"psychophysics","151","384735","0.0-12.0-0.22","5777d392d8e8880001b3041d","636d03e66a32c7f65a0397df","636d0825cc58e4f3afd9d6d4","1052.2999999523163","","","","39","","","","key","16.666811475410036","800","378.5","true","1","129","5.033164800000001","8","-1","-1","","","","","","","","","","","","",""
"psychophysics","152","386552","0.0-12.0-0.23","5777d392d8e8880001b3041d","636d03e66a32c7f65a0397df","636d0825cc58e4f3afd9d6d4","811.6000001430511","","","","39","","","","key","16.667666666666737","800","378.5","true","1","129","5.033164800000001","8","-1","-1","","","","","","","","","","","","",""
"psychophysics","153","389208","0.0-12.0-0.24","5777d392d8e8880001b3041d","636d03e66a32c7f65a0397df","636d0825cc58e4f3afd9d6d4","1645.1999998092651","","","","37","","","","key","16.667075471698126","800","378.5","true","1","129","4.0265318400000005","9","1","-1","","","","","","","","","","","","",""
"psychophysics","154","390783","0.0-12.0-0.25","5777d392d8e8880001b3041d","636d03e66a32c7f65a0397df","636d0825cc58e4f3afd9d6d4","572","","","","39","","","","key","16.666720430107578","800","378.5","true","-1","133.02653184","4.0265318400000005","9","1","1","","","","","","","","","","","","",""
"psychophysics","155","392458","0.0-12.0-0.26","5777d392d8e8880001b3041d","636d03e66a32c7f65a0397df","636d0825cc58e4f3afd9d6d4","671.3999998569489","","","","39","","","","key","16.668559999999708","800","378.5","true","-1","137.05306367999998","4.0265318400000005","9","1","1","","","","","","","","","","","","",""
"psychophysics","156","393750","0.0-12.0-0.27","5777d392d8e8880001b3041d","636d03e66a32c7f65a0397df","636d0825cc58e4f3afd9d6d4","282.90000009536743","","","","39","","","","key","16.665157894736407","800","378.5","true","1","141.07959551999997","4.0265318400000005","9","-1","1","","","","","","","","","","","","",""
"psychophysics","157","395042","0.0-12.0-0.28","5777d392d8e8880001b3041d","636d03e66a32c7f65a0397df","636d0825cc58e4f3afd9d6d4","288.59999990463257","","","","37","","","","key","16.668480519480497","800","378.5","true","-1","141.07959551999997","3.2212254720000004","10","-1","-1","","","","","","","","","","","","",""
"psychophysics","158","396135","0.0-12.0-0.29","5777d392d8e8880001b3041d","636d03e66a32c7f65a0397df","636d0825cc58e4f3afd9d6d4","84.60000014305115","","","","37","","","","key","16.666828125000393","800","378.5","true","-1","137.85837004799998","3.2212254720000004","10","-1","-1","","","","","","","","","","","","",""
"psychophysics","159","397226","0.0-12.0-0.30","5777d392d8e8880001b3041d","636d03e66a32c7f65a0397df","636d0825cc58e4f3afd9d6d4","85.5","","","","39","","","","key","16.66764615384611","800","378.5","true","1","137.85837004799998","3.2212254720000004","10","-1","-1","","","","","","","","","","","","",""
"psychophysics","160","398294","0.0-12.0-0.31","5777d392d8e8880001b3041d","636d03e66a32c7f65a0397df","636d0825cc58e4f3afd9d6d4","58.39999985694885","","","","39","","","","key","16.664793650793385","800","378.5","true","1","134.63714457599997","3.2212254720000004","10","-1","-1","","","","","","","","","","","","",""
"psychophysics","161","399767","0.0-12.0-0.32","5777d392d8e8880001b3041d","636d03e66a32c7f65a0397df","636d0825cc58e4f3afd9d6d4","468.19999980926514","","","","37","","","","key","16.66843678160964","800","378.5","true","-1","134.63714457599997","3.2212254720000004","10","-1","-1","","","","","","","","","","","","",""
"psychophysics","162","404289","0.0-12.0-0.33","5777d392d8e8880001b3041d","636d03e66a32c7f65a0397df","636d0825cc58e4f3afd9d6d4","3518.5999999046326","","","","39","","","","key","16.666744444444475","800","378.5","true","-1","131.41591910399995","2.5769803776000004","11","1","-1","","","","","","","","","","","","",""
"psychophysics","163","406105","0.0-12.0-0.34","5777d392d8e8880001b3041d","636d03e66a32c7f65a0397df","636d0825cc58e4f3afd9d6d4","805.6000001430511","","","","39","","","","key","16.667046296296004","800","378.5","true","-1","133.99289948159995","2.5769803776000004","11","1","1","","","","","","","","","","","","",""
"psychophysics","164","407264","0.0-12.0-0.35","5777d392d8e8880001b3041d","636d03e66a32c7f65a0397df","636d0825cc58e4f3afd9d6d4","148.90000009536743","","","","39","","","","key","16.667188405796576","800","378.5","true","1","136.56987985919994","2.5769803776000004","11","-1","1","","","","","","","","","","","","",""
"psychophysics","165","411479","0.0-12.0-0.36","5777d392d8e8880001b3041d","636d03e66a32c7f65a0397df","636d0825cc58e4f3afd9d6d4","3212.0999999046326","","","","39","","","","key","16.666670634920592","800","378.5","true","1","136.56987985919994","2.0615843020800004","12","-1","-1","","","","","","","","","","","","",""
"psychophysics","166","412567","0.0-12.0-0.37","5777d392d8e8880001b3041d","636d03e66a32c7f65a0397df","636d0825cc58e4f3afd9d6d4","80.29999995231628","","","","39","","","","key","16.66674999999941","800","378.5","true","1","134.50829555711994","2.0615843020800004","12","-1","-1","","","","","","","","","","","","",""
"psychophysics","167","414273","0.0-12.0-0.38","5777d392d8e8880001b3041d","636d03e66a32c7f65a0397df","636d0825cc58e4f3afd9d6d4","702","","","","39","","","","key","16.667475247524546","800","378.5","true","-1","134.50829555711994","1.6492674416640005","13","1","-1","","","","","","","","","","","","",""
"psychophysics","168","415415","0.0-12.0-0.39","5777d392d8e8880001b3041d","636d03e66a32c7f65a0397df","636d0825cc58e4f3afd9d6d4","132.5","","","","37","","","","key","16.667426470587515","800","378.5","true","-1","136.15756299878393","1.6492674416640005","13","-1","1","","","","","","","","","","","","",""
"html-keyboard-response","169","417024","0.0-13.0","5777d392d8e8880001b3041d","636d03e66a32c7f65a0397df","636d0825cc58e4f3afd9d6d4","1606.1000001430511","<p>Well Done !</p><p>Prepare for a new block.</p><p>DON'T EXIT THE FULL SCREEN MODE</p><p>Press the Spacebar to start.</p>","","","32","","","","","","","","","","","","","","","true","136.06350321500156","","","","","","","","","","",""
"html-keyboard-response","170","417133","0.0-14.0","5777d392d8e8880001b3041d","636d03e66a32c7f65a0397df","636d0825cc58e4f3afd9d6d4","null","","","","null","","","","","","","","","","","","","","","","","136.17097739386608","true","144.34195478773216","","","","","","","",""
"instructions","171","497895","0.0-15.0","5777d392d8e8880001b3041d","636d03e66a32c7f65a0397df","636d0825cc58e4f3afd9d6d4","80760","","","","","","","[{""page_index"":0,""viewing_time"":74874.20000004768},{""page_index"":1,""viewing_time"":1861.2999999523163},{""page_index"":2,""viewing_time"":4024}]","","","","","","","","","","","","","","","","","","","","","","","",""
"psychophysics","172","500915","0.0-16.0-0.0","5777d392d8e8880001b3041d","636d03e66a32c7f65a0397df","636d0825cc58e4f3afd9d6d4","null","","","","null","","","","key","16.669150000000567","800","378.5","","","","","","","","","","","","","","","","","","","",""
"psychophysics","173","501420","0.0-16.0-1.0","5777d392d8e8880001b3041d","636d03e66a32c7f65a0397df","636d0825cc58e4f3afd9d6d4","null","","","","null","","","","key","16.670241379311534","800","378.5","","","","","","","","","","","","","144","-1","3","false","","","",""
"psychophysics","174","503209","0.0-16.0-2.0","5777d392d8e8880001b3041d","636d03e66a32c7f65a0397df","636d0825cc58e4f3afd9d6d4","1781","","","","90","","","","key","16.66621495327079","800","378.5","","","","","","","","","","","","","","","","","","","",""
"psychophysics","175","504219","0.0-16.0-0.1","5777d392d8e8880001b3041d","636d03e66a32c7f65a0397df","636d0825cc58e4f3afd9d6d4","null","","","","null","","","","key","16.666491525424288","800","378.5","","","","","","","","","","","","","","","","","","","",""
"psychophysics","176","504724","0.0-16.0-1.1","5777d392d8e8880001b3041d","636d03e66a32c7f65a0397df","636d0825cc58e4f3afd9d6d4","null","","","","null","","","","key","17.24089655172329","800","378.5","","","","","","","","","","","","","144","-1","6","false","","","",""
"psychophysics","177","505775","0.0-16.0-2.1","5777d392d8e8880001b3041d","636d03e66a32c7f65a0397df","636d0825cc58e4f3afd9d6d4","1047.2000000476837","","","","77","","","","key","16.66717741935469","800","378.5","","","","","","","","","","","","","","","","","","","",""
"psychophysics","178","506787","0.0-16.0-0.2","5777d392d8e8880001b3041d","636d03e66a32c7f65a0397df","636d0825cc58e4f3afd9d6d4","null","","","","null","","","","key","16.667508474576792","800","378.5","","","","","","","","","","","","","","","","","","","",""
"psychophysics","179","507303","0.0-16.0-1.2","5777d392d8e8880001b3041d","636d03e66a32c7f65a0397df","636d0825cc58e4f3afd9d6d4","null","","","","null","","","","key","16.666366666666","800","378.5","","","","","","","","","","","","","144","1","4","false","","","",""
"psychophysics","180","507775","0.0-16.0-2.2","5777d392d8e8880001b3041d","636d03e66a32c7f65a0397df","636d0825cc58e4f3afd9d6d4","432.7000000476837","","","","77","","","","key","17.285703703702893","800","378.5","","","","","","","","","","","","","","","","","","","",""
"psychophysics","181","508785","0.0-16.0-0.3","5777d392d8e8880001b3041d","636d03e66a32c7f65a0397df","636d0825cc58e4f3afd9d6d4","null","","","","null","","","","key","16.666813559322105","800","378.5","","","","","","","","","","","","","","","","","","","",""
"psychophysics","182","509302","0.0-16.0-1.3","5777d392d8e8880001b3041d","636d03e66a32c7f65a0397df","636d0825cc58e4f3afd9d6d4","null","","","","null","","","","key","16.666499999999846","800","378.5","","","","","","","","","","","","","144","-1","5","false","","","",""
"psychophysics","183","509551","0.0-16.0-2.3","5777d392d8e8880001b3041d","636d03e66a32c7f65a0397df","636d0825cc58e4f3afd9d6d4","244.5","","","","90","","","","key","16.67271428571465","800","378.5","","","","","","","","","","","","","","","","","","","",""
"psychophysics","184","510554","0.0-16.0-0.4","5777d392d8e8880001b3041d","636d03e66a32c7f65a0397df","636d0825cc58e4f3afd9d6d4","null","","","","null","","","","key","16.66808474576298","800","378.5","","","","","","","","","","","","","","","","","","","",""
"psychophysics","185","511068","0.0-16.0-1.4","5777d392d8e8880001b3041d","636d03e66a32c7f65a0397df","636d0825cc58e4f3afd9d6d4","null","","","","null","","","","key","17.241310344828324","800","378.5","","","","","","","","","","","","","144","-1","2","false","","","",""
"psychophysics","186","511825","0.0-16.0-2.4","5777d392d8e8880001b3041d","636d03e66a32c7f65a0397df","636d0825cc58e4f3afd9d6d4","752.5999999046326","","","","90","","","","key","16.668399999999544","800","378.5","","","","","","","","","","","","","","","","","","","",""
"psychophysics","187","512834","0.0-16.0-0.5","5777d392d8e8880001b3041d","636d03e66a32c7f65a0397df","636d0825cc58e4f3afd9d6d4","null","","","","null","","","","key","16.665644067796382","800","378.5","","","","","","","","","","","","","","","","","","","",""
"psychophysics","188","513339","0.0-16.0-1.5","5777d392d8e8880001b3041d","636d03e66a32c7f65a0397df","636d0825cc58e4f3afd9d6d4","null","","","","null","","","","key","16.66893333333428","800","378.5","","","","","","","","","","","","","144","1","2","false","","","",""
"psychophysics","189","514384","0.0-16.0-2.5","5777d392d8e8880001b3041d","636d03e66a32c7f65a0397df","636d0825cc58e4f3afd9d6d4","1041.3999998569489","","","","90","","","","key","16.666639344262904","800","378.5","","","","","","","","","","","","","","","","","","","",""
"psychophysics","190","515387","0.0-16.0-0.6","5777d392d8e8880001b3041d","636d03e66a32c7f65a0397df","636d0825cc58e4f3afd9d6d4","null","","","","null","","","","key","16.95518965517263","800","378.5","","","","","","","","","","","","","","","","","","","",""
"psychophysics","191","515904","0.0-16.0-1.6","5777d392d8e8880001b3041d","636d03e66a32c7f65a0397df","636d0825cc58e4f3afd9d6d4","null","","","","null","","","","key","16.66829999999997","800","378.5","","","","","","","","","","","","","144","1","3","false","","","",""
"psychophysics","192","516567","0.0-16.0-2.6","5777d392d8e8880001b3041d","636d03e66a32c7f65a0397df","636d0825cc58e4f3afd9d6d4","656.2999999523163","","","","90","","","","key","16.666846153845725","800","378.5","","","","","","","","","","","","","","","","","","","",""
"psychophysics","193","517570","0.0-16.0-0.7","5777d392d8e8880001b3041d","636d03e66a32c7f65a0397df","636d0825cc58e4f3afd9d6d4","null","","","","null","","","","key","16.665593220338312","800","378.5","","","","","","","","","","","","","","","","","","","",""
"psychophysics","194","518077","0.0-16.0-1.7","5777d392d8e8880001b3041d","636d03e66a32c7f65a0397df","636d0825cc58e4f3afd9d6d4","null","","","","null","","","","key","16.672499999999612","800","378.5","","","","","","","","","","","","","144","1","0","false","","","",""
"psychophysics","195","518431","0.0-16.0-2.7","5777d392d8e8880001b3041d","636d03e66a32c7f65a0397df","636d0825cc58e4f3afd9d6d4","351.7999999523163","","","","90","","","","key","16.66610000000219","800","378.5","","","","","","","","","","","","","","","","","","","",""
"psychophysics","196","519437","0.0-16.0-0.8","5777d392d8e8880001b3041d","636d03e66a32c7f65a0397df","636d0825cc58e4f3afd9d6d4","null","","","","null","","","","key","16.667423728814","800","378.5","","","","","","","","","","","","","","","","","","","",""
"psychophysics","197","519953","0.0-16.0-1.8","5777d392d8e8880001b3041d","636d03e66a32c7f65a0397df","636d0825cc58e4f3afd9d6d4","null","","","","null","","","","key","16.667266666666062","800","378.5","","","","","","","","","","","","","144","1","6","false","","","",""
"psychophysics","198","520719","0.0-16.0-2.8","5777d392d8e8880001b3041d","636d03e66a32c7f65a0397df","636d0825cc58e4f3afd9d6d4","758.2999999523163","","","","77","","","","key","16.666488888888207","800","378.5","","","","","","","","","","","","","","","","","","","",""
"psychophysics","199","521734","0.0-16.0-0.9","5777d392d8e8880001b3041d","636d03e66a32c7f65a0397df","636d0825cc58e4f3afd9d6d4","null","","","","null","","","","key","16.66773333333355","800","378.5","","","","","","","","","","","","","","","","","","","",""
"psychophysics","200","522237","0.0-16.0-1.9","5777d392d8e8880001b3041d","636d03e66a32c7f65a0397df","636d0825cc58e4f3afd9d6d4","null","","","","null","","","","key","17.263249999999452","800","378.5","","","","","","","","","","","","","144","-1","4","false","","","",""
"psychophysics","201","522858","0.0-16.0-2.9","5777d392d8e8880001b3041d","636d03e66a32c7f65a0397df","636d0825cc58e4f3afd9d6d4","613.9000000953674","","","","90","","","","key","16.667702702703142","800","378.5","","","","","","","","","","","","","","","","","","","",""
"psychophysics","202","523870","0.0-16.0-0.10","5777d392d8e8880001b3041d","636d03e66a32c7f65a0397df","636d0825cc58e4f3afd9d6d4","null","","","","null","","","","key","16.666050847457974","800","378.5","","","","","","","","","","","","","","","","","","","",""
"psychophysics","203","524419","0.0-16.0-1.10","5777d392d8e8880001b3041d","636d03e66a32c7f65a0397df","636d0825cc58e4f3afd9d6d4","null","","","","null","","","","key","16.66956666666471","800","378.5","","","","","","","","","","","","","144","-1","0","false","","","",""
"psychophysics","204","525026","0.0-16.0-2.10","5777d392d8e8880001b3041d","636d03e66a32c7f65a0397df","636d0825cc58e4f3afd9d6d4","603.7000000476837","","","","90","","","","key","17.114756756757913","800","378.5","","","","","","","","","","","","","","","","","","","",""
"psychophysics","205","526037","0.0-16.0-0.11","5777d392d8e8880001b3041d","636d03e66a32c7f65a0397df","636d0825cc58e4f3afd9d6d4","null","","","","null","","","","key","16.6667288135603","800","378.5","","","","","","","","","","","","","","","","","","","",""
"psychophysics","206","526554","0.0-16.0-1.11","5777d392d8e8880001b3041d","636d03e66a32c7f65a0397df","636d0825cc58e4f3afd9d6d4","null","","","","null","","","","key","16.666533333334762","800","378.5","","","","","","","","","","","","","144","1","5","false","","","",""
"psychophysics","207","527642","0.0-16.0-2.11","5777d392d8e8880001b3041d","636d03e66a32c7f65a0397df","636d0825cc58e4f3afd9d6d4","1082.0999999046326","","","","77","","","","key","16.666692307691733","800","378.5","","","","","","","","","","","","","","","","","","","",""
"psychophysics","208","528654","0.0-16.0-0.12","5777d392d8e8880001b3041d","636d03e66a32c7f65a0397df","636d0825cc58e4f3afd9d6d4","null","","","","null","","","","key","16.66783050847461","800","378.5","","","","","","","","","","","","","","","","","","","",""
"psychophysics","209","529170","0.0-16.0-1.12","5777d392d8e8880001b3041d","636d03e66a32c7f65a0397df","636d0825cc58e4f3afd9d6d4","null","","","","null","","","","key","16.662433333334047","800","378.5","","","","","","","","","","","","","144","-1","0","false","","","",""
"psychophysics","210","529442","0.0-16.0-2.12","5777d392d8e8880001b3041d","636d03e66a32c7f65a0397df","636d0825cc58e4f3afd9d6d4","264.7999999523163","","","","90","","","","key","16.66668750000099","800","378.5","","","","","","","","","","","","","","","","","","","",""
"psychophysics","211","530450","0.0-16.0-0.13","5777d392d8e8880001b3041d","636d03e66a32c7f65a0397df","636d0825cc58e4f3afd9d6d4","null","","","","null","","","","key","16.66540677966037","800","378.5","","","","","","","","","","","","","","","","","","","",""
"psychophysics","212","530988","0.0-16.0-1.13","5777d392d8e8880001b3041d","636d03e66a32c7f65a0397df","636d0825cc58e4f3afd9d6d4","null","","","","null","","","","key","16.66622580644945","800","378.5","","","","","","","","","","","","","144","1","3","false","","","",""
"psychophysics","213","531582","0.0-16.0-2.13","5777d392d8e8880001b3041d","636d03e66a32c7f65a0397df","636d0825cc58e4f3afd9d6d4","588.2999999523163","","","","77","","","","key","16.664800000001144","800","378.5","","","","","","","","","","","","","","","","","","","",""
"psychophysics","214","532587","0.0-16.0-0.14","5777d392d8e8880001b3041d","636d03e66a32c7f65a0397df","636d0825cc58e4f3afd9d6d4","null","","","","null","","","","key","16.668491525423587","800","378.5","","","","","","","","","","","","","","","","","","","",""
"psychophysics","215","533101","0.0-16.0-1.14","5777d392d8e8880001b3041d","636d03e66a32c7f65a0397df","636d0825cc58e4f3afd9d6d4","null","","","","null","","","","key","16.665499999998914","800","378.5","","","","","","","","","","","","","144","1","4","false","","","",""
"psychophysics","216","534775","0.0-16.0-2.14","5777d392d8e8880001b3041d","636d03e66a32c7f65a0397df","636d0825cc58e4f3afd9d6d4","1668.5999999046326","","","","77","","","","key","16.666300000000046","800","378.5","","","","","","","","","","","","","","","","","","","",""
"psychophysics","217","535787","0.0-16.0-0.15","5777d392d8e8880001b3041d","636d03e66a32c7f65a0397df","636d0825cc58e4f3afd9d6d4","null","","","","null","","","","key","16.666288135593","800","378.5","","","","","","","","","","","","","","","","","","","",""
"psychophysics","218","536304","0.0-16.0-1.15","5777d392d8e8880001b3041d","636d03e66a32c7f65a0397df","636d0825cc58e4f3afd9d6d4","null","","","","null","","","","key","16.665966666664463","800","378.5","","","","","","","","","","","","","144","-1","5","false","","","",""
"psychophysics","219","538139","0.0-16.0-2.15","5777d392d8e8880001b3041d","636d03e66a32c7f65a0397df","636d0825cc58e4f3afd9d6d4","1825.6999998092651","","","","77","","","","key","16.667724770642263","800","378.5","","","","","","","","","","","","","","","","","","","",""
"psychophysics","220","539146","0.0-16.0-0.16","5777d392d8e8880001b3041d","636d03e66a32c7f65a0397df","636d0825cc58e4f3afd9d6d4","null","","","","null","","","","key","16.667833333332478","800","378.5","","","","","","","","","","","","","","","","","","","",""
"psychophysics","221","539651","0.0-16.0-1.16","5777d392d8e8880001b3041d","636d03e66a32c7f65a0397df","636d0825cc58e4f3afd9d6d4","null","","","","null","","","","key","16.66651724138024","800","378.5","","","","","","","","","","","","","144","1","0","false","","","",""
"psychophysics","222","539959","0.0-16.0-2.16","5777d392d8e8880001b3041d","636d03e66a32c7f65a0397df","636d0825cc58e4f3afd9d6d4","304.5","","","","90","","","","key","16.669000000000878","800","378.5","","","","","","","","","","","","","","","","","","","",""
"psychophysics","223","540976","0.0-16.0-0.17","5777d392d8e8880001b3041d","636d03e66a32c7f65a0397df","636d0825cc58e4f3afd9d6d4","null","","","","null","","","","key","16.947338983051527","800","378.5","","","","","","","","","","","","","","","","","","","",""
"psychophysics","224","541487","0.0-16.0-1.17","5777d392d8e8880001b3041d","636d03e66a32c7f65a0397df","636d0825cc58e4f3afd9d6d4","null","","","","null","","","","key","16.672655172413215","800","378.5","","","","","","","","","","","","","144","-1","6","false","","","",""
"psychophysics","225","542063","0.0-16.0-2.17","5777d392d8e8880001b3041d","636d03e66a32c7f65a0397df","636d0825cc58e4f3afd9d6d4","569.2999999523163","","","","90","","","","key","16.664882352942026","800","378.5","","","","","","","","","","","","","","","","","","","",""
"psychophysics","226","543070","0.0-16.0-0.18","5777d392d8e8880001b3041d","636d03e66a32c7f65a0397df","636d0825cc58e4f3afd9d6d4","null","","","","null","","","","key","16.66716949152563","800","378.5","","","","","","","","","","","","","","","","","","","",""
"psychophysics","227","543584","0.0-16.0-1.18","5777d392d8e8880001b3041d","636d03e66a32c7f65a0397df","636d0825cc58e4f3afd9d6d4","null","","","","null","","","","key","16.66866666666465","800","378.5","","","","","","","","","","","","","144","-1","4","false","","","",""
"psychophysics","228","544743","0.0-16.0-2.18","5777d392d8e8880001b3041d","636d03e66a32c7f65a0397df","636d0825cc58e4f3afd9d6d4","1156.2999999523163","","","","77","","","","key","16.66807246376909","800","378.5","","","","","","","","","","","","","","","","","","","",""
"psychophysics","229","545754","0.0-16.0-0.19","5777d392d8e8880001b3041d","636d03e66a32c7f65a0397df","636d0825cc58e4f3afd9d6d4","null","","","","null","","","","key","16.66667796610026","800","378.5","","","","","","","","","","","","","","","","","","","",""
"psychophysics","230","546261","0.0-16.0-1.19","5777d392d8e8880001b3041d","636d03e66a32c7f65a0397df","636d0825cc58e4f3afd9d6d4","null","","","","null","","","","key","16.667033333331347","800","378.5","","","","","","","","","","","","","144","-1","2","false","","","",""
"psychophysics","231","546905","0.0-16.0-2.19","5777d392d8e8880001b3041d","636d03e66a32c7f65a0397df","636d0825cc58e4f3afd9d6d4","639.6000001430511","","","","90","","","","key","17.131111111110336","800","378.5","","","","","","","","","","","","","","","","","","","",""
"psychophysics","232","547920","0.0-16.0-0.20","5777d392d8e8880001b3041d","636d03e66a32c7f65a0397df","636d0825cc58e4f3afd9d6d4","null","","","","null","","","","key","16.666616666666233","800","378.5","","","","","","","","","","","","","","","","","","","",""
"psychophysics","233","548437","0.0-16.0-1.20","5777d392d8e8880001b3041d","636d03e66a32c7f65a0397df","636d0825cc58e4f3afd9d6d4","null","","","","null","","","","key","16.66739999999991","800","378.5","","","","","","","","","","","","","144","1","6","false","","","",""
"psychophysics","234","550242","0.0-16.0-2.20","5777d392d8e8880001b3041d","636d03e66a32c7f65a0397df","636d0825cc58e4f3afd9d6d4","1797.9000000953674","","","","90","","","","key","16.822532710279816","800","378.5","","","","","","","","","","","","","","","","","","","",""
"psychophysics","235","551253","0.0-16.0-0.21","5777d392d8e8880001b3041d","636d03e66a32c7f65a0397df","636d0825cc58e4f3afd9d6d4","null","","","","null","","","","key","16.666830508474465","800","378.5","","","","","","","","","","","","","","","","","","","",""
"psychophysics","236","551768","0.0-16.0-1.21","5777d392d8e8880001b3041d","636d03e66a32c7f65a0397df","636d0825cc58e4f3afd9d6d4","null","","","","null","","","","key","16.6687333333306","800","378.5","","","","","","","","","","","","","144","1","5","false","","","",""
"psychophysics","237","552447","0.0-16.0-2.21","5777d392d8e8880001b3041d","636d03e66a32c7f65a0397df","636d0825cc58e4f3afd9d6d4","671.2999999523163","","","","90","","","","key","16.668700000000534","800","378.5","","","","","","","","","","","","","","","","","","","",""
"psychophysics","238","553450","0.0-16.0-0.22","5777d392d8e8880001b3041d","636d03e66a32c7f65a0397df","636d0825cc58e4f3afd9d6d4","null","","","","null","","","","key","16.665322033897578","800","378.5","","","","","","","","","","","","","","","","","","","",""
"psychophysics","239","553954","0.0-16.0-1.22","5777d392d8e8880001b3041d","636d03e66a32c7f65a0397df","636d0825cc58e4f3afd9d6d4","null","","","","null","","","","key","16.668206896552622","800","378.5","","","","","","","","","","","","","144","-1","3","false","","","",""
"psychophysics","240","554999","0.0-16.0-2.22","5777d392d8e8880001b3041d","636d03e66a32c7f65a0397df","636d0825cc58e4f3afd9d6d4","1038.5","","","","90","","","","key","16.66624193548435","800","378.5","","","","","","","","","","","","","","","","","","","",""
"psychophysics","241","556003","0.0-16.0-0.23","5777d392d8e8880001b3041d","636d03e66a32c7f65a0397df","636d0825cc58e4f3afd9d6d4","null","","","","null","","","","key","16.668050847458257","800","378.5","","","","","","","","","","","","","","","","","","","",""
"psychophysics","242","556520","0.0-16.0-1.23","5777d392d8e8880001b3041d","636d03e66a32c7f65a0397df","636d0825cc58e4f3afd9d6d4","null","","","","null","","","","key","16.663833333334576","800","378.5","","","","","","","","","","","","","144","1","2","false","","","",""
"psychophysics","243","556825","0.0-16.0-2.23","5777d392d8e8880001b3041d","636d03e66a32c7f65a0397df","636d0825cc58e4f3afd9d6d4","298.09999990463257","","","","90","","","","key","16.666944444444702","800","378.5","","","","","","","","","","","","","","","","","","","",""
"html-keyboard-response","244","594417","0.0-17.0","5777d392d8e8880001b3041d","636d03e66a32c7f65a0397df","636d0825cc58e4f3afd9d6d4","37590","<p>Well Done !</p><p>Training Complete. Press the spacebar to start.</p><p>DON'T EXIT THE FULL SCREEN MODE</p>","","","32","","","","","","","","","","","","","","","","","","","","","","","","","","",""
"psychophysics","245","597435","0.0-18.0-0.0","5777d392d8e8880001b3041d","636d03e66a32c7f65a0397df","636d0825cc58e4f3afd9d6d4","null","","","","null","","","","key","16.66811666666763","800","378.5","","","","","","","","","","","","","","","","","","","",""
"psychophysics","246","597939","0.0-18.0-1.0","5777d392d8e8880001b3041d","636d03e66a32c7f65a0397df","636d0825cc58e4f3afd9d6d4","null","","","","null","","","","key","16.66813333333315","800","378.5","","","","","","","","","","","","","144","1","2","true","","","",""
"psychophysics","247","603135","0.0-18.0-2.0","5777d392d8e8880001b3041d","636d03e66a32c7f65a0397df","636d0825cc58e4f3afd9d6d4","5191.700000047684","","","","90","","","","key","16.66695483870947","800","378.5","","","","","","","","","","","","","","","","","","","",""
"psychophysics","248","604139","0.0-18.0-0.1","5777d392d8e8880001b3041d","636d03e66a32c7f65a0397df","636d0825cc58e4f3afd9d6d4","null","","","","null","","","","key","16.949966101694095","800","378.5","","","","","","","","","","","","","","","","","","","",""
"psychophysics","249","604652","0.0-18.0-1.1","5777d392d8e8880001b3041d","636d03e66a32c7f65a0397df","636d0825cc58e4f3afd9d6d4","null","","","","null","","","","key","16.66627586206646","800","378.5","","","","","","","","","","","","","144","-1","3","true","","","",""
"psychophysics","250","605776","0.0-18.0-2.1","5777d392d8e8880001b3041d","636d03e66a32c7f65a0397df","636d0825cc58e4f3afd9d6d4","1116.1000001430511","","","","90","","","","key","16.66711940298573","800","378.5","","","","","","","","","","","","","","","","","","","",""
"psychophysics","251","606786","0.0-18.0-0.2","5777d392d8e8880001b3041d","636d03e66a32c7f65a0397df","636d0825cc58e4f3afd9d6d4","null","","","","null","","","","key","16.66662711864416","800","378.5","","","","","","","","","","","","","","","","","","","",""
"psychophysics","252","607303","0.0-18.0-1.2","5777d392d8e8880001b3041d","636d03e66a32c7f65a0397df","636d0825cc58e4f3afd9d6d4","null","","","","null","","","","key","16.665566666668745","800","378.5","","","","","","","","","","","","","144","1","5","true","","","",""
"psychophysics","253","607656","0.0-18.0-2.2","5777d392d8e8880001b3041d","636d03e66a32c7f65a0397df","636d0825cc58e4f3afd9d6d4","313","","","","77","","","","key","17.53936842105376","800","378.5","","","","","","","","","","","","","","","","","","","",""
"psychophysics","254","608670","0.0-18.0-0.3","5777d392d8e8880001b3041d","636d03e66a32c7f65a0397df","636d0825cc58e4f3afd9d6d4","null","","","","null","","","","key","16.667849999999937","800","378.5","","","","","","","","","","","","","","","","","","","",""
"psychophysics","255","609187","0.0-18.0-1.3","5777d392d8e8880001b3041d","636d03e66a32c7f65a0397df","636d0825cc58e4f3afd9d6d4","null","","","","null","","","","key","16.666666666666668","800","378.5","","","","","","","","","","","","","144","-1","5","true","","","",""
"psychophysics","256","609775","0.0-18.0-2.3","5777d392d8e8880001b3041d","636d03e66a32c7f65a0397df","636d0825cc58e4f3afd9d6d4","581.3999998569489","","","","77","","","","key","17.154999999997123","800","378.5","","","","","","","","","","","","","","","","","","","",""
"psychophysics","257","610787","0.0-18.0-0.4","5777d392d8e8880001b3041d","636d03e66a32c7f65a0397df","636d0825cc58e4f3afd9d6d4","null","","","","null","","","","key","16.667271186439795","800","378.5","","","","","","","","","","","","","","","","","","","",""
"psychophysics","258","611303","0.0-18.0-1.4","5777d392d8e8880001b3041d","636d03e66a32c7f65a0397df","636d0825cc58e4f3afd9d6d4","null","","","","null","","","","key","16.66679999999857","800","378.5","","","","","","","","","","","","","144","1","4","true","","","",""
"psychophysics","259","611599","0.0-18.0-2.4","5777d392d8e8880001b3041d","636d03e66a32c7f65a0397df","636d0825cc58e4f3afd9d6d4","288.19999980926514","","","","90","","","","key","16.66282352941412","800","378.5","","","","","","","","","","","","","","","","","","","",""
"psychophysics","260","612603","0.0-18.0-0.5","5777d392d8e8880001b3041d","636d03e66a32c7f65a0397df","636d0825cc58e4f3afd9d6d4","null","","","","null","","","","key","16.66703389830477","800","378.5","","","","","","","","","","","","","","","","","","","",""
"psychophysics","261","613120","0.0-18.0-1.5","5777d392d8e8880001b3041d","636d03e66a32c7f65a0397df","636d0825cc58e4f3afd9d6d4","null","","","","null","","","","key","17.243413793103738","800","378.5","","","","","","","","","","","","","144","-1","4","true","","","",""
"psychophysics","262","613608","0.0-18.0-2.5","5777d392d8e8880001b3041d","636d03e66a32c7f65a0397df","636d0825cc58e4f3afd9d6d4","480.39999985694885","","","","90","","","","key","16.666241379310215","800","378.5","","","","","","","","","","","","","","","","","","","",""
"psychophysics","263","614620","0.0-18.0-0.6","5777d392d8e8880001b3041d","636d03e66a32c7f65a0397df","636d0825cc58e4f3afd9d6d4","null","","","","null","","","","key","16.66800000000019","800","378.5","","","","","","","","","","","","","","","","","","","",""
"psychophysics","264","615136","0.0-18.0-1.6","5777d392d8e8880001b3041d","636d03e66a32c7f65a0397df","636d0825cc58e4f3afd9d6d4","null","","","","null","","","","key","16.66570000000065","800","378.5","","","","","","","","","","","","","144","-1","6","true","","","",""
"psychophysics","265","615519","0.0-18.0-2.6","5777d392d8e8880001b3041d","636d03e66a32c7f65a0397df","636d0825cc58e4f3afd9d6d4","375.5","","","","77","","","","key","16.666499999997374","800","378.5","","","","","","","","","","","","","","","","","","","",""
"psychophysics","266","616537","0.0-18.0-0.7","5777d392d8e8880001b3041d","636d03e66a32c7f65a0397df","636d0825cc58e4f3afd9d6d4","null","","","","null","","","","key","16.66763333333462","800","378.5","","","","","","","","","","","","","","","","","","","",""
"psychophysics","267","617046","0.0-18.0-1.7","5777d392d8e8880001b3041d","636d03e66a32c7f65a0397df","636d0825cc58e4f3afd9d6d4","null","","","","null","","","","key","16.6693000000009","800","378.5","","","","","","","","","","","","","144","-1","0","true","","","",""
"psychophysics","268","617625","0.0-18.0-2.7","5777d392d8e8880001b3041d","636d03e66a32c7f65a0397df","636d0825cc58e4f3afd9d6d4","576.5999999046326","","","","90","","","","key","16.66705882353092","800","378.5","","","","","","","","","","","","","","","","","","","",""
"psychophysics","269","618637","0.0-18.0-0.8","5777d392d8e8880001b3041d","636d03e66a32c7f65a0397df","636d0825cc58e4f3afd9d6d4","null","","","","null","","","","key","16.66620338983021","800","378.5","","","","","","","","","","","","","","","","","","","",""
"psychophysics","270","619153","0.0-18.0-1.8","5777d392d8e8880001b3041d","636d03e66a32c7f65a0397df","636d0825cc58e4f3afd9d6d4","null","","","","null","","","","key","16.66679999999857","800","378.5","","","","","","","","","","","","","144","1","6","true","","","",""
"psychophysics","271","619318","0.0-18.0-2.8","5777d392d8e8880001b3041d","636d03e66a32c7f65a0397df","636d0825cc58e4f3afd9d6d4","119.90000009536743","","","","77","","","","key","18.75237499999639","800","378.5","","","","","","","","","","","","","","","","","","","",""
"psychophysics","272","620320","0.0-18.0-0.9","5777d392d8e8880001b3041d","636d03e66a32c7f65a0397df","636d0825cc58e4f3afd9d6d4","null","","","","null","","","","key","16.666966101695326","800","378.5","","","","","","","","","","","","","","","","","","","",""
"psychophysics","273","620834","0.0-18.0-1.9","5777d392d8e8880001b3041d","636d03e66a32c7f65a0397df","636d0825cc58e4f3afd9d6d4","null","","","","null","","","","key","16.6661666666662","800","378.5","","","","","","","","","","","","","144","1","0","true","","","",""
"psychophysics","274","621575","0.0-18.0-2.9","5777d392d8e8880001b3041d","636d03e66a32c7f65a0397df","636d0825cc58e4f3afd9d6d4","735.8000001907349","","","","90","","","","key","16.66795454545486","800","378.5","","","","","","","","","","","","","","","","","","","",""
"psychophysics","275","622586","0.0-18.0-0.10","5777d392d8e8880001b3041d","636d03e66a32c7f65a0397df","636d0825cc58e4f3afd9d6d4","null","","","","null","","","","key","16.665084745762552","800","378.5","","","","","","","","","","","","","","","","","","","",""
"psychophysics","276","623089","0.0-18.0-1.10","5777d392d8e8880001b3041d","636d03e66a32c7f65a0397df","636d0825cc58e4f3afd9d6d4","null","","","","null","","","","key","16.668233333334015","800","378.5","","","","","","","","","","","","","144","1","3","true","","","",""
"psychophysics","277","623631","0.0-18.0-2.10","5777d392d8e8880001b3041d","636d03e66a32c7f65a0397df","636d0825cc58e4f3afd9d6d4","537.7999999523163","","","","77","","","","key","16.6662580645155","800","378.5","","","","","","","","","","","","","","","","","","","",""
"psychophysics","278","624637","0.0-18.0-0.11","5777d392d8e8880001b3041d","636d03e66a32c7f65a0397df","636d0825cc58e4f3afd9d6d4","null","","","","null","","","","key","16.66720338983035","800","378.5","","","","","","","","","","","","","","","","","","","",""
"psychophysics","279","625153","0.0-18.0-1.11","5777d392d8e8880001b3041d","636d03e66a32c7f65a0397df","636d0825cc58e4f3afd9d6d4","null","","","","null","","","","key","16.66810000000211","800","378.5","","","","","","","","","","","","","144","-1","2","true","","","",""
"psychophysics","280","625675","0.0-18.0-2.11","5777d392d8e8880001b3041d","636d03e66a32c7f65a0397df","636d0825cc58e4f3afd9d6d4","514.4000000953674","","","","90","","","","key","16.66525806451682","800","378.5","","","","","","","","","","","","","","","","","","","",""
"psychophysics","281","626687","0.0-18.0-0.12","5777d392d8e8880001b3041d","636d03e66a32c7f65a0397df","636d0825cc58e4f3afd9d6d4","null","","","","null","","","","key","16.666474576271927","800","378.5","","","","","","","","","","","","","","","","","","","",""
"psychophysics","282","627203","0.0-18.0-1.12","5777d392d8e8880001b3041d","636d03e66a32c7f65a0397df","636d0825cc58e4f3afd9d6d4","null","","","","null","","","","key","16.66809999999823","800","378.5","","","","","","","","","","","","","144","-1","3","true","","","",""
"psychophysics","283","627691","0.0-18.0-2.12","5777d392d8e8880001b3041d","636d03e66a32c7f65a0397df","636d0825cc58e4f3afd9d6d4","480.7000000476837","","","","90","","","","key","16.664413793100813","800","378.5","","","","","","","","","","","","","","","","","","","",""
"psychophysics","284","628703","0.0-18.0-0.13","5777d392d8e8880001b3041d","636d03e66a32c7f65a0397df","636d0825cc58e4f3afd9d6d4","null","","","","null","","","","key","16.666288135593","800","378.5","","","","","","","","","","","","","","","","","","","",""
"psychophysics","285","629220","0.0-18.0-1.13","5777d392d8e8880001b3041d","636d03e66a32c7f65a0397df","636d0825cc58e4f3afd9d6d4","null","","","","null","","","","key","16.667766666664587","800","378.5","","","","","","","","","","","","","144","1","0","true","","","",""
"psychophysics","286","630479","0.0-18.0-2.13","5777d392d8e8880001b3041d","636d03e66a32c7f65a0397df","636d0825cc58e4f3afd9d6d4","1223.4000000953674","","","","90","","","","key","16.889445945946186","800","378.5","","","","","","","","","","","","","","","","","","","",""
"psychophysics","287","631483","0.0-18.0-0.14","5777d392d8e8880001b3041d","636d03e66a32c7f65a0397df","636d0825cc58e4f3afd9d6d4","null","","","","null","","","","key","16.666644067795538","800","378.5","","","","","","","","","","","","","","","","","","","",""
"psychophysics","288","631986","0.0-18.0-1.14","5777d392d8e8880001b3041d","636d03e66a32c7f65a0397df","636d0825cc58e4f3afd9d6d4","null","","","","null","","","","key","16.67058620689806","800","378.5","","","","","","","","","","","","","144","-1","0","true","","","",""
"psychophysics","289","632479","0.0-18.0-2.14","5777d392d8e8880001b3041d","636d03e66a32c7f65a0397df","636d0825cc58e4f3afd9d6d4","484.7999999523163","","","","90","","","","key","16.669206896551948","800","378.5","","","","","","","","","","","","","","","","","","","",""
"psychophysics","290","633487","0.0-18.0-0.15","5777d392d8e8880001b3041d","636d03e66a32c7f65a0397df","636d0825cc58e4f3afd9d6d4","null","","","","null","","","","key","16.666915254237257","800","378.5","","","","","","","","","","","","","","","","","","","",""
"psychophysics","291","634002","0.0-18.0-1.15","5777d392d8e8880001b3041d","636d03e66a32c7f65a0397df","636d0825cc58e4f3afd9d6d4","null","","","","null","","","","key","16.662200000001274","800","378.5","","","","","","","","","","","","","144","1","4","true","","","",""
"psychophysics","292","634305","0.0-18.0-2.15","5777d392d8e8880001b3041d","636d03e66a32c7f65a0397df","636d0825cc58e4f3afd9d6d4","293.5","","","","77","","","","key","16.666764705887008","800","378.5","","","","","","","","","","","","","","","","","","","",""
"psychophysics","293","635314","0.0-18.0-0.16","5777d392d8e8880001b3041d","636d03e66a32c7f65a0397df","636d0825cc58e4f3afd9d6d4","null","","","","null","","","","key","16.668316666667426","800","378.5","","","","","","","","","","","","","","","","","","","",""
"psychophysics","294","635818","0.0-18.0-1.16","5777d392d8e8880001b3041d","636d03e66a32c7f65a0397df","636d0825cc58e4f3afd9d6d4","null","","","","null","","","","key","16.669137931035447","800","378.5","","","","","","","","","","","","","144","-1","4","true","","","",""
"psychophysics","295","637022","0.0-18.0-2.16","5777d392d8e8880001b3041d","636d03e66a32c7f65a0397df","636d0825cc58e4f3afd9d6d4","1198.5999999046326","","","","77","","","","key","16.665611111111097","800","378.5","","","","","","","","","","","","","","","","","","","",""
"psychophysics","296","638026","0.0-18.0-0.17","5777d392d8e8880001b3041d","636d03e66a32c7f65a0397df","636d0825cc58e4f3afd9d6d4","null","","","","null","","","","key","16.66869491525389","800","378.5","","","","","","","","","","","","","","","","","","","",""
"psychophysics","297","638530","0.0-18.0-1.17","5777d392d8e8880001b3041d","636d03e66a32c7f65a0397df","636d0825cc58e4f3afd9d6d4","null","","","","null","","","","key","16.667275862065786","800","378.5","","","","","","","","","","","","","144","1","6","true","","","",""
"psychophysics","298","641232","0.0-18.0-2.17","5777d392d8e8880001b3041d","636d03e66a32c7f65a0397df","636d0825cc58e4f3afd9d6d4","2698.600000143051","","","","77","","","","key","16.66662732919285","800","378.5","","","","","","","","","","","","","","","","","","","",""
"psychophysics","299","642237","0.0-18.0-0.18","5777d392d8e8880001b3041d","636d03e66a32c7f65a0397df","636d0825cc58e4f3afd9d6d4","null","","","","null","","","","key","16.666830508474465","800","378.5","","","","","","","","","","","","","","","","","","","",""
"psychophysics","300","642746","0.0-18.0-1.18","5777d392d8e8880001b3041d","636d03e66a32c7f65a0397df","636d0825cc58e4f3afd9d6d4","null","","","","null","","","","key","16.66633333333302","800","378.5","","","","","","","","","","","","","144","1","2","true","","","",""
"psychophysics","301","643479","0.0-18.0-2.18","5777d392d8e8880001b3041d","636d03e66a32c7f65a0397df","636d0825cc58e4f3afd9d6d4","729.4000000953674","","","","77","","","","key","16.666162790698106","800","378.5","","","","","","","","","","","","","","","","","","","",""
"psychophysics","302","644482","0.0-18.0-0.19","5777d392d8e8880001b3041d","636d03e66a32c7f65a0397df","636d0825cc58e4f3afd9d6d4","null","","","","null","","","","key","16.666864406779187","800","378.5","","","","","","","","","","","","","","","","","","","",""
"psychophysics","303","644987","0.0-18.0-1.19","5777d392d8e8880001b3041d","636d03e66a32c7f65a0397df","636d0825cc58e4f3afd9d6d4","null","","","","null","","","","key","17.259892857142923","800","378.5","","","","","","","","","","","","","144","-1","6","true","","","",""
"psychophysics","304","645247","0.0-18.0-2.19","5777d392d8e8880001b3041d","636d03e66a32c7f65a0397df","636d0825cc58e4f3afd9d6d4","252.79999995231628","","","","90","","","","key","16.66633333333302","800","378.5","","","","","","","","","","","","","","","","","","","",""
"psychophysics","305","646253","0.0-18.0-0.20","5777d392d8e8880001b3041d","636d03e66a32c7f65a0397df","636d0825cc58e4f3afd9d6d4","null","","","","null","","","","key","16.666881355932535","800","378.5","","","","","","","","","","","","","","","","","","","",""
"psychophysics","306","646766","0.0-18.0-1.20","5777d392d8e8880001b3041d","636d03e66a32c7f65a0397df","636d0825cc58e4f3afd9d6d4","null","","","","null","","","","key","16.667066666666262","800","378.5","","","","","","","","","","","","","144","-1","2","true","","","",""
"psychophysics","307","647631","0.0-18.0-2.20","5777d392d8e8880001b3041d","636d03e66a32c7f65a0397df","636d0825cc58e4f3afd9d6d4","861.8999998569489","","","","90","","","","key","16.664882352940886","800","378.5","","","","","","","","","","","","","","","","","","","",""
"psychophysics","308","648637","0.0-18.0-0.21","5777d392d8e8880001b3041d","636d03e66a32c7f65a0397df","636d0825cc58e4f3afd9d6d4","null","","","","null","","","","key","16.954224137930552","800","378.5","","","","","","","","","","","","","","","","","","","",""
"psychophysics","309","649153","0.0-18.0-1.21","5777d392d8e8880001b3041d","636d03e66a32c7f65a0397df","636d0825cc58e4f3afd9d6d4","null","","","","null","","","","key","16.6656333333347","800","378.5","","","","","","","","","","","","","144","1","5","true","","","",""
"psychophysics","310","649423","0.0-18.0-2.21","5777d392d8e8880001b3041d","636d03e66a32c7f65a0397df","636d0825cc58e4f3afd9d6d4","262.2000000476837","","","","77","","","","key","16.65875000000233","800","378.5","","","","","","","","","","","","","","","","","","","",""
"psychophysics","311","650437","0.0-18.0-0.22","5777d392d8e8880001b3041d","636d03e66a32c7f65a0397df","636d0825cc58e4f3afd9d6d4","null","","","","null","","","","key","16.666898305083908","800","378.5","","","","","","","","","","","","","","","","","","","",""
"psychophysics","312","650953","0.0-18.0-1.22","5777d392d8e8880001b3041d","636d03e66a32c7f65a0397df","636d0825cc58e4f3afd9d6d4","null","","","","null","","","","key","16.666533333330882","800","378.5","","","","","","","","","","","","","144","-1","5","true","","","",""
"psychophysics","313","651593","0.0-18.0-2.22","5777d392d8e8880001b3041d","636d03e66a32c7f65a0397df","636d0825cc58e4f3afd9d6d4","596.0999999046326","","","","90","","","","key","17.1163783783779","800","378.5","","","","","","","","","","","","","","","","","","","",""
"psychophysics","314","652603","0.0-18.0-0.23","5777d392d8e8880001b3041d","636d03e66a32c7f65a0397df","636d0825cc58e4f3afd9d6d4","null","","","","null","","","","key","16.666745762711674","800","378.5","","","","","","","","","","","","","","","","","","","",""
"psychophysics","315","653120","0.0-18.0-1.23","5777d392d8e8880001b3041d","636d03e66a32c7f65a0397df","636d0825cc58e4f3afd9d6d4","null","","","","null","","","","key","16.66700000000031","800","378.5","","","","","","","","","","","","","144","1","3","true","","","",""
"psychophysics","316","654567","0.0-18.0-2.23","5777d392d8e8880001b3041d","636d03e66a32c7f65a0397df","636d0825cc58e4f3afd9d6d4","1439.7999999523163","","","","90","","","","key","16.86229411764755","800","378.5","","","","","","","","","","","","","","","","","","","",""
"psychophysics","317","655570","0.0-18.0-0.24","5777d392d8e8880001b3041d","636d03e66a32c7f65a0397df","636d0825cc58e4f3afd9d6d4","null","","","","null","","","","key","16.667271186441766","800","378.5","","","","","","","","","","","","","","","","","","","",""
"psychophysics","318","656087","0.0-18.0-1.24","5777d392d8e8880001b3041d","636d03e66a32c7f65a0397df","636d0825cc58e4f3afd9d6d4","null","","","","null","","","","key","16.66610000000025","800","378.5","","","","","","","","","","","","","144","1","6","true","","","",""
"psychophysics","319","657111","0.0-18.0-2.24","5777d392d8e8880001b3041d","636d03e66a32c7f65a0397df","636d0825cc58e4f3afd9d6d4","1017.2000000476837","","","","77","","","","key","16.9443000000009","800","378.5","","","","","","","","","","","","","","","","","","","",""
"psychophysics","320","658120","0.0-18.0-0.25","5777d392d8e8880001b3041d","636d03e66a32c7f65a0397df","636d0825cc58e4f3afd9d6d4","null","","","","null","","","","key","16.666813559323092","800","378.5","","","","","","","","","","","","","","","","","","","",""
"psychophysics","321","658637","0.0-18.0-1.25","5777d392d8e8880001b3041d","636d03e66a32c7f65a0397df","636d0825cc58e4f3afd9d6d4","null","","","","null","","","","key","16.664733333330755","800","378.5","","","","","","","","","","","","","144","-1","4","true","","","",""
"psychophysics","322","659015","0.0-18.0-2.25","5777d392d8e8880001b3041d","636d03e66a32c7f65a0397df","636d0825cc58e4f3afd9d6d4","370.80000019073486","","","","90","","","","key","16.66781818181996","800","378.5","","","","","","","","","","","","","","","","","","","",""
"psychophysics","323","660020","0.0-18.0-0.26","5777d392d8e8880001b3041d","636d03e66a32c7f65a0397df","636d0825cc58e4f3afd9d6d4","null","","","","null","","","","key","16.666305084746348","800","378.5","","","","","","","","","","","","","","","","","","","",""
"psychophysics","324","660537","0.0-18.0-1.26","5777d392d8e8880001b3041d","636d03e66a32c7f65a0397df","636d0825cc58e4f3afd9d6d4","null","","","","null","","","","key","17.242103448278144","800","378.5","","","","","","","","","","","","","144","-1","6","true","","","",""
"psychophysics","325","661768","0.0-18.0-2.26","5777d392d8e8880001b3041d","636d03e66a32c7f65a0397df","636d0825cc58e4f3afd9d6d4","1224.5","","","","77","","","","key","16.665986301369443","800","378.5","","","","","","","","","","","","","","","","","","","",""
"psychophysics","326","662770","0.0-18.0-0.27","5777d392d8e8880001b3041d","636d03e66a32c7f65a0397df","636d0825cc58e4f3afd9d6d4","null","","","","null","","","","key","16.66711864406756","800","378.5","","","","","","","","","","","","","","","","","","","",""
"psychophysics","327","663287","0.0-18.0-1.27","5777d392d8e8880001b3041d","636d03e66a32c7f65a0397df","636d0825cc58e4f3afd9d6d4","null","","","","null","","","","key","16.66559999999978","800","378.5","","","","","","","","","","","","","144","-1","2","true","","","",""
"psychophysics","328","664159","0.0-18.0-2.27","5777d392d8e8880001b3041d","636d03e66a32c7f65a0397df","636d0825cc58e4f3afd9d6d4","865.7999999523163","","","","90","","","","key","16.6664230769227","800","378.5","","","","","","","","","","","","","","","","","","","",""
"psychophysics","329","665171","0.0-18.0-0.28","5777d392d8e8880001b3041d","636d03e66a32c7f65a0397df","636d0825cc58e4f3afd9d6d4","null","","","","null","","","","key","16.664644067797227","800","378.5","","","","","","","","","","","","","","","","","","","",""
