"trial_type","trial_index","time_elapsed","internal_node_id","PROLIFIC_PID","STUDY_ID","SESSION_ID","rt","stimulus","button_pressed","success","key_press","responses","isData","view_history","response_type","avg_frame_time","center_x","center_y","isSC","stim_side","trial_luminance","step_size","nReversal","correct","prev_ans","isThreshold","SC_threshold","final_threshold","isLuminance","FF_luminance","luminance","stimSide","ISInt","isFF","question_order","isSPQ","isCAPS","isAQ"
"pavlovia","0","4","0.0-0.0","5d91d281412c0300cb50e7ee","636d03e66a32c7f65a0397df","636d0730789d47c09a9fd634","","","","","","","","","","","","","","","","","","","","","","","","","","","","","","","",""
"html-button-response","1","5497","0.0-1.0","5d91d281412c0300cb50e7ee","636d03e66a32c7f65a0397df","636d0730789d47c09a9fd634","5490.600000143051","<div style='background-color: white; width:60%; margin: auto; padding: 50px; text-align: justify; text-justify: inter-word; margin-bottom: 20px;'><h1 style='text-align: center;'>Consent Form</h1><p>Please read this consent form carefully before deciding whether you would like to participate in this study. You have to be 18 years old or older to participate to this study.</p><p style='text-decoration: underline;'>Participation is voluntary:</p><p>It is your choice whether or not to participate in this research. If you choose to participate, you may change your mind and leave the study at any time. Refusal to participate or stopping your participation will involve no penalty or loss of benefits to which you are otherwise entitled.</p><p style='text-decoration: underline;'>Purpose of the Study:</p><p>To understand the mechanisms underlying human perception.</p><p style='text-decoration: underline;'>What you will do in this study:</p><p>You will be presented with a series of visual images and then you will press buttons on the keyboard of your computer to respond to simple questions about the images (e.g. Were one or two images presented?). In addition, you will be asked to complete a questionnaire concerning your beliefs and everyday mental and perceptual experiences.'</p><p style='text-decoration: underline;'> Time Required:</p><p>The study will take 40 minutes to complete. </p><p style='text-decoration: underline;'>Risks:</p><p>There are no anticipated risks associated with participating in this study that are beyond those experienced in everyday life. </p><p style='text-decoration: underline;'>Benefits:</p><p>There are no benefits to you in participating in the study. However, this study may lead to a better understanding of how different kinds of visual information are used.</p><p style='text-decoration: underline;'>Compensation:</p><p>You will be paid US$6.6/hour. </p><p style='text-decoration: underline;'>Privacy and Confidentiality:</p><p>Your participation in this study will be anonymous. No personal information about your name or identity will be asked or recorded. This anonymous data will be stored for several years and may be used for a variety of research purposes. The overall results of the study may be published, or the data files may be shared with other researchers, but your identity will not be revealed in any way. The online services we are using for this study may temporarily store your data, but this data will be downloaded and then promptly deleted from those services.Your data will not be permanently associated with your name, IP address, or any other identifiable information (e.g., your information will only be connected to your payment, not to any of your responses), though they may be temporarily stored together before we download and separate them. Even so, no guarantee of internet survey security can be given because, although unlikely, transmissions can be intercepted and IP addresses can be identified. The anonymous data may be shared publicly (for example, in conjunction with a resulting academic publication).</p><p style='text-decoration: underline;'>Participation and Withdrawal:</p><p>Your participation in this study is completely voluntary. You may stop responding to the stimuli or stop answering questions if you so choose and without penalty by exiting the full screen mode, closing this tab of your browser or redirecting it to a different website.</p><p style='text-decoration: underline;'>Contact Info of the Researcher: </p><p>If you have questions about this study, or if you would like to talk to the research team, please contact David Melcher (david.melcher@nyu.edu, md5050@nyu.edu) at the Perception and Active Cognition Laboratory, New York University Abu Dhabi, Computational Research Building, Saadiyat Island, Abu Dhabi, UAE.This research has been reviewed by the New York University Abu Dhabi Institutional Review Board (NYUAD IRB). To contact about your rights in this research, for questions, suggestions, or complaints that are not addressed by the researchers, please email IRBnyuad@nyu.edu, or call the NYUAD IRB at +971 2 628 4313. </p></div>","0","","","","","","","","","","","","","","","","","","","","","","","","","","","","",""
"fullscreen","2","7578","0.0-2.0","5d91d281412c0300cb50e7ee","636d03e66a32c7f65a0397df","636d0730789d47c09a9fd634","","","","true","","","","","","","","","","","","","","","","","","","","","","","","","","","",""
"html-keyboard-response","3","21370","0.0-3.0","5d91d281412c0300cb50e7ee","636d03e66a32c7f65a0397df","636d0730789d47c09a9fd634","13790.799999952316","<p>Welcome !</p><p>READ CAREFULLY THE FOLLOWING INDICATIONS:</p><p>From this moment you have ~40 minutes to complete the experiment.</p><p>During the experiment you will be prompted to take several breaks. Each break should not last longer than 2-3 minutes.</p><p>Make sure that your computer is plugged in and it's not running on battery power, even if the battery is already fully charged.</p><p>Turn off your phone and music, make sure that you are in a quiet room and that you will not be distracted for the next hour.</p><p>Failure to comply with the instructions and indications provided during the experiment will most likely result in the rejection of your data.<p>Press the spacebar to start.</p>","","","32","","","","","","","","","","","","","","","","","","","","","","","","","","",""
"survey-html-form","4","27417","0.0-4.0","5d91d281412c0300cb50e7ee","636d03e66a32c7f65a0397df","636d0730789d47c09a9fd634","6046.299999952316","","","","","{""age"":""32"",""sex"":""F""}","true","","","","","","","","","","","","","","","","","","","","","","","","",""
"instructions","5","108805","0.0-5.0","5d91d281412c0300cb50e7ee","636d03e66a32c7f65a0397df","636d0730789d47c09a9fd634","81387.60000014305","","","","","","","[{""page_index"":0,""viewing_time"":63467.60000014305},{""page_index"":1,""viewing_time"":13205.799999952316},{""page_index"":2,""viewing_time"":4713.5}]","","","","","","","","","","","","","","","","","","","","","","","",""
"psychophysics","6","111995","0.0-6.0-0.0","5d91d281412c0300cb50e7ee","636d03e66a32c7f65a0397df","636d0730789d47c09a9fd634","2182.7999999523163","","","","37","","","","key","16.828373684210543","640","300.5","true","1","180","30","0","1","","","","","","","","","","","","","",""
"psychophysics","7","113122","0.0-6.0-0.1","5d91d281412c0300cb50e7ee","636d03e66a32c7f65a0397df","636d0730789d47c09a9fd634","124.60000014305115","","","","39","","","","key","16.656402985074727","640","300.5","true","1","210","30","0","-1","1","","","","","","","","","","","","",""
"psychophysics","8","114822","0.0-6.0-0.2","5d91d281412c0300cb50e7ee","636d03e66a32c7f65a0397df","636d0730789d47c09a9fd634","687.2000000476837","","","","39","","","","key","16.652069306930805","640","300.5","true","1","210","24","1","-1","-1","","","","","","","","","","","","",""
"psychophysics","9","116334","0.0-6.0-0.3","5d91d281412c0300cb50e7ee","636d03e66a32c7f65a0397df","636d0730789d47c09a9fd634","503.2000000476837","","","","37","","","","key","16.651466666666643","640","300.5","true","-1","186","24","1","-1","-1","","","","","","","","","","","","",""
"psychophysics","10","117707","0.0-6.0-0.4","5d91d281412c0300cb50e7ee","636d03e66a32c7f65a0397df","636d0730789d47c09a9fd634","364.2999999523163","","","","37","","","","key","16.65241975308648","640","300.5","true","-1","186","24","1","-1","-1","","","","","","","","","","","","",""
"psychophysics","11","120116","0.0-6.0-0.5","5d91d281412c0300cb50e7ee","636d03e66a32c7f65a0397df","636d0730789d47c09a9fd634","1405.9000000953674","","","","37","","","","key","16.65269444444443","640","300.5","true","1","162","19.2","2","1","-1","","","","","","","","","","","","",""
"psychophysics","12","122107","0.0-6.0-0.6","5d91d281412c0300cb50e7ee","636d03e66a32c7f65a0397df","636d0730789d47c09a9fd634","987.8000001907349","","","","39","","","","key","16.65213559322038","640","300.5","true","1","181.2","19.2","2","-1","1","","","","","","","","","","","","",""
"psychophysics","13","123522","0.0-6.0-0.7","5d91d281412c0300cb50e7ee","636d03e66a32c7f65a0397df","636d0730789d47c09a9fd634","409.10000014305115","","","","37","","","","key","16.652452380952344","640","300.5","true","-1","181.2","15.36","3","-1","-1","","","","","","","","","","","","",""
"psychophysics","14","124941","0.0-6.0-0.8","5d91d281412c0300cb50e7ee","636d03e66a32c7f65a0397df","636d0730789d47c09a9fd634","415.5","","","","37","","","","key","16.65086904761899","640","300.5","true","-1","165.83999999999997","15.36","3","-1","-1","","","","","","","","","","","","",""
"psychophysics","15","126454","0.0-6.0-0.9","5d91d281412c0300cb50e7ee","636d03e66a32c7f65a0397df","636d0730789d47c09a9fd634","512.0999999046326","","","","39","","","","key","16.65292222222229","640","300.5","true","1","165.83999999999997","15.36","3","-1","-1","","","","","","","","","","","","",""
"psychophysics","16","127863","0.0-6.0-0.10","5d91d281412c0300cb50e7ee","636d03e66a32c7f65a0397df","636d0730789d47c09a9fd634","406.2000000476837","","","","37","","","","key","16.652428571428615","640","300.5","true","-1","150.47999999999996","15.36","3","-1","-1","","","","","","","","","","","","",""
"psychophysics","17","129294","0.0-6.0-0.11","5d91d281412c0300cb50e7ee","636d03e66a32c7f65a0397df","636d0730789d47c09a9fd634","424.60000014305115","","","","37","","","","key","16.652964705882443","640","300.5","true","-1","150.47999999999996","15.36","3","-1","-1","","","","","","","","","","","","",""
"psychophysics","18","130667","0.0-6.0-0.12","5d91d281412c0300cb50e7ee","636d03e66a32c7f65a0397df","636d0730789d47c09a9fd634","364.7000000476837","","","","39","","","","key","16.65253086419766","640","300.5","true","1","135.11999999999995","15.36","3","-1","-1","","","","","","","","","","","","",""
"psychophysics","19","133879","0.0-6.0-0.13","5d91d281412c0300cb50e7ee","636d03e66a32c7f65a0397df","636d0730789d47c09a9fd634","2209.0999999046326","","","","37","","","","key","16.653062500000033","640","300.5","true","-1","135.11999999999995","15.36","3","-1","-1","","","","","","","","","","","","",""
"psychophysics","20","136471","0.0-6.0-0.14","5d91d281412c0300cb50e7ee","636d03e66a32c7f65a0397df","636d0730789d47c09a9fd634","1586.5999999046326","","","","37","","","","key","16.65050967741934","640","300.5","true","-1","129","15.36","3","-1","-1","","","","","","","","","","","","",""
"psychophysics","21","138624","0.0-6.0-0.15","5d91d281412c0300cb50e7ee","636d03e66a32c7f65a0397df","636d0730789d47c09a9fd634","1146.9000000953674","","","","37","","","","key","16.65294531250015","640","300.5","true","1","129","12.287999999999998","4","1","-1","","","","","","","","","","","","",""
"psychophysics","22","140073","0.0-6.0-0.16","5d91d281412c0300cb50e7ee","636d03e66a32c7f65a0397df","636d0730789d47c09a9fd634","442.60000014305115","","","","37","","","","key","16.652604651162576","640","300.5","true","-1","141.288","12.287999999999998","4","-1","1","","","","","","","","","","","","",""
"psychophysics","23","141439","0.0-6.0-0.17","5d91d281412c0300cb50e7ee","636d03e66a32c7f65a0397df","636d0730789d47c09a9fd634","360.5","","","","39","","","","key","16.65244444444442","640","300.5","true","1","141.288","9.8304","5","-1","-1","","","","","","","","","","","","",""
"psychophysics","24","143754","0.0-6.0-0.18","5d91d281412c0300cb50e7ee","636d03e66a32c7f65a0397df","636d0730789d47c09a9fd634","1309.3000001907349","","","","37","","","","key","16.652152173913066","640","300.5","true","1","131.4576","7.864319999999999","6","1","-1","","","","","","","","","","","","",""
"psychophysics","25","145063","0.0-6.0-0.19","5d91d281412c0300cb50e7ee","636d03e66a32c7f65a0397df","636d0730789d47c09a9fd634","305.2999999523163","","","","39","","","","key","16.656064102564226","640","300.5","true","1","139.32192","7.864319999999999","6","-1","1","","","","","","","","","","","","",""
"psychophysics","26","146374","0.0-6.0-0.20","5d91d281412c0300cb50e7ee","636d03e66a32c7f65a0397df","636d0730789d47c09a9fd634","303.5","","","","39","","","","key","16.652194805194583","640","300.5","true","1","139.32192","6.291456","7","-1","-1","","","","","","","","","","","","",""
"psychophysics","27","147737","0.0-6.0-0.21","5d91d281412c0300cb50e7ee","636d03e66a32c7f65a0397df","636d0730789d47c09a9fd634","355.5","","","","39","","","","key","16.652271604938303","640","300.5","true","1","133.030464","6.291456","7","-1","-1","","","","","","","","","","","","",""
"psychophysics","28","149075","0.0-6.0-0.22","5d91d281412c0300cb50e7ee","636d03e66a32c7f65a0397df","636d0730789d47c09a9fd634","335.40000009536743","","","","37","","","","key","16.65222500000018","640","300.5","true","-1","133.030464","6.291456","7","-1","-1","","","","","","","","","","","","",""
"psychophysics","29","150698","0.0-6.0-0.23","5d91d281412c0300cb50e7ee","636d03e66a32c7f65a0397df","636d0730789d47c09a9fd634","619.9000000953674","","","","37","","","","key","16.652364583333412","640","300.5","true","1","129","5.033164800000001","8","1","-1","","","","","","","","","","","","",""
"psychophysics","30","152662","0.0-6.0-0.24","5d91d281412c0300cb50e7ee","636d03e66a32c7f65a0397df","636d0730789d47c09a9fd634","959.2999999523163","","","","37","","","","key","16.65177777777779","640","300.5","true","1","134.0331648","5.033164800000001","8","1","1","","","","","","","","","","","","",""
"psychophysics","31","154031","0.0-6.0-0.25","5d91d281412c0300cb50e7ee","636d03e66a32c7f65a0397df","636d0730789d47c09a9fd634","362.19999980926514","","","","37","","","","key","16.652790123457017","640","300.5","true","-1","139.06632960000002","5.033164800000001","8","-1","1","","","","","","","","","","","","",""
"psychophysics","32","155197","0.0-6.0-0.26","5d91d281412c0300cb50e7ee","636d03e66a32c7f65a0397df","636d0730789d47c09a9fd634","162.59999990463257","","","","37","","","","key","16.65279710144893","640","300.5","true","-1","139.06632960000002","4.0265318400000005","9","-1","-1","","","","","","","","","","","","",""
"psychophysics","33","156491","0.0-6.0-0.27","5d91d281412c0300cb50e7ee","636d03e66a32c7f65a0397df","636d0730789d47c09a9fd634","291","","","","37","","","","key","16.652454545454564","640","300.5","true","-1","135.03979776000003","4.0265318400000005","9","-1","-1","","","","","","","","","","","","",""
"psychophysics","34","157828","0.0-6.0-0.28","5d91d281412c0300cb50e7ee","636d03e66a32c7f65a0397df","636d0730789d47c09a9fd634","333","","","","37","","","","key","16.652367088607736","640","300.5","true","-1","135.03979776000003","4.0265318400000005","9","-1","-1","","","","","","","","","","","","",""
"psychophysics","35","159676","0.0-6.0-0.29","5d91d281412c0300cb50e7ee","636d03e66a32c7f65a0397df","636d0730789d47c09a9fd634","846.2999999523163","","","","37","","","","key","16.65269999999992","640","300.5","true","-1","131.01326592000004","4.0265318400000005","9","-1","-1","","","","","","","","","","","","",""
"psychophysics","36","161746","0.0-6.0-0.30","5d91d281412c0300cb50e7ee","636d03e66a32c7f65a0397df","636d0730789d47c09a9fd634","1068.2999999523163","","","","39","","","","key","16.652911290322663","640","300.5","true","1","131.01326592000004","4.0265318400000005","9","-1","-1","","","","","","","","","","","","",""
"psychophysics","37","163534","0.0-6.0-0.31","5d91d281412c0300cb50e7ee","636d03e66a32c7f65a0397df","636d0730789d47c09a9fd634","783.2000000476837","","","","39","","","","key","16.65310377358483","640","300.5","true","-1","129","3.2212254720000004","10","1","-1","","","","","","","","","","","","",""
"psychophysics","38","165713","0.0-6.0-0.32","5d91d281412c0300cb50e7ee","636d03e66a32c7f65a0397df","636d0730789d47c09a9fd634","1170.6999998092651","","","","39","","","","key","16.652884615384615","640","300.5","true","-1","132.22122547200001","3.2212254720000004","10","1","1","","","","","","","","","","","","",""
"psychophysics","39","167667","0.0-6.0-0.33","5d91d281412c0300cb50e7ee","636d03e66a32c7f65a0397df","636d0730789d47c09a9fd634","949.5999999046326","","","","37","","","","key","16.651948275861976","640","300.5","true","1","135.44245094400003","3.2212254720000004","10","1","1","","","","","","","","","","","","",""
"psychophysics","40","169085","0.0-6.0-0.34","5d91d281412c0300cb50e7ee","636d03e66a32c7f65a0397df","636d0730789d47c09a9fd634","415.60000014305115","","","","39","","","","key","16.652678571428364","640","300.5","true","1","138.66367641600004","3.2212254720000004","10","-1","1","","","","","","","","","","","","",""
"psychophysics","41","170424","0.0-6.0-0.35","5d91d281412c0300cb50e7ee","636d03e66a32c7f65a0397df","636d0730789d47c09a9fd634","335.69999980926514","","","","39","","","","key","16.65227500000001","640","300.5","true","1","138.66367641600004","2.5769803776000004","11","-1","-1","","","","","","","","","","","","",""
"psychophysics","42","171715","0.0-6.0-0.36","5d91d281412c0300cb50e7ee","636d03e66a32c7f65a0397df","636d0730789d47c09a9fd634","283.7999999523163","","","","39","","","","key","16.651881578947435","640","300.5","true","1","136.08669603840005","2.5769803776000004","11","-1","-1","","","","","","","","","","","","",""
"psychophysics","43","173023","0.0-6.0-0.37","5d91d281412c0300cb50e7ee","636d03e66a32c7f65a0397df","636d0730789d47c09a9fd634","305","","","","37","","","","key","16.652166666666744","640","300.5","true","-1","136.08669603840005","2.5769803776000004","11","-1","-1","","","","","","","","","","","","",""
"psychophysics","44","174394","0.0-6.0-0.38","5d91d281412c0300cb50e7ee","636d03e66a32c7f65a0397df","636d0730789d47c09a9fd634","364.39999985694885","","","","37","","","","key","16.65238271604966","640","300.5","true","-1","133.50971566080005","2.5769803776000004","11","-1","-1","","","","","","","","","","","","",""
"psychophysics","45","175770","0.0-6.0-0.39","5d91d281412c0300cb50e7ee","636d03e66a32c7f65a0397df","636d0730789d47c09a9fd634","371.7999999523163","","","","37","","","","key","16.653109756097475","640","300.5","true","-1","133.50971566080005","2.5769803776000004","11","-1","-1","","","","","","","","","","","","",""
"html-keyboard-response","46","246875","0.0-7.0","5d91d281412c0300cb50e7ee","636d03e66a32c7f65a0397df","636d0730789d47c09a9fd634","71103.20000004768","<p>Well Done !</p><p>Prepare for a new block.</p><p>DON'T EXIT THE FULL SCREEN MODE</p><p>Press the Spacebar to start.</p>","","","32","","","","","","","","","","","","","","","true","134.89484261376006","","","","","","","","","","",""
"psychophysics","47","247915","0.0-8.0-0.0","5d91d281412c0300cb50e7ee","636d03e66a32c7f65a0397df","636d0730789d47c09a9fd634","36.10000014305115","","","","37","","","","key","16.78867741935462","640","300.5","true","-1","180","30","0","-1","","","","","","","","","","","","","",""
"psychophysics","48","248920","0.0-8.0-0.1","5d91d281412c0300cb50e7ee","636d03e66a32c7f65a0397df","636d0730789d47c09a9fd634","0.6000001430511475","","","","37","","","","key","16.653881355932167","640","300.5","true","-1","180","30","0","-1","-1","","","","","","","","","","","","",""
"psychophysics","49","249927","0.0-8.0-0.2","5d91d281412c0300cb50e7ee","636d03e66a32c7f65a0397df","636d0730789d47c09a9fd634","4.400000095367432","","","","39","","","","key","16.652633333333263","640","300.5","true","1","150","30","0","-1","-1","","","","","","","","","","","","",""
"psychophysics","50","250937","0.0-8.0-0.3","5d91d281412c0300cb50e7ee","636d03e66a32c7f65a0397df","636d0730789d47c09a9fd634","2.5","","","","37","","","","key","16.65240677966099","640","300.5","true","-1","150","30","0","-1","-1","","","","","","","","","","","","",""
"psychophysics","51","253499","0.0-8.0-0.4","5d91d281412c0300cb50e7ee","636d03e66a32c7f65a0397df","636d0730789d47c09a9fd634","1560.4000000953674","","","","37","","","","key","16.652745098039187","640","300.5","true","-1","129","30","0","-1","-1","","","","","","","","","","","","",""
"psychophysics","52","255979","0.0-8.0-0.5","5d91d281412c0300cb50e7ee","636d03e66a32c7f65a0397df","636d0730789d47c09a9fd634","1476.5","","","","37","","","","key","16.65485810810807","640","300.5","true","1","129","24","1","1","-1","","","","","","","","","","","","",""
"psychophysics","53","257319","0.0-8.0-0.6","5d91d281412c0300cb50e7ee","636d03e66a32c7f65a0397df","636d0730789d47c09a9fd634","335.2999999523163","","","","39","","","","key","16.650937500000147","640","300.5","true","1","153","24","1","-1","1","","","","","","","","","","","","",""
"psychophysics","54","259401","0.0-8.0-0.7","5d91d281412c0300cb50e7ee","636d03e66a32c7f65a0397df","636d0730789d47c09a9fd634","1073.7999999523163","","","","39","","","","key","16.65247580645143","640","300.5","true","1","153","19.2","2","-1","-1","","","","","","","","","","","","",""
"psychophysics","55","260724","0.0-8.0-0.8","5d91d281412c0300cb50e7ee","636d03e66a32c7f65a0397df","636d0730789d47c09a9fd634","317.10000014305115","","","","39","","","","key","16.651205128205056","640","300.5","true","1","133.8","19.2","2","-1","-1","","","","","","","","","","","","",""
"psychophysics","56","262016","0.0-8.0-0.9","5d91d281412c0300cb50e7ee","636d03e66a32c7f65a0397df","636d0730789d47c09a9fd634","289.7000000476837","","","","37","","","","key","16.6525974025974","640","300.5","true","-1","133.8","19.2","2","-1","-1","","","","","","","","","","","","",""
"psychophysics","57","263559","0.0-8.0-0.10","5d91d281412c0300cb50e7ee","636d03e66a32c7f65a0397df","636d0730789d47c09a9fd634","535.5","","","","39","","","","key","16.65512087912066","640","300.5","true","1","129","19.2","2","-1","-1","","","","","","","","","","","","",""
"psychophysics","58","265449","0.0-8.0-0.11","5d91d281412c0300cb50e7ee","636d03e66a32c7f65a0397df","636d0730789d47c09a9fd634","888.6000001430511","","","","39","","","","key","16.652601769911044","640","300.5","true","1","129","19.2","2","-1","-1","","","","","","","","","","","","",""
"psychophysics","59","267018","0.0-8.0-0.12","5d91d281412c0300cb50e7ee","636d03e66a32c7f65a0397df","636d0730789d47c09a9fd634","563.2999999523163","","","","39","","","","key","16.651419354838655","640","300.5","true","-1","129","15.36","3","1","-1","","","","","","","","","","","","",""
"psychophysics","60","268396","0.0-8.0-0.13","5d91d281412c0300cb50e7ee","636d03e66a32c7f65a0397df","636d0730789d47c09a9fd634","372.89999985694885","","","","39","","","","key","16.65257317073169","640","300.5","true","1","144.36","15.36","3","-1","1","","","","","","","","","","","","",""
"psychophysics","61","269702","0.0-8.0-0.14","5d91d281412c0300cb50e7ee","636d03e66a32c7f65a0397df","636d0730789d47c09a9fd634","303","","","","39","","","","key","16.652532467532406","640","300.5","true","1","144.36","12.287999999999998","4","-1","-1","","","","","","","","","","","","",""
"psychophysics","62","271350","0.0-8.0-0.15","5d91d281412c0300cb50e7ee","636d03e66a32c7f65a0397df","636d0730789d47c09a9fd634","644.2999999523163","","","","37","","","","key","16.652367346938487","640","300.5","true","-1","132.072","12.287999999999998","4","-1","-1","","","","","","","","","","","","",""
"psychophysics","63","273260","0.0-8.0-0.16","5d91d281412c0300cb50e7ee","636d03e66a32c7f65a0397df","636d0730789d47c09a9fd634","905.8999998569489","","","","37","","","","key","16.65299999999983","640","300.5","true","1","132.072","9.8304","5","1","-1","","","","","","","","","","","","",""
"psychophysics","64","274538","0.0-8.0-0.17","5d91d281412c0300cb50e7ee","636d03e66a32c7f65a0397df","636d0730789d47c09a9fd634","275.7999999523163","","","","39","","","","key","16.65260526315787","640","300.5","true","1","141.9024","9.8304","5","-1","1","","","","","","","","","","","","",""
"psychophysics","65","275859","0.0-8.0-0.18","5d91d281412c0300cb50e7ee","636d03e66a32c7f65a0397df","636d0730789d47c09a9fd634","316.30000019073486","","","","39","","","","key","16.65279487179494","640","300.5","true","1","141.9024","7.864319999999999","6","-1","-1","","","","","","","","","","","","",""
"psychophysics","66","277599","0.0-8.0-0.19","5d91d281412c0300cb50e7ee","636d03e66a32c7f65a0397df","636d0730789d47c09a9fd634","736","","","","39","","","","key","16.65166019417517","640","300.5","true","1","134.03808","7.864319999999999","6","-1","-1","","","","","","","","","","","","",""
"psychophysics","67","278906","0.0-8.0-0.20","5d91d281412c0300cb50e7ee","636d03e66a32c7f65a0397df","636d0730789d47c09a9fd634","306.30000019073486","","","","37","","","","key","16.652807692307622","640","300.5","true","-1","134.03808","7.864319999999999","6","-1","-1","","","","","","","","","","","","",""
"psychophysics","68","280834","0.0-8.0-0.21","5d91d281412c0300cb50e7ee","636d03e66a32c7f65a0397df","636d0730789d47c09a9fd634","923.4000000953674","","","","37","","","","key","16.653052173912748","640","300.5","true","-1","129","7.864319999999999","6","-1","-1","","","","","","","","","","","","",""
"psychophysics","69","282888","0.0-8.0-0.22","5d91d281412c0300cb50e7ee","636d03e66a32c7f65a0397df","636d0730789d47c09a9fd634","1048.8000001907349","","","","39","","","","key","16.653016393442666","640","300.5","true","-1","129","6.291456","7","1","-1","","","","","","","","","","","","",""
"psychophysics","70","284211","0.0-8.0-0.23","5d91d281412c0300cb50e7ee","636d03e66a32c7f65a0397df","636d0730789d47c09a9fd634","316","","","","37","","","","key","16.653192307692596","640","300.5","true","-1","135.291456","6.291456","7","-1","1","","","","","","","","","","","","",""
"psychophysics","71","285549","0.0-8.0-0.24","5d91d281412c0300cb50e7ee","636d03e66a32c7f65a0397df","636d0730789d47c09a9fd634","333.2999999523163","","","","37","","","","key","16.652350000000297","640","300.5","true","-1","135.291456","5.033164800000001","8","-1","-1","","","","","","","","","","","","",""
"psychophysics","72","287131","0.0-8.0-0.25","5d91d281412c0300cb50e7ee","636d03e66a32c7f65a0397df","636d0730789d47c09a9fd634","579.1000001430511","","","","39","","","","key","16.652500000000224","640","300.5","true","1","130.2582912","5.033164800000001","8","-1","-1","","","","","","","","","","","","",""
"psychophysics","73","288573","0.0-8.0-0.26","5d91d281412c0300cb50e7ee","636d03e66a32c7f65a0397df","636d0730789d47c09a9fd634","438.7000000476837","","","","39","","","","key","16.653082352941034","640","300.5","true","-1","130.2582912","4.0265318400000005","9","1","-1","","","","","","","","","","","","",""
"psychophysics","74","289861","0.0-8.0-0.27","5d91d281412c0300cb50e7ee","636d03e66a32c7f65a0397df","636d0730789d47c09a9fd634","278.7999999523163","","","","37","","","","key","16.65310389610376","640","300.5","true","-1","134.28482304","4.0265318400000005","9","-1","1","","","","","","","","","","","","",""
"psychophysics","75","290936","0.0-8.0-0.28","5d91d281412c0300cb50e7ee","636d03e66a32c7f65a0397df","636d0730789d47c09a9fd634","66.10000014305115","","","","39","","","","key","16.654126984126393","640","300.5","true","1","134.28482304","3.2212254720000004","10","-1","-1","","","","","","","","","","","","",""
"psychophysics","76","292858","0.0-8.0-0.29","5d91d281412c0300cb50e7ee","636d03e66a32c7f65a0397df","636d0730789d47c09a9fd634","920.2000000476837","","","","37","","","","key","16.652634782608317","640","300.5","true","1","131.06359756799998","2.5769803776000004","11","1","-1","","","","","","","","","","","","",""
"psychophysics","77","294843","0.0-8.0-0.30","5d91d281412c0300cb50e7ee","636d03e66a32c7f65a0397df","636d0730789d47c09a9fd634","979.7000000476837","","","","37","","","","key","16.652703389830265","640","300.5","true","-1","133.64057794559997","2.5769803776000004","11","-1","1","","","","","","","","","","","","",""
"psychophysics","78","296141","0.0-8.0-0.31","5d91d281412c0300cb50e7ee","636d03e66a32c7f65a0397df","636d0730789d47c09a9fd634","294.2000000476837","","","","37","","","","key","16.65228571428603","640","300.5","true","-1","133.64057794559997","2.0615843020800004","12","-1","-1","","","","","","","","","","","","",""
"psychophysics","79","297459","0.0-8.0-0.32","5d91d281412c0300cb50e7ee","636d03e66a32c7f65a0397df","636d0730789d47c09a9fd634","315.7000000476837","","","","37","","","","key","16.651602564102713","640","300.5","true","-1","131.57899364351996","2.0615843020800004","12","-1","-1","","","","","","","","","","","","",""
"psychophysics","80","299176","0.0-8.0-0.33","5d91d281412c0300cb50e7ee","636d03e66a32c7f65a0397df","636d0730789d47c09a9fd634","712.9000000953674","","","","39","","","","key","16.65267647058856","640","300.5","true","1","131.57899364351996","2.0615843020800004","12","-1","-1","","","","","","","","","","","","",""
"psychophysics","81","300690","0.0-8.0-0.34","5d91d281412c0300cb50e7ee","636d03e66a32c7f65a0397df","636d0730789d47c09a9fd634","508.90000009536743","","","","39","","","","key","16.65272222222217","640","300.5","true","-1","129.51740934143996","1.6492674416640005","13","1","-1","","","","","","","","","","","","",""
"psychophysics","82","302408","0.0-8.0-0.35","5d91d281412c0300cb50e7ee","636d03e66a32c7f65a0397df","636d0730789d47c09a9fd634","712.8999998569489","","","","37","","","","key","16.65278431372523","640","300.5","true","1","131.16667678310395","1.6492674416640005","13","1","1","","","","","","","","","","","","",""
"psychophysics","83","303497","0.0-8.0-0.36","5d91d281412c0300cb50e7ee","636d03e66a32c7f65a0397df","636d0730789d47c09a9fd634","84.79999995231628","","","","39","","","","key","16.652707692308244","640","300.5","true","1","132.81594422476795","1.6492674416640005","13","-1","1","","","","","","","","","","","","",""
"psychophysics","84","304648","0.0-8.0-0.37","5d91d281412c0300cb50e7ee","636d03e66a32c7f65a0397df","636d0730789d47c09a9fd634","144.40000009536743","","","","37","","","","key","16.652779411765067","640","300.5","true","-1","132.81594422476795","1.3194139533312006","14","-1","-1","","","","","","","","","","","","",""
"psychophysics","85","306591","0.0-8.0-0.38","5d91d281412c0300cb50e7ee","636d03e66a32c7f65a0397df","636d0730789d47c09a9fd634","936.4000000953674","","","","39","","","","key","16.652034782608666","640","300.5","true","-1","131.49653027143674","1.0555311626649604","15","1","-1","","","","","","","","","","","","",""
"psychophysics","86","307794","0.0-8.0-0.39","5d91d281412c0300cb50e7ee","636d03e66a32c7f65a0397df","636d0730789d47c09a9fd634","201.89999985694885","","","","39","","","","key","16.652847222222288","640","300.5","true","1","132.5520614341017","1.0555311626649604","15","-1","1","","","","","","","","","","","","",""
"html-keyboard-response","87","328639","0.0-9.0","5d91d281412c0300cb50e7ee","636d03e66a32c7f65a0397df","636d0730789d47c09a9fd634","20844.700000047684","<p>Well Done !</p><p>Prepare for a new block.</p><p>DON'T EXIT THE FULL SCREEN MODE</p><p>Press the Spacebar to start.</p>","","","32","","","","","","","","","","","","","","","true","132.06356903372387","","","","","","","","","","",""
"psychophysics","88","330180","0.0-10.0-0.0","5d91d281412c0300cb50e7ee","636d03e66a32c7f65a0397df","636d0730789d47c09a9fd634","533.8999998569489","","","","39","","","","key","16.732923913043518","640","300.5","true","1","180","30","0","-1","","","","","","","","","","","","","",""
"psychophysics","89","331501","0.0-10.0-0.1","5d91d281412c0300cb50e7ee","636d03e66a32c7f65a0397df","636d0730789d47c09a9fd634","319.39999985694885","","","","37","","","","key","16.652320512820435","640","300.5","true","-1","180","30","0","-1","-1","","","","","","","","","","","","",""
"psychophysics","90","332849","0.0-10.0-0.2","5d91d281412c0300cb50e7ee","636d03e66a32c7f65a0397df","636d0730789d47c09a9fd634","345.10000014305115","","","","37","","","","key","16.652937499999826","640","300.5","true","-1","150","30","0","-1","-1","","","","","","","","","","","","",""
"psychophysics","91","334076","0.0-10.0-0.3","5d91d281412c0300cb50e7ee","636d03e66a32c7f65a0397df","636d0730789d47c09a9fd634","223.5","","","","39","","","","key","16.652780821917688","640","300.5","true","1","150","30","0","-1","-1","","","","","","","","","","","","",""
"psychophysics","92","336598","0.0-10.0-0.4","5d91d281412c0300cb50e7ee","636d03e66a32c7f65a0397df","636d0730789d47c09a9fd634","1519.5999999046326","","","","37","","","","key","16.652820000000066","640","300.5","true","-1","129","30","0","-1","-1","","","","","","","","","","","","",""
"psychophysics","93","338202","0.0-10.0-0.5","5d91d281412c0300cb50e7ee","636d03e66a32c7f65a0397df","636d0730789d47c09a9fd634","601.8999998569489","","","","37","","","","key","16.652895833332877","640","300.5","true","1","129","24","1","1","-1","","","","","","","","","","","","",""
"psychophysics","94","339545","0.0-10.0-0.6","5d91d281412c0300cb50e7ee","636d03e66a32c7f65a0397df","636d0730789d47c09a9fd634","338.2999999523163","","","","37","","","","key","16.65302531645542","640","300.5","true","-1","153","24","1","-1","1","","","","","","","","","","","","",""
"psychophysics","95","340866","0.0-10.0-0.7","5d91d281412c0300cb50e7ee","636d03e66a32c7f65a0397df","636d0730789d47c09a9fd634","318.2999999523163","","","","39","","","","key","16.65289873417682","640","300.5","true","1","153","19.2","2","-1","-1","","","","","","","","","","","","",""
"psychophysics","96","342218","0.0-10.0-0.8","5d91d281412c0300cb50e7ee","636d03e66a32c7f65a0397df","636d0730789d47c09a9fd634","348.2999999523163","","","","37","","","","key","16.652612500000394","640","300.5","true","-1","133.8","19.2","2","-1","-1","","","","","","","","","","","","",""
"psychophysics","97","343556","0.0-10.0-0.9","5d91d281412c0300cb50e7ee","636d03e66a32c7f65a0397df","636d0730789d47c09a9fd634","333.90000009536743","","","","37","","","","key","16.65284810126597","640","300.5","true","-1","133.8","19.2","2","-1","-1","","","","","","","","","","","","",""
"psychophysics","98","344945","0.0-10.0-0.10","5d91d281412c0300cb50e7ee","636d03e66a32c7f65a0397df","636d0730789d47c09a9fd634","387.40000009536743","","","","39","","","","key","16.652783132530608","640","300.5","true","1","129","19.2","2","-1","-1","","","","","","","","","","","","",""
"psychophysics","99","346547","0.0-10.0-0.11","5d91d281412c0300cb50e7ee","636d03e66a32c7f65a0397df","636d0730789d47c09a9fd634","596.7999999523163","","","","39","","","","key","16.65277894736868","640","300.5","true","-1","129","15.36","3","1","-1","","","","","","","","","","","","",""
"psychophysics","100","347855","0.0-10.0-0.12","5d91d281412c0300cb50e7ee","636d03e66a32c7f65a0397df","636d0730789d47c09a9fd634","304.5","","","","37","","","","key","16.65289610389593","640","300.5","true","-1","144.36","15.36","3","-1","1","","","","","","","","","","","","",""
"psychophysics","101","349112","0.0-10.0-0.13","5d91d281412c0300cb50e7ee","636d03e66a32c7f65a0397df","636d0730789d47c09a9fd634","255.10000014305115","","","","37","","","","key","16.65265333333363","640","300.5","true","-1","144.36","12.287999999999998","4","-1","-1","","","","","","","","","","","","",""
"psychophysics","102","350740","0.0-10.0-0.14","5d91d281412c0300cb50e7ee","636d03e66a32c7f65a0397df","636d0730789d47c09a9fd634","621.8999998569489","","","","37","","","","key","16.65279381443295","640","300.5","true","1","132.072","9.8304","5","1","-1","","","","","","","","","","","","",""
"psychophysics","103","352105","0.0-10.0-0.15","5d91d281412c0300cb50e7ee","636d03e66a32c7f65a0397df","636d0730789d47c09a9fd634","363.09999990463257","","","","37","","","","key","16.653012345679375","640","300.5","true","-1","141.9024","9.8304","5","-1","1","","","","","","","","","","","","",""
"psychophysics","104","353391","0.0-10.0-0.16","5d91d281412c0300cb50e7ee","636d03e66a32c7f65a0397df","636d0730789d47c09a9fd634","280.2999999523163","","","","39","","","","key","16.652684210526978","640","300.5","true","1","141.9024","7.864319999999999","6","-1","-1","","","","","","","","","","","","",""
"psychophysics","105","354684","0.0-10.0-0.17","5d91d281412c0300cb50e7ee","636d03e66a32c7f65a0397df","636d0730789d47c09a9fd634","285.89999985694885","","","","39","","","","key","16.652565789473318","640","300.5","true","1","134.03808","7.864319999999999","6","-1","-1","","","","","","","","","","","","",""
"psychophysics","106","355736","0.0-10.0-0.18","5d91d281412c0300cb50e7ee","636d03e66a32c7f65a0397df","636d0730789d47c09a9fd634","51.39999985694885","","","","39","","","","key","16.65282539682581","640","300.5","true","1","134.03808","7.864319999999999","6","-1","-1","","","","","","","","","","","","",""
"psychophysics","107","357303","0.0-10.0-0.19","5d91d281412c0300cb50e7ee","636d03e66a32c7f65a0397df","636d0730789d47c09a9fd634","560.5","","","","37","","","","key","16.65251612903235","640","300.5","true","1","129","6.291456","7","1","-1","","","","","","","","","","","","",""
"psychophysics","108","358588","0.0-10.0-0.20","5d91d281412c0300cb50e7ee","636d03e66a32c7f65a0397df","636d0730789d47c09a9fd634","278.5","","","","37","","","","key","16.65260526315787","640","300.5","true","-1","135.291456","6.291456","7","-1","1","","","","","","","","","","","","",""
"psychophysics","109","359884","0.0-10.0-0.21","5d91d281412c0300cb50e7ee","636d03e66a32c7f65a0397df","636d0730789d47c09a9fd634","294.40000009536743","","","","37","","","","key","16.652870129870234","640","300.5","true","-1","135.291456","5.033164800000001","8","-1","-1","","","","","","","","","","","","",""
"psychophysics","110","361489","0.0-10.0-0.22","5d91d281412c0300cb50e7ee","636d03e66a32c7f65a0397df","636d0730789d47c09a9fd634","603.2000000476837","","","","39","","","","key","16.652557894736407","640","300.5","true","1","130.2582912","5.033164800000001","8","-1","-1","","","","","","","","","","","","",""
"psychophysics","111","363101","0.0-10.0-0.23","5d91d281412c0300cb50e7ee","636d03e66a32c7f65a0397df","636d0730789d47c09a9fd634","606.7000000476837","","","","39","","","","key","16.65269791666712","640","300.5","true","1","130.2582912","5.033164800000001","8","-1","-1","","","","","","","","","","","","",""
"psychophysics","112","365546","0.0-10.0-0.24","5d91d281412c0300cb50e7ee","636d03e66a32c7f65a0397df","636d0730789d47c09a9fd634","1436","","","","37","","","","key","16.652821917808055","640","300.5","true","1","129","4.0265318400000005","9","1","-1","","","","","","","","","","","","",""
"psychophysics","113","367270","0.0-10.0-0.25","5d91d281412c0300cb50e7ee","636d03e66a32c7f65a0397df","636d0730789d47c09a9fd634","719.6000001430511","","","","37","","","","key","16.65270588235295","640","300.5","true","-1","133.02653184","4.0265318400000005","9","-1","1","","","","","","","","","","","","",""
"psychophysics","114","368464","0.0-10.0-0.26","5d91d281412c0300cb50e7ee","636d03e66a32c7f65a0397df","636d0730789d47c09a9fd634","188.90000009536743","","","","39","","","","key","16.652788732394338","640","300.5","true","1","133.02653184","3.2212254720000004","10","-1","-1","","","","","","","","","","","","",""
"psychophysics","115","370081","0.0-10.0-0.27","5d91d281412c0300cb50e7ee","636d03e66a32c7f65a0397df","636d0730789d47c09a9fd634","610.1000001430511","","","","39","","","","key","16.65295833333342","640","300.5","true","1","129.805306368","3.2212254720000004","10","-1","-1","","","","","","","","","","","","",""
"psychophysics","116","371679","0.0-10.0-0.28","5d91d281412c0300cb50e7ee","636d03e66a32c7f65a0397df","636d0730789d47c09a9fd634","591.6999998092651","","","","37","","","","key","16.65269473684204","640","300.5","true","-1","129.805306368","3.2212254720000004","10","-1","-1","","","","","","","","","","","","",""
"psychophysics","117","373893","0.0-10.0-0.29","5d91d281412c0300cb50e7ee","636d03e66a32c7f65a0397df","636d0730789d47c09a9fd634","1207.2000000476837","","","","37","","","","key","16.652515151515026","640","300.5","true","-1","129","3.2212254720000004","10","-1","-1","","","","","","","","","","","","",""
"psychophysics","118","375273","0.0-10.0-0.30","5d91d281412c0300cb50e7ee","636d03e66a32c7f65a0397df","636d0730789d47c09a9fd634","370.10000014305115","","","","39","","","","key","16.652682926829495","640","300.5","true","1","129","3.2212254720000004","10","-1","-1","","","","","","","","","","","","",""
"psychophysics","119","376666","0.0-10.0-0.31","5d91d281412c0300cb50e7ee","636d03e66a32c7f65a0397df","636d0730789d47c09a9fd634","387.7000000476837","","","","37","","","","key","16.652865853658223","640","300.5","true","-1","129","3.2212254720000004","10","-1","-1","","","","","","","","","","","","",""
"psychophysics","120","378513","0.0-10.0-0.32","5d91d281412c0300cb50e7ee","636d03e66a32c7f65a0397df","636d0730789d47c09a9fd634","846.0999999046326","","","","39","","","","key","16.652809090909166","640","300.5","true","-1","129","2.5769803776000004","11","1","-1","","","","","","","","","","","","",""
"psychophysics","121","380176","0.0-10.0-0.33","5d91d281412c0300cb50e7ee","636d03e66a32c7f65a0397df","636d0730789d47c09a9fd634","660.7000000476837","","","","37","","","","key","16.652979797979985","640","300.5","true","1","131.5769803776","2.5769803776000004","11","1","1","","","","","","","","","","","","",""
"psychophysics","122","381571","0.0-10.0-0.34","5d91d281412c0300cb50e7ee","636d03e66a32c7f65a0397df","636d0730789d47c09a9fd634","390","","","","39","","","","key","16.652819277108534","640","300.5","true","1","134.1539607552","2.5769803776000004","11","-1","1","","","","","","","","","","","","",""
"psychophysics","123","382877","0.0-10.0-0.35","5d91d281412c0300cb50e7ee","636d03e66a32c7f65a0397df","636d0730789d47c09a9fd634","303.60000014305115","","","","37","","","","key","16.652363636363873","640","300.5","true","-1","134.1539607552","2.0615843020800004","12","-1","-1","","","","","","","","","","","","",""
"psychophysics","124","384761","0.0-10.0-0.36","5d91d281412c0300cb50e7ee","636d03e66a32c7f65a0397df","636d0730789d47c09a9fd634","882.5","","","","39","","","","key","16.65254464285733","640","300.5","true","-1","132.09237645311998","1.6492674416640005","13","1","-1","","","","","","","","","","","","",""
"psychophysics","125","385988","0.0-10.0-0.37","5d91d281412c0300cb50e7ee","636d03e66a32c7f65a0397df","636d0730789d47c09a9fd634","222.10000014305115","","","","39","","","","key","16.65246575342472","640","300.5","true","1","133.74164389478398","1.6492674416640005","13","-1","1","","","","","","","","","","","","",""
"psychophysics","126","387366","0.0-10.0-0.38","5d91d281412c0300cb50e7ee","636d03e66a32c7f65a0397df","636d0730789d47c09a9fd634","375.2000000476837","","","","39","","","","key","16.65257317073169","640","300.5","true","1","133.74164389478398","1.3194139533312006","14","-1","-1","","","","","","","","","","","","",""
"psychophysics","127","389220","0.0-10.0-0.39","5d91d281412c0300cb50e7ee","636d03e66a32c7f65a0397df","636d0730789d47c09a9fd634","845.6000001430511","","","","37","","","","key","16.652754545454677","640","300.5","true","-1","132.42222994145277","1.3194139533312006","14","-1","-1","","","","","","","","","","","","",""
"html-keyboard-response","128","444475","0.0-11.0","5d91d281412c0300cb50e7ee","636d03e66a32c7f65a0397df","636d0730789d47c09a9fd634","55254","<p>Well Done !</p><p>Prepare for a new block.</p><p>DON'T EXIT THE FULL SCREEN MODE</p><p>Press the Spacebar to start.</p>","","","32","","","","","","","","","","","","","","","true","131.5697648325427","","","","","","","","","","",""
"psychophysics","129","445884","0.0-12.0-0.0","5d91d281412c0300cb50e7ee","636d03e66a32c7f65a0397df","636d0730789d47c09a9fd634","406.90000009536743","","","","39","","","","key","16.4902235294117","640","300.5","true","1","180","30","0","-1","","","","","","","","","","","","","",""
"psychophysics","130","447222","0.0-12.0-0.1","5d91d281412c0300cb50e7ee","636d03e66a32c7f65a0397df","636d0730789d47c09a9fd634","335.69999980926514","","","","39","","","","key","16.652873417721395","640","300.5","true","1","180","30","0","-1","-1","","","","","","","","","","","","",""
"psychophysics","131","448669","0.0-12.0-0.2","5d91d281412c0300cb50e7ee","636d03e66a32c7f65a0397df","636d0730789d47c09a9fd634","443.89999985694885","","","","37","","","","key","16.652720930232793","640","300.5","true","-1","150","30","0","-1","-1","","","","","","","","","","","","",""
"psychophysics","132","450158","0.0-12.0-0.3","5d91d281412c0300cb50e7ee","636d03e66a32c7f65a0397df","636d0730789d47c09a9fd634","484.89999985694885","","","","39","","","","key","16.652775280898975","640","300.5","true","1","150","30","0","-1","-1","","","","","","","","","","","","",""
"psychophysics","133","452845","0.0-12.0-0.4","5d91d281412c0300cb50e7ee","636d03e66a32c7f65a0397df","636d0730789d47c09a9fd634","1678.7999999523163","","","","37","","","","key","16.65283124999987","640","300.5","true","-1","129","30","0","-1","-1","","","","","","","","","","","","",""
"psychophysics","134","454790","0.0-12.0-0.5","5d91d281412c0300cb50e7ee","636d03e66a32c7f65a0397df","636d0730789d47c09a9fd634","936.2999999523163","","","","37","","","","key","16.6527155172411","640","300.5","true","-1","129","30","0","-1","-1","","","","","","","","","","","","",""
"psychophysics","135","456884","0.0-12.0-0.6","5d91d281412c0300cb50e7ee","636d03e66a32c7f65a0397df","636d0730789d47c09a9fd634","1086.4000000953674","","","","39","","","","key","16.65280645161317","640","300.5","true","-1","129","24","1","1","-1","","","","","","","","","","","","",""
"psychophysics","136","458157","0.0-12.0-0.7","5d91d281412c0300cb50e7ee","636d03e66a32c7f65a0397df","636d0730789d47c09a9fd634","263.2000000476837","","","","39","","","","key","16.65256578947408","640","300.5","true","1","153","24","1","-1","1","","","","","","","","","","","","",""
"psychophysics","137","459448","0.0-12.0-0.8","5d91d281412c0300cb50e7ee","636d03e66a32c7f65a0397df","636d0730789d47c09a9fd634","282.59999990463257","","","","37","","","","key","16.652973684210384","640","300.5","true","-1","153","19.2","2","-1","-1","","","","","","","","","","","","",""
"psychophysics","138","460675","0.0-12.0-0.9","5d91d281412c0300cb50e7ee","636d03e66a32c7f65a0397df","636d0730789d47c09a9fd634","221.70000004768372","","","","39","","","","key","16.65252054794548","640","300.5","true","1","133.8","19.2","2","-1","-1","","","","","","","","","","","","",""
"psychophysics","139","462090","0.0-12.0-0.10","5d91d281412c0300cb50e7ee","636d03e66a32c7f65a0397df","636d0730789d47c09a9fd634","411.7999999523163","","","","39","","","","key","16.653261904762033","640","300.5","true","1","133.8","19.2","2","-1","-1","","","","","","","","","","","","",""
"psychophysics","140","463808","0.0-12.0-0.11","5d91d281412c0300cb50e7ee","636d03e66a32c7f65a0397df","636d0730789d47c09a9fd634","713.8999998569489","","","","37","","","","key","16.652941176470932","640","300.5","true","-1","129","19.2","2","-1","-1","","","","","","","","","","","","",""
"psychophysics","141","465562","0.0-12.0-0.12","5d91d281412c0300cb50e7ee","636d03e66a32c7f65a0397df","636d0730789d47c09a9fd634","751.2999999523163","","","","37","","","","key","16.653238095237786","640","300.5","true","1","129","15.36","3","1","-1","","","","","","","","","","","","",""
"psychophysics","142","466934","0.0-12.0-0.13","5d91d281412c0300cb50e7ee","636d03e66a32c7f65a0397df","636d0730789d47c09a9fd634","368.89999985694885","","","","37","","","","key","16.65285185185178","640","300.5","true","-1","144.36","15.36","3","-1","1","","","","","","","","","","","","",""
"psychophysics","143","468012","0.0-12.0-0.14","5d91d281412c0300cb50e7ee","636d03e66a32c7f65a0397df","636d0730789d47c09a9fd634","70.09999990463257","","","","39","","","","key","16.65331250000054","640","300.5","true","1","144.36","12.287999999999998","4","-1","-1","","","","","","","","","","","","",""
"psychophysics","144","469039","0.0-12.0-0.15","5d91d281412c0300cb50e7ee","636d03e66a32c7f65a0397df","636d0730789d47c09a9fd634","24","","","","37","","","","key","16.652716666666674","640","300.5","true","-1","132.072","12.287999999999998","4","-1","-1","","","","","","","","","","","","",""
"psychophysics","145","470587","0.0-12.0-0.16","5d91d281412c0300cb50e7ee","636d03e66a32c7f65a0397df","636d0730789d47c09a9fd634","546.7999999523163","","","","37","","","","key","16.652902173912835","640","300.5","true","-1","132.072","12.287999999999998","4","-1","-1","","","","","","","","","","","","",""
"psychophysics","146","472432","0.0-12.0-0.17","5d91d281412c0300cb50e7ee","636d03e66a32c7f65a0397df","636d0730789d47c09a9fd634","842.7999999523163","","","","37","","","","key","16.65279090909118","640","300.5","true","-1","129","12.287999999999998","4","-1","-1","","","","","","","","","","","","",""
"psychophysics","147","474215","0.0-12.0-0.18","5d91d281412c0300cb50e7ee","636d03e66a32c7f65a0397df","636d0730789d47c09a9fd634","778.0999999046326","","","","39","","","","key","16.652735849056626","640","300.5","true","1","129","12.287999999999998","4","-1","-1","","","","","","","","","","","","",""
"psychophysics","148","475944","0.0-12.0-0.19","5d91d281412c0300cb50e7ee","636d03e66a32c7f65a0397df","636d0730789d47c09a9fd634","725.5999999046326","","","","37","","","","key","16.65289320388314","640","300.5","true","-1","129","12.287999999999998","4","-1","-1","","","","","","","","","","","","",""
"psychophysics","149","477603","0.0-12.0-0.20","5d91d281412c0300cb50e7ee","636d03e66a32c7f65a0397df","636d0730789d47c09a9fd634","652.5999999046326","","","","37","","","","key","16.652848484848317","640","300.5","true","1","129","9.8304","5","1","-1","","","","","","","","","","","","",""
"psychophysics","150","478905","0.0-12.0-0.21","5d91d281412c0300cb50e7ee","636d03e66a32c7f65a0397df","636d0730789d47c09a9fd634","298.7999999523163","","","","39","","","","key","16.65302597402592","640","300.5","true","1","138.8304","9.8304","5","-1","1","","","","","","","","","","","","",""
"psychophysics","151","480223","0.0-12.0-0.22","5d91d281412c0300cb50e7ee","636d03e66a32c7f65a0397df","636d0730789d47c09a9fd634","313.80000019073486","","","","37","","","","key","16.65278205128151","640","300.5","true","-1","138.8304","7.864319999999999","6","-1","-1","","","","","","","","","","","","",""
"psychophysics","152","481526","0.0-12.0-0.23","5d91d281412c0300cb50e7ee","636d03e66a32c7f65a0397df","636d0730789d47c09a9fd634","295.7999999523163","","","","39","","","","key","16.652506493505957","640","300.5","true","1","130.96608","7.864319999999999","6","-1","-1","","","","","","","","","","","","",""
"psychophysics","153","483006","0.0-12.0-0.24","5d91d281412c0300cb50e7ee","636d03e66a32c7f65a0397df","636d0730789d47c09a9fd634","476.2000000476837","","","","37","","","","key","16.65278409090917","640","300.5","true","1","130.96608","6.291456","7","1","-1","","","","","","","","","","","","",""
"psychophysics","154","484352","0.0-12.0-0.25","5d91d281412c0300cb50e7ee","636d03e66a32c7f65a0397df","636d0730789d47c09a9fd634","340.7000000476837","","","","37","","","","key","16.65297500000015","640","300.5","true","-1","137.25753600000002","6.291456","7","-1","1","","","","","","","","","","","","",""
"psychophysics","155","485560","0.0-12.0-0.26","5d91d281412c0300cb50e7ee","636d03e66a32c7f65a0397df","636d0730789d47c09a9fd634","201.70000004768372","","","","39","","","","key","16.652746478872846","640","300.5","true","1","137.25753600000002","5.033164800000001","8","-1","-1","","","","","","","","","","","","",""
"psychophysics","156","487229","0.0-12.0-0.27","5d91d281412c0300cb50e7ee","636d03e66a32c7f65a0397df","636d0730789d47c09a9fd634","663.2000000476837","","","","37","","","","key","16.65274000000034","640","300.5","true","-1","132.2243712","5.033164800000001","8","-1","-1","","","","","","","","","","","","",""
"psychophysics","157","489043","0.0-12.0-0.28","5d91d281412c0300cb50e7ee","636d03e66a32c7f65a0397df","636d0730789d47c09a9fd634","805.2000000476837","","","","39","","","","key","16.652870370370458","640","300.5","true","-1","132.2243712","4.0265318400000005","9","1","-1","","","","","","","","","","","","",""
"psychophysics","158","490379","0.0-12.0-0.29","5d91d281412c0300cb50e7ee","636d03e66a32c7f65a0397df","636d0730789d47c09a9fd634","335","","","","39","","","","key","16.652936708861432","640","300.5","true","1","136.25090304","4.0265318400000005","9","-1","1","","","","","","","","","","","","",""
"psychophysics","159","491695","0.0-12.0-0.30","5d91d281412c0300cb50e7ee","636d03e66a32c7f65a0397df","636d0730789d47c09a9fd634","312.30000019073486","","","","39","","","","key","16.65271794871809","640","300.5","true","1","136.25090304","3.2212254720000004","10","-1","-1","","","","","","","","","","","","",""
"psychophysics","160","493664","0.0-12.0-0.31","5d91d281412c0300cb50e7ee","636d03e66a32c7f65a0397df","636d0730789d47c09a9fd634","962.1999998092651","","","","39","","","","key","16.652658119657907","640","300.5","true","-1","133.029677568","2.5769803776000004","11","1","-1","","","","","","","","","","","","",""
"psychophysics","161","495442","0.0-12.0-0.32","5d91d281412c0300cb50e7ee","636d03e66a32c7f65a0397df","636d0730789d47c09a9fd634","772.1999998092651","","","","39","","","","key","16.652735849056626","640","300.5","true","1","135.6066579456","2.5769803776000004","11","-1","1","","","","","","","","","","","","",""
"psychophysics","162","496741","0.0-12.0-0.33","5d91d281412c0300cb50e7ee","636d03e66a32c7f65a0397df","636d0730789d47c09a9fd634","295.7999999523163","","","","37","","","","key","16.652844155844537","640","300.5","true","-1","135.6066579456","2.0615843020800004","12","-1","-1","","","","","","","","","","","","",""
"psychophysics","163","498033","0.0-12.0-0.34","5d91d281412c0300cb50e7ee","636d03e66a32c7f65a0397df","636d0730789d47c09a9fd634","283.59999990463257","","","","39","","","","key","16.65267105263085","640","300.5","true","1","133.54507364352","2.0615843020800004","12","-1","-1","","","","","","","","","","","","",""
"psychophysics","164","499275","0.0-12.0-0.35","5d91d281412c0300cb50e7ee","636d03e66a32c7f65a0397df","636d0730789d47c09a9fd634","237.39999985694885","","","","37","","","","key","16.652486486486286","640","300.5","true","-1","133.54507364352","2.0615843020800004","12","-1","-1","","","","","","","","","","","","",""
"psychophysics","165","500645","0.0-12.0-0.36","5d91d281412c0300cb50e7ee","636d03e66a32c7f65a0397df","636d0730789d47c09a9fd634","366.09999990463257","","","","37","","","","key","16.6526790123453","640","300.5","true","-1","131.48348934144","2.0615843020800004","12","-1","-1","","","","","","","","","","","","",""
"psychophysics","166","502449","0.0-12.0-0.37","5d91d281412c0300cb50e7ee","636d03e66a32c7f65a0397df","636d0730789d47c09a9fd634","801.8999998569489","","","","37","","","","key","16.652787037036937","640","300.5","true","1","131.48348934144","1.6492674416640005","13","1","-1","","","","","","","","","","","","",""
"psychophysics","167","503785","0.0-12.0-0.38","5d91d281412c0300cb50e7ee","636d03e66a32c7f65a0397df","636d0730789d47c09a9fd634","331","","","","37","","","","key","16.652645569620358","640","300.5","true","-1","133.13275678310399","1.6492674416640005","13","-1","1","","","","","","","","","","","","",""
"psychophysics","168","505088","0.0-12.0-0.39","5d91d281412c0300cb50e7ee","636d03e66a32c7f65a0397df","636d0730789d47c09a9fd634","298.5","","","","39","","","","key","16.652701298701697","640","300.5","true","1","133.13275678310399","1.3194139533312006","14","-1","-1","","","","","","","","","","","","",""
"html-keyboard-response","169","518408","0.0-13.0","5d91d281412c0300cb50e7ee","636d03e66a32c7f65a0397df","636d0730789d47c09a9fd634","13318.299999952316","<p>Well Done !</p><p>Prepare for a new block.</p><p>DON'T EXIT THE FULL SCREEN MODE</p><p>Press the Spacebar to start.</p>","","","32","","","","","","","","","","","","","","","true","134.1354168983552","","","","","","","","","","",""
"html-keyboard-response","170","518511","0.0-14.0","5d91d281412c0300cb50e7ee","636d03e66a32c7f65a0397df","636d0730789d47c09a9fd634","null","","","","null","","","","","","","","","","","","","","","","","133.16589834459543","true","138.33179668919087","","","","","","","",""
"instructions","171","551624","0.0-15.0","5d91d281412c0300cb50e7ee","636d03e66a32c7f65a0397df","636d0730789d47c09a9fd634","33111.40000009537","","","","","","","[{""page_index"":0,""viewing_time"":24281.299999952316},{""page_index"":1,""viewing_time"":1737.9000000953674},{""page_index"":2,""viewing_time"":7091.599999904633}]","","","","","","","","","","","","","","","","","","","","","","","",""
"psychophysics","172","554637","0.0-16.0-0.0","5d91d281412c0300cb50e7ee","636d03e66a32c7f65a0397df","636d0730789d47c09a9fd634","null","","","","null","","","","key","16.661450000000574","640","300.5","","","","","","","","","","","","","","","","","","","",""
"psychophysics","173","555142","0.0-16.0-1.0","5d91d281412c0300cb50e7ee","636d03e66a32c7f65a0397df","636d0730789d47c09a9fd634","null","","","","null","","","","key","16.65219999999972","640","300.5","","","","","","","","","","","","","138","-1","0","false","","","",""
"psychophysics","174","556505","0.0-16.0-2.0","5d91d281412c0300cb50e7ee","636d03e66a32c7f65a0397df","636d0730789d47c09a9fd634","1362.2000000476837","","","","90","","","","key","16.652851851852496","640","300.5","","","","","","","","","","","","","","","","","","","",""
"psychophysics","175","557511","0.0-16.0-0.1","5d91d281412c0300cb50e7ee","636d03e66a32c7f65a0397df","636d0730789d47c09a9fd634","null","","","","null","","","","key","16.652847457625825","640","300.5","","","","","","","","","","","","","","","","","","","",""
"psychophysics","176","558014","0.0-16.0-1.1","5d91d281412c0300cb50e7ee","636d03e66a32c7f65a0397df","636d0730789d47c09a9fd634","null","","","","null","","","","key","16.65286206896417","640","300.5","","","","","","","","","","","","","138","1","5","false","","","",""
"psychophysics","177","558461","0.0-16.0-2.1","5d91d281412c0300cb50e7ee","636d03e66a32c7f65a0397df","636d0730789d47c09a9fd634","445.2999999523163","","","","77","","","","key","16.653307692304505","640","300.5","","","","","","","","","","","","","","","","","","","",""
"psychophysics","178","559466","0.0-16.0-0.2","5d91d281412c0300cb50e7ee","636d03e66a32c7f65a0397df","636d0730789d47c09a9fd634","null","","","","null","","","","key","16.652779661018354","640","300.5","","","","","","","","","","","","","","","","","","","",""
"psychophysics","179","559974","0.0-16.0-1.2","5d91d281412c0300cb50e7ee","636d03e66a32c7f65a0397df","636d0730789d47c09a9fd634","null","","","","null","","","","key","16.6531333333347","640","300.5","","","","","","","","","","","","","138","-1","5","false","","","",""
"psychophysics","180","560376","0.0-16.0-2.2","5d91d281412c0300cb50e7ee","636d03e66a32c7f65a0397df","636d0730789d47c09a9fd634","400.80000019073486","","","","77","","","","key","16.652782608694196","640","300.5","","","","","","","","","","","","","","","","","","","",""
"psychophysics","181","561381","0.0-16.0-0.3","5d91d281412c0300cb50e7ee","636d03e66a32c7f65a0397df","636d0730789d47c09a9fd634","null","","","","null","","","","key","16.652728813560284","640","300.5","","","","","","","","","","","","","","","","","","","",""
"psychophysics","182","561886","0.0-16.0-1.3","5d91d281412c0300cb50e7ee","636d03e66a32c7f65a0397df","636d0730789d47c09a9fd634","null","","","","null","","","","key","16.65256666666828","640","300.5","","","","","","","","","","","","","138","1","3","false","","","",""
"psychophysics","183","562519","0.0-16.0-2.3","5d91d281412c0300cb50e7ee","636d03e66a32c7f65a0397df","636d0730789d47c09a9fd634","631.4000000953674","","","","90","","","","key","16.65286486486376","640","300.5","","","","","","","","","","","","","","","","","","","",""
"psychophysics","184","563526","0.0-16.0-0.4","5d91d281412c0300cb50e7ee","636d03e66a32c7f65a0397df","636d0730789d47c09a9fd634","null","","","","null","","","","key","16.652762711865005","640","300.5","","","","","","","","","","","","","","","","","","","",""
"psychophysics","185","564029","0.0-16.0-1.4","5d91d281412c0300cb50e7ee","636d03e66a32c7f65a0397df","636d0730789d47c09a9fd634","null","","","","null","","","","key","16.653034482757434","640","300.5","","","","","","","","","","","","","138","-1","4","false","","","",""
"psychophysics","186","564771","0.0-16.0-2.4","5d91d281412c0300cb50e7ee","636d03e66a32c7f65a0397df","636d0730789d47c09a9fd634","739.0999999046326","","","","77","","","","key","16.652954545454122","640","300.5","","","","","","","","","","","","","","","","","","","",""
"psychophysics","187","565775","0.0-16.0-0.5","5d91d281412c0300cb50e7ee","636d03e66a32c7f65a0397df","636d0730789d47c09a9fd634","null","","","","null","","","","key","16.6530508474581","640","300.5","","","","","","","","","","","","","","","","","","","",""
"psychophysics","188","566278","0.0-16.0-1.5","5d91d281412c0300cb50e7ee","636d03e66a32c7f65a0397df","636d0730789d47c09a9fd634","null","","","","null","","","","key","16.652620689654402","640","300.5","","","","","","","","","","","","","138","1","0","false","","","",""
"psychophysics","189","566906","0.0-16.0-2.5","5d91d281412c0300cb50e7ee","636d03e66a32c7f65a0397df","636d0730789d47c09a9fd634","626.2999999523163","","","","90","","","","key","16.653054054052493","640","300.5","","","","","","","","","","","","","","","","","","","",""
"psychophysics","190","567909","0.0-16.0-0.6","5d91d281412c0300cb50e7ee","636d03e66a32c7f65a0397df","636d0730789d47c09a9fd634","null","","","","null","","","","key","16.652050847457957","640","300.5","","","","","","","","","","","","","","","","","","","",""
"psychophysics","191","568411","0.0-16.0-1.6","5d91d281412c0300cb50e7ee","636d03e66a32c7f65a0397df","636d0730789d47c09a9fd634","null","","","","null","","","","key","16.65240000000146","640","300.5","","","","","","","","","","","","","138","-1","2","false","","","",""
"psychophysics","192","568714","0.0-16.0-2.6","5d91d281412c0300cb50e7ee","636d03e66a32c7f65a0397df","636d0730789d47c09a9fd634","302.09999990463257","","","","90","","","","key","16.655588235295212","640","300.5","","","","","","","","","","","","","","","","","","","",""
"psychophysics","193","569718","0.0-16.0-0.7","5d91d281412c0300cb50e7ee","636d03e66a32c7f65a0397df","636d0730789d47c09a9fd634","null","","","","null","","","","key","16.65294915254196","640","300.5","","","","","","","","","","","","","","","","","","","",""
"psychophysics","194","570223","0.0-16.0-1.7","5d91d281412c0300cb50e7ee","636d03e66a32c7f65a0397df","636d0730789d47c09a9fd634","null","","","","null","","","","key","16.652689655174918","640","300.5","","","","","","","","","","","","","138","-1","6","false","","","",""
"psychophysics","195","570624","0.0-16.0-2.7","5d91d281412c0300cb50e7ee","636d03e66a32c7f65a0397df","636d0730789d47c09a9fd634","400.09999990463257","","","","77","","","","key","16.653434782607846","640","300.5","","","","","","","","","","","","","","","","","","","",""
"psychophysics","196","571625","0.0-16.0-0.8","5d91d281412c0300cb50e7ee","636d03e66a32c7f65a0397df","636d0730789d47c09a9fd634","null","","","","null","","","","key","16.65283333333209","640","300.5","","","","","","","","","","","","","","","","","","","",""
"psychophysics","197","572135","0.0-16.0-1.8","5d91d281412c0300cb50e7ee","636d03e66a32c7f65a0397df","636d0730789d47c09a9fd634","null","","","","null","","","","key","16.651965517241603","640","300.5","","","","","","","","","","","","","138","1","4","false","","","",""
"psychophysics","198","572338","0.0-16.0-2.8","5d91d281412c0300cb50e7ee","636d03e66a32c7f65a0397df","636d0730789d47c09a9fd634","202.20000004768372","","","","77","","","","key","16.65309090909167","640","300.5","","","","","","","","","","","","","","","","","","","",""
"psychophysics","199","573341","0.0-16.0-0.9","5d91d281412c0300cb50e7ee","636d03e66a32c7f65a0397df","636d0730789d47c09a9fd634","null","","","","null","","","","key","16.652916666667444","640","300.5","","","","","","","","","","","","","","","","","","","",""
"psychophysics","200","573847","0.0-16.0-1.9","5d91d281412c0300cb50e7ee","636d03e66a32c7f65a0397df","636d0730789d47c09a9fd634","null","","","","null","","","","key","16.653206896550696","640","300.5","","","","","","","","","","","","","138","-1","3","false","","","",""
"psychophysics","201","574392","0.0-16.0-2.9","5d91d281412c0300cb50e7ee","636d03e66a32c7f65a0397df","636d0730789d47c09a9fd634","544.5999999046326","","","","90","","","","key","16.652687500001775","640","300.5","","","","","","","","","","","","","","","","","","","",""
"psychophysics","202","575400","0.0-16.0-0.10","5d91d281412c0300cb50e7ee","636d03e66a32c7f65a0397df","636d0730789d47c09a9fd634","null","","","","null","","","","key","16.652898305083895","640","300.5","","","","","","","","","","","","","","","","","","","",""
"psychophysics","203","575903","0.0-16.0-1.10","5d91d281412c0300cb50e7ee","636d03e66a32c7f65a0397df","636d0730789d47c09a9fd634","null","","","","null","","","","key","16.653551724141238","640","300.5","","","","","","","","","","","","","138","1","6","false","","","",""
"psychophysics","204","576317","0.0-16.0-2.10","5d91d281412c0300cb50e7ee","636d03e66a32c7f65a0397df","636d0730789d47c09a9fd634","411.7999999523163","","","","77","","","","key","16.65158333333481","640","300.5","","","","","","","","","","","","","","","","","","","",""
"psychophysics","205","577318","0.0-16.0-0.11","5d91d281412c0300cb50e7ee","636d03e66a32c7f65a0397df","636d0730789d47c09a9fd634","null","","","","null","","","","key","16.65300000000003","640","300.5","","","","","","","","","","","","","","","","","","","",""
"psychophysics","206","577820","0.0-16.0-1.11","5d91d281412c0300cb50e7ee","636d03e66a32c7f65a0397df","636d0730789d47c09a9fd634","null","","","","null","","","","key","16.65266666666527","640","300.5","","","","","","","","","","","","","138","1","2","false","","","",""
"psychophysics","207","578231","0.0-16.0-2.11","5d91d281412c0300cb50e7ee","636d03e66a32c7f65a0397df","636d0730789d47c09a9fd634","409.40000009536743","","","","90","","","","key","16.652913043477938","640","300.5","","","","","","","","","","","","","","","","","","","",""
"psychophysics","208","579233","0.0-16.0-0.12","5d91d281412c0300cb50e7ee","636d03e66a32c7f65a0397df","636d0730789d47c09a9fd634","null","","","","null","","","","key","16.6530508474581","640","300.5","","","","","","","","","","","","","","","","","","","",""
"psychophysics","209","579735","0.0-16.0-1.12","5d91d281412c0300cb50e7ee","636d03e66a32c7f65a0397df","636d0730789d47c09a9fd634","null","","","","null","","","","key","16.652533333333363","640","300.5","","","","","","","","","","","","","138","1","4","false","","","",""
"psychophysics","210","580135","0.0-16.0-2.12","5d91d281412c0300cb50e7ee","636d03e66a32c7f65a0397df","636d0730789d47c09a9fd634","398.5","","","","77","","","","key","16.652695652173385","640","300.5","","","","","","","","","","","","","","","","","","","",""
"psychophysics","211","581143","0.0-16.0-0.13","5d91d281412c0300cb50e7ee","636d03e66a32c7f65a0397df","636d0730789d47c09a9fd634","null","","","","null","","","","key","16.65283050847445","640","300.5","","","","","","","","","","","","","","","","","","","",""
"psychophysics","212","581647","0.0-16.0-1.13","5d91d281412c0300cb50e7ee","636d03e66a32c7f65a0397df","636d0730789d47c09a9fd634","null","","","","null","","","","key","16.652448275861136","640","300.5","","","","","","","","","","","","","138","1","0","false","","","",""
"psychophysics","213","581994","0.0-16.0-2.13","5d91d281412c0300cb50e7ee","636d03e66a32c7f65a0397df","636d0730789d47c09a9fd634","345.7999999523163","","","","90","","","","key","16.652050000004238","640","300.5","","","","","","","","","","","","","","","","","","","",""
"psychophysics","214","582997","0.0-16.0-0.14","5d91d281412c0300cb50e7ee","636d03e66a32c7f65a0397df","636d0730789d47c09a9fd634","null","","","","null","","","","key","16.652576271186078","640","300.5","","","","","","","","","","","","","","","","","","","",""
"psychophysics","215","583499","0.0-16.0-1.14","5d91d281412c0300cb50e7ee","636d03e66a32c7f65a0397df","636d0730789d47c09a9fd634","null","","","","null","","","","key","16.653433333333428","640","300.5","","","","","","","","","","","","","138","-1","0","false","","","",""
"psychophysics","216","583879","0.0-16.0-2.14","5d91d281412c0300cb50e7ee","636d03e66a32c7f65a0397df","636d0730789d47c09a9fd634","378.39999985694885","","","","90","","","","key","16.652571428572713","640","300.5","","","","","","","","","","","","","","","","","","","",""
"psychophysics","217","584881","0.0-16.0-0.15","5d91d281412c0300cb50e7ee","636d03e66a32c7f65a0397df","636d0730789d47c09a9fd634","null","","","","null","","","","key","16.652633333334233","640","300.5","","","","","","","","","","","","","","","","","","","",""
"psychophysics","218","585391","0.0-16.0-1.15","5d91d281412c0300cb50e7ee","636d03e66a32c7f65a0397df","636d0730789d47c09a9fd634","null","","","","null","","","","key","16.652448275861136","640","300.5","","","","","","","","","","","","","138","1","3","false","","","",""
"psychophysics","219","586361","0.0-16.0-2.15","5d91d281412c0300cb50e7ee","636d03e66a32c7f65a0397df","636d0730789d47c09a9fd634","968.3000001907349","","","","90","","","","key","16.652649122807034","640","300.5","","","","","","","","","","","","","","","","","","","",""
"psychophysics","220","587362","0.0-16.0-0.16","5d91d281412c0300cb50e7ee","636d03e66a32c7f65a0397df","636d0730789d47c09a9fd634","null","","","","null","","","","key","16.652999999998915","640","300.5","","","","","","","","","","","","","","","","","","","",""
"psychophysics","221","587871","0.0-16.0-1.16","5d91d281412c0300cb50e7ee","636d03e66a32c7f65a0397df","636d0730789d47c09a9fd634","null","","","","null","","","","key","16.652379310344635","640","300.5","","","","","","","","","","","","","138","-1","3","false","","","",""
"psychophysics","222","588506","0.0-16.0-2.16","5d91d281412c0300cb50e7ee","636d03e66a32c7f65a0397df","636d0730789d47c09a9fd634","634.3999998569489","","","","77","","","","key","16.652891891892068","640","300.5","","","","","","","","","","","","","","","","","","","",""
"psychophysics","223","589508","0.0-16.0-0.17","5d91d281412c0300cb50e7ee","636d03e66a32c7f65a0397df","636d0730789d47c09a9fd634","null","","","","null","","","","key","16.65218644067882","640","300.5","","","","","","","","","","","","","","","","","","","",""
"psychophysics","224","590010","0.0-16.0-1.17","5d91d281412c0300cb50e7ee","636d03e66a32c7f65a0397df","636d0730789d47c09a9fd634","null","","","","null","","","","key","16.65450000000031","640","300.5","","","","","","","","","","","","","138","-1","5","false","","","",""
"psychophysics","225","590424","0.0-16.0-2.17","5d91d281412c0300cb50e7ee","636d03e66a32c7f65a0397df","636d0730789d47c09a9fd634","412","","","","77","","","","key","16.65326086956117","640","300.5","","","","","","","","","","","","","","","","","","","",""
"psychophysics","226","591426","0.0-16.0-0.18","5d91d281412c0300cb50e7ee","636d03e66a32c7f65a0397df","636d0730789d47c09a9fd634","null","","","","null","","","","key","16.652833333334033","640","300.5","","","","","","","","","","","","","","","","","","","",""
"psychophysics","227","591935","0.0-16.0-1.18","5d91d281412c0300cb50e7ee","636d03e66a32c7f65a0397df","636d0730789d47c09a9fd634","null","","","","null","","","","key","16.652896551724428","640","300.5","","","","","","","","","","","","","138","-1","6","false","","","",""
"psychophysics","228","592163","0.0-16.0-2.18","5d91d281412c0300cb50e7ee","636d03e66a32c7f65a0397df","636d0730789d47c09a9fd634","226.39999985694885","","","","77","","","","key","16.654692307696678","640","300.5","","","","","","","","","","","","","","","","","","","",""
"psychophysics","229","593168","0.0-16.0-0.19","5d91d281412c0300cb50e7ee","636d03e66a32c7f65a0397df","636d0730789d47c09a9fd634","null","","","","null","","","","key","16.65291525423724","640","300.5","","","","","","","","","","","","","","","","","","","",""
"psychophysics","230","593671","0.0-16.0-1.19","5d91d281412c0300cb50e7ee","636d03e66a32c7f65a0397df","636d0730789d47c09a9fd634","null","","","","null","","","","key","16.65282758620391","640","300.5","","","","","","","","","","","","","138","1","2","false","","","",""
"psychophysics","231","594027","0.0-16.0-2.19","5d91d281412c0300cb50e7ee","636d03e66a32c7f65a0397df","636d0730789d47c09a9fd634","354.39999985694885","","","","90","","","","key","16.65304761904935","640","300.5","","","","","","","","","","","","","","","","","","","",""
"psychophysics","232","595031","0.0-16.0-0.20","5d91d281412c0300cb50e7ee","636d03e66a32c7f65a0397df","636d0730789d47c09a9fd634","null","","","","null","","","","key","16.652847457627797","640","300.5","","","","","","","","","","","","","","","","","","","",""
"psychophysics","233","595535","0.0-16.0-1.20","5d91d281412c0300cb50e7ee","636d03e66a32c7f65a0397df","636d0730789d47c09a9fd634","null","","","","null","","","","key","16.65213793103487","640","300.5","","","","","","","","","","","","","138","-1","4","false","","","",""
"psychophysics","234","595962","0.0-16.0-2.20","5d91d281412c0300cb50e7ee","636d03e66a32c7f65a0397df","636d0730789d47c09a9fd634","426.10000014305115","","","","77","","","","key","16.652559999995866","640","300.5","","","","","","","","","","","","","","","","","","","",""
"psychophysics","235","596968","0.0-16.0-0.21","5d91d281412c0300cb50e7ee","636d03e66a32c7f65a0397df","636d0730789d47c09a9fd634","null","","","","null","","","","key","16.652677966102218","640","300.5","","","","","","","","","","","","","","","","","","","",""
"psychophysics","236","597480","0.0-16.0-1.21","5d91d281412c0300cb50e7ee","636d03e66a32c7f65a0397df","636d0730789d47c09a9fd634","null","","","","null","","","","key","16.652733333335103","640","300.5","","","","","","","","","","","","","138","1","6","false","","","",""
"psychophysics","237","597666","0.0-16.0-2.21","5d91d281412c0300cb50e7ee","636d03e66a32c7f65a0397df","636d0730789d47c09a9fd634","184.70000004768372","","","","77","","","","key","16.650500000000466","640","300.5","","","","","","","","","","","","","","","","","","","",""
"psychophysics","238","598667","0.0-16.0-0.22","5d91d281412c0300cb50e7ee","636d03e66a32c7f65a0397df","636d0730789d47c09a9fd634","null","","","","null","","","","key","16.652864406779173","640","300.5","","","","","","","","","","","","","","","","","","","",""
"psychophysics","239","599169","0.0-16.0-1.22","5d91d281412c0300cb50e7ee","636d03e66a32c7f65a0397df","636d0730789d47c09a9fd634","null","","","","null","","","","key","16.652900000001924","640","300.5","","","","","","","","","","","","","138","1","5","false","","","",""
"psychophysics","240","599269","0.0-16.0-2.22","5d91d281412c0300cb50e7ee","636d03e66a32c7f65a0397df","636d0730789d47c09a9fd634","98.90000009536743","","","","77","","","","key","16.65119999998715","640","300.5","","","","","","","","","","","","","","","","","","","",""
"psychophysics","241","600279","0.0-16.0-0.23","5d91d281412c0300cb50e7ee","636d03e66a32c7f65a0397df","636d0730789d47c09a9fd634","null","","","","null","","","","key","16.652576271186078","640","300.5","","","","","","","","","","","","","","","","","","","",""
"psychophysics","242","600782","0.0-16.0-1.23","5d91d281412c0300cb50e7ee","636d03e66a32c7f65a0397df","636d0730789d47c09a9fd634","null","","","","null","","","","key","16.65231034482813","640","300.5","","","","","","","","","","","","","138","-1","2","false","","","",""
"psychophysics","243","601293","0.0-16.0-2.23","5d91d281412c0300cb50e7ee","636d03e66a32c7f65a0397df","636d0730789d47c09a9fd634","508.7999999523163","","","","90","","","","key","16.652999999998915","640","300.5","","","","","","","","","","","","","","","","","","","",""
"html-keyboard-response","244","755236","0.0-17.0","5d91d281412c0300cb50e7ee","636d03e66a32c7f65a0397df","636d0730789d47c09a9fd634","153941.90000009537","<p>Well Done !</p><p>Training Complete. Press the spacebar to start.</p><p>DON'T EXIT THE FULL SCREEN MODE</p>","","","32","","","","","","","","","","","","","","","","","","","","","","","","","","",""
"psychophysics","245","758252","0.0-18.0-0.0","5d91d281412c0300cb50e7ee","636d03e66a32c7f65a0397df","636d0730789d47c09a9fd634","null","","","","null","","","","key","16.664466666666947","640","300.5","","","","","","","","","","","","","","","","","","","",""
"psychophysics","246","758758","0.0-18.0-1.0","5d91d281412c0300cb50e7ee","636d03e66a32c7f65a0397df","636d0730789d47c09a9fd634","null","","","","null","","","","key","16.652033333336778","640","300.5","","","","","","","","","","","","","138","1","3","true","","","",""
"psychophysics","247","759154","0.0-18.0-2.0","5d91d281412c0300cb50e7ee","636d03e66a32c7f65a0397df","636d0730789d47c09a9fd634","394.7999999523163","","","","90","","","","key","16.653652173912395","640","300.5","","","","","","","","","","","","","","","","","","","",""
"psychophysics","248","760159","0.0-18.0-0.1","5d91d281412c0300cb50e7ee","636d03e66a32c7f65a0397df","636d0730789d47c09a9fd634","null","","","","null","","","","key","16.65291525423724","640","300.5","","","","","","","","","","","","","","","","","","","",""
"psychophysics","249","760662","0.0-18.0-1.1","5d91d281412c0300cb50e7ee","636d03e66a32c7f65a0397df","636d0730789d47c09a9fd634","null","","","","null","","","","key","16.652068965518364","640","300.5","","","","","","","","","","","","","138","1","0","true","","","",""
"psychophysics","250","760867","0.0-18.0-2.1","5d91d281412c0300cb50e7ee","636d03e66a32c7f65a0397df","636d0730789d47c09a9fd634","204.29999995231628","","","","90","","","","key","16.64833333333566","640","300.5","","","","","","","","","","","","","","","","","","","",""
"psychophysics","251","761870","0.0-18.0-0.2","5d91d281412c0300cb50e7ee","636d03e66a32c7f65a0397df","636d0730789d47c09a9fd634","null","","","","null","","","","key","16.653305084746474","640","300.5","","","","","","","","","","","","","","","","","","","",""
"psychophysics","252","762374","0.0-18.0-1.2","5d91d281412c0300cb50e7ee","636d03e66a32c7f65a0397df","636d0730789d47c09a9fd634","null","","","","null","","","","key","16.65051724137899","640","300.5","","","","","","","","","","","","","138","1","4","true","","","",""
"psychophysics","253","762952","0.0-18.0-2.2","5d91d281412c0300cb50e7ee","636d03e66a32c7f65a0397df","636d0730789d47c09a9fd634","576.4000000953674","","","","90","","","","key","16.654323529411","640","300.5","","","","","","","","","","","","","","","","","","","",""
"psychophysics","254","763958","0.0-18.0-0.3","5d91d281412c0300cb50e7ee","636d03e66a32c7f65a0397df","636d0730789d47c09a9fd634","null","","","","null","","","","key","16.65196610169517","640","300.5","","","","","","","","","","","","","","","","","","","",""
"psychophysics","255","764462","0.0-18.0-1.3","5d91d281412c0300cb50e7ee","636d03e66a32c7f65a0397df","636d0730789d47c09a9fd634","null","","","","null","","","","key","16.65317241379445","640","300.5","","","","","","","","","","","","","138","1","2","true","","","",""
"psychophysics","256","764716","0.0-18.0-2.3","5d91d281412c0300cb50e7ee","636d03e66a32c7f65a0397df","636d0730789d47c09a9fd634","252.60000014305115","","","","90","","","","key","16.66573333333557","640","300.5","","","","","","","","","","","","","","","","","","","",""
"psychophysics","257","765717","0.0-18.0-0.4","5d91d281412c0300cb50e7ee","636d03e66a32c7f65a0397df","636d0730789d47c09a9fd634","null","","","","null","","","","key","16.652220338981568","640","300.5","","","","","","","","","","","","","","","","","","","",""
"psychophysics","258","766222","0.0-18.0-1.4","5d91d281412c0300cb50e7ee","636d03e66a32c7f65a0397df","636d0730789d47c09a9fd634","null","","","","null","","","","key","16.65234482758839","640","300.5","","","","","","","","","","","","","138","1","5","true","","","",""
"psychophysics","259","766410","0.0-18.0-2.4","5d91d281412c0300cb50e7ee","636d03e66a32c7f65a0397df","636d0730789d47c09a9fd634","187.59999990463257","","","","77","","","","key","16.61480000000447","640","300.5","","","","","","","","","","","","","","","","","","","",""
"psychophysics","260","767411","0.0-18.0-0.5","5d91d281412c0300cb50e7ee","636d03e66a32c7f65a0397df","636d0730789d47c09a9fd634","null","","","","null","","","","key","16.65284999999955","640","300.5","","","","","","","","","","","","","","","","","","","",""
"psychophysics","261","767919","0.0-18.0-1.5","5d91d281412c0300cb50e7ee","636d03e66a32c7f65a0397df","636d0730789d47c09a9fd634","null","","","","null","","","","key","16.653965517240255","640","300.5","","","","","","","","","","","","","138","-1","6","true","","","",""
"psychophysics","262","768070","0.0-18.0-2.5","5d91d281412c0300cb50e7ee","636d03e66a32c7f65a0397df","636d0730789d47c09a9fd634","149.29999995231628","","","","77","","","","key","16.652000000001863","640","300.5","","","","","","","","","","","","","","","","","","","",""
"psychophysics","263","769076","0.0-18.0-0.6","5d91d281412c0300cb50e7ee","636d03e66a32c7f65a0397df","636d0730789d47c09a9fd634","null","","","","null","","","","key","16.652898305085866","640","300.5","","","","","","","","","","","","","","","","","","","",""
"psychophysics","264","769581","0.0-18.0-1.6","5d91d281412c0300cb50e7ee","636d03e66a32c7f65a0397df","636d0730789d47c09a9fd634","null","","","","null","","","","key","16.65230000000059","640","300.5","","","","","","","","","","","","","138","-1","0","true","","","",""
"psychophysics","265","769839","0.0-18.0-2.6","5d91d281412c0300cb50e7ee","636d03e66a32c7f65a0397df","636d0730789d47c09a9fd634","256.7000000476837","","","","90","","","","key","16.654285714288044","640","300.5","","","","","","","","","","","","","","","","","","","",""
"psychophysics","266","770841","0.0-18.0-0.7","5d91d281412c0300cb50e7ee","636d03e66a32c7f65a0397df","636d0730789d47c09a9fd634","null","","","","null","","","","key","16.653152542372265","640","300.5","","","","","","","","","","","","","","","","","","","",""
"psychophysics","267","771351","0.0-18.0-1.7","5d91d281412c0300cb50e7ee","636d03e66a32c7f65a0397df","636d0730789d47c09a9fd634","null","","","","null","","","","key","16.652833333335973","640","300.5","","","","","","","","","","","","","138","-1","2","true","","","",""
"psychophysics","268","771582","0.0-18.0-2.7","5d91d281412c0300cb50e7ee","636d03e66a32c7f65a0397df","636d0730789d47c09a9fd634","230.69999980926514","","","","90","","","","key","16.65146153846469","640","300.5","","","","","","","","","","","","","","","","","","","",""
"psychophysics","269","772590","0.0-18.0-0.8","5d91d281412c0300cb50e7ee","636d03e66a32c7f65a0397df","636d0730789d47c09a9fd634","null","","","","null","","","","key","16.65222033898354","640","300.5","","","","","","","","","","","","","","","","","","","",""
"psychophysics","270","773095","0.0-18.0-1.8","5d91d281412c0300cb50e7ee","636d03e66a32c7f65a0397df","636d0730789d47c09a9fd634","null","","","","null","","","","key","16.65429999999857","640","300.5","","","","","","","","","","","","","138","-1","3","true","","","",""
"psychophysics","271","773302","0.0-18.0-2.8","5d91d281412c0300cb50e7ee","636d03e66a32c7f65a0397df","636d0730789d47c09a9fd634","205.59999990463257","","","","90","","","","key","16.652999999996442","640","300.5","","","","","","","","","","","","","","","","","","","",""
"psychophysics","272","774305","0.0-18.0-0.9","5d91d281412c0300cb50e7ee","636d03e66a32c7f65a0397df","636d0730789d47c09a9fd634","null","","","","null","","","","key","16.652677966102218","640","300.5","","","","","","","","","","","","","","","","","","","",""
"psychophysics","273","774814","0.0-18.0-1.9","5d91d281412c0300cb50e7ee","636d03e66a32c7f65a0397df","636d0730789d47c09a9fd634","null","","","","null","","","","key","16.65209999999885","640","300.5","","","","","","","","","","","","","138","1","6","true","","","",""
"psychophysics","274","774865","0.0-18.0-2.9","5d91d281412c0300cb50e7ee","636d03e66a32c7f65a0397df","636d0730789d47c09a9fd634","47.5","","","","77","","","","key","16.645499999984168","640","300.5","","","","","","","","","","","","","","","","","","","",""
"psychophysics","275","775870","0.0-18.0-0.10","5d91d281412c0300cb50e7ee","636d03e66a32c7f65a0397df","636d0730789d47c09a9fd634","null","","","","null","","","","key","16.6516610169507","640","300.5","","","","","","","","","","","","","","","","","","","",""
"psychophysics","276","776374","0.0-18.0-1.10","5d91d281412c0300cb50e7ee","636d03e66a32c7f65a0397df","636d0730789d47c09a9fd634","null","","","","null","","","","key","16.651699999999256","640","300.5","","","","","","","","","","","","","138","-1","4","true","","","",""
"psychophysics","277","776710","0.0-18.0-2.10","5d91d281412c0300cb50e7ee","636d03e66a32c7f65a0397df","636d0730789d47c09a9fd634","335.90000009536743","","","","77","","","","key","16.653999999998824","640","300.5","","","","","","","","","","","","","","","","","","","",""
"psychophysics","278","777718","0.0-18.0-0.11","5d91d281412c0300cb50e7ee","636d03e66a32c7f65a0397df","636d0730789d47c09a9fd634","null","","","","null","","","","key","16.652644067797493","640","300.5","","","","","","","","","","","","","","","","","","","",""
"psychophysics","279","778218","0.0-18.0-1.11","5d91d281412c0300cb50e7ee","636d03e66a32c7f65a0397df","636d0730789d47c09a9fd634","null","","","","null","","","","key","16.652482758621396","640","300.5","","","","","","","","","","","","","138","-1","5","true","","","",""
"psychophysics","280","778424","0.0-18.0-2.11","5d91d281412c0300cb50e7ee","636d03e66a32c7f65a0397df","636d0730789d47c09a9fd634","204","","","","77","","","","key","16.645333333338687","640","300.5","","","","","","","","","","","","","","","","","","","",""
"psychophysics","281","779429","0.0-18.0-0.12","5d91d281412c0300cb50e7ee","636d03e66a32c7f65a0397df","636d0730789d47c09a9fd634","null","","","","null","","","","key","16.65264406779552","640","300.5","","","","","","","","","","","","","","","","","","","",""
"psychophysics","282","779934","0.0-18.0-1.12","5d91d281412c0300cb50e7ee","636d03e66a32c7f65a0397df","636d0730789d47c09a9fd634","null","","","","null","","","","key","16.65351724138098","640","300.5","","","","","","","","","","","","","138","1","4","true","","","",""
"psychophysics","283","781967","0.0-18.0-2.12","5d91d281412c0300cb50e7ee","636d03e66a32c7f65a0397df","636d0730789d47c09a9fd634","2031.8999998569489","","","","77","","","","key","16.652959016393144","640","300.5","","","","","","","","","","","","","","","","","","","",""
"psychophysics","284","782974","0.0-18.0-0.13","5d91d281412c0300cb50e7ee","636d03e66a32c7f65a0397df","636d0730789d47c09a9fd634","null","","","","null","","","","key","16.652677966102218","640","300.5","","","","","","","","","","","","","","","","","","","",""
"psychophysics","285","783479","0.0-18.0-1.13","5d91d281412c0300cb50e7ee","636d03e66a32c7f65a0397df","636d0730789d47c09a9fd634","null","","","","null","","","","key","16.652482758621396","640","300.5","","","","","","","","","","","","","138","1","3","true","","","",""
"psychophysics","286","783658","0.0-18.0-2.13","5d91d281412c0300cb50e7ee","636d03e66a32c7f65a0397df","636d0730789d47c09a9fd634","177.5","","","","90","","","","key","16.65230000000447","640","300.5","","","","","","","","","","","","","","","","","","","",""
"psychophysics","287","784662","0.0-18.0-0.14","5d91d281412c0300cb50e7ee","636d03e66a32c7f65a0397df","636d0730789d47c09a9fd634","null","","","","null","","","","key","16.65283050847445","640","300.5","","","","","","","","","","","","","","","","","","","",""
"psychophysics","288","785163","0.0-18.0-1.14","5d91d281412c0300cb50e7ee","636d03e66a32c7f65a0397df","636d0730789d47c09a9fd634","null","","","","null","","","","key","16.653896551723754","640","300.5","","","","","","","","","","","","","138","-1","0","true","","","",""
"psychophysics","289","785486","0.0-18.0-2.14","5d91d281412c0300cb50e7ee","636d03e66a32c7f65a0397df","636d0730789d47c09a9fd634","317.90000009536743","","","","77","","","","key","16.650842105265166","640","300.5","","","","","","","","","","","","","","","","","","","",""
"psychophysics","290","786495","0.0-18.0-0.15","5d91d281412c0300cb50e7ee","636d03e66a32c7f65a0397df","636d0730789d47c09a9fd634","null","","","","null","","","","key","16.653033898304752","640","300.5","","","","","","","","","","","","","","","","","","","",""
"psychophysics","291","786996","0.0-18.0-1.15","5d91d281412c0300cb50e7ee","636d03e66a32c7f65a0397df","636d0730789d47c09a9fd634","null","","","","null","","","","key","16.65193333333203","640","300.5","","","","","","","","","","","","","138","-1","4","true","","","",""
"psychophysics","292","787200","0.0-18.0-2.15","5d91d281412c0300cb50e7ee","636d03e66a32c7f65a0397df","636d0730789d47c09a9fd634","203.20000004768372","","","","77","","","","key","16.652363636361603","640","300.5","","","","","","","","","","","","","","","","","","","",""
"psychophysics","293","788206","0.0-18.0-0.16","5d91d281412c0300cb50e7ee","636d03e66a32c7f65a0397df","636d0730789d47c09a9fd634","null","","","","null","","","","key","16.651762711864865","640","300.5","","","","","","","","","","","","","","","","","","","",""
"psychophysics","294","788710","0.0-18.0-1.16","5d91d281412c0300cb50e7ee","636d03e66a32c7f65a0397df","636d0730789d47c09a9fd634","null","","","","null","","","","key","16.65403448276077","640","300.5","","","","","","","","","","","","","138","1","5","true","","","",""
"psychophysics","295","788915","0.0-18.0-2.16","5d91d281412c0300cb50e7ee","636d03e66a32c7f65a0397df","636d0730789d47c09a9fd634","203.20000004768372","","","","77","","","","key","16.653249999993324","640","300.5","","","","","","","","","","","","","","","","","","","",""
"psychophysics","296","789918","0.0-18.0-0.17","5d91d281412c0300cb50e7ee","636d03e66a32c7f65a0397df","636d0730789d47c09a9fd634","null","","","","null","","","","key","16.656745762712227","640","300.5","","","","","","","","","","","","","","","","","","","",""
"psychophysics","297","790423","0.0-18.0-1.17","5d91d281412c0300cb50e7ee","636d03e66a32c7f65a0397df","636d0730789d47c09a9fd634","null","","","","null","","","","key","16.64996551723894","640","300.5","","","","","","","","","","","","","138","-1","6","true","","","",""
"psychophysics","298","790578","0.0-18.0-2.17","5d91d281412c0300cb50e7ee","636d03e66a32c7f65a0397df","636d0730789d47c09a9fd634","154.39999985694885","","","","90","","","","key","16.65477777778223","640","300.5","","","","","","","","","","","","","","","","","","","",""
"psychophysics","299","791583","0.0-18.0-0.18","5d91d281412c0300cb50e7ee","636d03e66a32c7f65a0397df","636d0730789d47c09a9fd634","null","","","","null","","","","key","16.652847457627797","640","300.5","","","","","","","","","","","","","","","","","","","",""
"psychophysics","300","792086","0.0-18.0-1.18","5d91d281412c0300cb50e7ee","636d03e66a32c7f65a0397df","636d0730789d47c09a9fd634","null","","","","null","","","","key","16.65403448276077","640","300.5","","","","","","","","","","","","","138","-1","5","true","","","",""
"psychophysics","301","792288","0.0-18.0-2.18","5d91d281412c0300cb50e7ee","636d03e66a32c7f65a0397df","636d0730789d47c09a9fd634","200.80000019073486","","","","77","","","","key","16.655363636355933","640","300.5","","","","","","","","","","","","","","","","","","","",""
"psychophysics","302","793289","0.0-18.0-0.19","5d91d281412c0300cb50e7ee","636d03e66a32c7f65a0397df","636d0730789d47c09a9fd634","null","","","","null","","","","key","16.652677966100242","640","300.5","","","","","","","","","","","","","","","","","","","",""
"psychophysics","303","793790","0.0-18.0-1.19","5d91d281412c0300cb50e7ee","636d03e66a32c7f65a0397df","636d0730789d47c09a9fd634","null","","","","null","","","","key","16.654366666668405","640","300.5","","","","","","","","","","","","","138","1","6","true","","","",""
"psychophysics","304","793792","0.0-18.0-2.19","5d91d281412c0300cb50e7ee","636d03e66a32c7f65a0397df","636d0730789d47c09a9fd634","0.19999980926513672","","","","77","","","","key","NaN","640","300.5","","","","","","","","","","","","","","","","","","","",""
"psychophysics","305","794798","0.0-18.0-0.20","5d91d281412c0300cb50e7ee","636d03e66a32c7f65a0397df","636d0730789d47c09a9fd634","null","","","","null","","","","key","16.65225423728826","640","300.5","","","","","","","","","","","","","","","","","","","",""
"psychophysics","306","795302","0.0-18.0-1.20","5d91d281412c0300cb50e7ee","636d03e66a32c7f65a0397df","636d0730789d47c09a9fd634","null","","","","null","","","","key","16.65300000000119","640","300.5","","","","","","","","","","","","","138","-1","2","true","","","",""
"psychophysics","307","795515","0.0-18.0-2.20","5d91d281412c0300cb50e7ee","636d03e66a32c7f65a0397df","636d0730789d47c09a9fd634","211.40000009536743","","","","77","","","","key","16.654333333329607","640","300.5","","","","","","","","","","","","","","","","","","","",""
"psychophysics","308","796518","0.0-18.0-0.21","5d91d281412c0300cb50e7ee","636d03e66a32c7f65a0397df","636d0730789d47c09a9fd634","null","","","","null","","","","key","16.653169491525613","640","300.5","","","","","","","","","","","","","","","","","","","",""
"psychophysics","309","797019","0.0-18.0-1.21","5d91d281412c0300cb50e7ee","636d03e66a32c7f65a0397df","636d0730789d47c09a9fd634","null","","","","null","","","","key","16.652517241381656","640","300.5","","","","","","","","","","","","","138","-1","3","true","","","",""
"psychophysics","310","797336","0.0-18.0-2.21","5d91d281412c0300cb50e7ee","636d03e66a32c7f65a0397df","636d0730789d47c09a9fd634","314.2999999523163","","","","90","","","","key","16.651222222225947","640","300.5","","","","","","","","","","","","","","","","","","","",""
"psychophysics","311","798342","0.0-18.0-0.22","5d91d281412c0300cb50e7ee","636d03e66a32c7f65a0397df","636d0730789d47c09a9fd634","null","","","","null","","","","key","16.648133333333924","640","300.5","","","","","","","","","","","","","","","","","","","",""
"psychophysics","312","798846","0.0-18.0-1.22","5d91d281412c0300cb50e7ee","636d03e66a32c7f65a0397df","636d0730789d47c09a9fd634","null","","","","null","","","","key","16.653482758620722","640","300.5","","","","","","","","","","","","","138","1","2","true","","","",""
"psychophysics","313","799125","0.0-18.0-2.22","5d91d281412c0300cb50e7ee","636d03e66a32c7f65a0397df","636d0730789d47c09a9fd634","274.90000009536743","","","","90","","","","key","16.652437500000815","640","300.5","","","","","","","","","","","","","","","","","","","",""
"psychophysics","314","800134","0.0-18.0-0.23","5d91d281412c0300cb50e7ee","636d03e66a32c7f65a0397df","636d0730789d47c09a9fd634","null","","","","null","","","","key","16.654118644067687","640","300.5","","","","","","","","","","","","","","","","","","","",""
"psychophysics","315","800638","0.0-18.0-1.23","5d91d281412c0300cb50e7ee","636d03e66a32c7f65a0397df","636d0730789d47c09a9fd634","null","","","","null","","","","key","16.650600000001337","640","300.5","","","","","","","","","","","","","138","1","0","true","","","",""
"psychophysics","316","801140","0.0-18.0-2.23","5d91d281412c0300cb50e7ee","636d03e66a32c7f65a0397df","636d0730789d47c09a9fd634","500.60000014305115","","","","77","","","","key","16.65293103448067","640","300.5","","","","","","","","","","","","","","","","","","","",""
"psychophysics","317","802142","0.0-18.0-0.24","5d91d281412c0300cb50e7ee","636d03e66a32c7f65a0397df","636d0730789d47c09a9fd634","null","","","","null","","","","key","16.652627118644148","640","300.5","","","","","","","","","","","","","","","","","","","",""
"psychophysics","318","802646","0.0-18.0-1.24","5d91d281412c0300cb50e7ee","636d03e66a32c7f65a0397df","636d0730789d47c09a9fd634","null","","","","null","","","","key","16.662413793102164","640","300.5","","","","","","","","","","","","","138","1","3","true","","","",""
"psychophysics","319","802849","0.0-18.0-2.24","5d91d281412c0300cb50e7ee","636d03e66a32c7f65a0397df","636d0730789d47c09a9fd634","200.79999995231628","","","","77","","","","key","16.65291666666356","640","300.5","","","","","","","","","","","","","","","","","","","",""
"psychophysics","320","803855","0.0-18.0-0.25","5d91d281412c0300cb50e7ee","636d03e66a32c7f65a0397df","636d0730789d47c09a9fd634","null","","","","null","","","","key","16.65291525423724","640","300.5","","","","","","","","","","","","","","","","","","","",""
"psychophysics","321","804359","0.0-18.0-1.25","5d91d281412c0300cb50e7ee","636d03e66a32c7f65a0397df","636d0730789d47c09a9fd634","null","","","","null","","","","key","16.652758620687408","640","300.5","","","","","","","","","","","","","138","-1","5","true","","","",""
"psychophysics","322","804512","0.0-18.0-2.25","5d91d281412c0300cb50e7ee","636d03e66a32c7f65a0397df","636d0730789d47c09a9fd634","152.29999995231628","","","","77","","","","key","16.652999999991152","640","300.5","","","","","","","","","","","","","","","","","","","",""
"psychophysics","323","805513","0.0-18.0-0.26","5d91d281412c0300cb50e7ee","636d03e66a32c7f65a0397df","636d0730789d47c09a9fd634","null","","","","null","","","","key","16.655900000000837","640","300.5","","","","","","","","","","","","","","","","","","","",""
"psychophysics","324","806023","0.0-18.0-1.26","5d91d281412c0300cb50e7ee","636d03e66a32c7f65a0397df","636d0730789d47c09a9fd634","null","","","","null","","","","key","16.654000000000515","640","300.5","","","","","","","","","","","","","138","-1","0","true","","","",""
"psychophysics","325","806132","0.0-18.0-2.26","5d91d281412c0300cb50e7ee","636d03e66a32c7f65a0397df","636d0730789d47c09a9fd634","107.90000009536743","","","","90","","","","key","16.64916666666977","640","300.5","","","","","","","","","","","","","","","","","","","",""
"psychophysics","326","807135","0.0-18.0-0.27","5d91d281412c0300cb50e7ee","636d03e66a32c7f65a0397df","636d0730789d47c09a9fd634","null","","","","null","","","","key","16.648203389831597","640","300.5","","","","","","","","","","","","","","","","","","","",""
"psychophysics","327","807638","0.0-18.0-1.27","5d91d281412c0300cb50e7ee","636d03e66a32c7f65a0397df","636d0730789d47c09a9fd634","null","","","","null","","","","key","16.65317241379445","640","300.5","","","","","","","","","","","","","138","1","4","true","","","",""
"psychophysics","328","811079","0.0-18.0-2.27","5d91d281412c0300cb50e7ee","636d03e66a32c7f65a0397df","636d0730789d47c09a9fd634","3439.5","","","","90","","","","key","16.652810679611896","640","300.5","","","","","","","","","","","","","","","","","","","",""
"psychophysics","329","812086","0.0-18.0-0.28","5d91d281412c0300cb50e7ee","636d03e66a32c7f65a0397df","636d0730789d47c09a9fd634","null","","","","null","","","","key","16.65294915254196","640","300.5","","","","","","","","","","","","","","","","","","","",""
"psychophysics","330","812590","0.0-18.0-1.28","5d91d281412c0300cb50e7ee","636d03e66a32c7f65a0397df","636d0730789d47c09a9fd634","null","","","","null","","","","key","16.64434482758576","640","300.5","","","","","","","","","","","","","138","-1","4","true","","","",""
