"trial_type","trial_index","time_elapsed","internal_node_id","PROLIFIC_PID","STUDY_ID","SESSION_ID","rt","stimulus","button_pressed","success","key_press","responses","isData","view_history","response_type","avg_frame_time","center_x","center_y","isSC","stim_side","trial_luminance","step_size","nReversal","correct","prev_ans","isThreshold","SC_threshold","final_threshold","isLuminance","FF_luminance","luminance","stimSide","ISInt","isFF","question_order","isSPQ","isCAPS","isAQ"
"pavlovia","0","44","0.0-0.0","62cea89eb7f971d20007bc80","636d03e66a32c7f65a0397df","636d07ee8dc9c253c69283fd","","","","","","","","","","","","","","","","","","","","","","","","","","","","","","","",""
"html-button-response","1","37061","0.0-1.0","62cea89eb7f971d20007bc80","636d03e66a32c7f65a0397df","636d07ee8dc9c253c69283fd","37008.20000000298","<div style='background-color: white; width:60%; margin: auto; padding: 50px; text-align: justify; text-justify: inter-word; margin-bottom: 20px;'><h1 style='text-align: center;'>Consent Form</h1><p>Please read this consent form carefully before deciding whether you would like to participate in this study. You have to be 18 years old or older to participate to this study.</p><p style='text-decoration: underline;'>Participation is voluntary:</p><p>It is your choice whether or not to participate in this research. If you choose to participate, you may change your mind and leave the study at any time. Refusal to participate or stopping your participation will involve no penalty or loss of benefits to which you are otherwise entitled.</p><p style='text-decoration: underline;'>Purpose of the Study:</p><p>To understand the mechanisms underlying human perception.</p><p style='text-decoration: underline;'>What you will do in this study:</p><p>You will be presented with a series of visual images and then you will press buttons on the keyboard of your computer to respond to simple questions about the images (e.g. Were one or two images presented?). In addition, you will be asked to complete a questionnaire concerning your beliefs and everyday mental and perceptual experiences.'</p><p style='text-decoration: underline;'> Time Required:</p><p>The study will take 40 minutes to complete. </p><p style='text-decoration: underline;'>Risks:</p><p>There are no anticipated risks associated with participating in this study that are beyond those experienced in everyday life. </p><p style='text-decoration: underline;'>Benefits:</p><p>There are no benefits to you in participating in the study. However, this study may lead to a better understanding of how different kinds of visual information are used.</p><p style='text-decoration: underline;'>Compensation:</p><p>You will be paid US$6.6/hour. </p><p style='text-decoration: underline;'>Privacy and Confidentiality:</p><p>Your participation in this study will be anonymous. No personal information about your name or identity will be asked or recorded. This anonymous data will be stored for several years and may be used for a variety of research purposes. The overall results of the study may be published, or the data files may be shared with other researchers, but your identity will not be revealed in any way. The online services we are using for this study may temporarily store your data, but this data will be downloaded and then promptly deleted from those services.Your data will not be permanently associated with your name, IP address, or any other identifiable information (e.g., your information will only be connected to your payment, not to any of your responses), though they may be temporarily stored together before we download and separate them. Even so, no guarantee of internet survey security can be given because, although unlikely, transmissions can be intercepted and IP addresses can be identified. The anonymous data may be shared publicly (for example, in conjunction with a resulting academic publication).</p><p style='text-decoration: underline;'>Participation and Withdrawal:</p><p>Your participation in this study is completely voluntary. You may stop responding to the stimuli or stop answering questions if you so choose and without penalty by exiting the full screen mode, closing this tab of your browser or redirecting it to a different website.</p><p style='text-decoration: underline;'>Contact Info of the Researcher: </p><p>If you have questions about this study, or if you would like to talk to the research team, please contact David Melcher (david.melcher@nyu.edu, md5050@nyu.edu) at the Perception and Active Cognition Laboratory, New York University Abu Dhabi, Computational Research Building, Saadiyat Island, Abu Dhabi, UAE.This research has been reviewed by the New York University Abu Dhabi Institutional Review Board (NYUAD IRB). To contact about your rights in this research, for questions, suggestions, or complaints that are not addressed by the researchers, please email IRBnyuad@nyu.edu, or call the NYUAD IRB at +971 2 628 4313. </p></div>","0","","","","","","","","","","","","","","","","","","","","","","","","","","","","",""
"fullscreen","2","39100","0.0-2.0","62cea89eb7f971d20007bc80","636d03e66a32c7f65a0397df","636d07ee8dc9c253c69283fd","","","","true","","","","","","","","","","","","","","","","","","","","","","","","","","","",""
"html-keyboard-response","3","70992","0.0-3.0","62cea89eb7f971d20007bc80","636d03e66a32c7f65a0397df","636d07ee8dc9c253c69283fd","31887.39999999851","<p>Welcome !</p><p>READ CAREFULLY THE FOLLOWING INDICATIONS:</p><p>From this moment you have ~40 minutes to complete the experiment.</p><p>During the experiment you will be prompted to take several breaks. Each break should not last longer than 2-3 minutes.</p><p>Make sure that your computer is plugged in and it's not running on battery power, even if the battery is already fully charged.</p><p>Turn off your phone and music, make sure that you are in a quiet room and that you will not be distracted for the next hour.</p><p>Failure to comply with the instructions and indications provided during the experiment will most likely result in the rejection of your data.<p>Press the spacebar to start.</p>","","","32","","","","","","","","","","","","","","","","","","","","","","","","","","",""
"survey-html-form","4","82651","0.0-4.0","62cea89eb7f971d20007bc80","636d03e66a32c7f65a0397df","636d07ee8dc9c253c69283fd","11654.199999999255","","","","","{""age"":""44"",""sex"":""F""}","true","","","","","","","","","","","","","","","","","","","","","","","","",""
"instructions","5","158668","0.0-5.0","62cea89eb7f971d20007bc80","636d03e66a32c7f65a0397df","636d07ee8dc9c253c69283fd","76013.60000000149","","","","","","","[{""page_index"":0,""viewing_time"":43969.300000000745},{""page_index"":1,""viewing_time"":19013.39999999851},{""page_index"":2,""viewing_time"":13029.400000002235}]","","","","","","","","","","","","","","","","","","","","","","","",""
"psychophysics","6","168650","0.0-6.0-0.0","62cea89eb7f971d20007bc80","636d03e66a32c7f65a0397df","636d07ee8dc9c253c69283fd","8931.5","","","","37","","","","key","16.81860370994941","800","378.5","true","-1","180","30","0","-1","","","","","","","","","","","","","",""
"psychophysics","7","170073","0.0-6.0-0.1","62cea89eb7f971d20007bc80","636d03e66a32c7f65a0397df","636d07ee8dc9c253c69283fd","417","","","","37","","","","key","16.650364705882556","800","378.5","true","-1","180","30","0","-1","-1","","","","","","","","","","","","",""
"psychophysics","8","171113","0.0-6.0-0.2","62cea89eb7f971d20007bc80","636d03e66a32c7f65a0397df","636d07ee8dc9c253c69283fd","24.799999997019768","","","","39","","","","key","16.645112903225854","800","378.5","true","1","150","30","0","-1","-1","","","","","","","","","","","","",""
"psychophysics","9","172222","0.0-6.0-0.3","62cea89eb7f971d20007bc80","636d03e66a32c7f65a0397df","636d07ee8dc9c253c69283fd","101.80000000074506","","","","39","","","","key","16.64327692307684","800","378.5","true","1","150","30","0","-1","-1","","","","","","","","","","","","",""
"psychophysics","10","174396","0.0-6.0-0.4","62cea89eb7f971d20007bc80","636d03e66a32c7f65a0397df","636d07ee8dc9c253c69283fd","1156.5999999977648","","","","39","","","","key","16.775480620155125","800","378.5","true","1","129","30","0","-1","-1","","","","","","","","","","","","",""
"psychophysics","11","176249","0.0-6.0-0.5","62cea89eb7f971d20007bc80","636d03e66a32c7f65a0397df","636d07ee8dc9c253c69283fd","847.7000000029802","","","","39","","","","key","16.64667272727291","800","378.5","true","-1","129","24","1","1","-1","","","","","","","","","","","","",""
"psychophysics","12","177307","0.0-6.0-0.6","62cea89eb7f971d20007bc80","636d03e66a32c7f65a0397df","636d07ee8dc9c253c69283fd","51.899999998509884","","","","37","","","","key","16.641857142856765","800","378.5","true","-1","153","24","1","-1","1","","","","","","","","","","","","",""
"psychophysics","13","178479","0.0-6.0-0.7","62cea89eb7f971d20007bc80","636d03e66a32c7f65a0397df","636d07ee8dc9c253c69283fd","156.39999999850988","","","","39","","","","key","16.646405797101647","800","378.5","true","1","153","19.2","2","-1","-1","","","","","","","","","","","","",""
"psychophysics","14","179488","0.0-6.0-0.8","62cea89eb7f971d20007bc80","636d03e66a32c7f65a0397df","636d07ee8dc9c253c69283fd","5.5","","","","37","","","","key","16.617733333333067","800","378.5","true","-1","133.8","19.2","2","-1","-1","","","","","","","","","","","","",""
"psychophysics","15","184899","0.0-6.0-0.9","62cea89eb7f971d20007bc80","636d03e66a32c7f65a0397df","636d07ee8dc9c253c69283fd","4395.5","","","","39","","","","key","16.648373456790136","800","378.5","true","-1","133.8","15.36","3","1","-1","","","","","","","","","","","","",""
"psychophysics","16","186158","0.0-6.0-0.10","62cea89eb7f971d20007bc80","636d03e66a32c7f65a0397df","636d07ee8dc9c253c69283fd","251.19999999925494","","","","39","","","","key","16.644743243243383","800","378.5","true","1","149.16000000000003","15.36","3","-1","1","","","","","","","","","","","","",""
"psychophysics","17","189769","0.0-6.0-0.11","62cea89eb7f971d20007bc80","636d03e66a32c7f65a0397df","636d07ee8dc9c253c69283fd","2602.099999997765","","","","39","","","","key","16.64753703703698","800","378.5","true","-1","149.16000000000003","12.287999999999998","4","1","-1","","","","","","","","","","","","",""
"psychophysics","18","190993","0.0-6.0-0.12","62cea89eb7f971d20007bc80","636d03e66a32c7f65a0397df","636d07ee8dc9c253c69283fd","205.40000000223517","","","","37","","","","key","16.644054794520592","800","378.5","true","-1","161.44800000000004","12.287999999999998","4","-1","1","","","","","","","","","","","","",""
"psychophysics","19","192033","0.0-6.0-0.13","62cea89eb7f971d20007bc80","636d03e66a32c7f65a0397df","636d07ee8dc9c253c69283fd","34","","","","39","","","","key","16.649180327868947","800","378.5","true","1","161.44800000000004","9.8304","5","-1","-1","","","","","","","","","","","","",""
"psychophysics","20","193058","0.0-6.0-0.14","62cea89eb7f971d20007bc80","636d03e66a32c7f65a0397df","636d07ee8dc9c253c69283fd","22","","","","37","","","","key","16.642393442623213","800","378.5","true","-1","151.61760000000004","9.8304","5","-1","-1","","","","","","","","","","","","",""
"psychophysics","21","194246","0.0-6.0-0.15","62cea89eb7f971d20007bc80","636d03e66a32c7f65a0397df","636d07ee8dc9c253c69283fd","178.30000000074506","","","","37","","","","key","16.642542857142896","800","378.5","true","-1","151.61760000000004","9.8304","5","-1","-1","","","","","","","","","","","","",""
"psychophysics","22","195314","0.0-6.0-0.16","62cea89eb7f971d20007bc80","636d03e66a32c7f65a0397df","636d07ee8dc9c253c69283fd","63.30000000074506","","","","37","","","","key","16.647380952381006","800","378.5","true","-1","141.78720000000004","9.8304","5","-1","-1","","","","","","","","","","","","",""
"psychophysics","23","197173","0.0-6.0-0.17","62cea89eb7f971d20007bc80","636d03e66a32c7f65a0397df","636d07ee8dc9c253c69283fd","844.7000000029802","","","","37","","","","key","16.788618181818375","800","378.5","true","1","141.78720000000004","7.864319999999999","6","1","-1","","","","","","","","","","","","",""
"psychophysics","24","198392","0.0-6.0-0.18","62cea89eb7f971d20007bc80","636d03e66a32c7f65a0397df","636d07ee8dc9c253c69283fd","211.30000000074506","","","","39","","","","key","16.64926388888893","800","378.5","true","1","149.65152000000003","7.864319999999999","6","-1","1","","","","","","","","","","","","",""
"psychophysics","25","199465","0.0-6.0-0.19","62cea89eb7f971d20007bc80","636d03e66a32c7f65a0397df","636d07ee8dc9c253c69283fd","64.89999999850988","","","","39","","","","key","16.648936507936533","800","378.5","true","1","149.65152000000003","6.291456","7","-1","-1","","","","","","","","","","","","",""
"psychophysics","26","200482","0.0-6.0-0.20","62cea89eb7f971d20007bc80","636d03e66a32c7f65a0397df","636d07ee8dc9c253c69283fd","4.800000000745058","","","","37","","","","key","16.638933333333018","800","378.5","true","-1","143.36006400000002","6.291456","7","-1","-1","","","","","","","","","","","","",""
"psychophysics","27","203430","0.0-6.0-0.21","62cea89eb7f971d20007bc80","636d03e66a32c7f65a0397df","636d07ee8dc9c253c69283fd","1940.1000000014901","","","","37","","","","key","16.645033898305098","800","378.5","true","1","143.36006400000002","5.033164800000001","8","1","-1","","","","","","","","","","","","",""
"psychophysics","28","204647","0.0-6.0-0.22","62cea89eb7f971d20007bc80","636d03e66a32c7f65a0397df","636d07ee8dc9c253c69283fd","205.09999999776483","","","","37","","","","key","16.64845833333311","800","378.5","true","-1","148.39322880000003","5.033164800000001","8","-1","1","","","","","","","","","","","","",""
"psychophysics","29","205703","0.0-6.0-0.23","62cea89eb7f971d20007bc80","636d03e66a32c7f65a0397df","636d07ee8dc9c253c69283fd","46.20000000298023","","","","37","","","","key","16.6439193548384","800","378.5","true","-1","148.39322880000003","4.0265318400000005","9","-1","-1","","","","","","","","","","","","",""
"psychophysics","30","208117","0.0-6.0-0.24","62cea89eb7f971d20007bc80","636d03e66a32c7f65a0397df","636d07ee8dc9c253c69283fd","1410.9000000022352","","","","37","","","","key","16.65213194444449","800","378.5","true","1","144.36669696000004","3.2212254720000004","10","1","-1","","","","","","","","","","","","",""
"psychophysics","31","209242","0.0-6.0-0.25","62cea89eb7f971d20007bc80","636d03e66a32c7f65a0397df","636d07ee8dc9c253c69283fd","119.19999999925494","","","","37","","","","key","16.64316417910454","800","378.5","true","-1","147.58792243200003","3.2212254720000004","10","-1","1","","","","","","","","","","","","",""
"psychophysics","32","210351","0.0-6.0-0.26","62cea89eb7f971d20007bc80","636d03e66a32c7f65a0397df","636d07ee8dc9c253c69283fd","98.10000000149012","","","","39","","","","key","16.645184615384697","800","378.5","true","1","147.58792243200003","2.5769803776000004","11","-1","-1","","","","","","","","","","","","",""
"psychophysics","33","212711","0.0-6.0-0.27","62cea89eb7f971d20007bc80","636d03e66a32c7f65a0397df","636d07ee8dc9c253c69283fd","1340.8999999985099","","","","39","","","","key","16.65499290780136","800","378.5","true","-1","145.01094205440003","2.0615843020800004","12","1","-1","","","","","","","","","","","","",""
"psychophysics","34","213870","0.0-6.0-0.28","62cea89eb7f971d20007bc80","636d03e66a32c7f65a0397df","636d07ee8dc9c253c69283fd","153.5","","","","39","","","","key","16.628985294117765","800","378.5","true","1","147.07252635648004","2.0615843020800004","12","-1","1","","","","","","","","","","","","",""
"psychophysics","35","217052","0.0-6.0-0.29","62cea89eb7f971d20007bc80","636d03e66a32c7f65a0397df","636d07ee8dc9c253c69283fd","2172.39999999851","","","","37","","","","key","16.73773684210518","800","378.5","true","-1","147.07252635648004","1.6492674416640005","13","-1","-1","","","","","","","","","","","","",""
"psychophysics","36","218367","0.0-6.0-0.30","62cea89eb7f971d20007bc80","636d03e66a32c7f65a0397df","636d07ee8dc9c253c69283fd","305","","","","37","","","","key","16.647615384615328","800","378.5","true","-1","145.42325891481605","1.6492674416640005","13","-1","-1","","","","","","","","","","","","",""
"psychophysics","37","220997","0.0-6.0-0.31","62cea89eb7f971d20007bc80","636d03e66a32c7f65a0397df","636d07ee8dc9c253c69283fd","1622.5","","","","37","","","","key","16.65114743589742","800","378.5","true","1","145.42325891481605","1.3194139533312006","14","1","-1","","","","","","","","","","","","",""
"psychophysics","38","222047","0.0-6.0-0.32","62cea89eb7f971d20007bc80","636d03e66a32c7f65a0397df","636d07ee8dc9c253c69283fd","39.30000000074506","","","","39","","","","key","16.601301587301784","800","378.5","true","1","146.74267286814725","1.3194139533312006","14","-1","1","","","","","","","","","","","","",""
"psychophysics","39","224102","0.0-6.0-0.33","62cea89eb7f971d20007bc80","636d03e66a32c7f65a0397df","636d07ee8dc9c253c69283fd","1045.2999999970198","","","","37","","","","key","16.647131147541078","800","378.5","true","1","146.74267286814725","1.0555311626649604","15","1","-1","","","","","","","","","","","","",""
"psychophysics","40","225495","0.0-6.0-0.34","62cea89eb7f971d20007bc80","636d03e66a32c7f65a0397df","636d07ee8dc9c253c69283fd","386.5","","","","37","","","","key","17.940818181818173","800","378.5","true","-1","147.7982040308122","1.0555311626649604","15","-1","1","","","","","","","","","","","","",""
"psychophysics","41","226531","0.0-6.0-0.35","62cea89eb7f971d20007bc80","636d03e66a32c7f65a0397df","636d07ee8dc9c253c69283fd","23.800000000745058","","","","39","","","","key","16.64409836065587","800","378.5","true","1","147.7982040308122","1","16","-1","-1","","","","","","","","","","","","",""
"psychophysics","42","228982","0.0-6.0-0.36","62cea89eb7f971d20007bc80","636d03e66a32c7f65a0397df","636d07ee8dc9c253c69283fd","1447.699999999255","","","","37","","","","key","16.647246575342415","800","378.5","true","1","146.7982040308122","1","17","1","-1","","","","","","","","","","","","",""
"psychophysics","43","229998","0.0-6.0-0.37","62cea89eb7f971d20007bc80","636d03e66a32c7f65a0397df","636d07ee8dc9c253c69283fd","6.800000000745058","","","","39","","","","key","16.644966666666733","800","378.5","true","1","147.7982040308122","1","17","-1","1","","","","","","","","","","","","",""
"psychophysics","44","231657","0.0-6.0-0.38","62cea89eb7f971d20007bc80","636d03e66a32c7f65a0397df","636d07ee8dc9c253c69283fd","649.0999999977648","","","","39","","","","key","16.647959595959755","800","378.5","true","1","147.7982040308122","1","18","-1","-1","","","","","","","","","","","","",""
"psychophysics","45","232806","0.0-6.0-0.39","62cea89eb7f971d20007bc80","636d03e66a32c7f65a0397df","636d07ee8dc9c253c69283fd","138.69999999925494","","","","37","","","","key","16.621426470587988","800","378.5","true","-1","146.7982040308122","1","18","-1","-1","","","","","","","","","","","","",""
"html-keyboard-response","46","239173","0.0-7.0","62cea89eb7f971d20007bc80","636d03e66a32c7f65a0397df","636d07ee8dc9c253c69283fd","6364.199999999255","<p>Well Done !</p><p>Prepare for a new block.</p><p>DON'T EXIT THE FULL SCREEN MODE</p><p>Press the Spacebar to start.</p>","","","32","","","","","","","","","","","","","","","true","146.89686182547732","","","","","","","","","","",""
"psychophysics","47","242238","0.0-8.0-0.0","62cea89eb7f971d20007bc80","636d03e66a32c7f65a0397df","636d07ee8dc9c253c69283fd","2054.10000000149","","","","39","","","","key","16.65444808743167","800","378.5","true","1","180","30","0","-1","","","","","","","","","","","","","",""
"psychophysics","48","243283","0.0-8.0-0.1","62cea89eb7f971d20007bc80","636d03e66a32c7f65a0397df","636d07ee8dc9c253c69283fd","34.79999999701977","","","","39","","","","key","16.638129032257805","800","378.5","true","1","180","30","0","-1","-1","","","","","","","","","","","","",""
"psychophysics","49","245506","0.0-8.0-0.2","62cea89eb7f971d20007bc80","636d03e66a32c7f65a0397df","636d07ee8dc9c253c69283fd","1217.300000000745","","","","39","","","","key","16.647172932330776","800","378.5","true","-1","150","24","1","1","-1","","","","","","","","","","","","",""
"psychophysics","50","248287","0.0-8.0-0.3","62cea89eb7f971d20007bc80","636d03e66a32c7f65a0397df","636d07ee8dc9c253c69283fd","1770.300000000745","","","","39","","","","key","16.647186746988066","800","378.5","true","-1","174","24","1","1","1","","","","","","","","","","","","",""
"psychophysics","51","249785","0.0-8.0-0.4","62cea89eb7f971d20007bc80","636d03e66a32c7f65a0397df","636d07ee8dc9c253c69283fd","488.19999999925494","","","","39","","","","key","16.648651685393048","800","378.5","true","1","198","24","1","-1","1","","","","","","","","","","","","",""
"psychophysics","52","252143","0.0-8.0-0.5","62cea89eb7f971d20007bc80","636d03e66a32c7f65a0397df","636d07ee8dc9c253c69283fd","1347.300000000745","","","","39","","","","key","16.649385714285643","800","378.5","true","-1","198","19.2","2","1","-1","","","","","","","","","","","","",""
"psychophysics","53","253227","0.0-8.0-0.6","62cea89eb7f971d20007bc80","636d03e66a32c7f65a0397df","636d07ee8dc9c253c69283fd","81.10000000149012","","","","39","","","","key","16.646968749999814","800","378.5","true","1","217.2","19.2","2","-1","1","","","","","","","","","","","","",""
"psychophysics","54","255594","0.0-8.0-0.7","62cea89eb7f971d20007bc80","636d03e66a32c7f65a0397df","636d07ee8dc9c253c69283fd","1354.699999999255","","","","37","","","","key","16.64617021276586","800","378.5","true","1","217.2","15.36","3","1","-1","","","","","","","","","","","","",""
"psychophysics","55","256668","0.0-8.0-0.8","62cea89eb7f971d20007bc80","636d03e66a32c7f65a0397df","636d07ee8dc9c253c69283fd","63.900000002235174","","","","37","","","","key","16.634875000000193","800","378.5","true","-1","232.56","15.36","3","-1","1","","","","","","","","","","","","",""
"psychophysics","56","257723","0.0-8.0-0.9","62cea89eb7f971d20007bc80","636d03e66a32c7f65a0397df","636d07ee8dc9c253c69283fd","50.5","","","","37","","","","key","16.649758064516185","800","378.5","true","-1","232.56","12.287999999999998","4","-1","-1","","","","","","","","","","","","",""
"psychophysics","57","260842","0.0-8.0-0.10","62cea89eb7f971d20007bc80","636d03e66a32c7f65a0397df","636d07ee8dc9c253c69283fd","2109.2999999970198","","","","37","","","","key","16.73626881720428","800","378.5","true","1","220.272","9.8304","5","1","-1","","","","","","","","","","","","",""
"psychophysics","58","261990","0.0-8.0-0.11","62cea89eb7f971d20007bc80","636d03e66a32c7f65a0397df","636d07ee8dc9c253c69283fd","139.80000000074506","","","","37","","","","key","16.64892647058792","800","378.5","true","-1","230.1024","9.8304","5","-1","1","","","","","","","","","","","","",""
"psychophysics","59","263073","0.0-8.0-0.12","62cea89eb7f971d20007bc80","636d03e66a32c7f65a0397df","636d07ee8dc9c253c69283fd","72.59999999776483","","","","39","","","","key","16.649124999999913","800","378.5","true","1","230.1024","7.864319999999999","6","-1","-1","","","","","","","","","","","","",""
"psychophysics","60","265540","0.0-8.0-0.13","62cea89eb7f971d20007bc80","636d03e66a32c7f65a0397df","636d07ee8dc9c253c69283fd","1457.5999999977648","","","","37","","","","key","16.64934013605428","800","378.5","true","1","222.23808","6.291456","7","1","-1","","","","","","","","","","","","",""
"psychophysics","61","266836","0.0-8.0-0.14","62cea89eb7f971d20007bc80","636d03e66a32c7f65a0397df","636d07ee8dc9c253c69283fd","291.29999999701977","","","","37","","","","key","16.648727272727147","800","378.5","true","-1","228.529536","6.291456","7","-1","1","","","","","","","","","","","","",""
"psychophysics","62","268737","0.0-8.0-0.15","62cea89eb7f971d20007bc80","636d03e66a32c7f65a0397df","636d07ee8dc9c253c69283fd","892.1000000014901","","","","37","","","","key","16.64892920353955","800","378.5","true","1","228.529536","5.033164800000001","8","1","-1","","","","","","","","","","","","",""
"psychophysics","63","269897","0.0-8.0-0.16","62cea89eb7f971d20007bc80","636d03e66a32c7f65a0397df","636d07ee8dc9c253c69283fd","154.90000000223517","","","","39","","","","key","16.654666666666962","800","378.5","true","1","233.56270080000002","5.033164800000001","8","-1","1","","","","","","","","","","","","",""
"psychophysics","64","270923","0.0-8.0-0.17","62cea89eb7f971d20007bc80","636d03e66a32c7f65a0397df","636d07ee8dc9c253c69283fd","15.100000001490116","","","","37","","","","key","16.648366666666696","800","378.5","true","-1","233.56270080000002","4.0265318400000005","9","-1","-1","","","","","","","","","","","","",""
"psychophysics","65","273398","0.0-8.0-0.18","62cea89eb7f971d20007bc80","636d03e66a32c7f65a0397df","636d07ee8dc9c253c69283fd","1450.7999999970198","","","","39","","","","key","16.649466216216112","800","378.5","true","1","229.53616896000003","4.0265318400000005","9","-1","-1","","","","","","","","","","","","",""
"psychophysics","66","275262","0.0-8.0-0.19","62cea89eb7f971d20007bc80","636d03e66a32c7f65a0397df","636d07ee8dc9c253c69283fd","857.5","","","","39","","","","key","16.645684684684966","800","378.5","true","-1","229.53616896000003","3.2212254720000004","10","1","-1","","","","","","","","","","","","",""
"psychophysics","67","276380","0.0-8.0-0.20","62cea89eb7f971d20007bc80","636d03e66a32c7f65a0397df","636d07ee8dc9c253c69283fd","105.90000000223517","","","","37","","","","key","16.64225757575795","800","378.5","true","-1","232.757394432","3.2212254720000004","10","-1","1","","","","","","","","","","","","",""
"psychophysics","68","278091","0.0-8.0-0.21","62cea89eb7f971d20007bc80","636d03e66a32c7f65a0397df","636d07ee8dc9c253c69283fd","701.6999999992549","","","","37","","","","key","16.644558823529366","800","378.5","true","1","232.757394432","2.5769803776000004","11","1","-1","","","","","","","","","","","","",""
"psychophysics","69","279304","0.0-8.0-0.22","62cea89eb7f971d20007bc80","636d03e66a32c7f65a0397df","636d07ee8dc9c253c69283fd","203.80000000074506","","","","37","","","","key","16.881899999999273","800","378.5","true","-1","235.3343748096","2.5769803776000004","11","-1","1","","","","","","","","","","","","",""
"psychophysics","70","282220","0.0-8.0-0.23","62cea89eb7f971d20007bc80","636d03e66a32c7f65a0397df","636d07ee8dc9c253c69283fd","1898.5","","","","37","","","","key","16.650422857142985","800","378.5","true","-1","235.3343748096","2.0615843020800004","12","-1","-1","","","","","","","","","","","","",""
"psychophysics","71","283319","0.0-8.0-0.24","62cea89eb7f971d20007bc80","636d03e66a32c7f65a0397df","636d07ee8dc9c253c69283fd","90","","","","37","","","","key","16.648369230768786","800","378.5","true","-1","233.27279050752","2.0615843020800004","12","-1","-1","","","","","","","","","","","","",""
"psychophysics","72","284492","0.0-8.0-0.25","62cea89eb7f971d20007bc80","636d03e66a32c7f65a0397df","636d07ee8dc9c253c69283fd","163.80000000074506","","","","37","","","","key","16.647971014493056","800","378.5","true","-1","233.27279050752","2.0615843020800004","12","-1","-1","","","","","","","","","","","","",""
"psychophysics","73","286771","0.0-8.0-0.26","62cea89eb7f971d20007bc80","636d03e66a32c7f65a0397df","636d07ee8dc9c253c69283fd","1273.2999999970198","","","","39","","","","key","16.649323529411905","800","378.5","true","-1","231.21120620544","1.6492674416640005","13","1","-1","","","","","","","","","","","","",""
"psychophysics","74","288710","0.0-8.0-0.27","62cea89eb7f971d20007bc80","636d03e66a32c7f65a0397df","636d07ee8dc9c253c69283fd","931","","","","37","","","","key","16.648634782609147","800","378.5","true","-1","232.860473647104","1.6492674416640005","13","-1","1","","","","","","","","","","","","",""
"psychophysics","75","289750","0.0-8.0-0.28","62cea89eb7f971d20007bc80","636d03e66a32c7f65a0397df","636d07ee8dc9c253c69283fd","29.800000000745058","","","","39","","","","key","16.65079032258044","800","378.5","true","1","232.860473647104","1.3194139533312006","14","-1","-1","","","","","","","","","","","","",""
"psychophysics","76","290811","0.0-8.0-0.29","62cea89eb7f971d20007bc80","636d03e66a32c7f65a0397df","636d07ee8dc9c253c69283fd","51","","","","39","","","","key","16.64836507936522","800","378.5","true","1","231.54105969377278","1.3194139533312006","14","-1","-1","","","","","","","","","","","","",""
"psychophysics","77","291864","0.0-8.0-0.30","62cea89eb7f971d20007bc80","636d03e66a32c7f65a0397df","636d07ee8dc9c253c69283fd","49.100000001490116","","","","39","","","","key","16.648306451613017","800","378.5","true","1","231.54105969377278","1.3194139533312006","14","-1","-1","","","","","","","","","","","","",""
"psychophysics","78","293988","0.0-8.0-0.31","62cea89eb7f971d20007bc80","636d03e66a32c7f65a0397df","636d07ee8dc9c253c69283fd","1114.6000000014901","","","","37","","","","key","16.64934920634943","800","378.5","true","1","230.22164574044157","1.0555311626649604","15","1","-1","","","","","","","","","","","","",""
"psychophysics","79","295147","0.0-8.0-0.32","62cea89eb7f971d20007bc80","636d03e66a32c7f65a0397df","636d07ee8dc9c253c69283fd","154.89999999850988","","","","37","","","","key","16.644594202897903","800","378.5","true","-1","231.27717690310652","1.0555311626649604","15","-1","1","","","","","","","","","","","","",""
"psychophysics","80","298313","0.0-8.0-0.33","62cea89eb7f971d20007bc80","636d03e66a32c7f65a0397df","636d07ee8dc9c253c69283fd","2158.900000002235","","","","39","","","","key","16.649793650793583","800","378.5","true","1","231.27717690310652","1","16","-1","-1","","","","","","","","","","","","",""
"psychophysics","81","299368","0.0-8.0-0.34","62cea89eb7f971d20007bc80","636d03e66a32c7f65a0397df","636d07ee8dc9c253c69283fd","40.900000002235174","","","","39","","","","key","16.647854838709932","800","378.5","true","1","230.27717690310652","1","16","-1","-1","","","","","","","","","","","","",""
"psychophysics","82","302292","0.0-8.0-0.35","62cea89eb7f971d20007bc80","636d03e66a32c7f65a0397df","636d07ee8dc9c253c69283fd","1916.3999999985099","","","","37","","","","key","16.649857142857343","800","378.5","true","1","230.27717690310652","1","17","1","-1","","","","","","","","","","","","",""
"psychophysics","83","303339","0.0-8.0-0.36","62cea89eb7f971d20007bc80","636d03e66a32c7f65a0397df","636d07ee8dc9c253c69283fd","36.100000001490116","","","","37","","","","key","16.648693548387758","800","378.5","true","-1","231.27717690310652","1","17","-1","1","","","","","","","","","","","","",""
"psychophysics","84","305264","0.0-8.0-0.37","62cea89eb7f971d20007bc80","636d03e66a32c7f65a0397df","636d07ee8dc9c253c69283fd","918.5999999977648","","","","39","","","","key","16.64955652173882","800","378.5","true","-1","231.27717690310652","1","18","1","-1","","","","","","","","","","","","",""
"psychophysics","85","306448","0.0-8.0-0.38","62cea89eb7f971d20007bc80","636d03e66a32c7f65a0397df","636d07ee8dc9c253c69283fd","170.39999999850988","","","","39","","","","key","16.648385714285542","800","378.5","true","1","232.27717690310652","1","18","-1","1","","","","","","","","","","","","",""
"psychophysics","86","307511","0.0-8.0-0.39","62cea89eb7f971d20007bc80","636d03e66a32c7f65a0397df","636d07ee8dc9c253c69283fd","51.899999998509884","","","","37","","","","key","16.652285714286364","800","378.5","true","-1","232.27717690310652","1","19","-1","-1","","","","","","","","","","","","",""
"html-keyboard-response","87","320856","0.0-9.0","62cea89eb7f971d20007bc80","636d03e66a32c7f65a0397df","636d07ee8dc9c253c69283fd","13342.199999999255","<p>Well Done !</p><p>Prepare for a new block.</p><p>DON'T EXIT THE FULL SCREEN MODE</p><p>Press the Spacebar to start.</p>","","","32","","","","","","","","","","","","","","","true","231.58174162400047","","","","","","","","","","",""
"psychophysics","88","323155","0.0-10.0-0.0","62cea89eb7f971d20007bc80","636d03e66a32c7f65a0397df","636d07ee8dc9c253c69283fd","1293.300000000745","","","","39","","","","key","16.656731884058082","800","378.5","true","1","180","30","0","-1","","","","","","","","","","","","","",""
"psychophysics","89","325976","0.0-10.0-0.1","62cea89eb7f971d20007bc80","636d03e66a32c7f65a0397df","636d07ee8dc9c253c69283fd","1803.9000000022352","","","","37","","","","key","16.649852071005984","800","378.5","true","1","180","30","0","1","-1","","","","","","","","","","","","",""
"psychophysics","90","328240","0.0-10.0-0.2","62cea89eb7f971d20007bc80","636d03e66a32c7f65a0397df","636d07ee8dc9c253c69283fd","1252.8999999985099","","","","39","","","","key","16.64619259259284","800","378.5","true","1","210","30","0","-1","1","","","","","","","","","","","","",""
"psychophysics","91","329314","0.0-10.0-0.3","62cea89eb7f971d20007bc80","636d03e66a32c7f65a0397df","636d07ee8dc9c253c69283fd","63.900000002235174","","","","39","","","","key","16.644238095238087","800","378.5","true","1","210","24","1","-1","-1","","","","","","","","","","","","",""
"psychophysics","92","331476","0.0-10.0-0.4","62cea89eb7f971d20007bc80","636d03e66a32c7f65a0397df","636d07ee8dc9c253c69283fd","1137.1000000014901","","","","37","","","","key","16.646279069767406","800","378.5","true","-1","186","24","1","-1","-1","","","","","","","","","","","","",""
"psychophysics","93","334356","0.0-10.0-0.5","62cea89eb7f971d20007bc80","636d03e66a32c7f65a0397df","636d07ee8dc9c253c69283fd","1871.5","","","","37","","","","key","16.649674418604686","800","378.5","true","1","186","19.2","2","1","-1","","","","","","","","","","","","",""
"psychophysics","94","335415","0.0-10.0-0.6","62cea89eb7f971d20007bc80","636d03e66a32c7f65a0397df","636d07ee8dc9c253c69283fd","50.599999997764826","","","","39","","","","key","16.64983870967802","800","378.5","true","1","205.2","19.2","2","-1","1","","","","","","","","","","","","",""
"psychophysics","95","336481","0.0-10.0-0.7","62cea89eb7f971d20007bc80","636d03e66a32c7f65a0397df","636d07ee8dc9c253c69283fd","56.80000000074506","","","","39","","","","key","16.650349206349347","800","378.5","true","-1","205.2","15.36","3","1","-1","","","","","","","","","","","","",""
"psychophysics","96","339747","0.0-10.0-0.8","62cea89eb7f971d20007bc80","636d03e66a32c7f65a0397df","636d07ee8dc9c253c69283fd","2258.900000002235","","","","39","","","","key","16.650010204081642","800","378.5","true","-1","220.56","15.36","3","1","1","","","","","","","","","","","","",""
"psychophysics","97","340810","0.0-10.0-0.9","62cea89eb7f971d20007bc80","636d03e66a32c7f65a0397df","636d07ee8dc9c253c69283fd","57.5","","","","37","","","","key","16.649822580644997","800","378.5","true","-1","235.92000000000002","15.36","3","-1","1","","","","","","","","","","","","",""
"psychophysics","98","343440","0.0-10.0-0.10","62cea89eb7f971d20007bc80","636d03e66a32c7f65a0397df","636d07ee8dc9c253c69283fd","1624","","","","39","","","","key","16.65004458598708","800","378.5","true","1","235.92000000000002","12.287999999999998","4","-1","-1","","","","","","","","","","","","",""
"psychophysics","99","346642","0.0-10.0-0.11","62cea89eb7f971d20007bc80","636d03e66a32c7f65a0397df","636d07ee8dc9c253c69283fd","2194.199999999255","","","","39","","","","key","16.649833333333543","800","378.5","true","-1","223.632","9.8304","5","1","-1","","","","","","","","","","","","",""
"psychophysics","100","347671","0.0-10.0-0.12","62cea89eb7f971d20007bc80","636d03e66a32c7f65a0397df","636d07ee8dc9c253c69283fd","18.5","","","","37","","","","key","16.648491803279","800","378.5","true","-1","233.4624","9.8304","5","-1","1","","","","","","","","","","","","",""
"psychophysics","101","350053","0.0-10.0-0.13","62cea89eb7f971d20007bc80","636d03e66a32c7f65a0397df","636d07ee8dc9c253c69283fd","1367.5","","","","37","","","","key","16.649183098591607","800","378.5","true","1","233.4624","7.864319999999999","6","1","-1","","","","","","","","","","","","",""
"psychophysics","102","351268","0.0-10.0-0.14","62cea89eb7f971d20007bc80","636d03e66a32c7f65a0397df","636d07ee8dc9c253c69283fd","211.89999999850988","","","","39","","","","key","16.649527777777823","800","378.5","true","1","241.32672","7.864319999999999","6","-1","1","","","","","","","","","","","","",""
"psychophysics","103","352420","0.0-10.0-0.15","62cea89eb7f971d20007bc80","636d03e66a32c7f65a0397df","636d07ee8dc9c253c69283fd","148.19999999925494","","","","37","","","","key","16.648632352941444","800","378.5","true","-1","241.32672","6.291456","7","-1","-1","","","","","","","","","","","","",""
"psychophysics","104","353550","0.0-10.0-0.16","62cea89eb7f971d20007bc80","636d03e66a32c7f65a0397df","636d07ee8dc9c253c69283fd","119.90000000223517","","","","37","","","","key","16.648552238806534","800","378.5","true","-1","235.03526399999998","6.291456","7","-1","-1","","","","","","","","","","","","",""
"psychophysics","105","357283","0.0-10.0-0.17","62cea89eb7f971d20007bc80","636d03e66a32c7f65a0397df","636d07ee8dc9c253c69283fd","2720.5","","","","39","","","","key","16.649793721973005","800","378.5","true","1","235.03526399999998","6.291456","7","-1","-1","","","","","","","","","","","","",""
"psychophysics","106","359013","0.0-10.0-0.18","62cea89eb7f971d20007bc80","636d03e66a32c7f65a0397df","636d07ee8dc9c253c69283fd","721","","","","39","","","","key","16.649650485436794","800","378.5","true","1","228.74380799999997","6.291456","7","-1","-1","","","","","","","","","","","","",""
"psychophysics","107","360059","0.0-10.0-0.19","62cea89eb7f971d20007bc80","636d03e66a32c7f65a0397df","636d07ee8dc9c253c69283fd","34.900000002235174","","","","37","","","","key","16.648338709677187","800","378.5","true","-1","228.74380799999997","6.291456","7","-1","-1","","","","","","","","","","","","",""
"psychophysics","108","361157","0.0-10.0-0.20","62cea89eb7f971d20007bc80","636d03e66a32c7f65a0397df","636d07ee8dc9c253c69283fd","93.69999999925494","","","","37","","","","key","16.647876923077273","800","378.5","true","-1","222.45235199999996","6.291456","7","-1","-1","","","","","","","","","","","","",""
"psychophysics","109","366568","0.0-10.0-0.21","62cea89eb7f971d20007bc80","636d03e66a32c7f65a0397df","636d07ee8dc9c253c69283fd","4395.800000000745","","","","39","","","","key","16.650068111455134","800","378.5","true","-1","222.45235199999996","5.033164800000001","8","1","-1","","","","","","","","","","","","",""
"psychophysics","110","367693","0.0-10.0-0.22","62cea89eb7f971d20007bc80","636d03e66a32c7f65a0397df","636d07ee8dc9c253c69283fd","115.89999999850988","","","","37","","","","key","16.630313432835383","800","378.5","true","-1","227.48551679999997","5.033164800000001","8","-1","1","","","","","","","","","","","","",""
"psychophysics","111","369586","0.0-10.0-0.23","62cea89eb7f971d20007bc80","636d03e66a32c7f65a0397df","636d07ee8dc9c253c69283fd","887.5","","","","39","","","","key","16.649265486725906","800","378.5","true","-1","227.48551679999997","4.0265318400000005","9","1","-1","","","","","","","","","","","","",""
"psychophysics","112","370890","0.0-10.0-0.24","62cea89eb7f971d20007bc80","636d03e66a32c7f65a0397df","636d07ee8dc9c253c69283fd","293.69999999925494","","","","39","","","","key","16.649402597402798","800","378.5","true","1","231.51204863999996","4.0265318400000005","9","-1","1","","","","","","","","","","","","",""
"psychophysics","113","371946","0.0-10.0-0.25","62cea89eb7f971d20007bc80","636d03e66a32c7f65a0397df","636d07ee8dc9c253c69283fd","41.30000000074506","","","","37","","","","key","16.649258064516378","800","378.5","true","-1","231.51204863999996","3.2212254720000004","10","-1","-1","","","","","","","","","","","","",""
"psychophysics","114","372977","0.0-10.0-0.26","62cea89eb7f971d20007bc80","636d03e66a32c7f65a0397df","636d07ee8dc9c253c69283fd","19.599999997764826","","","","37","","","","key","16.925583333332906","800","378.5","true","-1","228.29082316799997","3.2212254720000004","10","-1","-1","","","","","","","","","","","","",""
"psychophysics","115","375648","0.0-10.0-0.27","62cea89eb7f971d20007bc80","636d03e66a32c7f65a0397df","636d07ee8dc9c253c69283fd","1658.300000000745","","","","37","","","","key","16.645181250000313","800","378.5","true","1","228.29082316799997","2.5769803776000004","11","1","-1","","","","","","","","","","","","",""
"psychophysics","116","376731","0.0-10.0-0.28","62cea89eb7f971d20007bc80","636d03e66a32c7f65a0397df","636d07ee8dc9c253c69283fd","77.69999999925494","","","","39","","","","key","16.643953124999825","800","378.5","true","1","230.86780354559997","2.5769803776000004","11","-1","1","","","","","","","","","","","","",""
"psychophysics","117","377890","0.0-10.0-0.29","62cea89eb7f971d20007bc80","636d03e66a32c7f65a0397df","636d07ee8dc9c253c69283fd","153.60000000149012","","","","37","","","","key","16.652985294117517","800","378.5","true","-1","230.86780354559997","2.0615843020800004","12","-1","-1","","","","","","","","","","","","",""
"psychophysics","118","381087","0.0-10.0-0.30","62cea89eb7f971d20007bc80","636d03e66a32c7f65a0397df","636d07ee8dc9c253c69283fd","2186.10000000149","","","","37","","","","key","16.649750000000193","800","378.5","true","1","228.80621924351996","1.6492674416640005","13","1","-1","","","","","","","","","","","","",""
"psychophysics","119","382253","0.0-10.0-0.31","62cea89eb7f971d20007bc80","636d03e66a32c7f65a0397df","636d07ee8dc9c253c69283fd","157.5","","","","39","","","","key","16.64368115942014","800","378.5","true","1","230.45548668518396","1.6492674416640005","13","-1","1","","","","","","","","","","","","",""
"psychophysics","120","383319","0.0-10.0-0.32","62cea89eb7f971d20007bc80","636d03e66a32c7f65a0397df","636d07ee8dc9c253c69283fd","51.399999998509884","","","","37","","","","key","16.64930158730186","800","378.5","true","-1","230.45548668518396","1.3194139533312006","14","-1","-1","","","","","","","","","","","","",""
"psychophysics","121","385583","0.0-10.0-0.33","62cea89eb7f971d20007bc80","636d03e66a32c7f65a0397df","636d07ee8dc9c253c69283fd","1250.300000000745","","","","39","","","","key","16.649948148148273","800","378.5","true","1","229.13607273185275","1.3194139533312006","14","-1","-1","","","","","","","","","","","","",""
"psychophysics","122","386700","0.0-10.0-0.34","62cea89eb7f971d20007bc80","636d03e66a32c7f65a0397df","636d07ee8dc9c253c69283fd","102.19999999925494","","","","37","","","","key","16.648757575757124","800","378.5","true","-1","229.13607273185275","1.3194139533312006","14","-1","-1","","","","","","","","","","","","",""
"psychophysics","123","387848","0.0-10.0-0.35","62cea89eb7f971d20007bc80","636d03e66a32c7f65a0397df","636d07ee8dc9c253c69283fd","144.30000000074506","","","","39","","","","key","16.649220588235252","800","378.5","true","1","227.81665877852154","1.3194139533312006","14","-1","-1","","","","","","","","","","","","",""
"psychophysics","124","388886","0.0-10.0-0.36","62cea89eb7f971d20007bc80","636d03e66a32c7f65a0397df","636d07ee8dc9c253c69283fd","24.199999999254942","","","","37","","","","key","16.64878688524592","800","378.5","true","-1","227.81665877852154","1.3194139533312006","14","-1","-1","","","","","","","","","","","","",""
"psychophysics","125","390952","0.0-10.0-0.37","62cea89eb7f971d20007bc80","636d03e66a32c7f65a0397df","636d07ee8dc9c253c69283fd","1057.3999999985099","","","","37","","","","key","16.649926829268225","800","378.5","true","1","226.49724482519034","1.0555311626649604","15","1","-1","","","","","","","","","","","","",""
"psychophysics","126","392526","0.0-10.0-0.38","62cea89eb7f971d20007bc80","636d03e66a32c7f65a0397df","636d07ee8dc9c253c69283fd","567.3000000007451","","","","37","","","","key","16.64897872340442","800","378.5","true","-1","227.55277598785528","1.0555311626649604","15","-1","1","","","","","","","","","","","","",""
"psychophysics","127","393690","0.0-10.0-0.39","62cea89eb7f971d20007bc80","636d03e66a32c7f65a0397df","636d07ee8dc9c253c69283fd","149.40000000223517","","","","39","","","","key","16.64911764705903","800","378.5","true","1","227.55277598785528","1","16","-1","-1","","","","","","","","","","","","",""
"html-keyboard-response","128","405038","0.0-11.0","62cea89eb7f971d20007bc80","636d03e66a32c7f65a0397df","636d07ee8dc9c253c69283fd","11345.199999999255","<p>Well Done !</p><p>Prepare for a new block.</p><p>DON'T EXIT THE FULL SCREEN MODE</p><p>Press the Spacebar to start.</p>","","","32","","","","","","","","","","","","","","","true","229.0036503001825","","","","","","","","","","",""
"psychophysics","129","406381","0.0-12.0-0.0","62cea89eb7f971d20007bc80","636d03e66a32c7f65a0397df","636d07ee8dc9c253c69283fd","335.6000000014901","","","","39","","","","key","16.659802469135304","800","378.5","true","1","180","30","0","-1","","","","","","","","","","","","","",""
"psychophysics","130","408199","0.0-12.0-0.1","62cea89eb7f971d20007bc80","636d03e66a32c7f65a0397df","636d07ee8dc9c253c69283fd","809.3999999985099","","","","39","","","","key","16.650222222222105","800","378.5","true","-1","180","30","0","1","-1","","","","","","","","","","","","",""
"psychophysics","131","409294","0.0-12.0-0.2","62cea89eb7f971d20007bc80","636d03e66a32c7f65a0397df","636d07ee8dc9c253c69283fd","88.89999999850988","","","","39","","","","key","16.634153846153417","800","378.5","true","1","210","30","0","-1","1","","","","","","","","","","","","",""
"psychophysics","132","411874","0.0-12.0-0.3","62cea89eb7f971d20007bc80","636d03e66a32c7f65a0397df","636d07ee8dc9c253c69283fd","1565.8999999985099","","","","37","","","","key","16.649649350649554","800","378.5","true","-1","210","24","1","-1","-1","","","","","","","","","","","","",""
"psychophysics","133","414039","0.0-12.0-0.4","62cea89eb7f971d20007bc80","636d03e66a32c7f65a0397df","636d07ee8dc9c253c69283fd","1154.6000000014901","","","","37","","","","key","16.64643410852679","800","378.5","true","1","186","19.2","2","1","-1","","","","","","","","","","","","",""
"psychophysics","134","416218","0.0-12.0-0.5","62cea89eb7f971d20007bc80","636d03e66a32c7f65a0397df","636d07ee8dc9c253c69283fd","1168.5","","","","39","","","","key","16.64643410852724","800","378.5","true","-1","205.2","19.2","2","1","1","","","","","","","","","","","","",""
"psychophysics","135","417257","0.0-12.0-0.6","62cea89eb7f971d20007bc80","636d03e66a32c7f65a0397df","636d07ee8dc9c253c69283fd","21.399999998509884","","","","39","","","","key","16.627887096774252","800","378.5","true","1","224.39999999999998","19.2","2","-1","1","","","","","","","","","","","","",""
"psychophysics","136","420150","0.0-12.0-0.7","62cea89eb7f971d20007bc80","636d03e66a32c7f65a0397df","636d07ee8dc9c253c69283fd","1887.800000000745","","","","39","","","","key","16.612450867051844","800","378.5","true","-1","224.39999999999998","15.36","3","1","-1","","","","","","","","","","","","",""
"psychophysics","137","421304","0.0-12.0-0.8","62cea89eb7f971d20007bc80","636d03e66a32c7f65a0397df","636d07ee8dc9c253c69283fd","144.89999999850988","","","","37","","","","key","16.619926470588645","800","378.5","true","-1","239.76","15.36","3","-1","1","","","","","","","","","","","","",""
"psychophysics","138","422481","0.0-12.0-0.9","62cea89eb7f971d20007bc80","636d03e66a32c7f65a0397df","636d07ee8dc9c253c69283fd","167.20000000298023","","","","39","","","","key","16.643714285715085","800","378.5","true","1","239.76","12.287999999999998","4","-1","-1","","","","","","","","","","","","",""
"psychophysics","139","423763","0.0-12.0-0.10","62cea89eb7f971d20007bc80","636d03e66a32c7f65a0397df","636d07ee8dc9c253c69283fd","272.3999999985099","","","","37","","","","key","16.645776315789828","800","378.5","true","-1","227.47199999999998","12.287999999999998","4","-1","-1","","","","","","","","","","","","",""
"psychophysics","140","424848","0.0-12.0-0.11","62cea89eb7f971d20007bc80","636d03e66a32c7f65a0397df","636d07ee8dc9c253c69283fd","75.10000000149012","","","","37","","","","key","16.64514062499984","800","378.5","true","-1","227.47199999999998","12.287999999999998","4","-1","-1","","","","","","","","","","","","",""
"psychophysics","141","427429","0.0-12.0-0.12","62cea89eb7f971d20007bc80","636d03e66a32c7f65a0397df","636d07ee8dc9c253c69283fd","1570.8999999985099","","","","39","","","","key","16.647948051947957","800","378.5","true","1","215.18399999999997","12.287999999999998","4","-1","-1","","","","","","","","","","","","",""
"psychophysics","142","428505","0.0-12.0-0.13","62cea89eb7f971d20007bc80","636d03e66a32c7f65a0397df","636d07ee8dc9c253c69283fd","66.39999999850988","","","","37","","","","key","16.64593650793679","800","378.5","true","-1","215.18399999999997","12.287999999999998","4","-1","-1","","","","","","","","","","","","",""
"psychophysics","143","431070","0.0-12.0-0.14","62cea89eb7f971d20007bc80","636d03e66a32c7f65a0397df","636d07ee8dc9c253c69283fd","1558.800000000745","","","","37","","","","key","16.648999999999752","800","378.5","true","1","202.89599999999996","9.8304","5","1","-1","","","","","","","","","","","","",""
"psychophysics","144","433303","0.0-12.0-0.15","62cea89eb7f971d20007bc80","636d03e66a32c7f65a0397df","636d07ee8dc9c253c69283fd","1217.2999999970198","","","","39","","","","key","16.650089552238978","800","378.5","true","1","212.72639999999996","9.8304","5","-1","1","","","","","","","","","","","","",""
"psychophysics","145","434569","0.0-12.0-0.16","62cea89eb7f971d20007bc80","636d03e66a32c7f65a0397df","636d07ee8dc9c253c69283fd","252.59999999776483","","","","37","","","","key","16.646720000000204","800","378.5","true","-1","212.72639999999996","7.864319999999999","6","-1","-1","","","","","","","","","","","","",""
"psychophysics","146","435717","0.0-12.0-0.17","62cea89eb7f971d20007bc80","636d03e66a32c7f65a0397df","636d07ee8dc9c253c69283fd","141.10000000149012","","","","39","","","","key","16.64980882352992","800","378.5","true","1","204.86207999999996","7.864319999999999","6","-1","-1","","","","","","","","","","","","",""
"psychophysics","147","436857","0.0-12.0-0.18","62cea89eb7f971d20007bc80","636d03e66a32c7f65a0397df","636d07ee8dc9c253c69283fd","125.39999999850988","","","","37","","","","key","16.648552238805664","800","378.5","true","-1","204.86207999999996","7.864319999999999","6","-1","-1","","","","","","","","","","","","",""
"psychophysics","148","437870","0.0-12.0-0.19","62cea89eb7f971d20007bc80","636d03e66a32c7f65a0397df","636d07ee8dc9c253c69283fd","6","","","","39","","","","key","16.648566666666497","800","378.5","true","1","196.99775999999997","7.864319999999999","6","-1","-1","","","","","","","","","","","","",""
"psychophysics","149","439814","0.0-12.0-0.20","62cea89eb7f971d20007bc80","636d03e66a32c7f65a0397df","636d07ee8dc9c253c69283fd","940.6000000014901","","","","37","","","","key","16.649379310345154","800","378.5","true","-1","196.99775999999997","7.864319999999999","6","-1","-1","","","","","","","","","","","","",""
"psychophysics","150","440877","0.0-12.0-0.21","62cea89eb7f971d20007bc80","636d03e66a32c7f65a0397df","636d07ee8dc9c253c69283fd","50","","","","37","","","","key","16.648499999999917","800","378.5","true","-1","189.13343999999998","7.864319999999999","6","-1","-1","","","","","","","","","","","","",""
"psychophysics","151","441893","0.0-12.0-0.22","62cea89eb7f971d20007bc80","636d03e66a32c7f65a0397df","636d07ee8dc9c253c69283fd","1.5","","","","39","","","","key","16.649433333333583","800","378.5","true","1","189.13343999999998","7.864319999999999","6","-1","-1","","","","","","","","","","","","",""
"psychophysics","152","443328","0.0-12.0-0.23","62cea89eb7f971d20007bc80","636d03e66a32c7f65a0397df","636d07ee8dc9c253c69283fd","419.1000000014901","","","","37","","","","key","16.65227906976767","800","378.5","true","-1","181.26912","7.864319999999999","6","-1","-1","","","","","","","","","","","","",""
"psychophysics","153","444464","0.0-12.0-0.24","62cea89eb7f971d20007bc80","636d03e66a32c7f65a0397df","636d07ee8dc9c253c69283fd","123.40000000223517","","","","39","","","","key","16.645955223880303","800","378.5","true","1","181.26912","7.864319999999999","6","-1","-1","","","","","","","","","","","","",""
"psychophysics","154","448802","0.0-12.0-0.25","62cea89eb7f971d20007bc80","636d03e66a32c7f65a0397df","636d07ee8dc9c253c69283fd","3329.300000000745","","","","39","","","","key","16.649691119690967","800","378.5","true","-1","173.4048","6.291456","7","1","-1","","","","","","","","","","","","",""
"psychophysics","155","449877","0.0-12.0-0.26","62cea89eb7f971d20007bc80","636d03e66a32c7f65a0397df","636d07ee8dc9c253c69283fd","69.40000000223517","","","","39","","","","key","16.646703124999476","800","378.5","true","1","179.696256","6.291456","7","-1","1","","","","","","","","","","","","",""
"psychophysics","156","451020","0.0-12.0-0.27","62cea89eb7f971d20007bc80","636d03e66a32c7f65a0397df","636d07ee8dc9c253c69283fd","135.39999999850988","","","","39","","","","key","16.649432835821585","800","378.5","true","1","179.696256","5.033164800000001","8","-1","-1","","","","","","","","","","","","",""
"psychophysics","157","453483","0.0-12.0-0.28","62cea89eb7f971d20007bc80","636d03e66a32c7f65a0397df","636d07ee8dc9c253c69283fd","1458.199999999255","","","","39","","","","key","16.650244897959254","800","378.5","true","-1","174.6630912","4.0265318400000005","9","1","-1","","","","","","","","","","","","",""
"psychophysics","158","454755","0.0-12.0-0.29","62cea89eb7f971d20007bc80","636d03e66a32c7f65a0397df","636d07ee8dc9c253c69283fd","266.6000000014901","","","","39","","","","key","16.650065789473285","800","378.5","true","1","178.68962304","4.0265318400000005","9","-1","1","","","","","","","","","","","","",""
"psychophysics","159","455824","0.0-12.0-0.30","62cea89eb7f971d20007bc80","636d03e66a32c7f65a0397df","636d07ee8dc9c253c69283fd","60.900000002235174","","","","39","","","","key","16.649634920635318","800","378.5","true","1","178.68962304","3.2212254720000004","10","-1","-1","","","","","","","","","","","","",""
"psychophysics","160","456879","0.0-12.0-0.31","62cea89eb7f971d20007bc80","636d03e66a32c7f65a0397df","636d07ee8dc9c253c69283fd","46.899999998509884","","","","37","","","","key","16.649063492063544","800","378.5","true","-1","175.468397568","3.2212254720000004","10","-1","-1","","","","","","","","","","","","",""
"psychophysics","161","460231","0.0-12.0-0.32","62cea89eb7f971d20007bc80","636d03e66a32c7f65a0397df","636d07ee8dc9c253c69283fd","2336.900000002235","","","","39","","","","key","16.649890000000013","800","378.5","true","1","175.468397568","3.2212254720000004","10","-1","-1","","","","","","","","","","","","",""
"psychophysics","162","461930","0.0-12.0-0.33","62cea89eb7f971d20007bc80","636d03e66a32c7f65a0397df","636d07ee8dc9c253c69283fd","689.3999999985099","","","","37","","","","key","16.649524752474804","800","378.5","true","1","172.24717209599999","2.5769803776000004","11","1","-1","","","","","","","","","","","","",""
"psychophysics","163","463207","0.0-12.0-0.34","62cea89eb7f971d20007bc80","636d03e66a32c7f65a0397df","636d07ee8dc9c253c69283fd","268.3999999985099","","","","39","","","","key","16.64918421052617","800","378.5","true","1","174.82415247359998","2.5769803776000004","11","-1","1","","","","","","","","","","","","",""
"psychophysics","164","464276","0.0-12.0-0.35","62cea89eb7f971d20007bc80","636d03e66a32c7f65a0397df","636d07ee8dc9c253c69283fd","54.79999999701977","","","","37","","","","key","16.649079365079245","800","378.5","true","-1","174.82415247359998","2.0615843020800004","12","-1","-1","","","","","","","","","","","","",""
"psychophysics","165","467220","0.0-12.0-0.36","62cea89eb7f971d20007bc80","636d03e66a32c7f65a0397df","636d07ee8dc9c253c69283fd","1934.300000000745","","","","39","","","","key","16.64989772727296","800","378.5","true","-1","172.76256817151997","1.6492674416640005","13","1","-1","","","","","","","","","","","","",""
"psychophysics","166","468335","0.0-12.0-0.37","62cea89eb7f971d20007bc80","636d03e66a32c7f65a0397df","636d07ee8dc9c253c69283fd","101.19999999925494","","","","37","","","","key","16.648621212121338","800","378.5","true","-1","174.41183561318397","1.6492674416640005","13","-1","1","","","","","","","","","","","","",""
"psychophysics","167","471348","0.0-12.0-0.38","62cea89eb7f971d20007bc80","636d03e66a32c7f65a0397df","636d07ee8dc9c253c69283fd","2010","","","","39","","","","key","16.64941111111095","800","378.5","true","-1","174.41183561318397","1.3194139533312006","14","1","-1","","","","","","","","","","","","",""
"psychophysics","168","474410","0.0-12.0-0.39","62cea89eb7f971d20007bc80","636d03e66a32c7f65a0397df","636d07ee8dc9c253c69283fd","2057.2999999970198","","","","39","","","","key","16.6497692307694","800","378.5","true","1","175.73124956651517","1.3194139533312006","14","-1","1","","","","","","","","","","","","",""
"html-keyboard-response","169","504402","0.0-13.0","62cea89eb7f971d20007bc80","636d03e66a32c7f65a0397df","636d07ee8dc9c253c69283fd","29988.60000000149","<p>Well Done !</p><p>Prepare for a new block.</p><p>DON'T EXIT THE FULL SCREEN MODE</p><p>Press the Spacebar to start.</p>","","","32","","","","","","","","","","","","","","","true","175.66596069490686","","","","","","","","","","",""
"html-keyboard-response","170","504507","0.0-14.0","62cea89eb7f971d20007bc80","636d03e66a32c7f65a0397df","636d07ee8dc9c253c69283fd","null","","","","null","","","","","","","","","","","","","","","","","195.78705361114177","true","263.57410722228354","","","","","","","",""
"instructions","171","565020","0.0-15.0","62cea89eb7f971d20007bc80","636d03e66a32c7f65a0397df","636d07ee8dc9c253c69283fd","60511.800000000745","","","","","","","[{""page_index"":0,""viewing_time"":40402.20000000298},{""page_index"":1,""viewing_time"":3740.39999999851},{""page_index"":2,""viewing_time"":16367.699999999255}]","","","","","","","","","","","","","","","","","","","","","","","",""
"psychophysics","172","568032","0.0-16.0-0.0","62cea89eb7f971d20007bc80","636d03e66a32c7f65a0397df","636d07ee8dc9c253c69283fd","null","","","","null","","","","key","16.65236666666654","800","378.5","","","","","","","","","","","","","","","","","","","",""
"psychophysics","173","568546","0.0-16.0-1.0","62cea89eb7f971d20007bc80","636d03e66a32c7f65a0397df","636d07ee8dc9c253c69283fd","null","","","","null","","","","key","16.6511000000018","800","378.5","","","","","","","","","","","","","264","-1","3","false","","","",""
"psychophysics","174","569019","0.0-16.0-2.0","62cea89eb7f971d20007bc80","636d03e66a32c7f65a0397df","636d07ee8dc9c253c69283fd","461.9000000022352","","","","90","","","","key","16.664964285712422","800","378.5","","","","","","","","","","","","","","","","","","","",""
"psychophysics","175","570029","0.0-16.0-0.1","62cea89eb7f971d20007bc80","636d03e66a32c7f65a0397df","636d07ee8dc9c253c69283fd","null","","","","null","","","","key","16.655711864407365","800","378.5","","","","","","","","","","","","","","","","","","","",""
"psychophysics","176","570564","0.0-16.0-1.1","62cea89eb7f971d20007bc80","636d03e66a32c7f65a0397df","636d07ee8dc9c253c69283fd","null","","","","null","","","","key","16.650064516129092","800","378.5","","","","","","","","","","","","","264","1","2","false","","","",""
"psychophysics","177","573617","0.0-16.0-2.1","62cea89eb7f971d20007bc80","636d03e66a32c7f65a0397df","636d07ee8dc9c253c69283fd","3047.39999999851","","","","90","","","","key","16.653338797814136","800","378.5","","","","","","","","","","","","","","","","","","","",""
"psychophysics","178","574623","0.0-16.0-0.2","62cea89eb7f971d20007bc80","636d03e66a32c7f65a0397df","636d07ee8dc9c253c69283fd","null","","","","null","","","","key","16.668101694914355","800","378.5","","","","","","","","","","","","","","","","","","","",""
"psychophysics","179","575138","0.0-16.0-1.2","62cea89eb7f971d20007bc80","636d03e66a32c7f65a0397df","636d07ee8dc9c253c69283fd","null","","","","null","","","","key","16.651533333332434","800","378.5","","","","","","","","","","","","","264","1","5","false","","","",""
"psychophysics","180","578050","0.0-16.0-2.2","62cea89eb7f971d20007bc80","636d03e66a32c7f65a0397df","636d07ee8dc9c253c69283fd","2869.2999999970198","","","","90","","","","key","16.744323699422196","800","378.5","","","","","","","","","","","","","","","","","","","",""
"psychophysics","181","579054","0.0-16.0-0.3","62cea89eb7f971d20007bc80","636d03e66a32c7f65a0397df","636d07ee8dc9c253c69283fd","null","","","","null","","","","key","16.661915254236547","800","378.5","","","","","","","","","","","","","","","","","","","",""
"psychophysics","182","579568","0.0-16.0-1.3","62cea89eb7f971d20007bc80","636d03e66a32c7f65a0397df","636d07ee8dc9c253c69283fd","null","","","","null","","","","key","16.624766666667224","800","378.5","","","","","","","","","","","","","264","1","0","false","","","",""
"psychophysics","183","580097","0.0-16.0-2.3","62cea89eb7f971d20007bc80","636d03e66a32c7f65a0397df","636d07ee8dc9c253c69283fd","520.3999999985099","","","","90","","","","key","16.64596774193248","800","378.5","","","","","","","","","","","","","","","","","","","",""
"psychophysics","184","581100","0.0-16.0-0.4","62cea89eb7f971d20007bc80","636d03e66a32c7f65a0397df","636d07ee8dc9c253c69283fd","null","","","","null","","","","key","16.649610169492345","800","378.5","","","","","","","","","","","","","","","","","","","",""
"psychophysics","185","581605","0.0-16.0-1.4","62cea89eb7f971d20007bc80","636d03e66a32c7f65a0397df","636d07ee8dc9c253c69283fd","null","","","","null","","","","key","16.65623333333448","800","378.5","","","","","","","","","","","","","264","-1","2","false","","","",""
"psychophysics","186","582492","0.0-16.0-2.4","62cea89eb7f971d20007bc80","636d03e66a32c7f65a0397df","636d07ee8dc9c253c69283fd","884.4000000022352","","","","90","","","","key","16.641673076922487","800","378.5","","","","","","","","","","","","","","","","","","","",""
"psychophysics","187","583501","0.0-16.0-0.5","62cea89eb7f971d20007bc80","636d03e66a32c7f65a0397df","636d07ee8dc9c253c69283fd","null","","","","null","","","","key","16.650033333332978","800","378.5","","","","","","","","","","","","","","","","","","","",""
"psychophysics","188","584007","0.0-16.0-1.5","62cea89eb7f971d20007bc80","636d03e66a32c7f65a0397df","636d07ee8dc9c253c69283fd","null","","","","null","","","","key","16.65020689655272","800","378.5","","","","","","","","","","","","","264","-1","4","false","","","",""
"psychophysics","189","584178","0.0-16.0-2.5","62cea89eb7f971d20007bc80","636d03e66a32c7f65a0397df","636d07ee8dc9c253c69283fd","169","","","","90","","","","key","16.663222222226775","800","378.5","","","","","","","","","","","","","","","","","","","",""
"psychophysics","190","585191","0.0-16.0-0.6","62cea89eb7f971d20007bc80","636d03e66a32c7f65a0397df","636d07ee8dc9c253c69283fd","null","","","","null","","","","key","16.649933333334047","800","378.5","","","","","","","","","","","","","","","","","","","",""
"psychophysics","191","585699","0.0-16.0-1.6","62cea89eb7f971d20007bc80","636d03e66a32c7f65a0397df","636d07ee8dc9c253c69283fd","null","","","","null","","","","key","16.651266666668622","800","378.5","","","","","","","","","","","","","264","1","3","false","","","",""
"psychophysics","192","586199","0.0-16.0-2.6","62cea89eb7f971d20007bc80","636d03e66a32c7f65a0397df","636d07ee8dc9c253c69283fd","497.5999999977648","","","","77","","","","key","16.649999999998336","800","378.5","","","","","","","","","","","","","","","","","","","",""
"psychophysics","193","587207","0.0-16.0-0.7","62cea89eb7f971d20007bc80","636d03e66a32c7f65a0397df","636d07ee8dc9c253c69283fd","null","","","","null","","","","key","16.65026666666575","800","378.5","","","","","","","","","","","","","","","","","","","",""
"psychophysics","194","587714","0.0-16.0-1.7","62cea89eb7f971d20007bc80","636d03e66a32c7f65a0397df","636d07ee8dc9c253c69283fd","null","","","","null","","","","key","16.649666666666356","800","378.5","","","","","","","","","","","","","264","-1","0","false","","","",""
"psychophysics","195","588132","0.0-16.0-2.7","62cea89eb7f971d20007bc80","636d03e66a32c7f65a0397df","636d07ee8dc9c253c69283fd","415.80000000074506","","","","90","","","","key","17.368695652173102","800","378.5","","","","","","","","","","","","","","","","","","","",""
"psychophysics","196","589138","0.0-16.0-0.8","62cea89eb7f971d20007bc80","636d03e66a32c7f65a0397df","636d07ee8dc9c253c69283fd","null","","","","null","","","","key","16.649915254236813","800","378.5","","","","","","","","","","","","","","","","","","","",""
"psychophysics","197","589641","0.0-16.0-1.8","62cea89eb7f971d20007bc80","636d03e66a32c7f65a0397df","636d07ee8dc9c253c69283fd","null","","","","null","","","","key","16.650137931036216","800","378.5","","","","","","","","","","","","","264","-1","5","false","","","",""
"psychophysics","198","593017","0.0-16.0-2.8","62cea89eb7f971d20007bc80","636d03e66a32c7f65a0397df","636d07ee8dc9c253c69283fd","3367.800000000745","","","","90","","","","key","16.65005445544548","800","378.5","","","","","","","","","","","","","","","","","","","",""
"psychophysics","199","594020","0.0-16.0-0.9","62cea89eb7f971d20007bc80","636d03e66a32c7f65a0397df","636d07ee8dc9c253c69283fd","null","","","","null","","","","key","16.650084745762395","800","378.5","","","","","","","","","","","","","","","","","","","",""
"psychophysics","200","594538","0.0-16.0-1.9","62cea89eb7f971d20007bc80","636d03e66a32c7f65a0397df","636d07ee8dc9c253c69283fd","null","","","","null","","","","key","16.65166666666822","800","378.5","","","","","","","","","","","","","264","-1","6","false","","","",""
"psychophysics","201","595035","0.0-16.0-2.9","62cea89eb7f971d20007bc80","636d03e66a32c7f65a0397df","636d07ee8dc9c253c69283fd","488.80000000074506","","","","77","","","","key","16.649551724139922","800","378.5","","","","","","","","","","","","","","","","","","","",""
"psychophysics","202","596052","0.0-16.0-0.10","62cea89eb7f971d20007bc80","636d03e66a32c7f65a0397df","636d07ee8dc9c253c69283fd","null","","","","null","","","","key","16.65008333333341","800","378.5","","","","","","","","","","","","","","","","","","","",""
"psychophysics","203","596574","0.0-16.0-1.10","62cea89eb7f971d20007bc80","636d03e66a32c7f65a0397df","636d07ee8dc9c253c69283fd","null","","","","null","","","","key","17.243699999999567","800","378.5","","","","","","","","","","","","","264","1","6","false","","","",""
"psychophysics","204","600202","0.0-16.0-2.10","62cea89eb7f971d20007bc80","636d03e66a32c7f65a0397df","636d07ee8dc9c253c69283fd","3625","","","","90","","","","key","16.650185185184927","800","378.5","","","","","","","","","","","","","","","","","","","",""
"psychophysics","205","601213","0.0-16.0-0.11","62cea89eb7f971d20007bc80","636d03e66a32c7f65a0397df","636d07ee8dc9c253c69283fd","null","","","","null","","","","key","16.649299999999737","800","378.5","","","","","","","","","","","","","","","","","","","",""
"psychophysics","206","601723","0.0-16.0-1.11","62cea89eb7f971d20007bc80","636d03e66a32c7f65a0397df","636d07ee8dc9c253c69283fd","null","","","","null","","","","key","16.651033333331966","800","378.5","","","","","","","","","","","","","264","1","4","false","","","",""
"psychophysics","207","601911","0.0-16.0-2.11","62cea89eb7f971d20007bc80","636d03e66a32c7f65a0397df","636d07ee8dc9c253c69283fd","186.09999999776483","","","","77","","","","key","16.650699999998324","800","378.5","","","","","","","","","","","","","","","","","","","",""
"psychophysics","208","602916","0.0-16.0-0.12","62cea89eb7f971d20007bc80","636d03e66a32c7f65a0397df","636d07ee8dc9c253c69283fd","null","","","","null","","","","key","16.65020000000174","800","378.5","","","","","","","","","","","","","","","","","","","",""
"psychophysics","209","603423","0.0-16.0-1.12","62cea89eb7f971d20007bc80","636d03e66a32c7f65a0397df","636d07ee8dc9c253c69283fd","null","","","","null","","","","key","16.649655172416683","800","378.5","","","","","","","","","","","","","264","1","2","false","","","",""
"psychophysics","210","604198","0.0-16.0-2.12","62cea89eb7f971d20007bc80","636d03e66a32c7f65a0397df","636d07ee8dc9c253c69283fd","772.1999999992549","","","","90","","","","key","16.649822222221538","800","378.5","","","","","","","","","","","","","","","","","","","",""
"psychophysics","211","605213","0.0-16.0-0.13","62cea89eb7f971d20007bc80","636d03e66a32c7f65a0397df","636d07ee8dc9c253c69283fd","null","","","","null","","","","key","16.650344262294638","800","378.5","","","","","","","","","","","","","","","","","","","",""
"psychophysics","212","605719","0.0-16.0-1.13","62cea89eb7f971d20007bc80","636d03e66a32c7f65a0397df","636d07ee8dc9c253c69283fd","null","","","","null","","","","key","16.654275862066523","800","378.5","","","","","","","","","","","","","264","1","0","false","","","",""
"psychophysics","213","605886","0.0-16.0-2.13","62cea89eb7f971d20007bc80","636d03e66a32c7f65a0397df","636d07ee8dc9c253c69283fd","164.10000000149012","","","","90","","","","key","18.714999999996508","800","378.5","","","","","","","","","","","","","","","","","","","",""
"psychophysics","214","606894","0.0-16.0-0.14","62cea89eb7f971d20007bc80","636d03e66a32c7f65a0397df","636d07ee8dc9c253c69283fd","null","","","","null","","","","key","16.65560000000017","800","378.5","","","","","","","","","","","","","","","","","","","",""
"psychophysics","215","607407","0.0-16.0-1.14","62cea89eb7f971d20007bc80","636d03e66a32c7f65a0397df","636d07ee8dc9c253c69283fd","null","","","","null","","","","key","16.65017241379246","800","378.5","","","","","","","","","","","","","264","-1","0","false","","","",""
"psychophysics","216","607710","0.0-16.0-2.14","62cea89eb7f971d20007bc80","636d03e66a32c7f65a0397df","636d07ee8dc9c253c69283fd","294.79999999701977","","","","90","","","","key","16.64847058823387","800","378.5","","","","","","","","","","","","","","","","","","","",""
"psychophysics","217","608723","0.0-16.0-0.15","62cea89eb7f971d20007bc80","636d03e66a32c7f65a0397df","636d07ee8dc9c253c69283fd","null","","","","null","","","","key","16.64291666666589","800","378.5","","","","","","","","","","","","","","","","","","","",""
"psychophysics","218","609236","0.0-16.0-1.15","62cea89eb7f971d20007bc80","636d03e66a32c7f65a0397df","636d07ee8dc9c253c69283fd","null","","","","null","","","","key","17.224448275860752","800","378.5","","","","","","","","","","","","","264","1","6","false","","","",""
"psychophysics","219","609420","0.0-16.0-2.15","62cea89eb7f971d20007bc80","636d03e66a32c7f65a0397df","636d07ee8dc9c253c69283fd","181.79999999701977","","","","77","","","","key","16.652399999997577","800","378.5","","","","","","","","","","","","","","","","","","","",""
"psychophysics","220","610424","0.0-16.0-0.16","62cea89eb7f971d20007bc80","636d03e66a32c7f65a0397df","636d07ee8dc9c253c69283fd","null","","","","null","","","","key","16.64981666666766","800","378.5","","","","","","","","","","","","","","","","","","","",""
"psychophysics","221","610937","0.0-16.0-1.16","62cea89eb7f971d20007bc80","636d03e66a32c7f65a0397df","636d07ee8dc9c253c69283fd","null","","","","null","","","","key","16.65051724137899","800","378.5","","","","","","","","","","","","","264","-1","6","false","","","",""
"psychophysics","222","611101","0.0-16.0-2.16","62cea89eb7f971d20007bc80","636d03e66a32c7f65a0397df","636d07ee8dc9c253c69283fd","157.19999999925494","","","","90","","","","key","16.649888888881023","800","378.5","","","","","","","","","","","","","","","","","","","",""
"psychophysics","223","612108","0.0-16.0-0.17","62cea89eb7f971d20007bc80","636d03e66a32c7f65a0397df","636d07ee8dc9c253c69283fd","null","","","","null","","","","key","16.93223728813523","800","378.5","","","","","","","","","","","","","","","","","","","",""
"psychophysics","224","612619","0.0-16.0-1.17","62cea89eb7f971d20007bc80","636d03e66a32c7f65a0397df","636d07ee8dc9c253c69283fd","null","","","","null","","","","key","16.65241379310088","800","378.5","","","","","","","","","","","","","264","1","4","false","","","",""
"psychophysics","225","613409","0.0-16.0-2.17","62cea89eb7f971d20007bc80","636d03e66a32c7f65a0397df","636d07ee8dc9c253c69283fd","783","","","","77","","","","key","16.65021276595616","800","378.5","","","","","","","","","","","","","","","","","","","",""
"psychophysics","226","614417","0.0-16.0-0.18","62cea89eb7f971d20007bc80","636d03e66a32c7f65a0397df","636d07ee8dc9c253c69283fd","null","","","","null","","","","key","16.64991525423879","800","378.5","","","","","","","","","","","","","","","","","","","",""
"psychophysics","227","614933","0.0-16.0-1.18","62cea89eb7f971d20007bc80","636d03e66a32c7f65a0397df","636d07ee8dc9c253c69283fd","null","","","","null","","","","key","16.64963333333144","800","378.5","","","","","","","","","","","","","264","1","3","false","","","",""
"psychophysics","228","617491","0.0-16.0-2.18","62cea89eb7f971d20007bc80","636d03e66a32c7f65a0397df","636d07ee8dc9c253c69283fd","2528.300000000745","","","","90","","","","key","16.650098039216235","800","378.5","","","","","","","","","","","","","","","","","","","",""
"psychophysics","229","618496","0.0-16.0-0.19","62cea89eb7f971d20007bc80","636d03e66a32c7f65a0397df","636d07ee8dc9c253c69283fd","null","","","","null","","","","key","16.650661016948586","800","378.5","","","","","","","","","","","","","","","","","","","",""
"psychophysics","230","619012","0.0-16.0-1.19","62cea89eb7f971d20007bc80","636d03e66a32c7f65a0397df","636d07ee8dc9c253c69283fd","null","","","","null","","","","key","16.65073333333324","800","378.5","","","","","","","","","","","","","264","-1","4","false","","","",""
"psychophysics","231","619517","0.0-16.0-2.19","62cea89eb7f971d20007bc80","636d03e66a32c7f65a0397df","636d07ee8dc9c253c69283fd","496.8999999985099","","","","77","","","","key","16.64979999999826","800","378.5","","","","","","","","","","","","","","","","","","","",""
"psychophysics","232","620526","0.0-16.0-0.20","62cea89eb7f971d20007bc80","636d03e66a32c7f65a0397df","636d07ee8dc9c253c69283fd","null","","","","null","","","","key","16.650457627118282","800","378.5","","","","","","","","","","","","","","","","","","","",""
"psychophysics","233","621044","0.0-16.0-1.20","62cea89eb7f971d20007bc80","636d03e66a32c7f65a0397df","636d07ee8dc9c253c69283fd","null","","","","null","","","","key","17.224689655174533","800","378.5","","","","","","","","","","","","","264","1","5","false","","","",""
"psychophysics","234","621283","0.0-16.0-2.20","62cea89eb7f971d20007bc80","636d03e66a32c7f65a0397df","636d07ee8dc9c253c69283fd","232.40000000223517","","","","77","","","","key","16.647999999994813","800","378.5","","","","","","","","","","","","","","","","","","","",""
"psychophysics","235","622292","0.0-16.0-0.21","62cea89eb7f971d20007bc80","636d03e66a32c7f65a0397df","636d07ee8dc9c253c69283fd","null","","","","null","","","","key","16.651847457627657","800","378.5","","","","","","","","","","","","","","","","","","","",""
"psychophysics","236","622812","0.0-16.0-1.21","62cea89eb7f971d20007bc80","636d03e66a32c7f65a0397df","636d07ee8dc9c253c69283fd","null","","","","null","","","","key","16.653612903225415","800","378.5","","","","","","","","","","","","","264","-1","3","false","","","",""
"psychophysics","237","623098","0.0-16.0-2.21","62cea89eb7f971d20007bc80","636d03e66a32c7f65a0397df","636d07ee8dc9c253c69283fd","284.1000000014901","","","","77","","","","key","16.65087499999936","800","378.5","","","","","","","","","","","","","","","","","","","",""
"psychophysics","238","624107","0.0-16.0-0.22","62cea89eb7f971d20007bc80","636d03e66a32c7f65a0397df","636d07ee8dc9c253c69283fd","null","","","","null","","","","key","16.650101694915744","800","378.5","","","","","","","","","","","","","","","","","","","",""
"psychophysics","239","624613","0.0-16.0-1.22","62cea89eb7f971d20007bc80","636d03e66a32c7f65a0397df","636d07ee8dc9c253c69283fd","null","","","","null","","","","key","16.657966666664773","800","378.5","","","","","","","","","","","","","264","-1","2","false","","","",""
"psychophysics","240","624795","0.0-16.0-2.22","62cea89eb7f971d20007bc80","636d03e66a32c7f65a0397df","636d07ee8dc9c253c69283fd","179.39999999850988","","","","90","","","","key","16.6515000000014","800","378.5","","","","","","","","","","","","","","","","","","","",""
"psychophysics","241","625805","0.0-16.0-0.23","62cea89eb7f971d20007bc80","636d03e66a32c7f65a0397df","636d07ee8dc9c253c69283fd","null","","","","null","","","","key","16.649677966099816","800","378.5","","","","","","","","","","","","","","","","","","","",""
"psychophysics","242","626317","0.0-16.0-1.23","62cea89eb7f971d20007bc80","636d03e66a32c7f65a0397df","636d07ee8dc9c253c69283fd","null","","","","null","","","","key","16.65349999999938","800","378.5","","","","","","","","","","","","","264","-1","5","false","","","",""
"psychophysics","243","626494","0.0-16.0-2.23","62cea89eb7f971d20007bc80","636d03e66a32c7f65a0397df","636d07ee8dc9c253c69283fd","175.20000000298023","","","","77","","","","key","16.64539999999106","800","378.5","","","","","","","","","","","","","","","","","","","",""
"html-keyboard-response","244","631317","0.0-17.0","62cea89eb7f971d20007bc80","636d03e66a32c7f65a0397df","636d07ee8dc9c253c69283fd","4829.29999999702","<p>Well Done !</p><p>Training Complete. Press the spacebar to start.</p><p>DON'T EXIT THE FULL SCREEN MODE</p>","","","32","","","","","","","","","","","","","","","","","","","","","","","","","","",""
"psychophysics","245","634325","0.0-18.0-0.0","62cea89eb7f971d20007bc80","636d03e66a32c7f65a0397df","636d07ee8dc9c253c69283fd","null","","","","null","","","","key","16.930016666666294","800","378.5","","","","","","","","","","","","","","","","","","","",""
"psychophysics","246","634837","0.0-18.0-1.0","62cea89eb7f971d20007bc80","636d03e66a32c7f65a0397df","636d07ee8dc9c253c69283fd","null","","","","null","","","","key","16.648999999999873","800","378.5","","","","","","","","","","","","","264","1","0","true","","","",""
"psychophysics","247","636947","0.0-18.0-2.0","62cea89eb7f971d20007bc80","636d03e66a32c7f65a0397df","636d07ee8dc9c253c69283fd","2102.5","","","","90","","","","key","16.783839999999852","800","378.5","","","","","","","","","","","","","","","","","","","",""
"psychophysics","248","637951","0.0-18.0-0.1","62cea89eb7f971d20007bc80","636d03e66a32c7f65a0397df","636d07ee8dc9c253c69283fd","null","","","","null","","","","key","16.649728813559857","800","378.5","","","","","","","","","","","","","","","","","","","",""
"psychophysics","249","638472","0.0-18.0-1.1","62cea89eb7f971d20007bc80","636d03e66a32c7f65a0397df","636d07ee8dc9c253c69283fd","null","","","","null","","","","key","16.652258064515227","800","378.5","","","","","","","","","","","","","264","-1","4","true","","","",""
"psychophysics","250","638759","0.0-18.0-2.1","62cea89eb7f971d20007bc80","636d03e66a32c7f65a0397df","636d07ee8dc9c253c69283fd","285.0999999977648","","","","77","","","","key","16.651125000003958","800","378.5","","","","","","","","","","","","","","","","","","","",""
"psychophysics","251","639763","0.0-18.0-0.2","62cea89eb7f971d20007bc80","636d03e66a32c7f65a0397df","636d07ee8dc9c253c69283fd","null","","","","null","","","","key","16.64984745762737","800","378.5","","","","","","","","","","","","","","","","","","","",""
"psychophysics","252","640266","0.0-18.0-1.2","62cea89eb7f971d20007bc80","636d03e66a32c7f65a0397df","636d07ee8dc9c253c69283fd","null","","","","null","","","","key","16.64837931034332","800","378.5","","","","","","","","","","","","","264","1","5","true","","","",""
"psychophysics","253","640442","0.0-18.0-2.2","62cea89eb7f971d20007bc80","636d03e66a32c7f65a0397df","636d07ee8dc9c253c69283fd","168.89999999850988","","","","77","","","","key","16.65009999999311","800","378.5","","","","","","","","","","","","","","","","","","","",""
"psychophysics","254","641448","0.0-18.0-0.3","62cea89eb7f971d20007bc80","636d03e66a32c7f65a0397df","636d07ee8dc9c253c69283fd","null","","","","null","","","","key","16.649830508474025","800","378.5","","","","","","","","","","","","","","","","","","","",""
"psychophysics","255","641964","0.0-18.0-1.3","62cea89eb7f971d20007bc80","636d03e66a32c7f65a0397df","636d07ee8dc9c253c69283fd","null","","","","null","","","","key","16.65020000000174","800","378.5","","","","","","","","","","","","","264","-1","0","true","","","",""
"psychophysics","256","642308","0.0-18.0-2.3","62cea89eb7f971d20007bc80","636d03e66a32c7f65a0397df","636d07ee8dc9c253c69283fd","336.69999999925494","","","","90","","","","key","16.64899999999907","800","378.5","","","","","","","","","","","","","","","","","","","",""
"psychophysics","257","643313","0.0-18.0-0.4","62cea89eb7f971d20007bc80","636d03e66a32c7f65a0397df","636d07ee8dc9c253c69283fd","null","","","","null","","","","key","16.649966101694883","800","378.5","","","","","","","","","","","","","","","","","","","",""
"psychophysics","258","643825","0.0-18.0-1.4","62cea89eb7f971d20007bc80","636d03e66a32c7f65a0397df","636d07ee8dc9c253c69283fd","null","","","","null","","","","key","16.650033333331034","800","378.5","","","","","","","","","","","","","264","-1","6","true","","","",""
"psychophysics","259","643936","0.0-18.0-2.4","62cea89eb7f971d20007bc80","636d03e66a32c7f65a0397df","636d07ee8dc9c253c69283fd","105.89999999850988","","","","90","","","","key","16.631499999998294","800","378.5","","","","","","","","","","","","","","","","","","","",""
"psychophysics","260","644944","0.0-18.0-0.5","62cea89eb7f971d20007bc80","636d03e66a32c7f65a0397df","636d07ee8dc9c253c69283fd","null","","","","null","","","","key","16.649999999999604","800","378.5","","","","","","","","","","","","","","","","","","","",""
"psychophysics","261","645460","0.0-18.0-1.5","62cea89eb7f971d20007bc80","636d03e66a32c7f65a0397df","636d07ee8dc9c253c69283fd","null","","","","null","","","","key","16.650666666667288","800","378.5","","","","","","","","","","","","","264","-1","5","true","","","",""
"psychophysics","262","645516","0.0-18.0-2.5","62cea89eb7f971d20007bc80","636d03e66a32c7f65a0397df","636d07ee8dc9c253c69283fd","47.30000000074506","","","","77","","","","key","16.646000000007916","800","378.5","","","","","","","","","","","","","","","","","","","",""
"psychophysics","263","646526","0.0-18.0-0.6","62cea89eb7f971d20007bc80","636d03e66a32c7f65a0397df","636d07ee8dc9c253c69283fd","null","","","","null","","","","key","16.649933333334047","800","378.5","","","","","","","","","","","","","","","","","","","",""
"psychophysics","264","647043","0.0-18.0-1.6","62cea89eb7f971d20007bc80","636d03e66a32c7f65a0397df","636d07ee8dc9c253c69283fd","null","","","","null","","","","key","16.650233333336654","800","378.5","","","","","","","","","","","","","264","1","4","true","","","",""
"psychophysics","265","647195","0.0-18.0-2.6","62cea89eb7f971d20007bc80","636d03e66a32c7f65a0397df","636d07ee8dc9c253c69283fd","145","","","","77","","","","key","16.65062499999476","800","378.5","","","","","","","","","","","","","","","","","","","",""
"psychophysics","266","648202","0.0-18.0-0.7","62cea89eb7f971d20007bc80","636d03e66a32c7f65a0397df","636d07ee8dc9c253c69283fd","null","","","","null","","","","key","16.63980000000059","800","378.5","","","","","","","","","","","","","","","","","","","",""
"psychophysics","267","648707","0.0-18.0-1.7","62cea89eb7f971d20007bc80","636d03e66a32c7f65a0397df","636d07ee8dc9c253c69283fd","null","","","","null","","","","key","16.65075862069277","800","378.5","","","","","","","","","","","","","264","-1","3","true","","","",""
"psychophysics","268","648844","0.0-18.0-2.7","62cea89eb7f971d20007bc80","636d03e66a32c7f65a0397df","636d07ee8dc9c253c69283fd","129","","","","77","","","","key","16.716857142846234","800","378.5","","","","","","","","","","","","","","","","","","","",""
"psychophysics","269","649856","0.0-18.0-0.8","62cea89eb7f971d20007bc80","636d03e66a32c7f65a0397df","636d07ee8dc9c253c69283fd","null","","","","null","","","","key","16.92527118644093","800","378.5","","","","","","","","","","","","","","","","","","","",""
"psychophysics","270","650367","0.0-18.0-1.8","62cea89eb7f971d20007bc80","636d03e66a32c7f65a0397df","636d07ee8dc9c253c69283fd","null","","","","null","","","","key","16.64990000000301","800","378.5","","","","","","","","","","","","","264","1","3","true","","","",""
"psychophysics","271","652096","0.0-18.0-2.8","62cea89eb7f971d20007bc80","636d03e66a32c7f65a0397df","636d07ee8dc9c253c69283fd","1726.6000000014901","","","","90","","","","key","16.650262135921896","800","378.5","","","","","","","","","","","","","","","","","","","",""
"psychophysics","272","653102","0.0-18.0-0.9","62cea89eb7f971d20007bc80","636d03e66a32c7f65a0397df","636d07ee8dc9c253c69283fd","null","","","","null","","","","key","16.651661016948726","800","378.5","","","","","","","","","","","","","","","","","","","",""
"psychophysics","273","653619","0.0-18.0-1.9","62cea89eb7f971d20007bc80","636d03e66a32c7f65a0397df","636d07ee8dc9c253c69283fd","null","","","","null","","","","key","16.650399999999596","800","378.5","","","","","","","","","","","","","264","1","2","true","","","",""
"psychophysics","274","653710","0.0-18.0-2.9","62cea89eb7f971d20007bc80","636d03e66a32c7f65a0397df","636d07ee8dc9c253c69283fd","56.20000000298023","","","","77","","","","key","16.656400000001305","800","378.5","","","","","","","","","","","","","","","","","","","",""
"psychophysics","275","654721","0.0-18.0-0.10","62cea89eb7f971d20007bc80","636d03e66a32c7f65a0397df","636d07ee8dc9c253c69283fd","null","","","","null","","","","key","16.649866666666153","800","378.5","","","","","","","","","","","","","","","","","","","",""
"psychophysics","276","655230","0.0-18.0-1.10","62cea89eb7f971d20007bc80","636d03e66a32c7f65a0397df","636d07ee8dc9c253c69283fd","null","","","","null","","","","key","16.65034482758974","800","378.5","","","","","","","","","","","","","264","-1","2","true","","","",""
"psychophysics","277","655435","0.0-18.0-2.10","62cea89eb7f971d20007bc80","636d03e66a32c7f65a0397df","636d07ee8dc9c253c69283fd","200","","","","90","","","","key","16.650454545457084","800","378.5","","","","","","","","","","","","","","","","","","","",""
"psychophysics","278","656439","0.0-18.0-0.11","62cea89eb7f971d20007bc80","636d03e66a32c7f65a0397df","636d07ee8dc9c253c69283fd","null","","","","null","","","","key","16.65028333333321","800","378.5","","","","","","","","","","","","","","","","","","","",""
"psychophysics","279","656943","0.0-18.0-1.11","62cea89eb7f971d20007bc80","636d03e66a32c7f65a0397df","636d07ee8dc9c253c69283fd","null","","","","null","","","","key","16.65320689655471","800","378.5","","","","","","","","","","","","","264","1","6","true","","","",""
"psychophysics","280","657342","0.0-18.0-2.11","62cea89eb7f971d20007bc80","636d03e66a32c7f65a0397df","636d07ee8dc9c253c69283fd","396.4000000022352","","","","77","","","","key","16.648217391308762","800","378.5","","","","","","","","","","","","","","","","","","","",""
"psychophysics","281","658351","0.0-18.0-0.12","62cea89eb7f971d20007bc80","636d03e66a32c7f65a0397df","636d07ee8dc9c253c69283fd","null","","","","null","","","","key","16.6501999999998","800","378.5","","","","","","","","","","","","","","","","","","","",""
"psychophysics","282","658855","0.0-18.0-1.12","62cea89eb7f971d20007bc80","636d03e66a32c7f65a0397df","636d07ee8dc9c253c69283fd","null","","","","null","","","","key","16.65010344827596","800","378.5","","","","","","","","","","","","","264","-1","6","true","","","",""
"psychophysics","283","660756","0.0-18.0-2.12","62cea89eb7f971d20007bc80","636d03e66a32c7f65a0397df","636d07ee8dc9c253c69283fd","1899.300000000745","","","","77","","","","key","16.649982300884734","800","378.5","","","","","","","","","","","","","","","","","","","",""
"psychophysics","284","661764","0.0-18.0-0.13","62cea89eb7f971d20007bc80","636d03e66a32c7f65a0397df","636d07ee8dc9c253c69283fd","null","","","","null","","","","key","16.649966666667023","800","378.5","","","","","","","","","","","","","","","","","","","",""
"psychophysics","285","662270","0.0-18.0-1.13","62cea89eb7f971d20007bc80","636d03e66a32c7f65a0397df","636d07ee8dc9c253c69283fd","null","","","","null","","","","key","16.65051724137899","800","378.5","","","","","","","","","","","","","264","1","0","true","","","",""
"psychophysics","286","662664","0.0-18.0-2.13","62cea89eb7f971d20007bc80","636d03e66a32c7f65a0397df","636d07ee8dc9c253c69283fd","392.29999999701977","","","","77","","","","key","16.650181818181988","800","378.5","","","","","","","","","","","","","","","","","","","",""
"psychophysics","287","663670","0.0-18.0-0.14","62cea89eb7f971d20007bc80","636d03e66a32c7f65a0397df","636d07ee8dc9c253c69283fd","null","","","","null","","","","key","16.649416666666124","800","378.5","","","","","","","","","","","","","","","","","","","",""
"psychophysics","288","664179","0.0-18.0-1.14","62cea89eb7f971d20007bc80","636d03e66a32c7f65a0397df","636d07ee8dc9c253c69283fd","null","","","","null","","","","key","16.65043333333451","800","378.5","","","","","","","","","","","","","264","1","3","true","","","",""
"psychophysics","289","664351","0.0-18.0-2.14","62cea89eb7f971d20007bc80","636d03e66a32c7f65a0397df","636d07ee8dc9c253c69283fd","170.19999999925494","","","","77","","","","key","16.649666666661183","800","378.5","","","","","","","","","","","","","","","","","","","",""
"psychophysics","290","665361","0.0-18.0-0.15","62cea89eb7f971d20007bc80","636d03e66a32c7f65a0397df","636d07ee8dc9c253c69283fd","null","","","","null","","","","key","16.64981666666572","800","378.5","","","","","","","","","","","","","","","","","","","",""
"psychophysics","291","665877","0.0-18.0-1.15","62cea89eb7f971d20007bc80","636d03e66a32c7f65a0397df","636d07ee8dc9c253c69283fd","null","","","","null","","","","key","16.65009999999699","800","378.5","","","","","","","","","","","","","264","-1","5","true","","","",""
"psychophysics","292","666594","0.0-18.0-2.15","62cea89eb7f971d20007bc80","636d03e66a32c7f65a0397df","636d07ee8dc9c253c69283fd","714.7000000029802","","","","77","","","","key","16.650780487805605","800","378.5","","","","","","","","","","","","","","","","","","","",""
"psychophysics","293","667598","0.0-18.0-0.16","62cea89eb7f971d20007bc80","636d03e66a32c7f65a0397df","636d07ee8dc9c253c69283fd","null","","","","null","","","","key","16.650133333333844","800","378.5","","","","","","","","","","","","","","","","","","","",""
"psychophysics","294","668108","0.0-18.0-1.16","62cea89eb7f971d20007bc80","636d03e66a32c7f65a0397df","636d07ee8dc9c253c69283fd","null","","","","null","","","","key","16.649666666666356","800","378.5","","","","","","","","","","","","","264","1","4","true","","","",""
"psychophysics","295","668458","0.0-18.0-2.16","62cea89eb7f971d20007bc80","636d03e66a32c7f65a0397df","636d07ee8dc9c253c69283fd","347.5999999977648","","","","77","","","","key","16.65015789473699","800","378.5","","","","","","","","","","","","","","","","","","","",""
"psychophysics","296","669462","0.0-18.0-0.17","62cea89eb7f971d20007bc80","636d03e66a32c7f65a0397df","636d07ee8dc9c253c69283fd","null","","","","null","","","","key","16.649150000000372","800","378.5","","","","","","","","","","","","","","","","","","","",""
"psychophysics","297","669973","0.0-18.0-1.17","62cea89eb7f971d20007bc80","636d03e66a32c7f65a0397df","636d07ee8dc9c253c69283fd","null","","","","null","","","","key","16.65183333333504","800","378.5","","","","","","","","","","","","","264","-1","2","true","","","",""
"psychophysics","298","670190","0.0-18.0-2.17","62cea89eb7f971d20007bc80","636d03e66a32c7f65a0397df","636d07ee8dc9c253c69283fd","215.10000000149012","","","","90","","","","key","16.649545454547148","800","378.5","","","","","","","","","","","","","","","","","","","",""
"psychophysics","299","671198","0.0-18.0-0.18","62cea89eb7f971d20007bc80","636d03e66a32c7f65a0397df","636d07ee8dc9c253c69283fd","null","","","","null","","","","key","16.6498000000002","800","378.5","","","","","","","","","","","","","","","","","","","",""
"psychophysics","300","671712","0.0-18.0-1.18","62cea89eb7f971d20007bc80","636d03e66a32c7f65a0397df","636d07ee8dc9c253c69283fd","null","","","","null","","","","key","17.22117241379275","800","378.5","","","","","","","","","","","","","264","1","6","true","","","",""
"psychophysics","301","671842","0.0-18.0-2.18","62cea89eb7f971d20007bc80","636d03e66a32c7f65a0397df","636d07ee8dc9c253c69283fd","128","","","","77","","","","key","16.648142857144453","800","378.5","","","","","","","","","","","","","","","","","","","",""
"psychophysics","302","672846","0.0-18.0-0.19","62cea89eb7f971d20007bc80","636d03e66a32c7f65a0397df","636d07ee8dc9c253c69283fd","null","","","","null","","","","key","16.65001694915098","800","378.5","","","","","","","","","","","","","","","","","","","",""
"psychophysics","303","673353","0.0-18.0-1.19","62cea89eb7f971d20007bc80","636d03e66a32c7f65a0397df","636d07ee8dc9c253c69283fd","null","","","","null","","","","key","16.648499999998602","800","378.5","","","","","","","","","","","","","264","1","2","true","","","",""
"psychophysics","304","673411","0.0-18.0-2.19","62cea89eb7f971d20007bc80","636d03e66a32c7f65a0397df","636d07ee8dc9c253c69283fd","56.30000000074506","","","","77","","","","key","16.647499999962747","800","378.5","","","","","","","","","","","","","","","","","","","",""
"psychophysics","305","674420","0.0-18.0-0.20","62cea89eb7f971d20007bc80","636d03e66a32c7f65a0397df","636d07ee8dc9c253c69283fd","null","","","","null","","","","key","16.65001666666552","800","378.5","","","","","","","","","","","","","","","","","","","",""
"psychophysics","306","674931","0.0-18.0-1.20","62cea89eb7f971d20007bc80","636d03e66a32c7f65a0397df","636d07ee8dc9c253c69283fd","null","","","","null","","","","key","17.247642857143155","800","378.5","","","","","","","","","","","","","264","-1","3","true","","","",""
"psychophysics","307","675260","0.0-18.0-2.20","62cea89eb7f971d20007bc80","636d03e66a32c7f65a0397df","636d07ee8dc9c253c69283fd","319.3999999985099","","","","77","","","","key","16.64978947368524","800","378.5","","","","","","","","","","","","","","","","","","","",""
"psychophysics","308","676263","0.0-18.0-0.21","62cea89eb7f971d20007bc80","636d03e66a32c7f65a0397df","636d07ee8dc9c253c69283fd","null","","","","null","","","","key","16.650101694913772","800","378.5","","","","","","","","","","","","","","","","","","","",""
"psychophysics","309","676779","0.0-18.0-1.21","62cea89eb7f971d20007bc80","636d03e66a32c7f65a0397df","636d07ee8dc9c253c69283fd","null","","","","null","","","","key","16.650866666669025","800","378.5","","","","","","","","","","","","","264","-1","4","true","","","",""
"psychophysics","310","676898","0.0-18.0-2.21","62cea89eb7f971d20007bc80","636d03e66a32c7f65a0397df","636d07ee8dc9c253c69283fd","85.39999999850988","","","","77","","","","key","16.649499999999534","800","378.5","","","","","","","","","","","","","","","","","","","",""
"psychophysics","311","677912","0.0-18.0-0.22","62cea89eb7f971d20007bc80","636d03e66a32c7f65a0397df","636d07ee8dc9c253c69283fd","null","","","","null","","","","key","16.64436666666685","800","378.5","","","","","","","","","","","","","","","","","","","",""
"psychophysics","312","678428","0.0-18.0-1.22","62cea89eb7f971d20007bc80","636d03e66a32c7f65a0397df","636d07ee8dc9c253c69283fd","null","","","","null","","","","key","16.646266666663966","800","378.5","","","","","","","","","","","","","264","1","5","true","","","",""
"psychophysics","313","678515","0.0-18.0-2.22","62cea89eb7f971d20007bc80","636d03e66a32c7f65a0397df","636d07ee8dc9c253c69283fd","80","","","","77","","","","key","16.61775000000489","800","378.5","","","","","","","","","","","","","","","","","","","",""
"psychophysics","314","679527","0.0-18.0-0.23","62cea89eb7f971d20007bc80","636d03e66a32c7f65a0397df","636d07ee8dc9c253c69283fd","null","","","","null","","","","key","16.932423728812186","800","378.5","","","","","","","","","","","","","","","","","","","",""
"psychophysics","315","680040","0.0-18.0-1.23","62cea89eb7f971d20007bc80","636d03e66a32c7f65a0397df","636d07ee8dc9c253c69283fd","null","","","","null","","","","key","16.65146666666648","800","378.5","","","","","","","","","","","","","264","-1","0","true","","","",""
"psychophysics","316","680057","0.0-18.0-2.23","62cea89eb7f971d20007bc80","636d03e66a32c7f65a0397df","636d07ee8dc9c253c69283fd","7.199999999254942","","","","77","","","","key","NaN","800","378.5","","","","","","","","","","","","","","","","","","","",""
"psychophysics","317","681066","0.0-18.0-0.24","62cea89eb7f971d20007bc80","636d03e66a32c7f65a0397df","636d07ee8dc9c253c69283fd","null","","","","null","","","","key","16.662549999998493","800","378.5","","","","","","","","","","","","","","","","","","","",""
"psychophysics","318","681574","0.0-18.0-1.24","62cea89eb7f971d20007bc80","636d03e66a32c7f65a0397df","636d07ee8dc9c253c69283fd","null","","","","null","","","","key","16.65148275862207","800","378.5","","","","","","","","","","","","","264","-1","5","true","","","",""
"psychophysics","319","685412","0.0-18.0-2.24","62cea89eb7f971d20007bc80","636d03e66a32c7f65a0397df","636d07ee8dc9c253c69283fd","3800.60000000149","","","","90","","","","key","16.65006956521766","800","378.5","","","","","","","","","","","","","","","","","","","",""
"psychophysics","320","686421","0.0-18.0-0.25","62cea89eb7f971d20007bc80","636d03e66a32c7f65a0397df","636d07ee8dc9c253c69283fd","null","","","","null","","","","key","16.650050847457674","800","378.5","","","","","","","","","","","","","","","","","","","",""
"psychophysics","321","686932","0.0-18.0-1.25","62cea89eb7f971d20007bc80","636d03e66a32c7f65a0397df","636d07ee8dc9c253c69283fd","null","","","","null","","","","key","16.66206666666549","800","378.5","","","","","","","","","","","","","264","-1","4","true","","","",""
"psychophysics","322","687258","0.0-18.0-2.25","62cea89eb7f971d20007bc80","636d03e66a32c7f65a0397df","636d07ee8dc9c253c69283fd","322.5","","","","77","","","","key","16.633789473685045","800","378.5","","","","","","","","","","","","","","","","","","","",""
"psychophysics","323","688269","0.0-18.0-0.26","62cea89eb7f971d20007bc80","636d03e66a32c7f65a0397df","636d07ee8dc9c253c69283fd","null","","","","null","","","","key","16.644491525424122","800","378.5","","","","","","","","","","","","","","","","","","","",""
"psychophysics","324","688776","0.0-18.0-1.26","62cea89eb7f971d20007bc80","636d03e66a32c7f65a0397df","636d07ee8dc9c253c69283fd","null","","","","null","","","","key","16.65026666666769","800","378.5","","","","","","","","","","","","","264","1","4","true","","","",""
"psychophysics","325","688991","0.0-18.0-2.26","62cea89eb7f971d20007bc80","636d03e66a32c7f65a0397df","636d07ee8dc9c253c69283fd","212.69999999925494","","","","77","","","","key","16.67041666667016","800","378.5","","","","","","","","","","","","","","","","","","","",""
"psychophysics","326","690000","0.0-18.0-0.27","62cea89eb7f971d20007bc80","636d03e66a32c7f65a0397df","636d07ee8dc9c253c69283fd","null","","","","null","","","","key","16.64647457627106","800","378.5","","","","","","","","","","","","","","","","","","","",""
"psychophysics","327","690513","0.0-18.0-1.27","62cea89eb7f971d20007bc80","636d03e66a32c7f65a0397df","636d07ee8dc9c253c69283fd","null","","","","null","","","","key","16.649933333334047","800","378.5","","","","","","","","","","","","","264","-1","3","true","","","",""
"psychophysics","328","690562","0.0-18.0-2.27","62cea89eb7f971d20007bc80","636d03e66a32c7f65a0397df","636d07ee8dc9c253c69283fd","45.900000002235174","","","","77","","","","key","16.650499999988824","800","378.5","","","","","","","","","","","","","","","","","","","",""
