"trial_type","trial_index","time_elapsed","internal_node_id","PROLIFIC_PID","STUDY_ID","SESSION_ID","rt","stimulus","button_pressed","success","key_press","responses","isData","view_history","response_type","avg_frame_time","center_x","center_y","isSC","stim_side","trial_luminance","step_size","nReversal","correct","prev_ans","isThreshold","SC_threshold","final_threshold","isLuminance","FF_luminance","luminance","stimSide","ISInt","isFF","question_order","isSPQ","isCAPS","isAQ"
"pavlovia","0","10","0.0-0.0","631604308dac2909a887e171","636d03e66a32c7f65a0397df","636d1ecab7bf3713485e6755","","","","","","","","","","","","","","","","","","","","","","","","","","","","","","","",""
"html-button-response","1","20012","0.0-1.0","631604308dac2909a887e171","636d03e66a32c7f65a0397df","636d1ecab7bf3713485e6755","20000.599999999627","<div style='background-color: white; width:60%; margin: auto; padding: 50px; text-align: justify; text-justify: inter-word; margin-bottom: 20px;'><h1 style='text-align: center;'>Consent Form</h1><p>Please read this consent form carefully before deciding whether you would like to participate in this study. You have to be 18 years old or older to participate to this study.</p><p style='text-decoration: underline;'>Participation is voluntary:</p><p>It is your choice whether or not to participate in this research. If you choose to participate, you may change your mind and leave the study at any time. Refusal to participate or stopping your participation will involve no penalty or loss of benefits to which you are otherwise entitled.</p><p style='text-decoration: underline;'>Purpose of the Study:</p><p>To understand the mechanisms underlying human perception.</p><p style='text-decoration: underline;'>What you will do in this study:</p><p>You will be presented with a series of visual images and then you will press buttons on the keyboard of your computer to respond to simple questions about the images (e.g. Were one or two images presented?). In addition, you will be asked to complete a questionnaire concerning your beliefs and everyday mental and perceptual experiences.'</p><p style='text-decoration: underline;'> Time Required:</p><p>The study will take 40 minutes to complete. </p><p style='text-decoration: underline;'>Risks:</p><p>There are no anticipated risks associated with participating in this study that are beyond those experienced in everyday life. </p><p style='text-decoration: underline;'>Benefits:</p><p>There are no benefits to you in participating in the study. However, this study may lead to a better understanding of how different kinds of visual information are used.</p><p style='text-decoration: underline;'>Compensation:</p><p>You will be paid US$6.6/hour. </p><p style='text-decoration: underline;'>Privacy and Confidentiality:</p><p>Your participation in this study will be anonymous. No personal information about your name or identity will be asked or recorded. This anonymous data will be stored for several years and may be used for a variety of research purposes. The overall results of the study may be published, or the data files may be shared with other researchers, but your identity will not be revealed in any way. The online services we are using for this study may temporarily store your data, but this data will be downloaded and then promptly deleted from those services.Your data will not be permanently associated with your name, IP address, or any other identifiable information (e.g., your information will only be connected to your payment, not to any of your responses), though they may be temporarily stored together before we download and separate them. Even so, no guarantee of internet survey security can be given because, although unlikely, transmissions can be intercepted and IP addresses can be identified. The anonymous data may be shared publicly (for example, in conjunction with a resulting academic publication).</p><p style='text-decoration: underline;'>Participation and Withdrawal:</p><p>Your participation in this study is completely voluntary. You may stop responding to the stimuli or stop answering questions if you so choose and without penalty by exiting the full screen mode, closing this tab of your browser or redirecting it to a different website.</p><p style='text-decoration: underline;'>Contact Info of the Researcher: </p><p>If you have questions about this study, or if you would like to talk to the research team, please contact David Melcher (david.melcher@nyu.edu, md5050@nyu.edu) at the Perception and Active Cognition Laboratory, New York University Abu Dhabi, Computational Research Building, Saadiyat Island, Abu Dhabi, UAE.This research has been reviewed by the New York University Abu Dhabi Institutional Review Board (NYUAD IRB). To contact about your rights in this research, for questions, suggestions, or complaints that are not addressed by the researchers, please email IRBnyuad@nyu.edu, or call the NYUAD IRB at +971 2 628 4313. </p></div>","0","","","","","","","","","","","","","","","","","","","","","","","","","","","","",""
"fullscreen","2","22942","0.0-2.0","631604308dac2909a887e171","636d03e66a32c7f65a0397df","636d1ecab7bf3713485e6755","","","","true","","","","","","","","","","","","","","","","","","","","","","","","","","","",""
"html-keyboard-response","3","40796","0.0-3.0","631604308dac2909a887e171","636d03e66a32c7f65a0397df","636d1ecab7bf3713485e6755","17854","<p>Welcome !</p><p>READ CAREFULLY THE FOLLOWING INDICATIONS:</p><p>From this moment you have ~40 minutes to complete the experiment.</p><p>During the experiment you will be prompted to take several breaks. Each break should not last longer than 2-3 minutes.</p><p>Make sure that your computer is plugged in and it's not running on battery power, even if the battery is already fully charged.</p><p>Turn off your phone and music, make sure that you are in a quiet room and that you will not be distracted for the next hour.</p><p>Failure to comply with the instructions and indications provided during the experiment will most likely result in the rejection of your data.<p>Press the spacebar to start.</p>","","","32","","","","","","","","","","","","","","","","","","","","","","","","","","",""
"survey-html-form","4","46028","0.0-4.0","631604308dac2909a887e171","636d03e66a32c7f65a0397df","636d1ecab7bf3713485e6755","5230.89999999851","","","","","{""age"":""32"",""sex"":""M""}","true","","","","","","","","","","","","","","","","","","","","","","","","",""
"instructions","5","102452","0.0-5.0","631604308dac2909a887e171","636d03e66a32c7f65a0397df","636d1ecab7bf3713485e6755","56423.40000000037","","","","","","","[{""page_index"":0,""viewing_time"":36015.199999999255},{""page_index"":1,""viewing_time"":3127.800000000745},{""page_index"":0,""viewing_time"":1240},{""page_index"":1,""viewing_time"":11352},{""page_index"":2,""viewing_time"":4688}]","","","","","","","","","","","","","","","","","","","","","","","",""
"psychophysics","6","103692","0.0-6.0-0.0","631604308dac2909a887e171","636d03e66a32c7f65a0397df","636d1ecab7bf3713485e6755","231.30000000074506","","","","39","","","","key","16.66639189189182","960","484.5","true","1","180","30","0","-1","","","","","","","","","","","","","",""
"psychophysics","7","104884","0.0-6.0-0.1","631604308dac2909a887e171","636d03e66a32c7f65a0397df","636d1ecab7bf3713485e6755","183.59999999962747","","","","39","","","","key","16.666414285714147","960","484.5","true","1","180","30","0","-1","-1","","","","","","","","","","","","",""
"psychophysics","8","106668","0.0-6.0-0.2","631604308dac2909a887e171","636d03e66a32c7f65a0397df","636d1ecab7bf3713485e6755","782.2000000011176","","","","39","","","","key","16.666113207547102","960","484.5","true","1","150","30","0","-1","-1","","","","","","","","","","","","",""
"psychophysics","9","109372","0.0-6.0-0.3","631604308dac2909a887e171","636d03e66a32c7f65a0397df","636d1ecab7bf3713485e6755","1703","","","","37","","","","key","16.66649999999999","960","484.5","true","-1","150","30","0","-1","-1","","","","","","","","","","","","",""
"psychophysics","10","112372","0.0-6.0-0.4","631604308dac2909a887e171","636d03e66a32c7f65a0397df","636d1ecab7bf3713485e6755","1991.5","","","","39","","","","key","16.66641340782123","960","484.5","true","1","129","30","0","-1","-1","","","","","","","","","","","","",""
"psychophysics","11","117180","0.0-6.0-0.5","631604308dac2909a887e171","636d03e66a32c7f65a0397df","636d1ecab7bf3713485e6755","3799.5","","","","39","","","","key","16.66653310104529","960","484.5","true","1","129","30","0","-1","-1","","","","","","","","","","","","",""
"psychophysics","12","120372","0.0-6.0-0.6","631604308dac2909a887e171","636d03e66a32c7f65a0397df","636d1ecab7bf3713485e6755","2186.5999999996275","","","","37","","","","key","16.66646596858638","960","484.5","true","-1","129","30","0","-1","-1","","","","","","","","","","","","",""
"psychophysics","13","124604","0.0-6.0-0.7","631604308dac2909a887e171","636d03e66a32c7f65a0397df","636d1ecab7bf3713485e6755","3224.0999999996275","","","","37","","","","key","16.666482213438773","960","484.5","true","-1","129","30","0","-1","-1","","","","","","","","","","","","",""
"psychophysics","14","126636","0.0-6.0-0.8","631604308dac2909a887e171","636d03e66a32c7f65a0397df","636d1ecab7bf3713485e6755","1023.9000000003725","","","","39","","","","key","16.667570247933988","960","484.5","true","-1","129","24","1","1","-1","","","","","","","","","","","","",""
"psychophysics","15","130828","0.0-6.0-0.9","631604308dac2909a887e171","636d03e66a32c7f65a0397df","636d1ecab7bf3713485e6755","3184.199999999255","","","","39","","","","key","16.666439999999945","960","484.5","true","1","153","24","1","-1","1","","","","","","","","","","","","",""
"psychophysics","16","132277","0.0-6.0-0.10","631604308dac2909a887e171","636d03e66a32c7f65a0397df","636d1ecab7bf3713485e6755","441.2999999988824","","","","39","","","","key","16.66695348837218","960","484.5","true","1","153","19.2","2","-1","-1","","","","","","","","","","","","",""
"psychophysics","17","135420","0.0-6.0-0.11","631604308dac2909a887e171","636d03e66a32c7f65a0397df","636d1ecab7bf3713485e6755","2126.9000000003725","","","","37","","","","key","16.665765957446755","960","484.5","true","1","133.8","15.36","3","1","-1","","","","","","","","","","","","",""
"psychophysics","18","137004","0.0-6.0-0.12","631604308dac2909a887e171","636d03e66a32c7f65a0397df","636d1ecab7bf3713485e6755","575.8000000007451","","","","39","","","","key","16.66632978723414","960","484.5","true","1","149.16000000000003","15.36","3","-1","1","","","","","","","","","","","","",""
"psychophysics","19","138340","0.0-6.0-0.13","631604308dac2909a887e171","636d03e66a32c7f65a0397df","636d1ecab7bf3713485e6755","327.30000000074506","","","","37","","","","key","16.66640506329124","960","484.5","true","-1","149.16000000000003","12.287999999999998","4","-1","-1","","","","","","","","","","","","",""
"psychophysics","20","139748","0.0-6.0-0.14","631604308dac2909a887e171","636d03e66a32c7f65a0397df","636d1ecab7bf3713485e6755","399.80000000074506","","","","37","","","","key","16.666216867469906","960","484.5","true","-1","136.872","12.287999999999998","4","-1","-1","","","","","","","","","","","","",""
"psychophysics","21","141092","0.0-6.0-0.15","631604308dac2909a887e171","636d03e66a32c7f65a0397df","636d1ecab7bf3713485e6755","340.09999999962747","","","","37","","","","key","16.666500000000088","960","484.5","true","-1","136.872","12.287999999999998","4","-1","-1","","","","","","","","","","","","",""
"psychophysics","22","143132","0.0-6.0-0.16","631604308dac2909a887e171","636d03e66a32c7f65a0397df","636d1ecab7bf3713485e6755","1033","","","","39","","","","key","16.666462809917533","960","484.5","true","-1","129","9.8304","5","1","-1","","","","","","","","","","","","",""
"psychophysics","23","144516","0.0-6.0-0.17","631604308dac2909a887e171","636d03e66a32c7f65a0397df","636d1ecab7bf3713485e6755","380.6000000014901","","","","39","","","","key","16.665365853658507","960","484.5","true","1","138.8304","9.8304","5","-1","1","","","","","","","","","","","","",""
"psychophysics","24","145948","0.0-6.0-0.18","631604308dac2909a887e171","636d03e66a32c7f65a0397df","636d1ecab7bf3713485e6755","429.2000000011176","","","","37","","","","key","16.666388235294246","960","484.5","true","-1","138.8304","7.864319999999999","6","-1","-1","","","","","","","","","","","","",""
"psychophysics","25","148740","0.0-6.0-0.19","631604308dac2909a887e171","636d03e66a32c7f65a0397df","636d1ecab7bf3713485e6755","1787.9000000003725","","","","39","","","","key","16.66642514970063","960","484.5","true","-1","130.96608","6.291456","7","1","-1","","","","","","","","","","","","",""
"psychophysics","26","150068","0.0-6.0-0.20","631604308dac2909a887e171","636d03e66a32c7f65a0397df","636d1ecab7bf3713485e6755","319.1000000014901","","","","39","","","","key","16.666358974359284","960","484.5","true","1","137.25753600000002","6.291456","7","-1","1","","","","","","","","","","","","",""
"psychophysics","27","151420","0.0-6.0-0.21","631604308dac2909a887e171","636d03e66a32c7f65a0397df","636d1ecab7bf3713485e6755","351.40000000037253","","","","37","","","","key","16.666493827160547","960","484.5","true","-1","137.25753600000002","5.033164800000001","8","-1","-1","","","","","","","","","","","","",""
"psychophysics","28","153772","0.0-6.0-0.22","631604308dac2909a887e171","636d03e66a32c7f65a0397df","636d1ecab7bf3713485e6755","1342.7999999988824","","","","39","","","","key","16.66642142857142","960","484.5","true","1","132.2243712","5.033164800000001","8","-1","-1","","","","","","","","","","","","",""
"psychophysics","29","155965","0.0-6.0-0.23","631604308dac2909a887e171","636d03e66a32c7f65a0397df","636d1ecab7bf3713485e6755","1184.5","","","","39","","","","key","16.667046153846044","960","484.5","true","1","132.2243712","5.033164800000001","8","-1","-1","","","","","","","","","","","","",""
"psychophysics","30","157996","0.0-6.0-0.24","631604308dac2909a887e171","636d03e66a32c7f65a0397df","636d1ecab7bf3713485e6755","1027.1000000014901","","","","37","","","","key","16.665851239669415","960","484.5","true","-1","129","5.033164800000001","8","-1","-1","","","","","","","","","","","","",""
"psychophysics","31","159412","0.0-6.0-0.25","631604308dac2909a887e171","636d03e66a32c7f65a0397df","636d1ecab7bf3713485e6755","410","","","","39","","","","key","16.666321428571315","960","484.5","true","1","129","5.033164800000001","8","-1","-1","","","","","","","","","","","","",""
"psychophysics","32","161092","0.0-6.0-0.26","631604308dac2909a887e171","636d03e66a32c7f65a0397df","636d1ecab7bf3713485e6755","673.4000000003725","","","","37","","","","key","16.666600000000034","960","484.5","true","1","129","4.0265318400000005","9","1","-1","","","","","","","","","","","","",""
"psychophysics","33","162852","0.0-6.0-0.27","631604308dac2909a887e171","636d03e66a32c7f65a0397df","636d1ecab7bf3713485e6755","751.5999999996275","","","","39","","","","key","16.666380952380962","960","484.5","true","-1","133.02653184","4.0265318400000005","9","1","1","","","","","","","","","","","","",""
"psychophysics","34","164268","0.0-6.0-0.28","631604308dac2909a887e171","636d03e66a32c7f65a0397df","636d1ecab7bf3713485e6755","407.7000000011176","","","","39","","","","key","16.66646987951784","960","484.5","true","1","137.05306367999998","4.0265318400000005","9","-1","1","","","","","","","","","","","","",""
"psychophysics","35","165812","0.0-6.0-0.29","631604308dac2909a887e171","636d03e66a32c7f65a0397df","636d1ecab7bf3713485e6755","543.0999999996275","","","","39","","","","key","16.666249999999824","960","484.5","true","1","137.05306367999998","3.2212254720000004","10","-1","-1","","","","","","","","","","","","",""
"psychophysics","36","167812","0.0-6.0-0.30","631604308dac2909a887e171","636d03e66a32c7f65a0397df","636d1ecab7bf3713485e6755","993.5","","","","39","","","","key","16.666453781512764","960","484.5","true","-1","133.83183820799997","2.5769803776000004","11","1","-1","","","","","","","","","","","","",""
"psychophysics","37","169308","0.0-6.0-0.31","631604308dac2909a887e171","636d03e66a32c7f65a0397df","636d1ecab7bf3713485e6755","489.40000000037253","","","","37","","","","key","16.666382022472124","960","484.5","true","-1","136.40881858559996","2.5769803776000004","11","-1","1","","","","","","","","","","","","",""
"psychophysics","38","170700","0.0-6.0-0.32","631604308dac2909a887e171","636d03e66a32c7f65a0397df","636d1ecab7bf3713485e6755","383.80000000074506","","","","37","","","","key","16.666256097560996","960","484.5","true","-1","136.40881858559996","2.0615843020800004","12","-1","-1","","","","","","","","","","","","",""
"psychophysics","39","172068","0.0-6.0-0.33","631604308dac2909a887e171","636d03e66a32c7f65a0397df","636d1ecab7bf3713485e6755","366.09999999962747","","","","39","","","","key","16.66635802469143","960","484.5","true","1","134.34723428351995","2.0615843020800004","12","-1","-1","","","","","","","","","","","","",""
"psychophysics","40","173404","0.0-6.0-0.34","631604308dac2909a887e171","636d03e66a32c7f65a0397df","636d1ecab7bf3713485e6755","335.19999999925494","","","","37","","","","key","16.66595000000016","960","484.5","true","-1","134.34723428351995","2.0615843020800004","12","-1","-1","","","","","","","","","","","","",""
"psychophysics","41","175140","0.0-6.0-0.35","631604308dac2909a887e171","636d03e66a32c7f65a0397df","636d1ecab7bf3713485e6755","728","","","","37","","","","key","16.666514563106634","960","484.5","true","-1","132.28564998143995","2.0615843020800004","12","-1","-1","","","","","","","","","","","","",""
"psychophysics","42","176604","0.0-6.0-0.36","631604308dac2909a887e171","636d03e66a32c7f65a0397df","636d1ecab7bf3713485e6755","455.6000000014901","","","","39","","","","key","16.66754022988507","960","484.5","true","1","132.28564998143995","2.0615843020800004","12","-1","-1","","","","","","","","","","","","",""
"psychophysics","43","179108","0.0-6.0-0.37","631604308dac2909a887e171","636d03e66a32c7f65a0397df","636d1ecab7bf3713485e6755","1496.3999999985099","","","","37","","","","key","16.666718120805275","960","484.5","true","-1","130.22406567935994","2.0615843020800004","12","-1","-1","","","","","","","","","","","","",""
"psychophysics","44","180796","0.0-6.0-0.38","631604308dac2909a887e171","636d03e66a32c7f65a0397df","636d1ecab7bf3713485e6755","679.8000000007451","","","","37","","","","key","16.666080000000076","960","484.5","true","-1","130.22406567935994","2.0615843020800004","12","-1","-1","","","","","","","","","","","","",""
"psychophysics","45","182332","0.0-6.0-0.39","631604308dac2909a887e171","636d03e66a32c7f65a0397df","636d1ecab7bf3713485e6755","530.2000000011176","","","","39","","","","key","16.66646153846171","960","484.5","true","1","129","2.0615843020800004","12","-1","-1","","","","","","","","","","","","",""
"html-keyboard-response","46","186045","0.0-7.0","631604308dac2909a887e171","636d03e66a32c7f65a0397df","636d1ecab7bf3713485e6755","3711.7999999988824","<p>Well Done !</p><p>Prepare for a new block.</p><p>DON'T EXIT THE FULL SCREEN MODE</p><p>Press the Spacebar to start.</p>","","","32","","","","","","","","","","","","","","","true","132.96640229785598","","","","","","","","","","",""
"psychophysics","47","188812","0.0-8.0-0.0","631604308dac2909a887e171","636d03e66a32c7f65a0397df","636d1ecab7bf3713485e6755","1760.1000000014901","","","","39","","","","key","16.66737951807231","960","484.5","true","1","180","30","0","-1","","","","","","","","","","","","","",""
"psychophysics","48","190132","0.0-8.0-0.1","631604308dac2909a887e171","636d03e66a32c7f65a0397df","636d1ecab7bf3713485e6755","313.6000000014901","","","","39","","","","key","16.6665128205126","960","484.5","true","1","180","30","0","-1","-1","","","","","","","","","","","","",""
"psychophysics","49","191412","0.0-8.0-0.2","631604308dac2909a887e171","636d03e66a32c7f65a0397df","636d1ecab7bf3713485e6755","276.90000000037253","","","","37","","","","key","16.666368421052635","960","484.5","true","-1","150","30","0","-1","-1","","","","","","","","","","","","",""
"psychophysics","50","192781","0.0-8.0-0.3","631604308dac2909a887e171","636d03e66a32c7f65a0397df","636d1ecab7bf3713485e6755","362.2999999988824","","","","37","","","","key","16.6674691358025","960","484.5","true","-1","150","30","0","-1","-1","","","","","","","","","","","","",""
"psychophysics","51","194492","0.0-8.0-0.4","631604308dac2909a887e171","636d03e66a32c7f65a0397df","636d1ecab7bf3713485e6755","706.7000000011176","","","","37","","","","key","16.66541176470591","960","484.5","true","-1","129","30","0","-1","-1","","","","","","","","","","","","",""
"psychophysics","52","196269","0.0-8.0-0.5","631604308dac2909a887e171","636d03e66a32c7f65a0397df","636d1ecab7bf3713485e6755","768.3000000007451","","","","39","","","","key","16.666820754716888","960","484.5","true","1","129","30","0","-1","-1","","","","","","","","","","","","",""
"psychophysics","53","198060","0.0-8.0-0.6","631604308dac2909a887e171","636d03e66a32c7f65a0397df","636d1ecab7bf3713485e6755","783","","","","37","","","","key","16.666481132075447","960","484.5","true","-1","129","30","0","-1","-1","","","","","","","","","","","","",""
"psychophysics","54","199724","0.0-8.0-0.7","631604308dac2909a887e171","636d03e66a32c7f65a0397df","636d1ecab7bf3713485e6755","656.5","","","","37","","","","key","16.666222222222277","960","484.5","true","1","129","24","1","1","-1","","","","","","","","","","","","",""
"psychophysics","55","201092","0.0-8.0-0.8","631604308dac2909a887e171","636d03e66a32c7f65a0397df","636d1ecab7bf3713485e6755","360","","","","37","","","","key","16.66628395061707","960","484.5","true","-1","153","24","1","-1","1","","","","","","","","","","","","",""
"psychophysics","56","202453","0.0-8.0-0.9","631604308dac2909a887e171","636d03e66a32c7f65a0397df","636d1ecab7bf3713485e6755","351.40000000037253","","","","39","","","","key","16.66624691358007","960","484.5","true","1","153","19.2","2","-1","-1","","","","","","","","","","","","",""
"psychophysics","57","203757","0.0-8.0-0.10","631604308dac2909a887e171","636d03e66a32c7f65a0397df","636d1ecab7bf3713485e6755","303.5","","","","39","","","","key","16.667805194805222","960","484.5","true","1","133.8","19.2","2","-1","-1","","","","","","","","","","","","",""
"psychophysics","58","205109","0.0-8.0-0.11","631604308dac2909a887e171","636d03e66a32c7f65a0397df","636d1ecab7bf3713485e6755","344.40000000037253","","","","39","","","","key","16.66502499999988","960","484.5","true","1","133.8","19.2","2","-1","-1","","","","","","","","","","","","",""
"psychophysics","59","207028","0.0-8.0-0.12","631604308dac2909a887e171","636d03e66a32c7f65a0397df","636d1ecab7bf3713485e6755","911.7999999988824","","","","37","","","","key","16.66609649122805","960","484.5","true","-1","129","19.2","2","-1","-1","","","","","","","","","","","","",""
"psychophysics","60","208621","0.0-8.0-0.13","631604308dac2909a887e171","636d03e66a32c7f65a0397df","636d1ecab7bf3713485e6755","585.5","","","","39","","","","key","16.666526315789547","960","484.5","true","-1","129","15.36","3","1","-1","","","","","","","","","","","","",""
"psychophysics","61","209933","0.0-8.0-0.14","631604308dac2909a887e171","636d03e66a32c7f65a0397df","636d1ecab7bf3713485e6755","304.40000000037253","","","","37","","","","key","16.666298701298988","960","484.5","true","-1","144.36","15.36","3","-1","1","","","","","","","","","","","","",""
"psychophysics","62","211781","0.0-8.0-0.15","631604308dac2909a887e171","636d03e66a32c7f65a0397df","636d1ecab7bf3713485e6755","845.6999999992549","","","","37","","","","key","16.666300000000046","960","484.5","true","-1","144.36","12.287999999999998","4","-1","-1","","","","","","","","","","","","",""
"psychophysics","63","213165","0.0-8.0-0.16","631604308dac2909a887e171","636d03e66a32c7f65a0397df","636d1ecab7bf3713485e6755","379.5","","","","39","","","","key","16.666573170731525","960","484.5","true","1","132.072","12.287999999999998","4","-1","-1","","","","","","","","","","","","",""
"psychophysics","64","215293","0.0-8.0-0.17","631604308dac2909a887e171","636d03e66a32c7f65a0397df","636d1ecab7bf3713485e6755","1124.4000000003725","","","","37","","","","key","16.6663937007875","960","484.5","true","-1","132.072","12.287999999999998","4","-1","-1","","","","","","","","","","","","",""
"psychophysics","65","217277","0.0-8.0-0.18","631604308dac2909a887e171","636d03e66a32c7f65a0397df","636d1ecab7bf3713485e6755","976.9000000003725","","","","39","","","","key","16.666474576271188","960","484.5","true","1","129","12.287999999999998","4","-1","-1","","","","","","","","","","","","",""
"psychophysics","66","219757","0.0-8.0-0.19","631604308dac2909a887e171","636d03e66a32c7f65a0397df","636d1ecab7bf3713485e6755","1472.2999999988824","","","","37","","","","key","16.666358108108003","960","484.5","true","1","129","9.8304","5","1","-1","","","","","","","","","","","","",""
"psychophysics","67","221870","0.0-8.0-0.20","631604308dac2909a887e171","636d03e66a32c7f65a0397df","636d1ecab7bf3713485e6755","1104.7000000011176","","","","37","","","","key","16.667071428571482","960","484.5","true","-1","138.8304","9.8304","5","-1","1","","","","","","","","","","","","",""
"psychophysics","68","224037","0.0-8.0-0.21","631604308dac2909a887e171","636d03e66a32c7f65a0397df","636d1ecab7bf3713485e6755","1160.800000000745","","","","37","","","","key","16.666085271317964","960","484.5","true","-1","138.8304","7.864319999999999","6","-1","-1","","","","","","","","","","","","",""
"psychophysics","69","225597","0.0-8.0-0.22","631604308dac2909a887e171","636d03e66a32c7f65a0397df","636d1ecab7bf3713485e6755","552.1999999992549","","","","37","","","","key","16.665880434782594","960","484.5","true","1","130.96608","6.291456","7","1","-1","","","","","","","","","","","","",""
"psychophysics","70","227710","0.0-8.0-0.23","631604308dac2909a887e171","636d03e66a32c7f65a0397df","636d1ecab7bf3713485e6755","1107.5","","","","37","","","","key","16.66642063492073","960","484.5","true","-1","137.25753600000002","6.291456","7","-1","1","","","","","","","","","","","","",""
"psychophysics","71","229022","0.0-8.0-0.24","631604308dac2909a887e171","636d03e66a32c7f65a0397df","636d1ecab7bf3713485e6755","305.90000000037253","","","","37","","","","key","16.66602564102579","960","484.5","true","-1","137.25753600000002","5.033164800000001","8","-1","-1","","","","","","","","","","","","",""
"psychophysics","72","230765","0.0-8.0-0.25","631604308dac2909a887e171","636d03e66a32c7f65a0397df","636d1ecab7bf3713485e6755","736.9000000003725","","","","39","","","","key","16.666320388349455","960","484.5","true","-1","132.2243712","4.0265318400000005","9","1","-1","","","","","","","","","","","","",""
"psychophysics","73","232213","0.0-8.0-0.26","631604308dac2909a887e171","636d03e66a32c7f65a0397df","636d1ecab7bf3713485e6755","444.5","","","","39","","","","key","16.66616279069743","960","484.5","true","1","136.25090304","4.0265318400000005","9","-1","1","","","","","","","","","","","","",""
"psychophysics","74","233773","0.0-8.0-0.27","631604308dac2909a887e171","636d03e66a32c7f65a0397df","636d1ecab7bf3713485e6755","554.5999999996275","","","","39","","","","key","16.66626881720418","960","484.5","true","1","136.25090304","3.2212254720000004","10","-1","-1","","","","","","","","","","","","",""
"psychophysics","75","235357","0.0-8.0-0.28","631604308dac2909a887e171","636d03e66a32c7f65a0397df","636d1ecab7bf3713485e6755","576.9000000003725","","","","37","","","","key","16.666127659574254","960","484.5","true","-1","133.029677568","3.2212254720000004","10","-1","-1","","","","","","","","","","","","",""
"psychophysics","76","236670","0.0-8.0-0.29","631604308dac2909a887e171","636d03e66a32c7f65a0397df","636d1ecab7bf3713485e6755","305.40000000037253","","","","39","","","","key","16.66679487179499","960","484.5","true","1","133.029677568","3.2212254720000004","10","-1","-1","","","","","","","","","","","","",""
"psychophysics","77","238509","0.0-8.0-0.30","631604308dac2909a887e171","636d03e66a32c7f65a0397df","636d1ecab7bf3713485e6755","833.2000000011176","","","","39","","","","key","16.666311926605477","960","484.5","true","1","129.808452096","3.2212254720000004","10","-1","-1","","","","","","","","","","","","",""
"psychophysics","78","241029","0.0-8.0-0.31","631604308dac2909a887e171","636d03e66a32c7f65a0397df","636d1ecab7bf3713485e6755","1512.4000000003725","","","","37","","","","key","16.66636666666658","960","484.5","true","-1","129.808452096","3.2212254720000004","10","-1","-1","","","","","","","","","","","","",""
"psychophysics","79","243677","0.0-8.0-0.32","631604308dac2909a887e171","636d03e66a32c7f65a0397df","636d1ecab7bf3713485e6755","1642","","","","37","","","","key","16.666436708860704","960","484.5","true","1","129","2.5769803776000004","11","1","-1","","","","","","","","","","","","",""
"psychophysics","80","245197","0.0-8.0-0.33","631604308dac2909a887e171","636d03e66a32c7f65a0397df","636d1ecab7bf3713485e6755","512.9000000003725","","","","39","","","","key","16.665711111110998","960","484.5","true","1","131.5769803776","2.5769803776000004","11","-1","1","","","","","","","","","","","","",""
"psychophysics","81","248437","0.0-8.0-0.34","631604308dac2909a887e171","636d03e66a32c7f65a0397df","636d1ecab7bf3713485e6755","2235.60000000149","","","","37","","","","key","16.666458762886624","960","484.5","true","1","131.5769803776","2.0615843020800004","12","1","-1","","","","","","","","","","","","",""
"psychophysics","82","249837","0.0-8.0-0.35","631604308dac2909a887e171","636d03e66a32c7f65a0397df","636d1ecab7bf3713485e6755","392.90000000037253","","","","37","","","","key","16.666433734939915","960","484.5","true","-1","133.63856467968","2.0615843020800004","12","-1","1","","","","","","","","","","","","",""
"psychophysics","83","251109","0.0-8.0-0.36","631604308dac2909a887e171","636d03e66a32c7f65a0397df","636d1ecab7bf3713485e6755","265","","","","37","","","","key","16.666666666666668","960","484.5","true","-1","133.63856467968","1.6492674416640005","13","-1","-1","","","","","","","","","","","","",""
"psychophysics","84","253270","0.0-8.0-0.37","631604308dac2909a887e171","636d03e66a32c7f65a0397df","636d1ecab7bf3713485e6755","1153.2000000011176","","","","37","","","","key","16.66750387596905","960","484.5","true","1","131.989297238016","1.3194139533312006","14","1","-1","","","","","","","","","","","","",""
"psychophysics","85","255117","0.0-8.0-0.38","631604308dac2909a887e171","636d03e66a32c7f65a0397df","636d1ecab7bf3713485e6755","840.0999999996275","","","","37","","","","key","16.66592660550468","960","484.5","true","-1","133.30871119134721","1.3194139533312006","14","-1","1","","","","","","","","","","","","",""
"psychophysics","86","256373","0.0-8.0-0.39","631604308dac2909a887e171","636d03e66a32c7f65a0397df","636d1ecab7bf3713485e6755","253.59999999962747","","","","39","","","","key","16.66636000000018","960","484.5","true","1","133.30871119134721","1.0555311626649604","15","-1","-1","","","","","","","","","","","","",""
"html-keyboard-response","87","258701","0.0-9.0","631604308dac2909a887e171","636d03e66a32c7f65a0397df","636d1ecab7bf3713485e6755","2326.5","<p>Well Done !</p><p>Prepare for a new block.</p><p>DON'T EXIT THE FULL SCREEN MODE</p><p>Press the Spacebar to start.</p>","","","32","","","","","","","","","","","","","","","true","132.56268308955134","","","","","","","","","","",""
"psychophysics","88","262661","0.0-10.0-0.0","631604308dac2909a887e171","636d03e66a32c7f65a0397df","636d1ecab7bf3713485e6755","2953.300000000745","","","","39","","","","key","16.66690717299566","960","484.5","true","1","180","30","0","-1","","","","","","","","","","","","","",""
"psychophysics","89","263733","0.0-10.0-0.1","631604308dac2909a887e171","636d03e66a32c7f65a0397df","636d1ecab7bf3713485e6755","64.69999999925494","","","","39","","","","key","16.66620634920666","960","484.5","true","1","180","30","0","-1","-1","","","","","","","","","","","","",""
"psychophysics","90","264853","0.0-10.0-0.2","631604308dac2909a887e171","636d03e66a32c7f65a0397df","636d1ecab7bf3713485e6755","118.5","","","","39","","","","key","16.66635820895534","960","484.5","true","1","150","30","0","-1","-1","","","","","","","","","","","","",""
"psychophysics","91","266236","0.0-10.0-0.3","631604308dac2909a887e171","636d03e66a32c7f65a0397df","636d1ecab7bf3713485e6755","375.40000000037253","","","","39","","","","key","16.665780487804668","960","484.5","true","1","150","30","0","-1","-1","","","","","","","","","","","","",""
"psychophysics","92","268493","0.0-10.0-0.4","631604308dac2909a887e171","636d03e66a32c7f65a0397df","636d1ecab7bf3713485e6755","1248.300000000745","","","","37","","","","key","16.66686567164212","960","484.5","true","1","129","24","1","1","-1","","","","","","","","","","","","",""
"psychophysics","93","269709","0.0-10.0-0.5","631604308dac2909a887e171","636d03e66a32c7f65a0397df","636d1ecab7bf3713485e6755","208.19999999925494","","","","37","","","","key","16.66637499999989","960","484.5","true","-1","153","24","1","-1","1","","","","","","","","","","","","",""
"psychophysics","94","270806","0.0-10.0-0.6","631604308dac2909a887e171","636d03e66a32c7f65a0397df","636d1ecab7bf3713485e6755","90.09999999962747","","","","39","","","","key","16.666353846153317","960","484.5","true","1","153","19.2","2","-1","-1","","","","","","","","","","","","",""
"psychophysics","95","272237","0.0-10.0-0.7","631604308dac2909a887e171","636d03e66a32c7f65a0397df","636d1ecab7bf3713485e6755","424.8999999985099","","","","39","","","","key","16.66624705882346","960","484.5","true","1","133.8","19.2","2","-1","-1","","","","","","","","","","","","",""
"psychophysics","96","273454","0.0-10.0-0.8","631604308dac2909a887e171","636d03e66a32c7f65a0397df","636d1ecab7bf3713485e6755","209","","","","39","","","","key","16.66637499999989","960","484.5","true","1","133.8","19.2","2","-1","-1","","","","","","","","","","","","",""
"psychophysics","97","275743","0.0-10.0-0.9","631604308dac2909a887e171","636d03e66a32c7f65a0397df","636d1ecab7bf3713485e6755","1283","","","","39","","","","key","16.66640441176466","960","484.5","true","1","129","19.2","2","-1","-1","","","","","","","","","","","","",""
"psychophysics","98","277293","0.0-10.0-0.10","631604308dac2909a887e171","636d03e66a32c7f65a0397df","636d1ecab7bf3713485e6755","544.5","","","","37","","","","key","16.6663695652172","960","484.5","true","1","129","15.36","3","1","-1","","","","","","","","","","","","",""
"psychophysics","99","278445","0.0-10.0-0.11","631604308dac2909a887e171","636d03e66a32c7f65a0397df","636d1ecab7bf3713485e6755","143.90000000037253","","","","39","","","","key","16.66629411764734","960","484.5","true","1","144.36","15.36","3","-1","1","","","","","","","","","","","","",""
"psychophysics","100","279645","0.0-10.0-0.12","631604308dac2909a887e171","636d03e66a32c7f65a0397df","636d1ecab7bf3713485e6755","193.5","","","","37","","","","key","16.66622535211303","960","484.5","true","-1","144.36","12.287999999999998","4","-1","-1","","","","","","","","","","","","",""
"psychophysics","101","281661","0.0-10.0-0.13","631604308dac2909a887e171","636d03e66a32c7f65a0397df","636d1ecab7bf3713485e6755","1009.5","","","","39","","","","key","16.6663916666667","960","484.5","true","-1","132.072","9.8304","5","1","-1","","","","","","","","","","","","",""
"psychophysics","102","282781","0.0-10.0-0.14","631604308dac2909a887e171","636d03e66a32c7f65a0397df","636d1ecab7bf3713485e6755","112.80000000074506","","","","37","","","","key","16.66619696969671","960","484.5","true","-1","141.9024","9.8304","5","-1","1","","","","","","","","","","","","",""
"psychophysics","103","284093","0.0-10.0-0.15","631604308dac2909a887e171","636d03e66a32c7f65a0397df","636d1ecab7bf3713485e6755","308.69999999925494","","","","37","","","","key","16.66617948717948","960","484.5","true","-1","141.9024","7.864319999999999","6","-1","-1","","","","","","","","","","","","",""
"psychophysics","104","285533","0.0-10.0-0.16","631604308dac2909a887e171","636d03e66a32c7f65a0397df","636d1ecab7bf3713485e6755","432.09999999962747","","","","37","","","","key","16.665811764706365","960","484.5","true","-1","134.03808","7.864319999999999","6","-1","-1","","","","","","","","","","","","",""
"psychophysics","105","287101","0.0-10.0-0.17","631604308dac2909a887e171","636d03e66a32c7f65a0397df","636d1ecab7bf3713485e6755","565.5999999996275","","","","37","","","","key","16.666559139784844","960","484.5","true","-1","134.03808","7.864319999999999","6","-1","-1","","","","","","","","","","","","",""
"psychophysics","106","288525","0.0-10.0-0.18","631604308dac2909a887e171","636d03e66a32c7f65a0397df","636d1ecab7bf3713485e6755","417.09999999962747","","","","39","","","","key","16.665799999999923","960","484.5","true","-1","129","6.291456","7","1","-1","","","","","","","","","","","","",""
"psychophysics","107","289757","0.0-10.0-0.19","631604308dac2909a887e171","636d03e66a32c7f65a0397df","636d1ecab7bf3713485e6755","224.5","","","","37","","","","key","16.666328767123186","960","484.5","true","-1","135.291456","6.291456","7","-1","1","","","","","","","","","","","","",""
"psychophysics","108","290933","0.0-10.0-0.20","631604308dac2909a887e171","636d03e66a32c7f65a0397df","636d1ecab7bf3713485e6755","168.90000000037253","","","","39","","","","key","16.666246376811877","960","484.5","true","1","135.291456","5.033164800000001","8","-1","-1","","","","","","","","","","","","",""
"psychophysics","109","293437","0.0-10.0-0.21","631604308dac2909a887e171","636d03e66a32c7f65a0397df","636d1ecab7bf3713485e6755","1501.6000000014901","","","","37","","","","key","16.66643999999971","960","484.5","true","-1","130.2582912","5.033164800000001","8","-1","-1","","","","","","","","","","","","",""
"psychophysics","110","295277","0.0-10.0-0.22","631604308dac2909a887e171","636d03e66a32c7f65a0397df","636d1ecab7bf3713485e6755","832.5","","","","39","","","","key","16.666467889907892","960","484.5","true","-1","130.2582912","4.0265318400000005","9","1","-1","","","","","","","","","","","","",""
"psychophysics","111","296741","0.0-10.0-0.23","631604308dac2909a887e171","636d03e66a32c7f65a0397df","636d1ecab7bf3713485e6755","456.69999999925494","","","","39","","","","key","16.666241379310215","960","484.5","true","1","134.28482304","4.0265318400000005","9","-1","1","","","","","","","","","","","","",""
"psychophysics","112","297925","0.0-10.0-0.24","631604308dac2909a887e171","636d03e66a32c7f65a0397df","636d1ecab7bf3713485e6755","176.2999999988824","","","","37","","","","key","16.666071428571428","960","484.5","true","-1","134.28482304","3.2212254720000004","10","-1","-1","","","","","","","","","","","","",""
"psychophysics","113","299197","0.0-10.0-0.25","631604308dac2909a887e171","636d03e66a32c7f65a0397df","636d1ecab7bf3713485e6755","264.59999999962747","","","","39","","","","key","16.66639999999975","960","484.5","true","1","131.06359756799998","3.2212254720000004","10","-1","-1","","","","","","","","","","","","",""
"psychophysics","114","300908","0.0-10.0-0.26","631604308dac2909a887e171","636d03e66a32c7f65a0397df","636d1ecab7bf3713485e6755","707.7999999988824","","","","39","","","","key","16.666401960784295","960","484.5","true","-1","131.06359756799998","2.5769803776000004","11","1","-1","","","","","","","","","","","","",""
"psychophysics","115","302348","0.0-10.0-0.27","631604308dac2909a887e171","636d03e66a32c7f65a0397df","636d1ecab7bf3713485e6755","432.59999999962747","","","","39","","","","key","16.66642352941186","960","484.5","true","1","133.64057794559997","2.5769803776000004","11","-1","1","","","","","","","","","","","","",""
"psychophysics","116","303620","0.0-10.0-0.28","631604308dac2909a887e171","636d03e66a32c7f65a0397df","636d1ecab7bf3713485e6755","269.19999999925494","","","","37","","","","key","16.66596052631595","960","484.5","true","-1","133.64057794559997","2.0615843020800004","12","-1","-1","","","","","","","","","","","","",""
"psychophysics","117","304948","0.0-10.0-0.29","631604308dac2909a887e171","636d03e66a32c7f65a0397df","636d1ecab7bf3713485e6755","320.2999999988824","","","","39","","","","key","16.666397435897334","960","484.5","true","1","131.57899364351996","2.0615843020800004","12","-1","-1","","","","","","","","","","","","",""
"psychophysics","118","306364","0.0-10.0-0.30","631604308dac2909a887e171","636d03e66a32c7f65a0397df","636d1ecab7bf3713485e6755","413.7999999988824","","","","37","","","","key","16.666119047618675","960","484.5","true","-1","131.57899364351996","2.0615843020800004","12","-1","-1","","","","","","","","","","","","",""
"psychophysics","119","307916","0.0-10.0-0.31","631604308dac2909a887e171","636d03e66a32c7f65a0397df","636d1ecab7bf3713485e6755","549.1999999992549","","","","39","","","","key","16.666402173913134","960","484.5","true","1","129.51740934143996","2.0615843020800004","12","-1","-1","","","","","","","","","","","","",""
"psychophysics","120","309701","0.0-10.0-0.32","631604308dac2909a887e171","636d03e66a32c7f65a0397df","636d1ecab7bf3713485e6755","782","","","","37","","","","key","16.66649056603761","960","484.5","true","1","129.51740934143996","1.6492674416640005","13","1","-1","","","","","","","","","","","","",""
"psychophysics","121","311820","0.0-10.0-0.33","631604308dac2909a887e171","636d03e66a32c7f65a0397df","636d1ecab7bf3713485e6755","1111.8999999985099","","","","39","","","","key","16.66590551181062","960","484.5","true","1","131.16667678310395","1.6492674416640005","13","-1","1","","","","","","","","","","","","",""
"psychophysics","122","313436","0.0-10.0-0.34","631604308dac2909a887e171","636d03e66a32c7f65a0397df","636d1ecab7bf3713485e6755","608.2000000011176","","","","37","","","","key","16.666114583333183","960","484.5","true","-1","131.16667678310395","1.3194139533312006","14","-1","-1","","","","","","","","","","","","",""
"psychophysics","123","315124","0.0-10.0-0.35","631604308dac2909a887e171","636d03e66a32c7f65a0397df","636d1ecab7bf3713485e6755","680.5999999996275","","","","37","","","","key","16.666330000000308","960","484.5","true","-1","129.84726282977275","1.3194139533312006","14","-1","-1","","","","","","","","","","","","",""
"psychophysics","124","317757","0.0-10.0-0.36","631604308dac2909a887e171","636d03e66a32c7f65a0397df","636d1ecab7bf3713485e6755","1624.4000000003725","","","","37","","","","key","16.666356687898197","960","484.5","true","-1","129.84726282977275","1.3194139533312006","14","-1","-1","","","","","","","","","","","","",""
"psychophysics","125","319348","0.0-10.0-0.37","631604308dac2909a887e171","636d03e66a32c7f65a0397df","636d1ecab7bf3713485e6755","584.9000000003725","","","","37","","","","key","16.66590425531947","960","484.5","true","-1","129","1.3194139533312006","14","-1","-1","","","","","","","","","","","","",""
"psychophysics","126","320797","0.0-10.0-0.38","631604308dac2909a887e171","636d03e66a32c7f65a0397df","636d1ecab7bf3713485e6755","446.5","","","","37","","","","key","16.665395348837063","960","484.5","true","1","129","1.0555311626649604","15","1","-1","","","","","","","","","","","","",""
"psychophysics","127","322396","0.0-10.0-0.39","631604308dac2909a887e171","636d03e66a32c7f65a0397df","636d1ecab7bf3713485e6755","595.9000000003725","","","","39","","","","key","16.66564210526351","960","484.5","true","-1","130.05553116266495","1.0555311626649604","15","1","1","","","","","","","","","","","","",""
"html-keyboard-response","128","324661","0.0-11.0","631604308dac2909a887e171","636d03e66a32c7f65a0397df","636d1ecab7bf3713485e6755","2262.800000000745","<p>Well Done !</p><p>Prepare for a new block.</p><p>DON'T EXIT THE FULL SCREEN MODE</p><p>Press the Spacebar to start.</p>","","","32","","","","","","","","","","","","","","","true","130.77897115903585","","","","","","","","","","",""
"psychophysics","129","332341","0.0-12.0-0.0","631604308dac2909a887e171","636d03e66a32c7f65a0397df","636d1ecab7bf3713485e6755","6673.5999999996275","","","","39","","","","key","16.666731019522803","960","484.5","true","-1","180","30","0","1","","","","","","","","","","","","","",""
"psychophysics","130","333476","0.0-12.0-0.1","631604308dac2909a887e171","636d03e66a32c7f65a0397df","636d1ecab7bf3713485e6755","128.69999999925494","","","","39","","","","key","16.66631343283555","960","484.5","true","1","210","30","0","-1","1","","","","","","","","","","","","",""
"psychophysics","131","334876","0.0-12.0-0.2","631604308dac2909a887e171","636d03e66a32c7f65a0397df","636d1ecab7bf3713485e6755","392.59999999962747","","","","37","","","","key","16.666337349398077","960","484.5","true","-1","210","24","1","-1","-1","","","","","","","","","","","","",""
"psychophysics","132","336053","0.0-12.0-0.3","631604308dac2909a887e171","636d03e66a32c7f65a0397df","636d1ecab7bf3713485e6755","168.90000000037253","","","","37","","","","key","16.666200000000288","960","484.5","true","-1","186","24","1","-1","-1","","","","","","","","","","","","",""
"psychophysics","133","337085","0.0-12.0-0.4","631604308dac2909a887e171","636d03e66a32c7f65a0397df","636d1ecab7bf3713485e6755","25.800000000745058","","","","39","","","","key","16.669508196721733","960","484.5","true","1","186","24","1","-1","-1","","","","","","","","","","","","",""
"psychophysics","134","338172","0.0-12.0-0.5","631604308dac2909a887e171","636d03e66a32c7f65a0397df","636d1ecab7bf3713485e6755","79.69999999925494","","","","37","","","","key","16.665390625000327","960","484.5","true","-1","162","24","1","-1","-1","","","","","","","","","","","","",""
"psychophysics","135","339389","0.0-12.0-0.6","631604308dac2909a887e171","636d03e66a32c7f65a0397df","636d1ecab7bf3713485e6755","209","","","","37","","","","key","16.666875000000193","960","484.5","true","-1","162","24","1","-1","-1","","","","","","","","","","","","",""
"psychophysics","136","340612","0.0-12.0-0.7","631604308dac2909a887e171","636d03e66a32c7f65a0397df","636d1ecab7bf3713485e6755","216.90000000037253","","","","39","","","","key","16.66622222222213","960","484.5","true","1","138","24","1","-1","-1","","","","","","","","","","","","",""
"psychophysics","137","342060","0.0-12.0-0.8","631604308dac2909a887e171","636d03e66a32c7f65a0397df","636d1ecab7bf3713485e6755","443.2999999988824","","","","39","","","","key","16.66646511627897","960","484.5","true","1","138","24","1","-1","-1","","","","","","","","","","","","",""
"psychophysics","138","343502","0.0-12.0-0.9","631604308dac2909a887e171","636d03e66a32c7f65a0397df","636d1ecab7bf3713485e6755","434.59999999962747","","","","37","","","","key","16.664755813953423","960","484.5","true","1","129","19.2","2","1","-1","","","","","","","","","","","","",""
"psychophysics","139","344652","0.0-12.0-0.10","631604308dac2909a887e171","636d03e66a32c7f65a0397df","636d1ecab7bf3713485e6755","144.2999999988824","","","","39","","","","key","16.66679411764712","960","484.5","true","1","148.2","19.2","2","-1","1","","","","","","","","","","","","",""
"psychophysics","140","345788","0.0-12.0-0.11","631604308dac2909a887e171","636d03e66a32c7f65a0397df","636d1ecab7bf3713485e6755","128.69999999925494","","","","37","","","","key","16.66685074626871","960","484.5","true","-1","148.2","15.36","3","-1","-1","","","","","","","","","","","","",""
"psychophysics","141","347053","0.0-12.0-0.12","631604308dac2909a887e171","636d03e66a32c7f65a0397df","636d1ecab7bf3713485e6755","257.40000000037253","","","","37","","","","key","16.665933333333427","960","484.5","true","-1","132.83999999999997","15.36","3","-1","-1","","","","","","","","","","","","",""
"psychophysics","142","349164","0.0-12.0-0.13","631604308dac2909a887e171","636d03e66a32c7f65a0397df","636d1ecab7bf3713485e6755","1105.2999999988824","","","","39","","","","key","16.66619999999972","960","484.5","true","-1","132.83999999999997","12.287999999999998","4","1","-1","","","","","","","","","","","","",""
"psychophysics","143","350269","0.0-12.0-0.14","631604308dac2909a887e171","636d03e66a32c7f65a0397df","636d1ecab7bf3713485e6755","101.69999999925494","","","","37","","","","key","16.665727272727633","960","484.5","true","-1","145.128","12.287999999999998","4","-1","1","","","","","","","","","","","","",""
"psychophysics","144","351469","0.0-12.0-0.15","631604308dac2909a887e171","636d03e66a32c7f65a0397df","636d1ecab7bf3713485e6755","192.80000000074506","","","","39","","","","key","16.66621126760532","960","484.5","true","1","145.128","9.8304","5","-1","-1","","","","","","","","","","","","",""
"psychophysics","145","352732","0.0-12.0-0.16","631604308dac2909a887e171","636d03e66a32c7f65a0397df","636d1ecab7bf3713485e6755","256.7999999988824","","","","37","","","","key","16.666175675675166","960","484.5","true","-1","135.2976","9.8304","5","-1","-1","","","","","","","","","","","","",""
"psychophysics","146","354205","0.0-12.0-0.17","631604308dac2909a887e171","636d03e66a32c7f65a0397df","636d1ecab7bf3713485e6755","470.40000000037253","","","","37","","","","key","16.666363636363794","960","484.5","true","-1","135.2976","9.8304","5","-1","-1","","","","","","","","","","","","",""
"psychophysics","147","355724","0.0-12.0-0.18","631604308dac2909a887e171","636d03e66a32c7f65a0397df","636d1ecab7bf3713485e6755","511.19999999925494","","","","37","","","","key","16.66645555555523","960","484.5","true","-1","129","9.8304","5","-1","-1","","","","","","","","","","","","",""
"psychophysics","148","357460","0.0-12.0-0.19","631604308dac2909a887e171","636d03e66a32c7f65a0397df","636d1ecab7bf3713485e6755","728.2999999988824","","","","39","","","","key","16.666786407767027","960","484.5","true","-1","129","7.864319999999999","6","1","-1","","","","","","","","","","","","",""
"psychophysics","149","358980","0.0-12.0-0.20","631604308dac2909a887e171","636d03e66a32c7f65a0397df","636d1ecab7bf3713485e6755","513.5999999996275","","","","39","","","","key","16.666377777777637","960","484.5","true","1","136.86432","7.864319999999999","6","-1","1","","","","","","","","","","","","",""
"psychophysics","150","362245","0.0-12.0-0.21","631604308dac2909a887e171","636d03e66a32c7f65a0397df","636d1ecab7bf3713485e6755","2260.7999999988824","","","","39","","","","key","16.66641538461539","960","484.5","true","1","136.86432","6.291456","7","-1","-1","","","","","","","","","","","","",""
"psychophysics","151","366757","0.0-12.0-0.22","631604308dac2909a887e171","636d03e66a32c7f65a0397df","636d1ecab7bf3713485e6755","3506.5999999996275","","","","39","","","","key","16.666514814814718","960","484.5","true","1","130.57286399999998","6.291456","7","-1","-1","","","","","","","","","","","","",""
"psychophysics","152","368709","0.0-12.0-0.23","631604308dac2909a887e171","636d03e66a32c7f65a0397df","636d1ecab7bf3713485e6755","943.9000000003725","","","","37","","","","key","16.66659482758631","960","484.5","true","1","130.57286399999998","5.033164800000001","8","1","-1","","","","","","","","","","","","",""
"psychophysics","153","369981","0.0-12.0-0.24","631604308dac2909a887e171","636d03e66a32c7f65a0397df","636d1ecab7bf3713485e6755","264.40000000037253","","","","37","","","","key","16.666346666666215","960","484.5","true","-1","135.6060288","5.033164800000001","8","-1","1","","","","","","","","","","","","",""
"psychophysics","154","371445","0.0-12.0-0.25","631604308dac2909a887e171","636d03e66a32c7f65a0397df","636d1ecab7bf3713485e6755","460.90000000037253","","","","39","","","","key","16.666229885057465","960","484.5","true","1","135.6060288","4.0265318400000005","9","-1","-1","","","","","","","","","","","","",""
"psychophysics","155","372885","0.0-12.0-0.26","631604308dac2909a887e171","636d03e66a32c7f65a0397df","636d1ecab7bf3713485e6755","434.8999999985099","","","","39","","","","key","16.667139534883844","960","484.5","true","1","131.57949696","4.0265318400000005","9","-1","-1","","","","","","","","","","","","",""
"psychophysics","156","374541","0.0-12.0-0.27","631604308dac2909a887e171","636d03e66a32c7f65a0397df","636d1ecab7bf3713485e6755","648.5999999996275","","","","37","","","","key","16.66641836734643","960","484.5","true","1","131.57949696","3.2212254720000004","10","1","-1","","","","","","","","","","","","",""
"psychophysics","157","375789","0.0-12.0-0.28","631604308dac2909a887e171","636d03e66a32c7f65a0397df","636d1ecab7bf3713485e6755","241.2999999988824","","","","39","","","","key","16.66618918918932","960","484.5","true","1","134.800722432","3.2212254720000004","10","-1","1","","","","","","","","","","","","",""
"psychophysics","158","377037","0.0-12.0-0.29","631604308dac2909a887e171","636d03e66a32c7f65a0397df","636d1ecab7bf3713485e6755","241","","","","37","","","","key","16.666148648649216","960","484.5","true","-1","134.800722432","2.5769803776000004","11","-1","-1","","","","","","","","","","","","",""
"psychophysics","159","378429","0.0-12.0-0.30","631604308dac2909a887e171","636d03e66a32c7f65a0397df","636d1ecab7bf3713485e6755","385.09999999962747","","","","39","","","","key","16.66619512195154","960","484.5","true","1","132.2237420544","2.5769803776000004","11","-1","-1","","","","","","","","","","","","",""
"psychophysics","160","379645","0.0-12.0-0.31","631604308dac2909a887e171","636d03e66a32c7f65a0397df","636d1ecab7bf3713485e6755","211","","","","39","","","","key","16.66620833333339","960","484.5","true","1","132.2237420544","2.5769803776000004","11","-1","-1","","","","","","","","","","","","",""
"psychophysics","161","381917","0.0-12.0-0.32","631604308dac2909a887e171","636d03e66a32c7f65a0397df","636d1ecab7bf3713485e6755","1265.9000000003725","","","","37","","","","key","16.666629629629597","960","484.5","true","-1","129.6467616768","2.5769803776000004","11","-1","-1","","","","","","","","","","","","",""
"psychophysics","162","384317","0.0-12.0-0.33","631604308dac2909a887e171","636d03e66a32c7f65a0397df","636d1ecab7bf3713485e6755","1392.699999999255","","","","37","","","","key","16.66613286713275","960","484.5","true","-1","129.6467616768","2.5769803776000004","11","-1","-1","","","","","","","","","","","","",""
"psychophysics","163","387957","0.0-12.0-0.34","631604308dac2909a887e171","636d03e66a32c7f65a0397df","636d1ecab7bf3713485e6755","2632.7999999988824","","","","39","","","","key","16.666513761467836","960","484.5","true","-1","129","2.0615843020800004","12","1","-1","","","","","","","","","","","","",""
"psychophysics","164","389437","0.0-12.0-0.35","631604308dac2909a887e171","636d03e66a32c7f65a0397df","636d1ecab7bf3713485e6755","472.7000000011176","","","","37","","","","key","16.66607954545444","960","484.5","true","1","131.06158430208","2.0615843020800004","12","1","1","","","","","","","","","","","","",""
"psychophysics","165","391077","0.0-12.0-0.36","631604308dac2909a887e171","636d03e66a32c7f65a0397df","636d1ecab7bf3713485e6755","632","","","","39","","","","key","16.666309278350344","960","484.5","true","-1","133.12316860416","2.0615843020800004","12","1","1","","","","","","","","","","","","",""
"psychophysics","166","392349","0.0-12.0-0.37","631604308dac2909a887e171","636d03e66a32c7f65a0397df","636d1ecab7bf3713485e6755","265","","","","39","","","","key","16.66626666666707","960","484.5","true","1","135.18475290624002","2.0615843020800004","12","-1","1","","","","","","","","","","","","",""
"psychophysics","167","393533","0.0-12.0-0.38","631604308dac2909a887e171","636d03e66a32c7f65a0397df","636d1ecab7bf3713485e6755","181.7999999988824","","","","37","","","","key","16.666285714285912","960","484.5","true","-1","135.18475290624002","1.6492674416640005","13","-1","-1","","","","","","","","","","","","",""
"psychophysics","168","394677","0.0-12.0-0.39","631604308dac2909a887e171","636d03e66a32c7f65a0397df","636d1ecab7bf3713485e6755","141.7999999988824","","","","39","","","","key","16.665779411764508","960","484.5","true","1","133.53548546457603","1.6492674416640005","13","-1","-1","","","","","","","","","","","","",""
"html-keyboard-response","169","396069","0.0-13.0","631604308dac2909a887e171","636d03e66a32c7f65a0397df","636d1ecab7bf3713485e6755","1390.5","<p>Well Done !</p><p>Prepare for a new block.</p><p>DON'T EXIT THE FULL SCREEN MODE</p><p>Press the Spacebar to start.</p>","","","32","","","","","","","","","","","","","","","true","132.6131479486464","","","","","","","","","","",""
"html-keyboard-response","170","396180","0.0-14.0","631604308dac2909a887e171","636d03e66a32c7f65a0397df","636d1ecab7bf3713485e6755","null","","","","null","","","","","","","","","","","","","","","","","132.2303011237724","true","136.46060224754478","","","","","","","",""
"instructions","171","429580","0.0-15.0","631604308dac2909a887e171","636d03e66a32c7f65a0397df","636d1ecab7bf3713485e6755","33398.40000000037","","","","","","","[{""page_index"":0,""viewing_time"":19622.400000000373},{""page_index"":1,""viewing_time"":4847.800000000745},{""page_index"":0,""viewing_time"":2328},{""page_index"":1,""viewing_time"":1616},{""page_index"":2,""viewing_time"":4984}]","","","","","","","","","","","","","","","","","","","","","","","",""
"psychophysics","172","432612","0.0-16.0-0.0","631604308dac2909a887e171","636d03e66a32c7f65a0397df","636d1ecab7bf3713485e6755","null","","","","null","","","","key","16.667516666666295","960","484.5","","","","","","","","","","","","","","","","","","","",""
"psychophysics","173","433117","0.0-16.0-1.0","631604308dac2909a887e171","636d03e66a32c7f65a0397df","636d1ecab7bf3713485e6755","null","","","","null","","","","key","16.66555172413716","960","484.5","","","","","","","","","","","","","136","-1","3","false","","","",""
"psychophysics","174","434645","0.0-16.0-2.0","631604308dac2909a887e171","636d03e66a32c7f65a0397df","636d1ecab7bf3713485e6755","1520.2000000011176","","","","90","","","","key","16.66664835164812","960","484.5","","","","","","","","","","","","","","","","","","","",""
"psychophysics","175","435650","0.0-16.0-0.1","631604308dac2909a887e171","636d03e66a32c7f65a0397df","636d1ecab7bf3713485e6755","null","","","","null","","","","key","16.666135593220766","960","484.5","","","","","","","","","","","","","","","","","","","",""
"psychophysics","176","436156","0.0-16.0-1.1","631604308dac2909a887e171","636d03e66a32c7f65a0397df","636d1ecab7bf3713485e6755","null","","","","null","","","","key","16.66690000000138","960","484.5","","","","","","","","","","","","","136","1","6","false","","","",""
"psychophysics","177","436629","0.0-16.0-2.1","631604308dac2909a887e171","636d03e66a32c7f65a0397df","636d1ecab7bf3713485e6755","470.40000000037253","","","","77","","","","key","16.665740740742034","960","484.5","","","","","","","","","","","","","","","","","","","",""
"psychophysics","178","437633","0.0-16.0-0.2","631604308dac2909a887e171","636d03e66a32c7f65a0397df","636d1ecab7bf3713485e6755","null","","","","null","","","","key","16.665728813559173","960","484.5","","","","","","","","","","","","","","","","","","","",""
"psychophysics","179","438141","0.0-16.0-1.2","631604308dac2909a887e171","636d03e66a32c7f65a0397df","636d1ecab7bf3713485e6755","null","","","","null","","","","key","16.666499999999846","960","484.5","","","","","","","","","","","","","136","-1","0","false","","","",""
"psychophysics","180","438381","0.0-16.0-2.2","631604308dac2909a887e171","636d03e66a32c7f65a0397df","636d1ecab7bf3713485e6755","238","","","","90","","","","key","16.6657692307669","960","484.5","","","","","","","","","","","","","","","","","","","",""
"psychophysics","181","439383","0.0-16.0-0.3","631604308dac2909a887e171","636d03e66a32c7f65a0397df","636d1ecab7bf3713485e6755","null","","","","null","","","","key","16.666169491525487","960","484.5","","","","","","","","","","","","","","","","","","","",""
"psychophysics","182","439885","0.0-16.0-1.3","631604308dac2909a887e171","636d03e66a32c7f65a0397df","636d1ecab7bf3713485e6755","null","","","","null","","","","key","16.667333333332014","960","484.5","","","","","","","","","","","","","136","-1","2","false","","","",""
"psychophysics","183","440645","0.0-16.0-2.3","631604308dac2909a887e171","636d03e66a32c7f65a0397df","636d1ecab7bf3713485e6755","758","","","","90","","","","key","16.666363636363794","960","484.5","","","","","","","","","","","","","","","","","","","",""
"psychophysics","184","441650","0.0-16.0-0.4","631604308dac2909a887e171","636d03e66a32c7f65a0397df","636d1ecab7bf3713485e6755","null","","","","null","","","","key","16.666338983050082","960","484.5","","","","","","","","","","","","","","","","","","","",""
"psychophysics","185","442155","0.0-16.0-1.4","631604308dac2909a887e171","636d03e66a32c7f65a0397df","636d1ecab7bf3713485e6755","null","","","","null","","","","key","16.66710000000118","960","484.5","","","","","","","","","","","","","136","1","2","false","","","",""
"psychophysics","186","442877","0.0-16.0-2.4","631604308dac2909a887e171","636d03e66a32c7f65a0397df","636d1ecab7bf3713485e6755","719.5","","","","90","","","","key","16.666523809523955","960","484.5","","","","","","","","","","","","","","","","","","","",""
"psychophysics","187","443883","0.0-16.0-0.5","631604308dac2909a887e171","636d03e66a32c7f65a0397df","636d1ecab7bf3713485e6755","null","","","","null","","","","key","16.666084745762696","960","484.5","","","","","","","","","","","","","","","","","","","",""
"psychophysics","188","444389","0.0-16.0-1.5","631604308dac2909a887e171","636d03e66a32c7f65a0397df","636d1ecab7bf3713485e6755","null","","","","null","","","","key","16.666066666667273","960","484.5","","","","","","","","","","","","","136","-1","4","false","","","",""
"psychophysics","189","444836","0.0-16.0-2.5","631604308dac2909a887e171","636d03e66a32c7f65a0397df","636d1ecab7bf3713485e6755","445.40000000037253","","","","77","","","","key","16.664961538463384","960","484.5","","","","","","","","","","","","","","","","","","","",""
"psychophysics","190","445844","0.0-16.0-0.6","631604308dac2909a887e171","636d03e66a32c7f65a0397df","636d1ecab7bf3713485e6755","null","","","","null","","","","key","16.667237288136057","960","484.5","","","","","","","","","","","","","","","","","","","",""
"psychophysics","191","446348","0.0-16.0-1.6","631604308dac2909a887e171","636d03e66a32c7f65a0397df","636d1ecab7bf3713485e6755","null","","","","null","","","","key","16.666965517241525","960","484.5","","","","","","","","","","","","","136","1","3","false","","","",""
"psychophysics","192","447373","0.0-16.0-2.6","631604308dac2909a887e171","636d03e66a32c7f65a0397df","636d1ecab7bf3713485e6755","1022.6000000014901","","","","77","","","","key","16.665786885245147","960","484.5","","","","","","","","","","","","","","","","","","","",""
"psychophysics","193","448380","0.0-16.0-0.7","631604308dac2909a887e171","636d03e66a32c7f65a0397df","636d1ecab7bf3713485e6755","null","","","","null","","","","key","16.66625423728828","960","484.5","","","","","","","","","","","","","","","","","","","",""
"psychophysics","194","448883","0.0-16.0-1.7","631604308dac2909a887e171","636d03e66a32c7f65a0397df","636d1ecab7bf3713485e6755","null","","","","null","","","","key","16.666448275861732","960","484.5","","","","","","","","","","","","","136","1","4","false","","","",""
"psychophysics","195","449493","0.0-16.0-2.7","631604308dac2909a887e171","636d03e66a32c7f65a0397df","636d1ecab7bf3713485e6755","606.1000000014901","","","","77","","","","key","16.666305555554572","960","484.5","","","","","","","","","","","","","","","","","","","",""
"psychophysics","196","450500","0.0-16.0-0.8","631604308dac2909a887e171","636d03e66a32c7f65a0397df","636d1ecab7bf3713485e6755","null","","","","null","","","","key","16.6661694915245","960","484.5","","","","","","","","","","","","","","","","","","","",""
"psychophysics","197","451003","0.0-16.0-1.8","631604308dac2909a887e171","636d03e66a32c7f65a0397df","636d1ecab7bf3713485e6755","null","","","","null","","","","key","16.666533333334762","960","484.5","","","","","","","","","","","","","136","1","0","false","","","",""
"psychophysics","198","451541","0.0-16.0-2.8","631604308dac2909a887e171","636d03e66a32c7f65a0397df","636d1ecab7bf3713485e6755","535.5999999996275","","","","77","","","","key","16.666870967740373","960","484.5","","","","","","","","","","","","","","","","","","","",""
"psychophysics","199","452548","0.0-16.0-0.9","631604308dac2909a887e171","636d03e66a32c7f65a0397df","636d1ecab7bf3713485e6755","null","","","","null","","","","key","16.666186440677848","960","484.5","","","","","","","","","","","","","","","","","","","",""
"psychophysics","200","453050","0.0-16.0-1.9","631604308dac2909a887e171","636d03e66a32c7f65a0397df","636d1ecab7bf3713485e6755","null","","","","null","","","","key","16.665866666667473","960","484.5","","","","","","","","","","","","","136","-1","6","false","","","",""
"psychophysics","201","453485","0.0-16.0-2.9","631604308dac2909a887e171","636d03e66a32c7f65a0397df","636d1ecab7bf3713485e6755","431.90000000037253","","","","77","","","","key","16.666080000000076","960","484.5","","","","","","","","","","","","","","","","","","","",""
"psychophysics","202","454492","0.0-16.0-0.10","631604308dac2909a887e171","636d03e66a32c7f65a0397df","636d1ecab7bf3713485e6755","null","","","","null","","","","key","16.666067796610335","960","484.5","","","","","","","","","","","","","","","","","","","",""
"psychophysics","203","454996","0.0-16.0-1.10","631604308dac2909a887e171","636d03e66a32c7f65a0397df","636d1ecab7bf3713485e6755","null","","","","null","","","","key","16.666241379310215","960","484.5","","","","","","","","","","","","","136","-1","5","false","","","",""
"psychophysics","204","455589","0.0-16.0-2.10","631604308dac2909a887e171","636d03e66a32c7f65a0397df","636d1ecab7bf3713485e6755","590.4000000003725","","","","77","","","","key","16.66597142857167","960","484.5","","","","","","","","","","","","","","","","","","","",""
"psychophysics","205","456596","0.0-16.0-0.11","631604308dac2909a887e171","636d03e66a32c7f65a0397df","636d1ecab7bf3713485e6755","null","","","","null","","","","key","16.666186440677848","960","484.5","","","","","","","","","","","","","","","","","","","",""
"psychophysics","206","457100","0.0-16.0-1.11","631604308dac2909a887e171","636d03e66a32c7f65a0397df","636d1ecab7bf3713485e6755","null","","","","null","","","","key","16.66634482758698","960","484.5","","","","","","","","","","","","","136","1","5","false","","","",""
"psychophysics","207","457541","0.0-16.0-2.11","631604308dac2909a887e171","636d03e66a32c7f65a0397df","636d1ecab7bf3713485e6755","437.30000000074506","","","","77","","","","key","16.66696153846211","960","484.5","","","","","","","","","","","","","","","","","","","",""
"psychophysics","208","458548","0.0-16.0-0.12","631604308dac2909a887e171","636d03e66a32c7f65a0397df","636d1ecab7bf3713485e6755","null","","","","null","","","","key","16.666186440678835","960","484.5","","","","","","","","","","","","","","","","","","","",""
"psychophysics","209","459050","0.0-16.0-1.12","631604308dac2909a887e171","636d03e66a32c7f65a0397df","636d1ecab7bf3713485e6755","null","","","","null","","","","key","16.66636666666794","960","484.5","","","","","","","","","","","","","136","1","5","false","","","",""
"psychophysics","210","459429","0.0-16.0-2.12","631604308dac2909a887e171","636d03e66a32c7f65a0397df","636d1ecab7bf3713485e6755","375.7999999988824","","","","77","","","","key","16.665428571427974","960","484.5","","","","","","","","","","","","","","","","","","","",""
"psychophysics","211","460433","0.0-16.0-0.13","631604308dac2909a887e171","636d03e66a32c7f65a0397df","636d1ecab7bf3713485e6755","null","","","","null","","","","key","16.665898305084752","960","484.5","","","","","","","","","","","","","","","","","","","",""
"psychophysics","212","460940","0.0-16.0-1.13","631604308dac2909a887e171","636d03e66a32c7f65a0397df","636d1ecab7bf3713485e6755","null","","","","null","","","","key","16.66626666666513","960","484.5","","","","","","","","","","","","","136","-1","4","false","","","",""
"psychophysics","213","461318","0.0-16.0-2.13","631604308dac2909a887e171","636d03e66a32c7f65a0397df","636d1ecab7bf3713485e6755","375.09999999962747","","","","77","","","","key","16.66795454545486","960","484.5","","","","","","","","","","","","","","","","","","","",""
"psychophysics","214","462324","0.0-16.0-0.14","631604308dac2909a887e171","636d03e66a32c7f65a0397df","636d1ecab7bf3713485e6755","null","","","","null","","","","key","16.666016949152265","960","484.5","","","","","","","","","","","","","","","","","","","",""
"psychophysics","215","462829","0.0-16.0-1.14","631604308dac2909a887e171","636d03e66a32c7f65a0397df","636d1ecab7bf3713485e6755","null","","","","null","","","","key","16.66634482758698","960","484.5","","","","","","","","","","","","","136","-1","0","false","","","",""
"psychophysics","216","463349","0.0-16.0-2.14","631604308dac2909a887e171","636d03e66a32c7f65a0397df","636d1ecab7bf3713485e6755","518.4000000003725","","","","90","","","","key","16.666233333332155","960","484.5","","","","","","","","","","","","","","","","","","","",""
"psychophysics","217","464351","0.0-16.0-0.15","631604308dac2909a887e171","636d03e66a32c7f65a0397df","636d1ecab7bf3713485e6755","null","","","","null","","","","key","16.666316666666535","960","484.5","","","","","","","","","","","","","","","","","","","",""
"psychophysics","218","464860","0.0-16.0-1.15","631604308dac2909a887e171","636d03e66a32c7f65a0397df","636d1ecab7bf3713485e6755","null","","","","null","","","","key","16.666000000000448","960","484.5","","","","","","","","","","","","","136","-1","2","false","","","",""
"psychophysics","219","465269","0.0-16.0-2.15","631604308dac2909a887e171","636d03e66a32c7f65a0397df","636d1ecab7bf3713485e6755","406.80000000074506","","","","90","","","","key","16.66558333333281","960","484.5","","","","","","","","","","","","","","","","","","","",""
"psychophysics","220","466277","0.0-16.0-0.16","631604308dac2909a887e171","636d03e66a32c7f65a0397df","636d1ecab7bf3713485e6755","null","","","","null","","","","key","16.66550847457651","960","484.5","","","","","","","","","","","","","","","","","","","",""
"psychophysics","221","466780","0.0-16.0-1.16","631604308dac2909a887e171","636d03e66a32c7f65a0397df","636d1ecab7bf3713485e6755","null","","","","null","","","","key","16.66641379310348","960","484.5","","","","","","","","","","","","","136","-1","3","false","","","",""
"psychophysics","222","467213","0.0-16.0-2.16","631604308dac2909a887e171","636d03e66a32c7f65a0397df","636d1ecab7bf3713485e6755","430.30000000074506","","","","77","","","","key","16.66652000000002","960","484.5","","","","","","","","","","","","","","","","","","","",""
"psychophysics","223","468216","0.0-16.0-0.17","631604308dac2909a887e171","636d03e66a32c7f65a0397df","636d1ecab7bf3713485e6755","null","","","","null","","","","key","16.666152542373126","960","484.5","","","","","","","","","","","","","","","","","","","",""
"psychophysics","224","468724","0.0-16.0-1.17","631604308dac2909a887e171","636d03e66a32c7f65a0397df","636d1ecab7bf3713485e6755","null","","","","null","","","","key","16.665566666666805","960","484.5","","","","","","","","","","","","","136","1","2","false","","","",""
"psychophysics","225","469173","0.0-16.0-2.17","631604308dac2909a887e171","636d03e66a32c7f65a0397df","636d1ecab7bf3713485e6755","447.6000000014901","","","","90","","","","key","16.666269230768265","960","484.5","","","","","","","","","","","","","","","","","","","",""
"psychophysics","226","470180","0.0-16.0-0.18","631604308dac2909a887e171","636d03e66a32c7f65a0397df","636d1ecab7bf3713485e6755","null","","","","null","","","","key","16.66620338983021","960","484.5","","","","","","","","","","","","","","","","","","","",""
"psychophysics","227","470683","0.0-16.0-1.18","631604308dac2909a887e171","636d03e66a32c7f65a0397df","636d1ecab7bf3713485e6755","null","","","","null","","","","key","16.665896551725695","960","484.5","","","","","","","","","","","","","136","-1","6","false","","","",""
"psychophysics","228","471165","0.0-16.0-2.18","631604308dac2909a887e171","636d03e66a32c7f65a0397df","636d1ecab7bf3713485e6755","470.09999999962747","","","","77","","","","key","16.66671428571447","960","484.5","","","","","","","","","","","","","","","","","","","",""
"psychophysics","229","472167","0.0-16.0-0.19","631604308dac2909a887e171","636d03e66a32c7f65a0397df","636d1ecab7bf3713485e6755","null","","","","null","","","","key","16.6650833333338","960","484.5","","","","","","","","","","","","","","","","","","","",""
"psychophysics","230","472677","0.0-16.0-1.19","631604308dac2909a887e171","636d03e66a32c7f65a0397df","636d1ecab7bf3713485e6755","null","","","","null","","","","key","16.666206896551966","960","484.5","","","","","","","","","","","","","136","-1","5","false","","","",""
"psychophysics","231","473629","0.0-16.0-2.19","631604308dac2909a887e171","636d03e66a32c7f65a0397df","636d1ecab7bf3713485e6755","950.5","","","","77","","","","key","16.666232142857293","960","484.5","","","","","","","","","","","","","","","","","","","",""
"psychophysics","232","474633","0.0-16.0-0.20","631604308dac2909a887e171","636d03e66a32c7f65a0397df","636d1ecab7bf3713485e6755","null","","","","null","","","","key","16.666169491525487","960","484.5","","","","","","","","","","","","","","","","","","","",""
"psychophysics","233","475140","0.0-16.0-1.20","631604308dac2909a887e171","636d03e66a32c7f65a0397df","636d1ecab7bf3713485e6755","null","","","","null","","","","key","16.666866666666465","960","484.5","","","","","","","","","","","","","136","1","0","false","","","",""
"psychophysics","234","475589","0.0-16.0-2.20","631604308dac2909a887e171","636d03e66a32c7f65a0397df","636d1ecab7bf3713485e6755","446.7999999988824","","","","90","","","","key","16.6663461538466","960","484.5","","","","","","","","","","","","","","","","","","","",""
"psychophysics","235","476596","0.0-16.0-0.21","631604308dac2909a887e171","636d03e66a32c7f65a0397df","636d1ecab7bf3713485e6755","null","","","","null","","","","key","16.66630508474536","960","484.5","","","","","","","","","","","","","","","","","","","",""
"psychophysics","236","477099","0.0-16.0-1.21","631604308dac2909a887e171","636d03e66a32c7f65a0397df","636d1ecab7bf3713485e6755","null","","","","null","","","","key","16.665793103448934","960","484.5","","","","","","","","","","","","","136","1","3","false","","","",""
"psychophysics","237","477924","0.0-16.0-2.21","631604308dac2909a887e171","636d03e66a32c7f65a0397df","636d1ecab7bf3713485e6755","821","","","","77","","","","key","16.66628571428544","960","484.5","","","","","","","","","","","","","","","","","","","",""
"psychophysics","238","478933","0.0-16.0-0.22","631604308dac2909a887e171","636d03e66a32c7f65a0397df","636d1ecab7bf3713485e6755","null","","","","null","","","","key","16.666372881356775","960","484.5","","","","","","","","","","","","","","","","","","","",""
"psychophysics","239","479435","0.0-16.0-1.22","631604308dac2909a887e171","636d03e66a32c7f65a0397df","636d1ecab7bf3713485e6755","null","","","","null","","","","key","16.666566666665798","960","484.5","","","","","","","","","","","","","136","1","4","false","","","",""
"psychophysics","240","480597","0.0-16.0-2.22","631604308dac2909a887e171","636d03e66a32c7f65a0397df","636d1ecab7bf3713485e6755","1159.5","","","","77","","","","key","16.666529411764177","960","484.5","","","","","","","","","","","","","","","","","","","",""
"psychophysics","241","481600","0.0-16.0-0.23","631604308dac2909a887e171","636d03e66a32c7f65a0397df","636d1ecab7bf3713485e6755","null","","","","null","","","","key","16.665898305084752","960","484.5","","","","","","","","","","","","","","","","","","","",""
"psychophysics","242","482109","0.0-16.0-1.23","631604308dac2909a887e171","636d03e66a32c7f65a0397df","636d1ecab7bf3713485e6755","null","","","","null","","","","key","16.666300000000046","960","484.5","","","","","","","","","","","","","136","1","6","false","","","",""
"psychophysics","243","482477","0.0-16.0-2.23","631604308dac2909a887e171","636d03e66a32c7f65a0397df","636d1ecab7bf3713485e6755","366.2000000011176","","","","77","","","","key","16.66561904761918","960","484.5","","","","","","","","","","","","","","","","","","","",""
"html-keyboard-response","244","485574","0.0-17.0","631604308dac2909a887e171","636d03e66a32c7f65a0397df","636d1ecab7bf3713485e6755","3094.89999999851","<p>Well Done !</p><p>Training Complete. Press the spacebar to start.</p><p>DON'T EXIT THE FULL SCREEN MODE</p>","","","32","","","","","","","","","","","","","","","","","","","","","","","","","","",""
"psychophysics","245","488588","0.0-18.0-0.0","631604308dac2909a887e171","636d03e66a32c7f65a0397df","636d1ecab7bf3713485e6755","null","","","","null","","","","key","16.66783333333345","960","484.5","","","","","","","","","","","","","","","","","","","",""
"psychophysics","246","489100","0.0-18.0-1.0","631604308dac2909a887e171","636d03e66a32c7f65a0397df","636d1ecab7bf3713485e6755","null","","","","null","","","","key","16.66565517241392","960","484.5","","","","","","","","","","","","","136","-1","4","true","","","",""
"psychophysics","247","489669","0.0-18.0-2.0","631604308dac2909a887e171","636d03e66a32c7f65a0397df","636d1ecab7bf3713485e6755","565.8000000007451","","","","77","","","","key","16.66617647058892","960","484.5","","","","","","","","","","","","","","","","","","","",""
"psychophysics","248","490676","0.0-18.0-0.1","631604308dac2909a887e171","636d03e66a32c7f65a0397df","636d1ecab7bf3713485e6755","null","","","","null","","","","key","16.665949152542822","960","484.5","","","","","","","","","","","","","","","","","","","",""
"psychophysics","249","491181","0.0-18.0-1.1","631604308dac2909a887e171","636d03e66a32c7f65a0397df","636d1ecab7bf3713485e6755","null","","","","null","","","","key","16.666551724136486","960","484.5","","","","","","","","","","","","","136","-1","2","true","","","",""
"psychophysics","250","491549","0.0-18.0-2.1","631604308dac2909a887e171","636d03e66a32c7f65a0397df","636d1ecab7bf3713485e6755","365.90000000037253","","","","90","","","","key","16.66580952381039","960","484.5","","","","","","","","","","","","","","","","","","","",""
"psychophysics","251","492551","0.0-18.0-0.2","631604308dac2909a887e171","636d03e66a32c7f65a0397df","636d1ecab7bf3713485e6755","null","","","","null","","","","key","16.66553333333383","960","484.5","","","","","","","","","","","","","","","","","","","",""
"psychophysics","252","493060","0.0-18.0-1.2","631604308dac2909a887e171","636d03e66a32c7f65a0397df","636d1ecab7bf3713485e6755","null","","","","null","","","","key","16.666000000000448","960","484.5","","","","","","","","","","","","","136","1","4","true","","","",""
"psychophysics","253","493486","0.0-18.0-2.2","631604308dac2909a887e171","636d03e66a32c7f65a0397df","636d1ecab7bf3713485e6755","422.80000000074506","","","","77","","","","key","16.666359999999404","960","484.5","","","","","","","","","","","","","","","","","","","",""
"psychophysics","254","494492","0.0-18.0-0.3","631604308dac2909a887e171","636d03e66a32c7f65a0397df","636d1ecab7bf3713485e6755","null","","","","null","","","","key","16.6664067796615","960","484.5","","","","","","","","","","","","","","","","","","","",""
"psychophysics","255","494997","0.0-18.0-1.3","631604308dac2909a887e171","636d03e66a32c7f65a0397df","636d1ecab7bf3713485e6755","null","","","","null","","","","key","16.667517241379567","960","484.5","","","","","","","","","","","","","136","-1","0","true","","","",""
"psychophysics","256","495389","0.0-18.0-2.3","631604308dac2909a887e171","636d03e66a32c7f65a0397df","636d1ecab7bf3713485e6755","390.2000000011176","","","","77","","","","key","16.666347826086998","960","484.5","","","","","","","","","","","","","","","","","","","",""
"psychophysics","257","496396","0.0-18.0-0.4","631604308dac2909a887e171","636d03e66a32c7f65a0397df","636d1ecab7bf3713485e6755","null","","","","null","","","","key","16.66615254237214","960","484.5","","","","","","","","","","","","","","","","","","","",""
"psychophysics","258","496900","0.0-18.0-1.4","631604308dac2909a887e171","636d03e66a32c7f65a0397df","636d1ecab7bf3713485e6755","null","","","","null","","","","key","16.666241379310215","960","484.5","","","","","","","","","","","","","136","-1","5","true","","","",""
"psychophysics","259","497574","0.0-18.0-2.4","631604308dac2909a887e171","636d03e66a32c7f65a0397df","636d1ecab7bf3713485e6755","670","","","","77","","","","key","16.666300000000046","960","484.5","","","","","","","","","","","","","","","","","","","",""
"psychophysics","260","498581","0.0-18.0-0.5","631604308dac2909a887e171","636d03e66a32c7f65a0397df","636d1ecab7bf3713485e6755","null","","","","null","","","","key","16.666050847456987","960","484.5","","","","","","","","","","","","","","","","","","","",""
"psychophysics","261","499083","0.0-18.0-1.5","631604308dac2909a887e171","636d03e66a32c7f65a0397df","636d1ecab7bf3713485e6755","null","","","","null","","","","key","16.66424137930956","960","484.5","","","","","","","","","","","","","136","1","5","true","","","",""
"psychophysics","262","499557","0.0-18.0-2.5","631604308dac2909a887e171","636d03e66a32c7f65a0397df","636d1ecab7bf3713485e6755","464.2000000011176","","","","77","","","","key","16.666535714285732","960","484.5","","","","","","","","","","","","","","","","","","","",""
"psychophysics","263","500565","0.0-18.0-0.6","631604308dac2909a887e171","636d03e66a32c7f65a0397df","636d1ecab7bf3713485e6755","null","","","","null","","","","key","16.666152542373126","960","484.5","","","","","","","","","","","","","","","","","","","",""
"psychophysics","264","501067","0.0-18.0-1.6","631604308dac2909a887e171","636d03e66a32c7f65a0397df","636d1ecab7bf3713485e6755","null","","","","null","","","","key","16.666233333334095","960","484.5","","","","","","","","","","","","","136","-1","6","true","","","",""
"psychophysics","265","501437","0.0-18.0-2.6","631604308dac2909a887e171","636d03e66a32c7f65a0397df","636d1ecab7bf3713485e6755","367.30000000074506","","","","77","","","","key","16.66628571428425","960","484.5","","","","","","","","","","","","","","","","","","","",""
"psychophysics","266","502444","0.0-18.0-0.7","631604308dac2909a887e171","636d03e66a32c7f65a0397df","636d1ecab7bf3713485e6755","null","","","","null","","","","key","16.666101694915056","960","484.5","","","","","","","","","","","","","","","","","","","",""
"psychophysics","267","502949","0.0-18.0-1.7","631604308dac2909a887e171","636d03e66a32c7f65a0397df","636d1ecab7bf3713485e6755","null","","","","null","","","","key","16.666551724138493","960","484.5","","","","","","","","","","","","","136","-1","3","true","","","",""
"psychophysics","268","503437","0.0-18.0-2.7","631604308dac2909a887e171","636d03e66a32c7f65a0397df","636d1ecab7bf3713485e6755","486.6000000014901","","","","77","","","","key","16.666586206896746","960","484.5","","","","","","","","","","","","","","","","","","","",""
"psychophysics","269","504444","0.0-18.0-0.8","631604308dac2909a887e171","636d03e66a32c7f65a0397df","636d1ecab7bf3713485e6755","null","","","","null","","","","key","16.66632203389871","960","484.5","","","","","","","","","","","","","","","","","","","",""
"psychophysics","270","504948","0.0-18.0-1.8","631604308dac2909a887e171","636d03e66a32c7f65a0397df","636d1ecab7bf3713485e6755","null","","","","null","","","","key","16.666000000000448","960","484.5","","","","","","","","","","","","","136","1","2","true","","","",""
"psychophysics","271","505333","0.0-18.0-2.8","631604308dac2909a887e171","636d03e66a32c7f65a0397df","636d1ecab7bf3713485e6755","383.2000000011176","","","","90","","","","key","16.667090909089893","960","484.5","","","","","","","","","","","","","","","","","","","",""
"psychophysics","272","506340","0.0-18.0-0.9","631604308dac2909a887e171","636d03e66a32c7f65a0397df","636d1ecab7bf3713485e6755","null","","","","null","","","","key","16.665733333333627","960","484.5","","","","","","","","","","","","","","","","","","","",""
"psychophysics","273","506844","0.0-18.0-1.9","631604308dac2909a887e171","636d03e66a32c7f65a0397df","636d1ecab7bf3713485e6755","null","","","","null","","","","key","16.66644827586374","960","484.5","","","","","","","","","","","","","136","1","0","true","","","",""
"psychophysics","274","507261","0.0-18.0-2.9","631604308dac2909a887e171","636d03e66a32c7f65a0397df","636d1ecab7bf3713485e6755","415.1000000014901","","","","90","","","","key","16.66629166666583","960","484.5","","","","","","","","","","","","","","","","","","","",""
"psychophysics","275","508266","0.0-18.0-0.10","631604308dac2909a887e171","636d03e66a32c7f65a0397df","636d1ecab7bf3713485e6755","null","","","","null","","","","key","16.66662711864416","960","484.5","","","","","","","","","","","","","","","","","","","",""
"psychophysics","276","508773","0.0-18.0-1.10","631604308dac2909a887e171","636d03e66a32c7f65a0397df","636d1ecab7bf3713485e6755","null","","","","null","","","","key","16.66690000000138","960","484.5","","","","","","","","","","","","","136","1","6","true","","","",""
"psychophysics","277","509062","0.0-18.0-2.10","631604308dac2909a887e171","636d03e66a32c7f65a0397df","636d1ecab7bf3713485e6755","287","","","","77","","","","key","16.668000000001484","960","484.5","","","","","","","","","","","","","","","","","","","",""
"psychophysics","278","510066","0.0-18.0-0.11","631604308dac2909a887e171","636d03e66a32c7f65a0397df","636d1ecab7bf3713485e6755","null","","","","null","","","","key","16.666457627118582","960","484.5","","","","","","","","","","","","","","","","","","","",""
"psychophysics","279","510572","0.0-18.0-1.11","631604308dac2909a887e171","636d03e66a32c7f65a0397df","636d1ecab7bf3713485e6755","null","","","","null","","","","key","16.666933333332416","960","484.5","","","","","","","","","","","","","136","1","3","true","","","",""
"psychophysics","280","510949","0.0-18.0-2.11","631604308dac2909a887e171","636d03e66a32c7f65a0397df","636d1ecab7bf3713485e6755","375.1000000014901","","","","77","","","","key","16.66638095238124","960","484.5","","","","","","","","","","","","","","","","","","","",""
"psychophysics","281","511951","0.0-18.0-0.12","631604308dac2909a887e171","636d03e66a32c7f65a0397df","636d1ecab7bf3713485e6755","null","","","","null","","","","key","16.665850000000017","960","484.5","","","","","","","","","","","","","","","","","","","",""
"psychophysics","282","512461","0.0-18.0-1.12","631604308dac2909a887e171","636d03e66a32c7f65a0397df","636d1ecab7bf3713485e6755","null","","","","null","","","","key","16.666137931033454","960","484.5","","","","","","","","","","","","","136","1","4","true","","","",""
"psychophysics","283","512893","0.0-18.0-2.12","631604308dac2909a887e171","636d03e66a32c7f65a0397df","636d1ecab7bf3713485e6755","430.6000000014901","","","","77","","","","key","16.66659999999916","960","484.5","","","","","","","","","","","","","","","","","","","",""
"psychophysics","284","513900","0.0-18.0-0.13","631604308dac2909a887e171","636d03e66a32c7f65a0397df","636d1ecab7bf3713485e6755","null","","","","null","","","","key","16.66638983050815","960","484.5","","","","","","","","","","","","","","","","","","","",""
"psychophysics","285","514405","0.0-18.0-1.13","631604308dac2909a887e171","636d03e66a32c7f65a0397df","636d1ecab7bf3713485e6755","null","","","","null","","","","key","16.66643333333389","960","484.5","","","","","","","","","","","","","136","-1","2","true","","","",""
"psychophysics","286","514637","0.0-18.0-2.13","631604308dac2909a887e171","636d03e66a32c7f65a0397df","636d1ecab7bf3713485e6755","230.5","","","","90","","","","key","16.66769230769177","960","484.5","","","","","","","","","","","","","","","","","","","",""
"psychophysics","287","515644","0.0-18.0-0.14","631604308dac2909a887e171","636d03e66a32c7f65a0397df","636d1ecab7bf3713485e6755","null","","","","null","","","","key","16.666101694915056","960","484.5","","","","","","","","","","","","","","","","","","","",""
"psychophysics","288","516148","0.0-18.0-1.14","631604308dac2909a887e171","636d03e66a32c7f65a0397df","636d1ecab7bf3713485e6755","null","","","","null","","","","key","16.66548275862066","960","484.5","","","","","","","","","","","","","136","-1","0","true","","","",""
"psychophysics","289","516518","0.0-18.0-2.14","631604308dac2909a887e171","636d03e66a32c7f65a0397df","636d1ecab7bf3713485e6755","367.19999999925494","","","","77","","","","key","16.666227272727568","960","484.5","","","","","","","","","","","","","","","","","","","",""
"psychophysics","290","517525","0.0-18.0-0.15","631604308dac2909a887e171","636d03e66a32c7f65a0397df","636d1ecab7bf3713485e6755","null","","","","null","","","","key","16.666186440677848","960","484.5","","","","","","","","","","","","","","","","","","","",""
"psychophysics","291","518029","0.0-18.0-1.15","631604308dac2909a887e171","636d03e66a32c7f65a0397df","636d1ecab7bf3713485e6755","null","","","","null","","","","key","16.6659655172422","960","484.5","","","","","","","","","","","","","136","1","6","true","","","",""
"psychophysics","292","518389","0.0-18.0-2.15","631604308dac2909a887e171","636d03e66a32c7f65a0397df","636d1ecab7bf3713485e6755","358.59999999962747","","","","77","","","","key","16.66619047619003","960","484.5","","","","","","","","","","","","","","","","","","","",""
"psychophysics","293","519396","0.0-18.0-0.16","631604308dac2909a887e171","636d03e66a32c7f65a0397df","636d1ecab7bf3713485e6755","null","","","","null","","","","key","16.66627118644064","960","484.5","","","","","","","","","","","","","","","","","","","",""
"psychophysics","294","519900","0.0-18.0-1.16","631604308dac2909a887e171","636d03e66a32c7f65a0397df","636d1ecab7bf3713485e6755","null","","","","null","","","","key","16.666275862070474","960","484.5","","","","","","","","","","","","","136","-1","6","true","","","",""
"psychophysics","295","520262","0.0-18.0-2.16","631604308dac2909a887e171","636d03e66a32c7f65a0397df","636d1ecab7bf3713485e6755","358.09999999962747","","","","77","","","","key","16.666380952378468","960","484.5","","","","","","","","","","","","","","","","","","","",""
"psychophysics","296","521266","0.0-18.0-0.17","631604308dac2909a887e171","636d03e66a32c7f65a0397df","636d1ecab7bf3713485e6755","null","","","","null","","","","key","16.665271186441483","960","484.5","","","","","","","","","","","","","","","","","","","",""
"psychophysics","297","521773","0.0-18.0-1.17","631604308dac2909a887e171","636d03e66a32c7f65a0397df","636d1ecab7bf3713485e6755","null","","","","null","","","","key","16.66633333333302","960","484.5","","","","","","","","","","","","","136","-1","4","true","","","",""
"psychophysics","298","522150","0.0-18.0-2.17","631604308dac2909a887e171","636d03e66a32c7f65a0397df","636d1ecab7bf3713485e6755","374.90000000037253","","","","77","","","","key","16.666380952384014","960","484.5","","","","","","","","","","","","","","","","","","","",""
"psychophysics","299","523151","0.0-18.0-0.18","631604308dac2909a887e171","636d03e66a32c7f65a0397df","636d1ecab7bf3713485e6755","null","","","","null","","","","key","16.66580000000152","960","484.5","","","","","","","","","","","","","","","","","","","",""
"psychophysics","300","523661","0.0-18.0-1.18","631604308dac2909a887e171","636d03e66a32c7f65a0397df","636d1ecab7bf3713485e6755","null","","","","null","","","","key","16.666379310347235","960","484.5","","","","","","","","","","","","","136","1","5","true","","","",""
"psychophysics","301","523989","0.0-18.0-2.18","631604308dac2909a887e171","636d03e66a32c7f65a0397df","636d1ecab7bf3713485e6755","326.40000000037253","","","","77","","","","key","16.666578947370382","960","484.5","","","","","","","","","","","","","","","","","","","",""
"psychophysics","302","524997","0.0-18.0-0.19","631604308dac2909a887e171","636d03e66a32c7f65a0397df","636d1ecab7bf3713485e6755","null","","","","null","","","","key","16.66620338983021","960","484.5","","","","","","","","","","","","","","","","","","","",""
"psychophysics","303","525500","0.0-18.0-1.19","631604308dac2909a887e171","636d03e66a32c7f65a0397df","636d1ecab7bf3713485e6755","null","","","","null","","","","key","16.665827586207186","960","484.5","","","","","","","","","","","","","136","1","0","true","","","",""
"psychophysics","304","525829","0.0-18.0-2.19","631604308dac2909a887e171","636d03e66a32c7f65a0397df","636d1ecab7bf3713485e6755","326.2000000011176","","","","77","","","","key","16.665684210522542","960","484.5","","","","","","","","","","","","","","","","","","","",""
"psychophysics","305","526833","0.0-18.0-0.20","631604308dac2909a887e171","636d03e66a32c7f65a0397df","636d1ecab7bf3713485e6755","null","","","","null","","","","key","16.66667796610223","960","484.5","","","","","","","","","","","","","","","","","","","",""
"psychophysics","306","527341","0.0-18.0-1.20","631604308dac2909a887e171","636d03e66a32c7f65a0397df","636d1ecab7bf3713485e6755","null","","","","null","","","","key","16.6661666666662","960","484.5","","","","","","","","","","","","","136","-1","3","true","","","",""
"psychophysics","307","527757","0.0-18.0-2.20","631604308dac2909a887e171","636d03e66a32c7f65a0397df","636d1ecab7bf3713485e6755","414.40000000037253","","","","90","","","","key","16.66654166667043","960","484.5","","","","","","","","","","","","","","","","","","","",""
"psychophysics","308","528764","0.0-18.0-0.21","631604308dac2909a887e171","636d03e66a32c7f65a0397df","636d1ecab7bf3713485e6755","null","","","","null","","","","key","16.666220338983557","960","484.5","","","","","","","","","","","","","","","","","","","",""
"psychophysics","309","529266","0.0-18.0-1.21","631604308dac2909a887e171","636d03e66a32c7f65a0397df","636d1ecab7bf3713485e6755","null","","","","null","","","","key","16.665034482757367","960","484.5","","","","","","","","","","","","","136","1","2","true","","","",""
"psychophysics","310","529629","0.0-18.0-2.21","631604308dac2909a887e171","636d03e66a32c7f65a0397df","636d1ecab7bf3713485e6755","353.2000000011176","","","","90","","","","key","16.665761904757737","960","484.5","","","","","","","","","","","","","","","","","","","",""
"psychophysics","311","530633","0.0-18.0-0.22","631604308dac2909a887e171","636d03e66a32c7f65a0397df","636d1ecab7bf3713485e6755","null","","","","null","","","","key","16.666118644069392","960","484.5","","","","","","","","","","","","","","","","","","","",""
"psychophysics","312","531141","0.0-18.0-1.22","631604308dac2909a887e171","636d03e66a32c7f65a0397df","636d1ecab7bf3713485e6755","null","","","","null","","","","key","16.66633333333302","960","484.5","","","","","","","","","","","","","136","-1","5","true","","","",""
"psychophysics","313","531326","0.0-18.0-2.22","631604308dac2909a887e171","636d03e66a32c7f65a0397df","636d1ecab7bf3713485e6755","183","","","","77","","","","key","16.664300000004005","960","484.5","","","","","","","","","","","","","","","","","","","",""
"psychophysics","314","532332","0.0-18.0-0.23","631604308dac2909a887e171","636d03e66a32c7f65a0397df","636d1ecab7bf3713485e6755","null","","","","null","","","","key","16.66593220339046","960","484.5","","","","","","","","","","","","","","","","","","","",""
"psychophysics","315","532835","0.0-18.0-1.23","631604308dac2909a887e171","636d03e66a32c7f65a0397df","636d1ecab7bf3713485e6755","null","","","","null","","","","key","16.666666666666668","960","484.5","","","","","","","","","","","","","136","1","3","true","","","",""
"psychophysics","316","533997","0.0-18.0-2.23","631604308dac2909a887e171","636d03e66a32c7f65a0397df","636d1ecab7bf3713485e6755","1160.800000000745","","","","77","","","","key","16.666485294117592","960","484.5","","","","","","","","","","","","","","","","","","","",""
"psychophysics","317","535000","0.0-18.0-0.24","631604308dac2909a887e171","636d03e66a32c7f65a0397df","636d1ecab7bf3713485e6755","null","","","","null","","","","key","16.66625423728828","960","484.5","","","","","","","","","","","","","","","","","","","",""
"psychophysics","318","535508","0.0-18.0-1.24","631604308dac2909a887e171","636d03e66a32c7f65a0397df","636d1ecab7bf3713485e6755","null","","","","null","","","","key","16.666233333332155","960","484.5","","","","","","","","","","","","","136","1","6","true","","","",""
"psychophysics","319","535877","0.0-18.0-2.24","631604308dac2909a887e171","636d03e66a32c7f65a0397df","636d1ecab7bf3713485e6755","367","","","","77","","","","key","16.666428571428348","960","484.5","","","","","","","","","","","","","","","","","","","",""
"psychophysics","320","536883","0.0-18.0-0.25","631604308dac2909a887e171","636d03e66a32c7f65a0397df","636d1ecab7bf3713485e6755","null","","","","null","","","","key","16.66650847457665","960","484.5","","","","","","","","","","","","","","","","","","","",""
"psychophysics","321","537389","0.0-18.0-1.25","631604308dac2909a887e171","636d03e66a32c7f65a0397df","636d1ecab7bf3713485e6755","null","","","","null","","","","key","16.665433333336843","960","484.5","","","","","","","","","","","","","136","-1","6","true","","","",""
"psychophysics","322","537845","0.0-18.0-2.25","631604308dac2909a887e171","636d03e66a32c7f65a0397df","636d1ecab7bf3713485e6755","454.90000000037253","","","","90","","","","key","16.666423076920463","960","484.5","","","","","","","","","","","","","","","","","","","",""
"psychophysics","323","538850","0.0-18.0-0.26","631604308dac2909a887e171","636d03e66a32c7f65a0397df","636d1ecab7bf3713485e6755","null","","","","null","","","","key","16.665491525425132","960","484.5","","","","","","","","","","","","","","","","","","","",""
"psychophysics","324","539357","0.0-18.0-1.26","631604308dac2909a887e171","636d03e66a32c7f65a0397df","636d1ecab7bf3713485e6755","null","","","","null","","","","key","16.66636666666794","960","484.5","","","","","","","","","","","","","136","1","0","true","","","",""
"psychophysics","325","539702","0.0-18.0-2.26","631604308dac2909a887e171","636d03e66a32c7f65a0397df","636d1ecab7bf3713485e6755","342.5","","","","90","","","","key","16.66699999999837","960","484.5","","","","","","","","","","","","","","","","","","","",""
"psychophysics","326","540708","0.0-18.0-0.27","631604308dac2909a887e171","636d03e66a32c7f65a0397df","636d1ecab7bf3713485e6755","null","","","","null","","","","key","16.66672881355833","960","484.5","","","","","","","","","","","","","","","","","","","",""
"psychophysics","327","541212","0.0-18.0-1.27","631604308dac2909a887e171","636d03e66a32c7f65a0397df","636d1ecab7bf3713485e6755","null","","","","null","","","","key","16.66641379310348","960","484.5","","","","","","","","","","","","","136","-1","5","true","","","",""
"psychophysics","328","541645","0.0-18.0-2.27","631604308dac2909a887e171","636d03e66a32c7f65a0397df","636d1ecab7bf3713485e6755","431.19999999925494","","","","77","","","","key","16.66647999999579","960","484.5","","","","","","","","","","","","","","","","","","","",""
"psychophysics","329","542649","0.0-18.0-0.28","631604308dac2909a887e171","636d03e66a32c7f65a0397df","636d1ecab7bf3713485e6755","null","","","","null","","","","key","16.66628813559497","960","484.5","","","","","","","","","","","","","","","","","","","",""
"psychophysics","330","543156","0.0-18.0-1.28","631604308dac2909a887e171","636d03e66a32c7f65a0397df","636d1ecab7bf3713485e6755","null","","","","null","","","","key","16.6661666666662","960","484.5","","","","","","","","","","","","","136","1","2","true","","","",""
