"trial_type","trial_index","time_elapsed","internal_node_id","PROLIFIC_PID","STUDY_ID","SESSION_ID","rt","stimulus","button_pressed","success","key_press","responses","isData","view_history","response_type","avg_frame_time","center_x","center_y","isSC","stim_side","trial_luminance","step_size","nReversal","correct","prev_ans","isThreshold","SC_threshold","final_threshold","isLuminance","FF_luminance","luminance","stimSide","ISInt","isFF","question_order","isSPQ","isCAPS","isAQ"
"pavlovia","0","6","0.0-0.0","5c519ec789254700019f7934","636dff3392645181d3c238a1","636e029e857bb3c74c809921","","","","","","","","","","","","","","","","","","","","","","","","","","","","","","","",""
"html-button-response","1","37776","0.0-1.0","5c519ec789254700019f7934","636dff3392645181d3c238a1","636e029e857bb3c74c809921","37765.69999999995","<div style='background-color: white; width:60%; margin: auto; padding: 50px; text-align: justify; text-justify: inter-word; margin-bottom: 20px;'><h1 style='text-align: center;'>Consent Form</h1><p>Please read this consent form carefully before deciding whether you would like to participate in this study. You have to be 18 years old or older to participate to this study.</p><p style='text-decoration: underline;'>Participation is voluntary:</p><p>It is your choice whether or not to participate in this research. If you choose to participate, you may change your mind and leave the study at any time. Refusal to participate or stopping your participation will involve no penalty or loss of benefits to which you are otherwise entitled.</p><p style='text-decoration: underline;'>Purpose of the Study:</p><p>To understand the mechanisms underlying human perception.</p><p style='text-decoration: underline;'>What you will do in this study:</p><p>You will be presented with a series of visual images and then you will press buttons on the keyboard of your computer to respond to simple questions about the images (e.g. Were one or two images presented?). In addition, you will be asked to complete a questionnaire concerning your beliefs and everyday mental and perceptual experiences.'</p><p style='text-decoration: underline;'> Time Required:</p><p>The study will take 40 minutes to complete. </p><p style='text-decoration: underline;'>Risks:</p><p>There are no anticipated risks associated with participating in this study that are beyond those experienced in everyday life. </p><p style='text-decoration: underline;'>Benefits:</p><p>There are no benefits to you in participating in the study. However, this study may lead to a better understanding of how different kinds of visual information are used.</p><p style='text-decoration: underline;'>Compensation:</p><p>You will be paid US$6.6/hour. </p><p style='text-decoration: underline;'>Privacy and Confidentiality:</p><p>Your participation in this study will be anonymous. No personal information about your name or identity will be asked or recorded. This anonymous data will be stored for several years and may be used for a variety of research purposes. The overall results of the study may be published, or the data files may be shared with other researchers, but your identity will not be revealed in any way. The online services we are using for this study may temporarily store your data, but this data will be downloaded and then promptly deleted from those services.Your data will not be permanently associated with your name, IP address, or any other identifiable information (e.g., your information will only be connected to your payment, not to any of your responses), though they may be temporarily stored together before we download and separate them. Even so, no guarantee of internet survey security can be given because, although unlikely, transmissions can be intercepted and IP addresses can be identified. The anonymous data may be shared publicly (for example, in conjunction with a resulting academic publication).</p><p style='text-decoration: underline;'>Participation and Withdrawal:</p><p>Your participation in this study is completely voluntary. You may stop responding to the stimuli or stop answering questions if you so choose and without penalty by exiting the full screen mode, closing this tab of your browser or redirecting it to a different website.</p><p style='text-decoration: underline;'>Contact Info of the Researcher: </p><p>If you have questions about this study, or if you would like to talk to the research team, please contact David Melcher (david.melcher@nyu.edu, md5050@nyu.edu) at the Perception and Active Cognition Laboratory, New York University Abu Dhabi, Computational Research Building, Saadiyat Island, Abu Dhabi, UAE.This research has been reviewed by the New York University Abu Dhabi Institutional Review Board (NYUAD IRB). To contact about your rights in this research, for questions, suggestions, or complaints that are not addressed by the researchers, please email IRBnyuad@nyu.edu, or call the NYUAD IRB at +971 2 628 4313. </p></div>","0","","","","","","","","","","","","","","","","","","","","","","","","","","","","",""
"fullscreen","2","39708","0.0-2.0","5c519ec789254700019f7934","636dff3392645181d3c238a1","636e029e857bb3c74c809921","","","","true","","","","","","","","","","","","","","","","","","","","","","","","","","","",""
"html-keyboard-response","3","61672","0.0-3.0","5c519ec789254700019f7934","636dff3392645181d3c238a1","636e029e857bb3c74c809921","21960","<p>Welcome !</p><p>READ CAREFULLY THE FOLLOWING INDICATIONS:</p><p>From this moment you have ~40 minutes to complete the experiment.</p><p>During the experiment you will be prompted to take several breaks. Each break should not last longer than 2-3 minutes.</p><p>Make sure that your computer is plugged in and it's not running on battery power, even if the battery is already fully charged.</p><p>Turn off your phone and music, make sure that you are in a quiet room and that you will not be distracted for the next hour.</p><p>Failure to comply with the instructions and indications provided during the experiment will most likely result in the rejection of your data.<p>Press the spacebar to start.</p>","","","32","","","","","","","","","","","","","","","","","","","","","","","","","","",""
"survey-html-form","4","69375","0.0-4.0","5c519ec789254700019f7934","636dff3392645181d3c238a1","636e029e857bb3c74c809921","7700.300000000047","","","","","{""age"":""44"",""sex"":""F""}","true","","","","","","","","","","","","","","","","","","","","","","","","",""
"instructions","5","145338","0.0-5.0","5c519ec789254700019f7934","636dff3392645181d3c238a1","636e029e857bb3c74c809921","75960.70000000019","","","","","","","[{""page_index"":0,""viewing_time"":46094.60000000009},{""page_index"":1,""viewing_time"":19730.699999999953},{""page_index"":2,""viewing_time"":10134.600000000093}]","","","","","","","","","","","","","","","","","","","","","","","",""
"psychophysics","6","148260","0.0-6.0-0.0","5c519ec789254700019f7934","636dff3392645181d3c238a1","636e029e857bb3c74c809921","1911.2999999998137","","","","39","","","","key","16.762321839080627","604","265.5","true","-1","180","30","0","1","","","","","","","","","","","","","",""
"psychophysics","7","149480","0.0-6.0-0.1","5c519ec789254700019f7934","636dff3392645181d3c238a1","636e029e857bb3c74c809921","204.19999999995343","","","","39","","","","key","16.6688750000006","604","265.5","true","1","210","30","0","-1","1","","","","","","","","","","","","",""
"psychophysics","8","152818","0.0-6.0-0.2","5c519ec789254700019f7934","636dff3392645181d3c238a1","636e029e857bb3c74c809921","2322.899999999907","","","","39","","","","key","16.665959999999906","604","265.5","true","-1","210","24","1","1","-1","","","","","","","","","","","","",""
"psychophysics","9","156490","0.0-6.0-0.3","5c519ec789254700019f7934","636dff3392645181d3c238a1","636e029e857bb3c74c809921","2664.600000000093","","","","39","","","","key","16.666242009132183","604","265.5","true","1","234","24","1","-1","1","","","","","","","","","","","","",""
"psychophysics","10","157594","0.0-6.0-0.4","5c519ec789254700019f7934","636dff3392645181d3c238a1","636e029e857bb3c74c809921","98.89999999990687","","","","37","","","","key","16.6665846153843","604","265.5","true","-1","234","19.2","2","-1","-1","","","","","","","","","","","","",""
"psychophysics","11","158775","0.0-6.0-0.5","5c519ec789254700019f7934","636dff3392645181d3c238a1","636e029e857bb3c74c809921","176.60000000009313","","","","39","","","","key","16.665085714286292","604","265.5","true","1","214.8","19.2","2","-1","-1","","","","","","","","","","","","",""
"psychophysics","12","161523","0.0-6.0-0.6","5c519ec789254700019f7934","636dff3392645181d3c238a1","636e029e857bb3c74c809921","1745.2999999998137","","","","37","","","","key","16.666073170731558","604","265.5","true","1","214.8","15.36","3","1","-1","","","","","","","","","","","","",""
"psychophysics","13","165605","0.0-6.0-0.7","5c519ec789254700019f7934","636dff3392645181d3c238a1","636e029e857bb3c74c809921","3076.9000000001397","","","","37","","","","key","16.666286885245754","604","265.5","true","-1","230.16000000000003","15.36","3","-1","1","","","","","","","","","","","","",""
"psychophysics","14","166633","0.0-6.0-0.8","5c519ec789254700019f7934","636dff3392645181d3c238a1","636e029e857bb3c74c809921","22.399999999906868","","","","39","","","","key","16.666983606557164","604","265.5","true","1","230.16000000000003","12.287999999999998","4","-1","-1","","","","","","","","","","","","",""
"psychophysics","15","167992","0.0-6.0-0.9","5c519ec789254700019f7934","636dff3392645181d3c238a1","636e029e857bb3c74c809921","348.39999999990687","","","","37","","","","key","16.66637499999997","604","265.5","true","-1","217.872","12.287999999999998","4","-1","-1","","","","","","","","","","","","",""
"psychophysics","16","171566","0.0-6.0-0.10","5c519ec789254700019f7934","636dff3392645181d3c238a1","636e029e857bb3c74c809921","2567.399999999907","","","","37","","","","key","16.666976635514054","604","265.5","true","1","217.872","9.8304","5","1","-1","","","","","","","","","","","","",""
"psychophysics","17","173604","0.0-6.0-0.11","5c519ec789254700019f7934","636dff3392645181d3c238a1","636e029e857bb3c74c809921","1026.2999999998137","","","","37","","","","key","16.66649586776866","604","265.5","true","-1","227.7024","9.8304","5","-1","1","","","","","","","","","","","","",""
"psychophysics","18","176720","0.0-6.0-0.12","5c519ec789254700019f7934","636dff3392645181d3c238a1","636e029e857bb3c74c809921","2109.3000000000466","","","","37","","","","key","16.666102150537736","604","265.5","true","1","227.7024","7.864319999999999","6","1","-1","","","","","","","","","","","","",""
"psychophysics","19","179492","0.0-6.0-0.13","5c519ec789254700019f7934","636dff3392645181d3c238a1","636e029e857bb3c74c809921","1764.1999999999534","","","","37","","","","key","16.66523636363616","604","265.5","true","1","235.56672","7.864319999999999","6","1","1","","","","","","","","","","","","",""
"psychophysics","20","183084","0.0-6.0-0.14","5c519ec789254700019f7934","636dff3392645181d3c238a1","636e029e857bb3c74c809921","2584.6999999999534","","","","39","","","","key","16.667734883721042","604","265.5","true","1","243.43104","7.864319999999999","6","-1","1","","","","","","","","","","","","",""
"psychophysics","21","184102","0.0-6.0-0.15","5c519ec789254700019f7934","636dff3392645181d3c238a1","636e029e857bb3c74c809921","4.199999999953434","","","","39","","","","key","16.666033333333324","604","265.5","true","1","243.43104","6.291456","7","-1","-1","","","","","","","","","","","","",""
"psychophysics","22","185160","0.0-6.0-0.16","5c519ec789254700019f7934","636dff3392645181d3c238a1","636e029e857bb3c74c809921","48.39999999990687","","","","37","","","","key","16.664225806451153","604","265.5","true","-1","237.13958399999999","6.291456","7","-1","-1","","","","","","","","","","","","",""
"psychophysics","23","188516","0.0-6.0-0.17","5c519ec789254700019f7934","636dff3392645181d3c238a1","636e029e857bb3c74c809921","2337.9000000001397","","","","37","","","","key","16.66726865671634","604","265.5","true","1","237.13958399999999","5.033164800000001","8","1","-1","","","","","","","","","","","","",""
"psychophysics","24","190850","0.0-6.0-0.18","5c519ec789254700019f7934","636dff3392645181d3c238a1","636e029e857bb3c74c809921","1321.5999999998603","","","","39","","","","key","16.66723741007183","604","265.5","true","1","242.1727488","5.033164800000001","8","-1","1","","","","","","","","","","","","",""
"psychophysics","25","193688","0.0-6.0-0.19","5c519ec789254700019f7934","636dff3392645181d3c238a1","636e029e857bb3c74c809921","1828.1000000000931","","","","39","","","","key","16.665893491124045","604","265.5","true","1","242.1727488","4.0265318400000005","9","-1","-1","","","","","","","","","","","","",""
"psychophysics","26","195957","0.0-6.0-0.20","5c519ec789254700019f7934","636dff3392645181d3c238a1","636e029e857bb3c74c809921","1266.5999999998603","","","","39","","","","key","16.666111111111025","604","265.5","true","1","238.14621696","4.0265318400000005","9","-1","-1","","","","","","","","","","","","",""
"psychophysics","27","198690","0.0-6.0-0.21","5c519ec789254700019f7934","636dff3392645181d3c238a1","636e029e857bb3c74c809921","1729.1000000000931","","","","39","","","","key","16.667877300613505","604","265.5","true","1","238.14621696","4.0265318400000005","9","-1","-1","","","","","","","","","","","","",""
"psychophysics","28","200937","0.0-6.0-0.22","5c519ec789254700019f7934","636dff3392645181d3c238a1","636e029e857bb3c74c809921","1243","","","","37","","","","key","16.668753731343372","604","265.5","true","-1","234.11968512","4.0265318400000005","9","-1","-1","","","","","","","","","","","","",""
"psychophysics","29","201950","0.0-6.0-0.23","5c519ec789254700019f7934","636dff3392645181d3c238a1","636e029e857bb3c74c809921","8.699999999953434","","","","39","","","","key","16.66755000000024","604","265.5","true","1","234.11968512","4.0265318400000005","9","-1","-1","","","","","","","","","","","","",""
"psychophysics","30","204110","0.0-6.0-0.24","5c519ec789254700019f7934","636dff3392645181d3c238a1","636e029e857bb3c74c809921","1153","","","","39","","","","key","16.665015624999796","604","265.5","true","1","230.09315328000002","4.0265318400000005","9","-1","-1","","","","","","","","","","","","",""
"psychophysics","31","206549","0.0-6.0-0.25","5c519ec789254700019f7934","636dff3392645181d3c238a1","636e029e857bb3c74c809921","1434","","","","37","","","","key","16.66601369863022","604","265.5","true","-1","230.09315328000002","4.0265318400000005","9","-1","-1","","","","","","","","","","","","",""
"psychophysics","32","208885","0.0-6.0-0.26","5c519ec789254700019f7934","636dff3392645181d3c238a1","636e029e857bb3c74c809921","1324.1000000000931","","","","37","","","","key","16.66520143884884","604","265.5","true","-1","226.06662144000003","4.0265318400000005","9","-1","-1","","","","","","","","","","","","",""
"psychophysics","33","210049","0.0-6.0-0.27","5c519ec789254700019f7934","636dff3392645181d3c238a1","636e029e857bb3c74c809921","156.60000000009313","","","","37","","","","key","16.671333333333124","604","265.5","true","-1","226.06662144000003","4.0265318400000005","9","-1","-1","","","","","","","","","","","","",""
"psychophysics","34","212631","0.0-6.0-0.28","5c519ec789254700019f7934","636dff3392645181d3c238a1","636e029e857bb3c74c809921","1571","","","","39","","","","key","16.665006493506635","604","265.5","true","-1","222.04008960000004","3.2212254720000004","10","1","-1","","","","","","","","","","","","",""
"psychophysics","35","214934","0.0-6.0-0.29","5c519ec789254700019f7934","636dff3392645181d3c238a1","636e029e857bb3c74c809921","1290.5","","","","39","","","","key","16.6707299270074","604","265.5","true","1","225.26131507200006","3.2212254720000004","10","-1","1","","","","","","","","","","","","",""
"psychophysics","36","215952","0.0-6.0-0.30","5c519ec789254700019f7934","636dff3392645181d3c238a1","636e029e857bb3c74c809921","8.200000000186265","","","","37","","","","key","16.665883333332992","604","265.5","true","-1","225.26131507200006","2.5769803776000004","11","-1","-1","","","","","","","","","","","","",""
"psychophysics","37","218434","0.0-6.0-0.31","5c519ec789254700019f7934","636dff3392645181d3c238a1","636e029e857bb3c74c809921","1472.5","","","","39","","","","key","16.66664864864858","604","265.5","true","-1","222.68433469440006","2.0615843020800004","12","1","-1","","","","","","","","","","","","",""
"psychophysics","38","221084","0.0-6.0-0.32","5c519ec789254700019f7934","636dff3392645181d3c238a1","636e029e857bb3c74c809921","1640.1999999999534","","","","37","","","","key","16.667012658227705","604","265.5","true","-1","224.74591899648007","2.0615843020800004","12","-1","1","","","","","","","","","","","","",""
"psychophysics","39","223291","0.0-6.0-0.33","5c519ec789254700019f7934","636dff3392645181d3c238a1","636e029e857bb3c74c809921","1196.8000000000466","","","","37","","","","key","16.667832061068513","604","265.5","true","-1","224.74591899648007","1.6492674416640005","13","-1","-1","","","","","","","","","","","","",""
"psychophysics","40","225616","0.0-6.0-0.34","5c519ec789254700019f7934","636dff3392645181d3c238a1","636e029e857bb3c74c809921","1319.3000000000466","","","","37","","","","key","16.66522302158284","604","265.5","true","-1","223.09665155481608","1.6492674416640005","13","-1","-1","","","","","","","","","","","","",""
"psychophysics","41","228169","0.0-6.0-0.35","5c519ec789254700019f7934","636dff3392645181d3c238a1","636e029e857bb3c74c809921","1542.0999999998603","","","","37","","","","key","16.667947368420993","604","265.5","true","-1","223.09665155481608","1.6492674416640005","13","-1","-1","","","","","","","","","","","","",""
"psychophysics","42","230204","0.0-6.0-0.36","5c519ec789254700019f7934","636dff3392645181d3c238a1","636e029e857bb3c74c809921","1027.1999999999534","","","","37","","","","key","16.666206611570527","604","265.5","true","1","221.44738411315208","1.3194139533312006","14","1","-1","","","","","","","","","","","","",""
"psychophysics","43","232479","0.0-6.0-0.37","5c519ec789254700019f7934","636dff3392645181d3c238a1","636e029e857bb3c74c809921","1269.3000000000466","","","","39","","","","key","16.664214814814773","604","265.5","true","1","222.7667980664833","1.3194139533312006","14","-1","1","","","","","","","","","","","","",""
"psychophysics","44","234721","0.0-6.0-0.38","5c519ec789254700019f7934","636dff3392645181d3c238a1","636e029e857bb3c74c809921","1227.5","","","","39","","","","key","16.66654477611926","604","265.5","true","-1","222.7667980664833","1.0555311626649604","15","1","-1","","","","","","","","","","","","",""
"psychophysics","45","235753","0.0-6.0-0.39","5c519ec789254700019f7934","636dff3392645181d3c238a1","636e029e857bb3c74c809921","25.300000000046566","","","","37","","","","key","16.666442622951628","604","265.5","true","-1","223.82232922914824","1.0555311626649604","15","-1","1","","","","","","","","","","","","",""
"html-keyboard-response","46","240430","0.0-7.0","5c519ec789254700019f7934","636dff3392645181d3c238a1","636e029e857bb3c74c809921","4675.300000000047","<p>Well Done !</p><p>Prepare for a new block.</p><p>DON'T EXIT THE FULL SCREEN MODE</p><p>Press the Spacebar to start.</p>","","","32","","","","","","","","","","","","","","","true","224.26412674508398","","","","","","","","","","",""
"psychophysics","47","242202","0.0-8.0-0.0","5c519ec789254700019f7934","636dff3392645181d3c238a1","636e029e857bb3c74c809921","764","","","","37","","","","key","16.685698113207625","604","265.5","true","-1","180","30","0","-1","","","","","","","","","","","","","",""
"psychophysics","48","244222","0.0-8.0-0.1","5c519ec789254700019f7934","636dff3392645181d3c238a1","636e029e857bb3c74c809921","1016.9000000001397","","","","37","","","","key","16.665949999999913","604","265.5","true","-1","180","30","0","-1","-1","","","","","","","","","","","","",""
"psychophysics","49","246284","0.0-8.0-0.2","5c519ec789254700019f7934","636dff3392645181d3c238a1","636e029e857bb3c74c809921","1057.6000000000931","","","","37","","","","key","16.66610569105724","604","265.5","true","-1","150","30","0","-1","-1","","","","","","","","","","","","",""
"psychophysics","50","248650","0.0-8.0-0.3","5c519ec789254700019f7934","636dff3392645181d3c238a1","636e029e857bb3c74c809921","1357.3999999999069","","","","39","","","","key","16.66495035461015","604","265.5","true","1","150","30","0","-1","-1","","","","","","","","","","","","",""
"psychophysics","51","250135","0.0-8.0-0.4","5c519ec789254700019f7934","636dff3392645181d3c238a1","636e029e857bb3c74c809921","482","","","","39","","","","key","16.669613636363383","604","265.5","true","-1","129","24","1","1","-1","","","","","","","","","","","","",""
"psychophysics","52","252261","0.0-8.0-0.5","5c519ec789254700019f7934","636dff3392645181d3c238a1","636e029e857bb3c74c809921","1120.3000000000466","","","","39","","","","key","16.665078740157682","604","265.5","true","1","153","24","1","-1","1","","","","","","","","","","","","",""
"psychophysics","53","254279","0.0-8.0-0.6","5c519ec789254700019f7934","636dff3392645181d3c238a1","636e029e857bb3c74c809921","1009.5","","","","39","","","","key","16.666166666666687","604","265.5","true","1","153","19.2","2","-1","-1","","","","","","","","","","","","",""
"psychophysics","54","256686","0.0-8.0-0.7","5c519ec789254700019f7934","636dff3392645181d3c238a1","636e029e857bb3c74c809921","1402.1000000000931","","","","37","","","","key","16.66330769230771","604","265.5","true","-1","133.8","19.2","2","-1","-1","","","","","","","","","","","","",""
"psychophysics","55","257906","0.0-8.0-0.8","5c519ec789254700019f7934","636dff3392645181d3c238a1","636e029e857bb3c74c809921","213.10000000009313","","","","39","","","","key","16.666152777777622","604","265.5","true","1","133.8","19.2","2","-1","-1","","","","","","","","","","","","",""
"psychophysics","56","259430","0.0-8.0-0.9","5c519ec789254700019f7934","636dff3392645181d3c238a1","636e029e857bb3c74c809921","521.8000000000466","","","","39","","","","key","16.66450549450519","604","265.5","true","1","129","19.2","2","-1","-1","","","","","","","","","","","","",""
"psychophysics","57","261401","0.0-8.0-0.10","5c519ec789254700019f7934","636dff3392645181d3c238a1","636e029e857bb3c74c809921","964.8999999999069","","","","39","","","","key","16.667094017093916","604","265.5","true","1","129","19.2","2","-1","-1","","","","","","","","","","","","",""
"psychophysics","58","262601","0.0-8.0-0.11","5c519ec789254700019f7934","636dff3392645181d3c238a1","636e029e857bb3c74c809921","196.5","","","","39","","","","key","16.668042253520877","604","265.5","true","1","129","19.2","2","-1","-1","","","","","","","","","","","","",""
"psychophysics","59","263779","0.0-8.0-0.12","5c519ec789254700019f7934","636dff3392645181d3c238a1","636e029e857bb3c74c809921","173.80000000004657","","","","39","","","","key","16.66482857142858","604","265.5","true","-1","129","15.36","3","1","-1","","","","","","","","","","","","",""
"psychophysics","60","264849","0.0-8.0-0.13","5c519ec789254700019f7934","636dff3392645181d3c238a1","636e029e857bb3c74c809921","60.5","","","","39","","","","key","16.664888888888527","604","265.5","true","1","144.36","15.36","3","-1","1","","","","","","","","","","","","",""
"psychophysics","61","267188","0.0-8.0-0.14","5c519ec789254700019f7934","636dff3392645181d3c238a1","636e029e857bb3c74c809921","1335.5999999998603","","","","37","","","","key","16.66600000000016","604","265.5","true","-1","144.36","12.287999999999998","4","-1","-1","","","","","","","","","","","","",""
"psychophysics","62","268917","0.0-8.0-0.15","5c519ec789254700019f7934","636dff3392645181d3c238a1","636e029e857bb3c74c809921","724.3999999999069","","","","37","","","","key","16.664815533980818","604","265.5","true","1","132.072","9.8304","5","1","-1","","","","","","","","","","","","",""
"psychophysics","63","271299","0.0-8.0-0.16","5c519ec789254700019f7934","636dff3392645181d3c238a1","636e029e857bb3c74c809921","1374.4000000001397","","","","37","","","","key","16.669091549295764","604","265.5","true","-1","141.9024","9.8304","5","-1","1","","","","","","","","","","","","",""
"psychophysics","64","272321","0.0-8.0-0.17","5c519ec789254700019f7934","636dff3392645181d3c238a1","636e029e857bb3c74c809921","11.899999999906868","","","","37","","","","key","16.662750000000234","604","265.5","true","-1","141.9024","7.864319999999999","6","-1","-1","","","","","","","","","","","","",""
"psychophysics","65","273572","0.0-8.0-0.18","5c519ec789254700019f7934","636dff3392645181d3c238a1","636e029e857bb3c74c809921","246.89999999990687","","","","39","","","","key","16.666891891892362","604","265.5","true","1","134.03808","7.864319999999999","6","-1","-1","","","","","","","","","","","","",""
"psychophysics","66","274607","0.0-8.0-0.19","5c519ec789254700019f7934","636dff3392645181d3c238a1","636e029e857bb3c74c809921","30.899999999906868","","","","37","","","","key","16.66721311475429","604","265.5","true","-1","134.03808","7.864319999999999","6","-1","-1","","","","","","","","","","","","",""
"psychophysics","67","276233","0.0-8.0-0.20","5c519ec789254700019f7934","636dff3392645181d3c238a1","636e029e857bb3c74c809921","620.6000000000931","","","","37","","","","key","16.668216494845165","604","265.5","true","-1","129","7.864319999999999","6","-1","-1","","","","","","","","","","","","",""
"psychophysics","68","277580","0.0-8.0-0.21","5c519ec789254700019f7934","636dff3392645181d3c238a1","636e029e857bb3c74c809921","343.29999999981374","","","","37","","","","key","16.661999999999534","604","265.5","true","1","129","6.291456","7","1","-1","","","","","","","","","","","","",""
"psychophysics","69","278607","0.0-8.0-0.22","5c519ec789254700019f7934","636dff3392645181d3c238a1","636e029e857bb3c74c809921","19.4000000001397","","","","39","","","","key","16.666033333333324","604","265.5","true","1","135.291456","6.291456","7","-1","1","","","","","","","","","","","","",""
"psychophysics","70","281096","0.0-8.0-0.23","5c519ec789254700019f7934","636dff3392645181d3c238a1","636e029e857bb3c74c809921","1487.2999999998137","","","","39","","","","key","16.66679865771814","604","265.5","true","1","135.291456","5.033164800000001","8","-1","-1","","","","","","","","","","","","",""
"psychophysics","71","282557","0.0-8.0-0.24","5c519ec789254700019f7934","636dff3392645181d3c238a1","636e029e857bb3c74c809921","456.30000000004657","","","","39","","","","key","16.666000000000146","604","265.5","true","1","130.2582912","5.033164800000001","8","-1","-1","","","","","","","","","","","","",""
"psychophysics","72","283616","0.0-8.0-0.25","5c519ec789254700019f7934","636dff3392645181d3c238a1","636e029e857bb3c74c809921","55.5","","","","39","","","","key","16.665936507936014","604","265.5","true","-1","130.2582912","4.0265318400000005","9","1","-1","","","","","","","","","","","","",""
"psychophysics","73","284678","0.0-8.0-0.26","5c519ec789254700019f7934","636dff3392645181d3c238a1","636e029e857bb3c74c809921","57.5","","","","37","","","","key","16.667063492062937","604","265.5","true","-1","134.28482304","4.0265318400000005","9","-1","1","","","","","","","","","","","","",""
"psychophysics","74","286323","0.0-8.0-0.27","5c519ec789254700019f7934","636dff3392645181d3c238a1","636e029e857bb3c74c809921","642.7999999998137","","","","39","","","","key","16.669020618556893","604","265.5","true","1","134.28482304","3.2212254720000004","10","-1","-1","","","","","","","","","","","","",""
"psychophysics","75","287966","0.0-8.0-0.28","5c519ec789254700019f7934","636dff3392645181d3c238a1","636e029e857bb3c74c809921","638.1000000000931","","","","37","","","","key","16.666377551020336","604","265.5","true","1","131.06359756799998","2.5769803776000004","11","1","-1","","","","","","","","","","","","",""
"psychophysics","76","290638","0.0-8.0-0.29","5c519ec789254700019f7934","636dff3392645181d3c238a1","636e029e857bb3c74c809921","1666.3999999999069","","","","39","","","","key","16.668226415094473","604","265.5","true","-1","133.64057794559997","2.5769803776000004","11","1","1","","","","","","","","","","","","",""
"psychophysics","77","293353","0.0-8.0-0.30","5c519ec789254700019f7934","636dff3392645181d3c238a1","636e029e857bb3c74c809921","1708.1000000000931","","","","39","","","","key","16.666716049382547","604","265.5","true","1","136.21755832319997","2.5769803776000004","11","-1","1","","","","","","","","","","","","",""
"psychophysics","78","295786","0.0-8.0-0.31","5c519ec789254700019f7934","636dff3392645181d3c238a1","636e029e857bb3c74c809921","1429","","","","37","","","","key","16.666331034482873","604","265.5","true","1","136.21755832319997","2.0615843020800004","12","1","-1","","","","","","","","","","","","",""
"psychophysics","79","296955","0.0-8.0-0.32","5c519ec789254700019f7934","636dff3392645181d3c238a1","636e029e857bb3c74c809921","162.60000000009313","","","","37","","","","key","16.666159420290228","604","265.5","true","-1","138.27914262527997","2.0615843020800004","12","-1","1","","","","","","","","","","","","",""
"psychophysics","80","298039","0.0-8.0-0.33","5c519ec789254700019f7934","636dff3392645181d3c238a1","636e029e857bb3c74c809921","79.80000000004657","","","","37","","","","key","16.666046875000575","604","265.5","true","-1","138.27914262527997","1.6492674416640005","13","-1","-1","","","","","","","","","","","","",""
"psychophysics","81","299236","0.0-8.0-0.34","5c519ec789254700019f7934","636dff3392645181d3c238a1","636e029e857bb3c74c809921","193.9000000001397","","","","37","","","","key","16.667295774647435","604","265.5","true","-1","136.62987518361598","1.6492674416640005","13","-1","-1","","","","","","","","","","","","",""
"psychophysics","82","300547","0.0-8.0-0.35","5c519ec789254700019f7934","636dff3392645181d3c238a1","636e029e857bb3c74c809921","303.9000000001397","","","","37","","","","key","16.665128205128266","604","265.5","true","-1","136.62987518361598","1.6492674416640005","13","-1","-1","","","","","","","","","","","","",""
"psychophysics","83","301617","0.0-8.0-0.36","5c519ec789254700019f7934","636dff3392645181d3c238a1","636e029e857bb3c74c809921","59.5","","","","37","","","","key","16.671746031746142","604","265.5","true","-1","134.98060774195199","1.6492674416640005","13","-1","-1","","","","","","","","","","","","",""
"psychophysics","84","302714","0.0-8.0-0.37","5c519ec789254700019f7934","636dff3392645181d3c238a1","636e029e857bb3c74c809921","93.79999999981374","","","","39","","","","key","16.667738461538324","604","265.5","true","1","134.98060774195199","1.6492674416640005","13","-1","-1","","","","","","","","","","","","",""
"psychophysics","85","303869","0.0-8.0-0.38","5c519ec789254700019f7934","636dff3392645181d3c238a1","636e029e857bb3c74c809921","145.10000000009313","","","","39","","","","key","16.664941176469952","604","265.5","true","1","133.331340300288","1.6492674416640005","13","-1","-1","","","","","","","","","","","","",""
"psychophysics","86","305014","0.0-8.0-0.39","5c519ec789254700019f7934","636dff3392645181d3c238a1","636e029e857bb3c74c809921","137.5","","","","37","","","","key","16.6702941176473","604","265.5","true","-1","133.331340300288","1.6492674416640005","13","-1","-1","","","","","","","","","","","","",""
"html-keyboard-response","87","311685","0.0-9.0","5c519ec789254700019f7934","636dff3392645181d3c238a1","636e029e857bb3c74c809921","6669.09999999986","<p>Well Done !</p><p>Prepare for a new block.</p><p>DON'T EXIT THE FULL SCREEN MODE</p><p>Press the Spacebar to start.</p>","","","32","","","","","","","","","","","","","","","true","134.8272774094848","","","","","","","","","","",""
"psychophysics","88","314064","0.0-10.0-0.0","5c519ec789254700019f7934","636dff3392645181d3c238a1","636e029e857bb3c74c809921","1369.5","","","","39","","","","key","16.68613986013957","604","265.5","true","1","180","30","0","-1","","","","","","","","","","","","","",""
"psychophysics","89","315167","0.0-10.0-0.1","5c519ec789254700019f7934","636dff3392645181d3c238a1","636e029e857bb3c74c809921","92.69999999995343","","","","37","","","","key","16.6694153846152","604","265.5","true","-1","180","30","0","-1","-1","","","","","","","","","","","","",""
"psychophysics","90","318004","0.0-10.0-0.2","5c519ec789254700019f7934","636dff3392645181d3c238a1","636e029e857bb3c74c809921","1828.3999999999069","","","","39","","","","key","16.66638461538465","604","265.5","true","-1","150","24","1","1","-1","","","","","","","","","","","","",""
"psychophysics","91","319075","0.0-10.0-0.3","5c519ec789254700019f7934","636dff3392645181d3c238a1","636e029e857bb3c74c809921","65.69999999995343","","","","37","","","","key","16.66596825396834","604","265.5","true","-1","174","24","1","-1","1","","","","","","","","","","","","",""
"psychophysics","92","321217","0.0-10.0-0.4","5c519ec789254700019f7934","636dff3392645181d3c238a1","636e029e857bb3c74c809921","1137.4000000001397","","","","39","","","","key","16.665374999999585","604","265.5","true","-1","174","19.2","2","1","-1","","","","","","","","","","","","",""
"psychophysics","93","323701","0.0-10.0-0.5","5c519ec789254700019f7934","636dff3392645181d3c238a1","636e029e857bb3c74c809921","1478.5999999998603","","","","39","","","","key","16.66789189189188","604","265.5","true","-1","193.2","19.2","2","1","1","","","","","","","","","","","","",""
"psychophysics","94","326147","0.0-10.0-0.6","5c519ec789254700019f7934","636dff3392645181d3c238a1","636e029e857bb3c74c809921","1438.0999999998603","","","","39","","","","key","16.665739726027226","604","265.5","true","-1","212.39999999999998","19.2","2","1","1","","","","","","","","","","","","",""
"psychophysics","95","327175","0.0-10.0-0.7","5c519ec789254700019f7934","636dff3392645181d3c238a1","636e029e857bb3c74c809921","15.599999999860302","","","","39","","","","key","16.67151666666614","604","265.5","true","1","231.59999999999997","19.2","2","-1","1","","","","","","","","","","","","",""
"psychophysics","96","328716","0.0-10.0-0.8","5c519ec789254700019f7934","636dff3392645181d3c238a1","636e029e857bb3c74c809921","536.8000000000466","","","","39","","","","key","16.66605434782611","604","265.5","true","1","231.59999999999997","15.36","3","-1","-1","","","","","","","","","","","","",""
"psychophysics","97","329783","0.0-10.0-0.9","5c519ec789254700019f7934","636dff3392645181d3c238a1","636e029e857bb3c74c809921","57.39999999990687","","","","37","","","","key","16.66511111111114","604","265.5","true","-1","216.23999999999995","15.36","3","-1","-1","","","","","","","","","","","","",""
"psychophysics","98","330818","0.0-10.0-0.10","5c519ec789254700019f7934","636dff3392645181d3c238a1","636e029e857bb3c74c809921","26","","","","39","","","","key","16.6675573770495","604","265.5","true","1","216.23999999999995","15.36","3","-1","-1","","","","","","","","","","","","",""
"psychophysics","99","333450","0.0-10.0-0.11","5c519ec789254700019f7934","636dff3392645181d3c238a1","636e029e857bb3c74c809921","1625","","","","39","","","","key","16.666305732483988","604","265.5","true","-1","200.87999999999994","12.287999999999998","4","1","-1","","","","","","","","","","","","",""
"psychophysics","100","336263","0.0-10.0-0.12","5c519ec789254700019f7934","636dff3392645181d3c238a1","636e029e857bb3c74c809921","1803.3999999999069","","","","37","","","","key","16.665053571428523","604","265.5","true","1","213.16799999999995","12.287999999999998","4","1","1","","","","","","","","","","","","",""
"psychophysics","101","338835","0.0-10.0-0.13","5c519ec789254700019f7934","636dff3392645181d3c238a1","636e029e857bb3c74c809921","1558.8000000000466","","","","37","","","","key","16.66557516339859","604","265.5","true","1","225.45599999999996","12.287999999999998","4","1","1","","","","","","","","","","","","",""
"psychophysics","102","341256","0.0-10.0-0.14","5c519ec789254700019f7934","636dff3392645181d3c238a1","636e029e857bb3c74c809921","1413.8999999999069","","","","39","","","","key","16.668583333333018","604","265.5","true","-1","237.74399999999997","12.287999999999998","4","1","1","","","","","","","","","","","","",""
"psychophysics","103","343768","0.0-10.0-0.15","5c519ec789254700019f7934","636dff3392645181d3c238a1","636e029e857bb3c74c809921","1508.6999999999534","","","","37","","","","key","16.667033333333286","604","265.5","true","-1","250.03199999999998","12.287999999999998","4","-1","1","","","","","","","","","","","","",""
"psychophysics","104","344801","0.0-10.0-0.16","5c519ec789254700019f7934","636dff3392645181d3c238a1","636e029e857bb3c74c809921","28.5","","","","39","","","","key","16.670852459015777","604","265.5","true","1","250.03199999999998","9.8304","5","-1","-1","","","","","","","","","","","","",""
"psychophysics","105","345815","0.0-10.0-0.17","5c519ec789254700019f7934","636dff3392645181d3c238a1","636e029e857bb3c74c809921","6.900000000139698","","","","39","","","","key","16.663099999999396","604","265.5","true","1","240.20159999999998","9.8304","5","-1","-1","","","","","","","","","","","","",""
"psychophysics","106","346880","0.0-10.0-0.18","5c519ec789254700019f7934","636dff3392645181d3c238a1","636e029e857bb3c74c809921","54.699999999953434","","","","37","","","","key","16.666523809523493","604","265.5","true","-1","240.20159999999998","9.8304","5","-1","-1","","","","","","","","","","","","",""
"psychophysics","107","347981","0.0-10.0-0.19","5c519ec789254700019f7934","636dff3392645181d3c238a1","636e029e857bb3c74c809921","86.69999999995343","","","","39","","","","key","16.66673846153829","604","265.5","true","1","230.3712","9.8304","5","-1","-1","","","","","","","","","","","","",""
"psychophysics","108","349103","0.0-10.0-0.20","5c519ec789254700019f7934","636dff3392645181d3c238a1","636e029e857bb3c74c809921","111.39999999990687","","","","37","","","","key","16.66584848484843","604","265.5","true","-1","230.3712","9.8304","5","-1","-1","","","","","","","","","","","","",""
"psychophysics","109","351496","0.0-10.0-0.21","5c519ec789254700019f7934","636dff3392645181d3c238a1","636e029e857bb3c74c809921","1386.6999999999534","","","","39","","","","key","16.666174825175073","604","265.5","true","1","220.5408","9.8304","5","-1","-1","","","","","","","","","","","","",""
"psychophysics","110","352555","0.0-10.0-0.22","5c519ec789254700019f7934","636dff3392645181d3c238a1","636e029e857bb3c74c809921","47","","","","39","","","","key","16.664951612903444","604","265.5","true","1","220.5408","9.8304","5","-1","-1","","","","","","","","","","","","",""
"psychophysics","111","354947","0.0-10.0-0.23","5c519ec789254700019f7934","636dff3392645181d3c238a1","636e029e857bb3c74c809921","1387.8999999999069","","","","37","","","","key","16.668776223776288","604","265.5","true","-1","210.7104","9.8304","5","-1","-1","","","","","","","","","","","","",""
"psychophysics","112","357551","0.0-10.0-0.24","5c519ec789254700019f7934","636dff3392645181d3c238a1","636e029e857bb3c74c809921","1592.6999999999534","","","","39","","","","key","16.666238709677373","604","265.5","true","-1","210.7104","7.864319999999999","6","1","-1","","","","","","","","","","","","",""
"psychophysics","113","358748","0.0-10.0-0.25","5c519ec789254700019f7934","636dff3392645181d3c238a1","636e029e857bb3c74c809921","189.89999999990687","","","","39","","","","key","16.666830985915098","604","265.5","true","1","218.57471999999999","7.864319999999999","6","-1","1","","","","","","","","","","","","",""
"psychophysics","114","361782","0.0-10.0-0.26","5c519ec789254700019f7934","636dff3392645181d3c238a1","636e029e857bb3c74c809921","2029.5","","","","39","","","","key","16.664911602209877","604","265.5","true","1","218.57471999999999","6.291456","7","-1","-1","","","","","","","","","","","","",""
"psychophysics","115","362982","0.0-10.0-0.27","5c519ec789254700019f7934","636dff3392645181d3c238a1","636e029e857bb3c74c809921","190.5999999998603","","","","37","","","","key","16.668732394365936","604","265.5","true","-1","212.28326399999997","6.291456","7","-1","-1","","","","","","","","","","","","",""
"psychophysics","116","364100","0.0-10.0-0.28","5c519ec789254700019f7934","636dff3392645181d3c238a1","636e029e857bb3c74c809921","107.80000000004657","","","","39","","","","key","16.66771212121239","604","265.5","true","1","212.28326399999997","6.291456","7","-1","-1","","","","","","","","","","","","",""
"psychophysics","117","366812","0.0-10.0-0.29","5c519ec789254700019f7934","636dff3392645181d3c238a1","636e029e857bb3c74c809921","1702","","","","39","","","","key","16.664969135802327","604","265.5","true","1","205.99180799999996","6.291456","7","-1","-1","","","","","","","","","","","","",""
"psychophysics","118","369001","0.0-10.0-0.30","5c519ec789254700019f7934","636dff3392645181d3c238a1","636e029e857bb3c74c809921","1180","","","","37","","","","key","16.667223076923086","604","265.5","true","1","205.99180799999996","5.033164800000001","8","1","-1","","","","","","","","","","","","",""
"psychophysics","119","370037","0.0-10.0-0.31","5c519ec789254700019f7934","636dff3392645181d3c238a1","636e029e857bb3c74c809921","28.600000000093132","","","","37","","","","key","16.666901639344925","604","265.5","true","-1","211.02497279999997","5.033164800000001","8","-1","1","","","","","","","","","","","","",""
"psychophysics","120","371096","0.0-10.0-0.32","5c519ec789254700019f7934","636dff3392645181d3c238a1","636e029e857bb3c74c809921","54.39999999990687","","","","37","","","","key","16.664238095238236","604","265.5","true","-1","211.02497279999997","4.0265318400000005","9","-1","-1","","","","","","","","","","","","",""
"psychophysics","121","373148","0.0-10.0-0.33","5c519ec789254700019f7934","636dff3392645181d3c238a1","636e029e857bb3c74c809921","1043.0999999998603","","","","39","","","","key","16.667918032786684","604","265.5","true","-1","206.99844095999998","3.2212254720000004","10","1","-1","","","","","","","","","","","","",""
"psychophysics","122","375414","0.0-10.0-0.34","5c519ec789254700019f7934","636dff3392645181d3c238a1","636e029e857bb3c74c809921","1255.1999999999534","","","","39","","","","key","16.66522222222217","604","265.5","true","-1","210.219666432","3.2212254720000004","10","1","1","","","","","","","","","","","","",""
"psychophysics","123","376426","0.0-10.0-0.35","5c519ec789254700019f7934","636dff3392645181d3c238a1","636e029e857bb3c74c809921","4","","","","39","","","","key","16.66720338983035","604","265.5","true","1","213.440891904","3.2212254720000004","10","-1","1","","","","","","","","","","","","",""
"psychophysics","124","377651","0.0-10.0-0.36","5c519ec789254700019f7934","636dff3392645181d3c238a1","636e029e857bb3c74c809921","222.69999999995343","","","","39","","","","key","16.669424657534478","604","265.5","true","1","213.440891904","2.5769803776000004","11","-1","-1","","","","","","","","","","","","",""
"psychophysics","125","378780","0.0-10.0-0.37","5c519ec789254700019f7934","636dff3392645181d3c238a1","636e029e857bb3c74c809921","121.4000000001397","","","","39","","","","key","16.66220895522413","604","265.5","true","1","210.86391152640002","2.5769803776000004","11","-1","-1","","","","","","","","","","","","",""
"psychophysics","126","380234","0.0-10.0-0.38","5c519ec789254700019f7934","636dff3392645181d3c238a1","636e029e857bb3c74c809921","441.89999999990687","","","","39","","","","key","16.66743023255786","604","265.5","true","1","210.86391152640002","2.5769803776000004","11","-1","-1","","","","","","","","","","","","",""
"psychophysics","127","381307","0.0-10.0-0.39","5c519ec789254700019f7934","636dff3392645181d3c238a1","636e029e857bb3c74c809921","64.9000000001397","","","","37","","","","key","16.667460317461057","604","265.5","true","-1","208.28693114880002","2.5769803776000004","11","-1","-1","","","","","","","","","","","","",""
"html-keyboard-response","128","385728","0.0-11.0","5c519ec789254700019f7934","636dff3392645181d3c238a1","636e029e857bb3c74c809921","4419.90000000014","<p>Well Done !</p><p>Prepare for a new block.</p><p>DON'T EXIT THE FULL SCREEN MODE</p><p>Press the Spacebar to start.</p>","","","32","","","","","","","","","","","","","","","true","211.32427833344002","","","","","","","","","","",""
"psychophysics","129","386761","0.0-12.0-0.0","5c519ec789254700019f7934","636dff3392645181d3c238a1","636e029e857bb3c74c809921","23","","","","39","","","","key","16.69814516129085","604","265.5","true","1","180","30","0","-1","","","","","","","","","","","","","",""
"psychophysics","130","389120","0.0-12.0-0.1","5c519ec789254700019f7934","636dff3392645181d3c238a1","636e029e857bb3c74c809921","1353.7999999998137","","","","37","","","","key","16.667935714285704","604","265.5","true","-1","180","30","0","-1","-1","","","","","","","","","","","","",""
"psychophysics","131","391575","0.0-12.0-0.2","5c519ec789254700019f7934","636dff3392645181d3c238a1","636e029e857bb3c74c809921","1450.1999999999534","","","","37","","","","key","16.66619863013708","604","265.5","true","1","150","24","1","1","-1","","","","","","","","","","","","",""
"psychophysics","132","393796","0.0-12.0-0.3","5c519ec789254700019f7934","636dff3392645181d3c238a1","636e029e857bb3c74c809921","1204.1999999999534","","","","37","","","","key","16.66575939849604","604","265.5","true","1","174","24","1","1","1","","","","","","","","","","","","",""
"psychophysics","133","394863","0.0-12.0-0.4","5c519ec789254700019f7934","636dff3392645181d3c238a1","636e029e857bb3c74c809921","54.799999999813735","","","","37","","","","key","16.666126984125373","604","265.5","true","-1","198","24","1","-1","1","","","","","","","","","","","","",""
"psychophysics","134","397880","0.0-12.0-0.5","5c519ec789254700019f7934","636dff3392645181d3c238a1","636e029e857bb3c74c809921","2004.6999999999534","","","","39","","","","key","16.666366666666647","604","265.5","true","-1","198","19.2","2","1","-1","","","","","","","","","","","","",""
"psychophysics","135","400146","0.0-12.0-0.6","5c519ec789254700019f7934","636dff3392645181d3c238a1","636e029e857bb3c74c809921","1253.8000000000466","","","","37","","","","key","16.66568656716367","604","265.5","true","1","217.2","19.2","2","1","1","","","","","","","","","","","","",""
"psychophysics","136","402583","0.0-12.0-0.7","5c519ec789254700019f7934","636dff3392645181d3c238a1","636e029e857bb3c74c809921","1423.5","","","","39","","","","key","16.664568493150696","604","265.5","true","1","236.39999999999998","19.2","2","-1","1","","","","","","","","","","","","",""
"psychophysics","137","404982","0.0-12.0-0.8","5c519ec789254700019f7934","636dff3392645181d3c238a1","636e029e857bb3c74c809921","1390.1000000000931","","","","37","","","","key","16.66606993007008","604","265.5","true","1","236.39999999999998","15.36","3","1","-1","","","","","","","","","","","","",""
"psychophysics","138","407432","0.0-12.0-0.9","5c519ec789254700019f7934","636dff3392645181d3c238a1","636e029e857bb3c74c809921","1440.8000000000466","","","","37","","","","key","16.666684931506918","604","265.5","true","1","251.76","15.36","3","1","1","","","","","","","","","","","","",""
"psychophysics","139","409832","0.0-12.0-0.10","5c519ec789254700019f7934","636dff3392645181d3c238a1","636e029e857bb3c74c809921","1389.6999999999534","","","","37","","","","key","16.66644755244773","604","265.5","true","1","255","15.36","3","1","1","","","","","","","","","","","","",""
"psychophysics","140","411081","0.0-12.0-0.11","5c519ec789254700019f7934","636dff3392645181d3c238a1","636e029e857bb3c74c809921","239.20000000018626","","","","37","","","","key","16.667216216215575","604","265.5","true","-1","255","15.36","3","-1","1","","","","","","","","","","","","",""
"psychophysics","141","413120","0.0-12.0-0.12","5c519ec789254700019f7934","636dff3392645181d3c238a1","636e029e857bb3c74c809921","1028.4000000001397","","","","39","","","","key","16.66581818181829","604","265.5","true","-1","239.64","12.287999999999998","4","1","-1","","","","","","","","","","","","",""
"psychophysics","142","414364","0.0-12.0-0.13","5c519ec789254700019f7934","636dff3392645181d3c238a1","636e029e857bb3c74c809921","238.4000000001397","","","","39","","","","key","16.66652702702669","604","265.5","true","1","251.928","12.287999999999998","4","-1","1","","","","","","","","","","","","",""
"psychophysics","143","415431","0.0-12.0-0.14","5c519ec789254700019f7934","636dff3392645181d3c238a1","636e029e857bb3c74c809921","56.800000000046566","","","","37","","","","key","16.66620634920666","604","265.5","true","-1","251.928","9.8304","5","-1","-1","","","","","","","","","","","","",""
"psychophysics","144","416582","0.0-12.0-0.15","5c519ec789254700019f7934","636dff3392645181d3c238a1","636e029e857bb3c74c809921","140.29999999981374","","","","39","","","","key","16.666264705882092","604","265.5","true","1","242.0976","9.8304","5","-1","-1","","","","","","","","","","","","",""
"psychophysics","145","419088","0.0-12.0-0.16","5c519ec789254700019f7934","636dff3392645181d3c238a1","636e029e857bb3c74c809921","1499.1000000000931","","","","37","","","","key","16.666469798657744","604","265.5","true","1","242.0976","7.864319999999999","6","1","-1","","","","","","","","","","","","",""
"psychophysics","146","421966","0.0-12.0-0.17","5c519ec789254700019f7934","636dff3392645181d3c238a1","636e029e857bb3c74c809921","1874.8999999999069","","","","37","","","","key","16.66652325581391","604","265.5","true","1","249.96192","7.864319999999999","6","1","1","","","","","","","","","","","","",""
"psychophysics","147","422992","0.0-12.0-0.18","5c519ec789254700019f7934","636dff3392645181d3c238a1","636e029e857bb3c74c809921","16.699999999953434","","","","37","","","","key","16.67023333333394","604","265.5","true","-1","255","7.864319999999999","6","-1","1","","","","","","","","","","","","",""
"psychophysics","148","425912","0.0-12.0-0.19","5c519ec789254700019f7934","636dff3392645181d3c238a1","636e029e857bb3c74c809921","1906.0999999998603","","","","39","","","","key","16.666000000000267","604","265.5","true","-1","255","6.291456","7","1","-1","","","","","","","","","","","","",""
"psychophysics","149","428318","0.0-12.0-0.20","5c519ec789254700019f7934","636dff3392645181d3c238a1","636e029e857bb3c74c809921","1393.6000000000931","","","","37","","","","key","16.666545454545396","604","265.5","true","1","255","6.291456","7","1","1","","","","","","","","","","","","",""
"psychophysics","150","430559","0.0-12.0-0.21","5c519ec789254700019f7934","636dff3392645181d3c238a1","636e029e857bb3c74c809921","1232.2000000001863","","","","37","","","","key","16.666195488721307","604","265.5","true","1","255","6.291456","7","1","1","","","","","","","","","","","","",""
"psychophysics","151","431717","0.0-12.0-0.22","5c519ec789254700019f7934","636dff3392645181d3c238a1","636e029e857bb3c74c809921","150.19999999995343","","","","39","","","","key","16.66653623188461","604","265.5","true","1","255","6.291456","7","-1","1","","","","","","","","","","","","",""
"psychophysics","152","434410","0.0-12.0-0.23","5c519ec789254700019f7934","636dff3392645181d3c238a1","636e029e857bb3c74c809921","1685.8999999999069","","","","37","","","","key","16.66634999999951","604","265.5","true","1","248.708544","5.033164800000001","8","1","-1","","","","","","","","","","","","",""
"psychophysics","153","435486","0.0-12.0-0.24","5c519ec789254700019f7934","636dff3392645181d3c238a1","636e029e857bb3c74c809921","62.199999999953434","","","","37","","","","key","16.666546874999767","604","265.5","true","-1","253.7417088","5.033164800000001","8","-1","1","","","","","","","","","","","","",""
"psychophysics","154","438536","0.0-12.0-0.25","5c519ec789254700019f7934","636dff3392645181d3c238a1","636e029e857bb3c74c809921","2045.8999999999069","","","","39","","","","key","16.66642307692302","604","265.5","true","-1","253.7417088","4.0265318400000005","9","1","-1","","","","","","","","","","","","",""
"psychophysics","155","439644","0.0-12.0-0.26","5c519ec789254700019f7934","636dff3392645181d3c238a1","636e029e857bb3c74c809921","103.30000000004657","","","","37","","","","key","16.66607692307757","604","265.5","true","-1","255","4.0265318400000005","9","-1","1","","","","","","","","","","","","",""
"psychophysics","156","442199","0.0-12.0-0.27","5c519ec789254700019f7934","636dff3392645181d3c238a1","636e029e857bb3c74c809921","1545.6000000000931","","","","37","","","","key","16.666267973856293","604","265.5","true","1","255","3.2212254720000004","10","1","-1","","","","","","","","","","","","",""
"psychophysics","157","444600","0.0-12.0-0.28","5c519ec789254700019f7934","636dff3392645181d3c238a1","636e029e857bb3c74c809921","1395.5999999998603","","","","39","","","","key","16.66644755244773","604","265.5","true","1","255","3.2212254720000004","10","-1","1","","","","","","","","","","","","",""
"psychophysics","158","446817","0.0-12.0-0.29","5c519ec789254700019f7934","636dff3392645181d3c238a1","636e029e857bb3c74c809921","1210","","","","37","","","","key","16.666257575757548","604","265.5","true","-1","251.77877452799999","2.5769803776000004","11","-1","-1","","","","","","","","","","","","",""
"psychophysics","159","447836","0.0-12.0-0.30","5c519ec789254700019f7934","636dff3392645181d3c238a1","636e029e857bb3c74c809921","11.899999999906868","","","","37","","","","key","16.665416666667443","604","265.5","true","-1","251.77877452799999","2.5769803776000004","11","-1","-1","","","","","","","","","","","","",""
"psychophysics","160","448868","0.0-12.0-0.31","5c519ec789254700019f7934","636dff3392645181d3c238a1","636e029e857bb3c74c809921","27.700000000186265","","","","37","","","","key","16.666377049179932","604","265.5","true","-1","249.2017941504","2.5769803776000004","11","-1","-1","","","","","","","","","","","","",""
"psychophysics","161","451132","0.0-12.0-0.32","5c519ec789254700019f7934","636dff3392645181d3c238a1","636e029e857bb3c74c809921","1258.3999999999069","","","","37","","","","key","16.666244444444224","604","265.5","true","1","249.2017941504","2.0615843020800004","12","1","-1","","","","","","","","","","","","",""
"psychophysics","162","452155","0.0-12.0-0.33","5c519ec789254700019f7934","636dff3392645181d3c238a1","636e029e857bb3c74c809921","14","","","","37","","","","key","16.66633333333302","604","265.5","true","-1","251.26337845248","2.0615843020800004","12","-1","1","","","","","","","","","","","","",""
"psychophysics","163","453200","0.0-12.0-0.34","5c519ec789254700019f7934","636dff3392645181d3c238a1","636e029e857bb3c74c809921","43.4000000001397","","","","39","","","","key","16.664741935482578","604","265.5","true","1","251.26337845248","1.6492674416640005","13","-1","-1","","","","","","","","","","","","",""
"psychophysics","164","454527","0.0-12.0-0.35","5c519ec789254700019f7934","636dff3392645181d3c238a1","636e029e857bb3c74c809921","319.89999999990687","","","","37","","","","key","16.66598717948774","604","265.5","true","-1","249.614111010816","1.6492674416640005","13","-1","-1","","","","","","","","","","","","",""
"psychophysics","165","456872","0.0-12.0-0.36","5c519ec789254700019f7934","636dff3392645181d3c238a1","636e029e857bb3c74c809921","1332.0999999998603","","","","39","","","","key","16.649550000000247","604","265.5","true","-1","249.614111010816","1.3194139533312006","14","1","-1","","","","","","","","","","","","",""
"psychophysics","166","459289","0.0-12.0-0.37","5c519ec789254700019f7934","636dff3392645181d3c238a1","636e029e857bb3c74c809921","1411.5","","","","39","","","","key","16.66568750000038","604","265.5","true","-1","250.9335249641472","1.3194139533312006","14","1","1","","","","","","","","","","","","",""
"psychophysics","167","461648","0.0-12.0-0.38","5c519ec789254700019f7934","636dff3392645181d3c238a1","636e029e857bb3c74c809921","1354.1000000000931","","","","37","","","","key","16.665737588652114","604","265.5","true","-1","252.25293891747842","1.3194139533312006","14","-1","1","","","","","","","","","","","","",""
"psychophysics","168","464066","0.0-12.0-0.39","5c519ec789254700019f7934","636dff3392645181d3c238a1","636e029e857bb3c74c809921","1411.3000000000466","","","","39","","","","key","16.667847222222512","604","265.5","true","-1","252.25293891747842","1.0555311626649604","15","1","-1","","","","","","","","","","","","",""
"html-keyboard-response","169","470652","0.0-13.0","5c519ec789254700019f7934","636dff3392645181d3c238a1","636e029e857bb3c74c809921","6584","<p>Well Done !</p><p>Prepare for a new block.</p><p>DON'T EXIT THE FULL SCREEN MODE</p><p>Press the Spacebar to start.</p>","","","32","","","","","","","","","","","","","","","true","251.8598151921664","","","","","","","","","","",""
"html-keyboard-response","170","470770","0.0-14.0","5c519ec789254700019f7934","636dff3392645181d3c238a1","636e029e857bb3c74c809921","null","","","","null","","","","","","","","","","","","","","","","","205.56887442004378","true","283.13774884008757","","","","","","","",""
"instructions","171","517861","0.0-15.0","5c519ec789254700019f7934","636dff3392645181d3c238a1","636e029e857bb3c74c809921","47089.30000000005","","","","","","","[{""page_index"":0,""viewing_time"":39445.09999999986},{""page_index"":1,""viewing_time"":2765.9000000001397},{""page_index"":2,""viewing_time"":4877.399999999907}]","","","","","","","","","","","","","","","","","","","","","","","",""
"psychophysics","172","520874","0.0-16.0-0.0","5c519ec789254700019f7934","636dff3392645181d3c238a1","636e029e857bb3c74c809921","null","","","","null","","","","key","17.244999999999358","604","265.5","","","","","","","","","","","","","","","","","","","",""
"psychophysics","173","521390","0.0-16.0-1.0","5c519ec789254700019f7934","636dff3392645181d3c238a1","636e029e857bb3c74c809921","null","","","","null","","","","key","16.66633333333302","604","265.5","","","","","","","","","","","","","283","-1","6","false","","","",""
"psychophysics","174","522083","0.0-16.0-2.0","5c519ec789254700019f7934","636dff3392645181d3c238a1","636e029e857bb3c74c809921","683.1000000000931","","","","77","","","","key","16.675560975609145","604","265.5","","","","","","","","","","","","","","","","","","","",""
"psychophysics","175","523089","0.0-16.0-0.1","5c519ec789254700019f7934","636dff3392645181d3c238a1","636e029e857bb3c74c809921","null","","","","null","","","","key","16.66527118643951","604","265.5","","","","","","","","","","","","","","","","","","","",""
"psychophysics","176","523593","0.0-16.0-1.1","5c519ec789254700019f7934","636dff3392645181d3c238a1","636e029e857bb3c74c809921","null","","","","null","","","","key","16.667366666668872","604","265.5","","","","","","","","","","","","","283","1","3","false","","","",""
"psychophysics","177","524504","0.0-16.0-2.1","5c519ec789254700019f7934","636dff3392645181d3c238a1","636e029e857bb3c74c809921","906.0999999998603","","","","77","","","","key","16.66294339622529","604","265.5","","","","","","","","","","","","","","","","","","","",""
"psychophysics","178","525506","0.0-16.0-0.2","5c519ec789254700019f7934","636dff3392645181d3c238a1","636e029e857bb3c74c809921","null","","","","null","","","","key","16.66869491525389","604","265.5","","","","","","","","","","","","","","","","","","","",""
"psychophysics","179","526015","0.0-16.0-1.2","5c519ec789254700019f7934","636dff3392645181d3c238a1","636e029e857bb3c74c809921","null","","","","null","","","","key","16.66836666666592","604","265.5","","","","","","","","","","","","","283","-1","3","false","","","",""
"psychophysics","180","526501","0.0-16.0-2.2","5c519ec789254700019f7934","636dff3392645181d3c238a1","636e029e857bb3c74c809921","483.9000000001397","","","","77","","","","key","16.65946428571312","604","265.5","","","","","","","","","","","","","","","","","","","",""
"psychophysics","181","527506","0.0-16.0-0.3","5c519ec789254700019f7934","636dff3392645181d3c238a1","636e029e857bb3c74c809921","null","","","","null","","","","key","16.664999999999765","604","265.5","","","","","","","","","","","","","","","","","","","",""
"psychophysics","182","528024","0.0-16.0-1.3","5c519ec789254700019f7934","636dff3392645181d3c238a1","636e029e857bb3c74c809921","null","","","","null","","","","key","16.664033333336313","604","265.5","","","","","","","","","","","","","283","-1","2","false","","","",""
"psychophysics","183","529534","0.0-16.0-2.3","5c519ec789254700019f7934","636dff3392645181d3c238a1","636e029e857bb3c74c809921","1502.4000000001397","","","","90","","","","key","16.66631111111104","604","265.5","","","","","","","","","","","","","","","","","","","",""
"psychophysics","184","530540","0.0-16.0-0.4","5c519ec789254700019f7934","636dff3392645181d3c238a1","636e029e857bb3c74c809921","null","","","","null","","","","key","16.670203389830778","604","265.5","","","","","","","","","","","","","","","","","","","",""
"psychophysics","185","531056","0.0-16.0-1.4","5c519ec789254700019f7934","636dff3392645181d3c238a1","636e029e857bb3c74c809921","null","","","","null","","","","key","16.665099999999317","604","265.5","","","","","","","","","","","","","283","1","2","false","","","",""
"psychophysics","186","531139","0.0-16.0-2.4","5c519ec789254700019f7934","636dff3392645181d3c238a1","636e029e857bb3c74c809921","65.29999999981374","","","","77","","","","key","16.663249999983236","604","265.5","","","","","","","","","","","","","","","","","","","",""
"psychophysics","187","532152","0.0-16.0-0.5","5c519ec789254700019f7934","636dff3392645181d3c238a1","636e029e857bb3c74c809921","null","","","","null","","","","key","16.66965000000006","604","265.5","","","","","","","","","","","","","","","","","","","",""
"psychophysics","188","532656","0.0-16.0-1.5","5c519ec789254700019f7934","636dff3392645181d3c238a1","636e029e857bb3c74c809921","null","","","","null","","","","key","16.669862068964747","604","265.5","","","","","","","","","","","","","283","1","0","false","","","",""
"psychophysics","189","533120","0.0-16.0-2.5","5c519ec789254700019f7934","636dff3392645181d3c238a1","636e029e857bb3c74c809921","455.9000000001397","","","","90","","","","key","16.656592592592695","604","265.5","","","","","","","","","","","","","","","","","","","",""
"psychophysics","190","534124","0.0-16.0-0.6","5c519ec789254700019f7934","636dff3392645181d3c238a1","636e029e857bb3c74c809921","null","","","","null","","","","key","16.66441666666651","604","265.5","","","","","","","","","","","","","","","","","","","",""
"psychophysics","191","534637","0.0-16.0-1.6","5c519ec789254700019f7934","636dff3392645181d3c238a1","636e029e857bb3c74c809921","null","","","","null","","","","key","16.669965517241508","604","265.5","","","","","","","","","","","","","283","-1","5","false","","","",""
"psychophysics","192","535083","0.0-16.0-2.6","5c519ec789254700019f7934","636dff3392645181d3c238a1","636e029e857bb3c74c809921","444.39999999990687","","","","77","","","","key","16.674346153843754","604","265.5","","","","","","","","","","","","","","","","","","","",""
"psychophysics","193","536090","0.0-16.0-0.7","5c519ec789254700019f7934","636dff3392645181d3c238a1","636e029e857bb3c74c809921","null","","","","null","","","","key","16.663254237289824","604","265.5","","","","","","","","","","","","","","","","","","","",""
"psychophysics","194","536606","0.0-16.0-1.7","5c519ec789254700019f7934","636dff3392645181d3c238a1","636e029e857bb3c74c809921","null","","","","null","","","","key","16.66763333333268","604","265.5","","","","","","","","","","","","","283","1","5","false","","","",""
"psychophysics","195","537386","0.0-16.0-2.7","5c519ec789254700019f7934","636dff3392645181d3c238a1","636e029e857bb3c74c809921","771.5","","","","77","","","","key","16.66982608695474","604","265.5","","","","","","","","","","","","","","","","","","","",""
"psychophysics","196","538389","0.0-16.0-0.8","5c519ec789254700019f7934","636dff3392645181d3c238a1","636e029e857bb3c74c809921","null","","","","null","","","","key","16.670305084746914","604","265.5","","","","","","","","","","","","","","","","","","","",""
"psychophysics","197","538906","0.0-16.0-1.8","5c519ec789254700019f7934","636dff3392645181d3c238a1","636e029e857bb3c74c809921","null","","","","null","","","","key","16.66803333333228","604","265.5","","","","","","","","","","","","","283","1","6","false","","","",""
"psychophysics","198","539026","0.0-16.0-2.8","5c519ec789254700019f7934","636dff3392645181d3c238a1","636e029e857bb3c74c809921","110.60000000009313","","","","77","","","","key","16.703142857129155","604","265.5","","","","","","","","","","","","","","","","","","","",""
"psychophysics","199","540039","0.0-16.0-0.9","5c519ec789254700019f7934","636dff3392645181d3c238a1","636e029e857bb3c74c809921","null","","","","null","","","","key","16.668677966102514","604","265.5","","","","","","","","","","","","","","","","","","","",""
"psychophysics","200","540556","0.0-16.0-1.9","5c519ec789254700019f7934","636dff3392645181d3c238a1","636e029e857bb3c74c809921","null","","","","null","","","","key","16.667766666664587","604","265.5","","","","","","","","","","","","","283","1","4","false","","","",""
"psychophysics","201","540671","0.0-16.0-2.9","5c519ec789254700019f7934","636dff3392645181d3c238a1","636e029e857bb3c74c809921","109.29999999981374","","","","77","","","","key","16.64183333333737","604","265.5","","","","","","","","","","","","","","","","","","","",""
"psychophysics","202","541674","0.0-16.0-0.10","5c519ec789254700019f7934","636dff3392645181d3c238a1","636e029e857bb3c74c809921","null","","","","null","","","","key","16.669933333333272","604","265.5","","","","","","","","","","","","","","","","","","","",""
"psychophysics","203","542181","0.0-16.0-1.10","5c519ec789254700019f7934","636dff3392645181d3c238a1","636e029e857bb3c74c809921","null","","","","null","","","","key","16.672482758623964","604","265.5","","","","","","","","","","","","","283","-1","0","false","","","",""
"psychophysics","204","542682","0.0-16.0-2.10","5c519ec789254700019f7934","636dff3392645181d3c238a1","636e029e857bb3c74c809921","499.39999999990687","","","","90","","","","key","16.6736896551728","604","265.5","","","","","","","","","","","","","","","","","","","",""
"psychophysics","205","543689","0.0-16.0-0.11","5c519ec789254700019f7934","636dff3392645181d3c238a1","636e029e857bb3c74c809921","null","","","","null","","","","key","16.66589830508377","604","265.5","","","","","","","","","","","","","","","","","","","",""
"psychophysics","206","544206","0.0-16.0-1.11","5c519ec789254700019f7934","636dff3392645181d3c238a1","636e029e857bb3c74c809921","null","","","","null","","","","key","16.664099999998385","604","265.5","","","","","","","","","","","","","283","-1","4","false","","","",""
"psychophysics","207","544788","0.0-16.0-2.11","5c519ec789254700019f7934","636dff3392645181d3c238a1","636e029e857bb3c74c809921","573.7999999998137","","","","77","","","","key","16.670558823529383","604","265.5","","","","","","","","","","","","","","","","","","","",""
"psychophysics","208","545791","0.0-16.0-0.12","5c519ec789254700019f7934","636dff3392645181d3c238a1","636e029e857bb3c74c809921","null","","","","null","","","","key","16.667900000000373","604","265.5","","","","","","","","","","","","","","","","","","","",""
"psychophysics","209","546306","0.0-16.0-1.12","5c519ec789254700019f7934","636dff3392645181d3c238a1","636e029e857bb3c74c809921","null","","","","null","","","","key","16.669068965514928","604","265.5","","","","","","","","","","","","","283","1","4","false","","","",""
"psychophysics","210","546547","0.0-16.0-2.12","5c519ec789254700019f7934","636dff3392645181d3c238a1","636e029e857bb3c74c809921","231.89999999990687","","","","77","","","","key","16.670785714290105","604","265.5","","","","","","","","","","","","","","","","","","","",""
"psychophysics","211","547556","0.0-16.0-0.13","5c519ec789254700019f7934","636dff3392645181d3c238a1","636e029e857bb3c74c809921","null","","","","null","","","","key","16.663949152543527","604","265.5","","","","","","","","","","","","","","","","","","","",""
"psychophysics","212","548069","0.0-16.0-1.13","5c519ec789254700019f7934","636dff3392645181d3c238a1","636e029e857bb3c74c809921","null","","","","null","","","","key","16.66536666666701","604","265.5","","","","","","","","","","","","","283","1","3","false","","","",""
"psychophysics","213","548157","0.0-16.0-2.13","5c519ec789254700019f7934","636dff3392645181d3c238a1","636e029e857bb3c74c809921","84","","","","77","","","","key","16.6304999999993","604","265.5","","","","","","","","","","","","","","","","","","","",""
"psychophysics","214","549173","0.0-16.0-0.14","5c519ec789254700019f7934","636dff3392645181d3c238a1","636e029e857bb3c74c809921","null","","","","null","","","","key","16.66756666666673","604","265.5","","","","","","","","","","","","","","","","","","","",""
"psychophysics","215","549689","0.0-16.0-1.14","5c519ec789254700019f7934","636dff3392645181d3c238a1","636e029e857bb3c74c809921","null","","","","null","","","","key","16.666600000000713","604","265.5","","","","","","","","","","","","","283","1","2","false","","","",""
"psychophysics","216","550214","0.0-16.0-2.14","5c519ec789254700019f7934","636dff3392645181d3c238a1","636e029e857bb3c74c809921","516.3999999999069","","","","90","","","","key","16.664774193548627","604","265.5","","","","","","","","","","","","","","","","","","","",""
"psychophysics","217","551223","0.0-16.0-0.15","5c519ec789254700019f7934","636dff3392645181d3c238a1","636e029e857bb3c74c809921","null","","","","null","","","","key","16.67291525423811","604","265.5","","","","","","","","","","","","","","","","","","","",""
"psychophysics","218","551733","0.0-16.0-1.15","5c519ec789254700019f7934","636dff3392645181d3c238a1","636e029e857bb3c74c809921","null","","","","null","","","","key","16.66396666666648","604","265.5","","","","","","","","","","","","","283","-1","3","false","","","",""
"psychophysics","219","552152","0.0-16.0-2.15","5c519ec789254700019f7934","636dff3392645181d3c238a1","636e029e857bb3c74c809921","417.3000000002794","","","","77","","","","key","16.65174999999969","604","265.5","","","","","","","","","","","","","","","","","","","",""
"psychophysics","220","553155","0.0-16.0-0.16","5c519ec789254700019f7934","636dff3392645181d3c238a1","636e029e857bb3c74c809921","null","","","","null","","","","key","16.66737288135593","604","265.5","","","","","","","","","","","","","","","","","","","",""
"psychophysics","221","553658","0.0-16.0-1.16","5c519ec789254700019f7934","636dff3392645181d3c238a1","636e029e857bb3c74c809921","null","","","","null","","","","key","16.677800000001056","604","265.5","","","","","","","","","","","","","283","-1","2","false","","","",""
"psychophysics","222","554073","0.0-16.0-2.16","5c519ec789254700019f7934","636dff3392645181d3c238a1","636e029e857bb3c74c809921","408.89999999990687","","","","90","","","","key","16.68047826086758","604","265.5","","","","","","","","","","","","","","","","","","","",""
"psychophysics","223","555078","0.0-16.0-0.17","5c519ec789254700019f7934","636dff3392645181d3c238a1","636e029e857bb3c74c809921","null","","","","null","","","","key","16.669216666667488","604","265.5","","","","","","","","","","","","","","","","","","","",""
"psychophysics","224","555590","0.0-16.0-1.17","5c519ec789254700019f7934","636dff3392645181d3c238a1","636e029e857bb3c74c809921","null","","","","null","","","","key","16.6575862068988","604","265.5","","","","","","","","","","","","","283","1","6","false","","","",""
"psychophysics","225","555772","0.0-16.0-2.17","5c519ec789254700019f7934","636dff3392645181d3c238a1","636e029e857bb3c74c809921","174","","","","77","","","","key","16.643500000005588","604","265.5","","","","","","","","","","","","","","","","","","","",""
"psychophysics","226","556790","0.0-16.0-0.18","5c519ec789254700019f7934","636dff3392645181d3c238a1","636e029e857bb3c74c809921","null","","","","null","","","","key","16.664300000000125","604","265.5","","","","","","","","","","","","","","","","","","","",""
"psychophysics","227","557306","0.0-16.0-1.18","5c519ec789254700019f7934","636dff3392645181d3c238a1","636e029e857bb3c74c809921","null","","","","null","","","","key","16.66313333333237","604","265.5","","","","","","","","","","","","","283","-1","0","false","","","",""
"psychophysics","228","558029","0.0-16.0-2.18","5c519ec789254700019f7934","636dff3392645181d3c238a1","636e029e857bb3c74c809921","714.2999999998137","","","","77","","","","key","16.66386046511565","604","265.5","","","","","","","","","","","","","","","","","","","",""
"psychophysics","229","559040","0.0-16.0-0.19","5c519ec789254700019f7934","636dff3392645181d3c238a1","636e029e857bb3c74c809921","null","","","","null","","","","key","16.665305084746205","604","265.5","","","","","","","","","","","","","","","","","","","",""
"psychophysics","230","559556","0.0-16.0-1.19","5c519ec789254700019f7934","636dff3392645181d3c238a1","636e029e857bb3c74c809921","null","","","","null","","","","key","16.671833333334266","604","265.5","","","","","","","","","","","","","283","1","0","false","","","",""
"psychophysics","231","559979","0.0-16.0-2.19","5c519ec789254700019f7934","636dff3392645181d3c238a1","636e029e857bb3c74c809921","415.10000000009313","","","","90","","","","key","16.656080000000074","604","265.5","","","","","","","","","","","","","","","","","","","",""
"psychophysics","232","560990","0.0-16.0-0.20","5c519ec789254700019f7934","636dff3392645181d3c238a1","636e029e857bb3c74c809921","null","","","","null","","","","key","16.664542372883062","604","265.5","","","","","","","","","","","","","","","","","","","",""
"psychophysics","233","561506","0.0-16.0-1.20","5c519ec789254700019f7934","636dff3392645181d3c238a1","636e029e857bb3c74c809921","null","","","","null","","","","key","16.66166666666589","604","265.5","","","","","","","","","","","","","283","-1","6","false","","","",""
"psychophysics","234","562727","0.0-16.0-2.20","5c519ec789254700019f7934","636dff3392645181d3c238a1","636e029e857bb3c74c809921","1212.1000000000931","","","","77","","","","key","16.66667123287693","604","265.5","","","","","","","","","","","","","","","","","","","",""
"psychophysics","235","563739","0.0-16.0-0.21","5c519ec789254700019f7934","636dff3392645181d3c238a1","636e029e857bb3c74c809921","null","","","","null","","","","key","16.66150847457594","604","265.5","","","","","","","","","","","","","","","","","","","",""
"psychophysics","236","564253","0.0-16.0-1.21","5c519ec789254700019f7934","636dff3392645181d3c238a1","636e029e857bb3c74c809921","null","","","","null","","","","key","16.664133333333304","604","265.5","","","","","","","","","","","","","283","1","5","false","","","",""
"psychophysics","237","564520","0.0-16.0-2.21","5c519ec789254700019f7934","636dff3392645181d3c238a1","636e029e857bb3c74c809921","265.60000000009313","","","","77","","","","key","16.665933333337307","604","265.5","","","","","","","","","","","","","","","","","","","",""
"psychophysics","238","565524","0.0-16.0-0.22","5c519ec789254700019f7934","636dff3392645181d3c238a1","636e029e857bb3c74c809921","null","","","","null","","","","key","16.670271186442193","604","265.5","","","","","","","","","","","","","","","","","","","",""
"psychophysics","239","566032","0.0-16.0-1.22","5c519ec789254700019f7934","636dff3392645181d3c238a1","636e029e857bb3c74c809921","null","","","","null","","","","key","16.672933333332185","604","265.5","","","","","","","","","","","","","283","-1","4","false","","","",""
"psychophysics","240","566484","0.0-16.0-2.22","5c519ec789254700019f7934","636dff3392645181d3c238a1","636e029e857bb3c74c809921","450","","","","77","","","","key","16.662153846154418","604","265.5","","","","","","","","","","","","","","","","","","","",""
"psychophysics","241","567490","0.0-16.0-0.23","5c519ec789254700019f7934","636dff3392645181d3c238a1","636e029e857bb3c74c809921","null","","","","null","","","","key","16.66825423728659","604","265.5","","","","","","","","","","","","","","","","","","","",""
"psychophysics","242","568000","0.0-16.0-1.23","5c519ec789254700019f7934","636dff3392645181d3c238a1","636e029e857bb3c74c809921","null","","","","null","","","","key","16.66966666666558","604","265.5","","","","","","","","","","","","","283","-1","5","false","","","",""
"psychophysics","243","568165","0.0-16.0-2.23","5c519ec789254700019f7934","636dff3392645181d3c238a1","636e029e857bb3c74c809921","163.10000000009313","","","","77","","","","key","16.64988888889396","604","265.5","","","","","","","","","","","","","","","","","","","",""
"html-keyboard-response","244","589146","0.0-17.0","5c519ec789254700019f7934","636dff3392645181d3c238a1","636e029e857bb3c74c809921","20979.5","<p>Well Done !</p><p>Training Complete. Press the spacebar to start.</p><p>DON'T EXIT THE FULL SCREEN MODE</p>","","","32","","","","","","","","","","","","","","","","","","","","","","","","","","",""
"psychophysics","245","592157","0.0-18.0-0.0","5c519ec789254700019f7934","636dff3392645181d3c238a1","636e029e857bb3c74c809921","null","","","","null","","","","key","16.683350000000793","604","265.5","","","","","","","","","","","","","","","","","","","",""
"psychophysics","246","592673","0.0-18.0-1.0","5c519ec789254700019f7934","636dff3392645181d3c238a1","636e029e857bb3c74c809921","null","","","","null","","","","key","16.66876666666552","604","265.5","","","","","","","","","","","","","283","-1","5","true","","","",""
"psychophysics","247","593883","0.0-18.0-2.0","5c519ec789254700019f7934","636dff3392645181d3c238a1","636e029e857bb3c74c809921","1201.1000000000931","","","","77","","","","key","16.666875000000193","604","265.5","","","","","","","","","","","","","","","","","","","",""
"psychophysics","248","594890","0.0-18.0-0.1","5c519ec789254700019f7934","636dff3392645181d3c238a1","636e029e857bb3c74c809921","null","","","","null","","","","key","16.66369491525318","604","265.5","","","","","","","","","","","","","","","","","","","",""
"psychophysics","249","595406","0.0-18.0-1.1","5c519ec789254700019f7934","636dff3392645181d3c238a1","636e029e857bb3c74c809921","null","","","","null","","","","key","16.664099999998385","604","265.5","","","","","","","","","","","","","283","-1","2","true","","","",""
"psychophysics","250","595864","0.0-18.0-2.1","5c519ec789254700019f7934","636dff3392645181d3c238a1","636e029e857bb3c74c809921","449.79999999981374","","","","90","","","","key","16.66851851851593","604","265.5","","","","","","","","","","","","","","","","","","","",""
"psychophysics","251","596876","0.0-18.0-0.2","5c519ec789254700019f7934","636dff3392645181d3c238a1","636e029e857bb3c74c809921","null","","","","null","","","","key","16.665766666666606","604","265.5","","","","","","","","","","","","","","","","","","","",""
"psychophysics","252","597389","0.0-18.0-1.2","5c519ec789254700019f7934","636dff3392645181d3c238a1","636e029e857bb3c74c809921","null","","","","null","","","","key","16.66962068965498","604","265.5","","","","","","","","","","","","","283","-1","3","true","","","",""
"psychophysics","253","597703","0.0-18.0-2.2","5c519ec789254700019f7934","636dff3392645181d3c238a1","636e029e857bb3c74c809921","304.60000000009313","","","","77","","","","key","16.668111111108576","604","265.5","","","","","","","","","","","","","","","","","","","",""
"psychophysics","254","598706","0.0-18.0-0.3","5c519ec789254700019f7934","636dff3392645181d3c238a1","636e029e857bb3c74c809921","null","","","","null","","","","key","16.669864406779613","604","265.5","","","","","","","","","","","","","","","","","","","",""
"psychophysics","255","599223","0.0-18.0-1.3","5c519ec789254700019f7934","636dff3392645181d3c238a1","636e029e857bb3c74c809921","null","","","","null","","","","key","16.66883333333535","604","265.5","","","","","","","","","","","","","283","-1","0","true","","","",""
"psychophysics","256","599529","0.0-18.0-2.3","5c519ec789254700019f7934","636dff3392645181d3c238a1","636e029e857bb3c74c809921","296.89999999990687","","","","90","","","","key","16.6516666666721","604","265.5","","","","","","","","","","","","","","","","","","","",""
"psychophysics","257","600537","0.0-18.0-0.4","5c519ec789254700019f7934","636dff3392645181d3c238a1","636e029e857bb3c74c809921","null","","","","null","","","","key","16.66430508474606","604","265.5","","","","","","","","","","","","","","","","","","","",""
"psychophysics","258","601040","0.0-18.0-1.4","5c519ec789254700019f7934","636dff3392645181d3c238a1","636e029e857bb3c74c809921","null","","","","null","","","","key","16.66876666666552","604","265.5","","","","","","","","","","","","","283","1","2","true","","","",""
"psychophysics","259","601732","0.0-18.0-2.4","5c519ec789254700019f7934","636dff3392645181d3c238a1","636e029e857bb3c74c809921","686.8999999999069","","","","90","","","","key","16.673024999999324","604","265.5","","","","","","","","","","","","","","","","","","","",""
"psychophysics","260","602740","0.0-18.0-0.5","5c519ec789254700019f7934","636dff3392645181d3c238a1","636e029e857bb3c74c809921","null","","","","null","","","","key","16.6679152542374","604","265.5","","","","","","","","","","","","","","","","","","","",""
"psychophysics","261","603254","0.0-18.0-1.5","5c519ec789254700019f7934","636dff3392645181d3c238a1","636e029e857bb3c74c809921","null","","","","null","","","","key","16.663533333331966","604","265.5","","","","","","","","","","","","","283","1","4","true","","","",""
"psychophysics","262","603473","0.0-18.0-2.5","5c519ec789254700019f7934","636dff3392645181d3c238a1","636e029e857bb3c74c809921","215.8000000002794","","","","77","","","","key","16.664999999998447","604","265.5","","","","","","","","","","","","","","","","","","","",""
"psychophysics","263","604483","0.0-18.0-0.6","5c519ec789254700019f7934","636dff3392645181d3c238a1","636e029e857bb3c74c809921","null","","","","null","","","","key","16.665966666666403","604","265.5","","","","","","","","","","","","","","","","","","","",""
"psychophysics","264","604989","0.0-18.0-1.6","5c519ec789254700019f7934","636dff3392645181d3c238a1","636e029e857bb3c74c809921","null","","","","null","","","","key","16.663827586208534","604","265.5","","","","","","","","","","","","","283","1","5","true","","","",""
"psychophysics","265","605109","0.0-18.0-2.6","5c519ec789254700019f7934","636dff3392645181d3c238a1","636e029e857bb3c74c809921","110.79999999981374","","","","77","","","","key","16.65985714284969","604","265.5","","","","","","","","","","","","","","","","","","","",""
"psychophysics","266","606124","0.0-18.0-0.7","5c519ec789254700019f7934","636dff3392645181d3c238a1","636e029e857bb3c74c809921","null","","","","null","","","","key","16.66313559322034","604","265.5","","","","","","","","","","","","","","","","","","","",""
"psychophysics","267","606639","0.0-18.0-1.7","5c519ec789254700019f7934","636dff3392645181d3c238a1","636e029e857bb3c74c809921","null","","","","null","","","","key","16.664366666669956","604","265.5","","","","","","","","","","","","","283","-1","6","true","","","",""
"psychophysics","268","606827","0.0-18.0-2.7","5c519ec789254700019f7934","636dff3392645181d3c238a1","636e029e857bb3c74c809921","179.3000000002794","","","","77","","","","key","16.6633636363655","604","265.5","","","","","","","","","","","","","","","","","","","",""
"psychophysics","269","607839","0.0-18.0-0.8","5c519ec789254700019f7934","636dff3392645181d3c238a1","636e029e857bb3c74c809921","null","","","","null","","","","key","16.669559322035145","604","265.5","","","","","","","","","","","","","","","","","","","",""
"psychophysics","270","608356","0.0-18.0-1.8","5c519ec789254700019f7934","636dff3392645181d3c238a1","636e029e857bb3c74c809921","null","","","","null","","","","key","16.666033333334294","604","265.5","","","","","","","","","","","","","283","1","0","true","","","",""
"psychophysics","271","608932","0.0-18.0-2.8","5c519ec789254700019f7934","636dff3392645181d3c238a1","636e029e857bb3c74c809921","559.1999999997206","","","","90","","","","key","16.66191176470602","604","265.5","","","","","","","","","","","","","","","","","","","",""
"psychophysics","272","609939","0.0-18.0-0.9","5c519ec789254700019f7934","636dff3392645181d3c238a1","636e029e857bb3c74c809921","null","","","","null","","","","key","16.669932203389056","604","265.5","","","","","","","","","","","","","","","","","","","",""
"psychophysics","273","610446","0.0-18.0-1.9","5c519ec789254700019f7934","636dff3392645181d3c238a1","636e029e857bb3c74c809921","null","","","","null","","","","key","16.665666666669615","604","265.5","","","","","","","","","","","","","283","-1","4","true","","","",""
"psychophysics","274","610895","0.0-18.0-2.9","5c519ec789254700019f7934","636dff3392645181d3c238a1","636e029e857bb3c74c809921","447.3000000002794","","","","77","","","","key","16.663307692304862","604","265.5","","","","","","","","","","","","","","","","","","","",""
"psychophysics","275","611904","0.0-18.0-0.10","5c519ec789254700019f7934","636dff3392645181d3c238a1","636e029e857bb3c74c809921","null","","","","null","","","","key","16.66620338983218","604","265.5","","","","","","","","","","","","","","","","","","","",""
"psychophysics","276","612409","0.0-18.0-1.10","5c519ec789254700019f7934","636dff3392645181d3c238a1","636e029e857bb3c74c809921","null","","","","null","","","","key","16.665333333332093","604","265.5","","","","","","","","","","","","","283","1","6","true","","","",""
"psychophysics","277","612702","0.0-18.0-2.10","5c519ec789254700019f7934","636dff3392645181d3c238a1","636e029e857bb3c74c809921","288.3000000002794","","","","77","","","","key","16.665062499996566","604","265.5","","","","","","","","","","","","","","","","","","","",""
"psychophysics","278","613708","0.0-18.0-0.11","5c519ec789254700019f7934","636dff3392645181d3c238a1","636e029e857bb3c74c809921","null","","","","null","","","","key","16.666084745762696","604","265.5","","","","","","","","","","","","","","","","","","","",""
"psychophysics","279","614222","0.0-18.0-1.11","5c519ec789254700019f7934","636dff3392645181d3c238a1","636e029e857bb3c74c809921","null","","","","null","","","","key","16.666766666663655","604","265.5","","","","","","","","","","","","","283","1","3","true","","","",""
"psychophysics","280","614380","0.0-18.0-2.11","5c519ec789254700019f7934","636dff3392645181d3c238a1","636e029e857bb3c74c809921","138","","","","77","","","","key","16.66555555555452","604","265.5","","","","","","","","","","","","","","","","","","","",""
"psychophysics","281","615389","0.0-18.0-0.12","5c519ec789254700019f7934","636dff3392645181d3c238a1","636e029e857bb3c74c809921","null","","","","null","","","","key","16.666406779660512","604","265.5","","","","","","","","","","","","","","","","","","","",""
"psychophysics","282","615903","0.0-18.0-1.12","5c519ec789254700019f7934","636dff3392645181d3c238a1","636e029e857bb3c74c809921","null","","","","null","","","","key","16.66976666666645","604","265.5","","","","","","","","","","","","","283","1","2","true","","","",""
"psychophysics","283","616335","0.0-18.0-2.12","5c519ec789254700019f7934","636dff3392645181d3c238a1","636e029e857bb3c74c809921","422.3000000002794","","","","90","","","","key","16.66532000000123","604","265.5","","","","","","","","","","","","","","","","","","","",""
"psychophysics","284","617340","0.0-18.0-0.13","5c519ec789254700019f7934","636dff3392645181d3c238a1","636e029e857bb3c74c809921","null","","","","null","","","","key","16.666067796609347","604","265.5","","","","","","","","","","","","","","","","","","","",""
"psychophysics","285","617856","0.0-18.0-1.13","5c519ec789254700019f7934","636dff3392645181d3c238a1","636e029e857bb3c74c809921","null","","","","null","","","","key","16.666300000001986","604","265.5","","","","","","","","","","","","","283","-1","5","true","","","",""
"psychophysics","286","617965","0.0-18.0-2.13","5c519ec789254700019f7934","636dff3392645181d3c238a1","636e029e857bb3c74c809921","102.39999999990687","","","","77","","","","key","16.664999999998447","604","265.5","","","","","","","","","","","","","","","","","","","",""
"psychophysics","287","618971","0.0-18.0-0.14","5c519ec789254700019f7934","636dff3392645181d3c238a1","636e029e857bb3c74c809921","null","","","","null","","","","key","16.666508474574677","604","265.5","","","","","","","","","","","","","","","","","","","",""
"psychophysics","288","619488","0.0-18.0-1.14","5c519ec789254700019f7934","636dff3392645181d3c238a1","636e029e857bb3c74c809921","null","","","","null","","","","key","16.667266666668002","604","265.5","","","","","","","","","","","","","283","-1","0","true","","","",""
"psychophysics","289","619978","0.0-18.0-2.14","5c519ec789254700019f7934","636dff3392645181d3c238a1","636e029e857bb3c74c809921","472","","","","77","","","","key","16.665999999996437","604","265.5","","","","","","","","","","","","","","","","","","","",""
"psychophysics","290","620989","0.0-18.0-0.15","5c519ec789254700019f7934","636dff3392645181d3c238a1","636e029e857bb3c74c809921","null","","","","null","","","","key","16.66598305084853","604","265.5","","","","","","","","","","","","","","","","","","","",""
"psychophysics","291","621506","0.0-18.0-1.15","5c519ec789254700019f7934","636dff3392645181d3c238a1","636e029e857bb3c74c809921","null","","","","null","","","","key","16.672933333332185","604","265.5","","","","","","","","","","","","","283","-1","2","true","","","",""
"psychophysics","292","621897","0.0-18.0-2.15","5c519ec789254700019f7934","636dff3392645181d3c238a1","636e029e857bb3c74c809921","383.89999999990687","","","","90","","","","key","16.670739130435877","604","265.5","","","","","","","","","","","","","","","","","","","",""
"psychophysics","293","622906","0.0-18.0-0.16","5c519ec789254700019f7934","636dff3392645181d3c238a1","636e029e857bb3c74c809921","null","","","","null","","","","key","16.66808474576298","604","265.5","","","","","","","","","","","","","","","","","","","",""
"psychophysics","294","623415","0.0-18.0-1.16","5c519ec789254700019f7934","636dff3392645181d3c238a1","636e029e857bb3c74c809921","null","","","","null","","","","key","16.663400000000063","604","265.5","","","","","","","","","","","","","283","1","3","true","","","",""
"psychophysics","295","623816","0.0-18.0-2.16","5c519ec789254700019f7934","636dff3392645181d3c238a1","636e029e857bb3c74c809921","400.20000000018626","","","","77","","","","key","16.66982608695474","604","265.5","","","","","","","","","","","","","","","","","","","",""
"psychophysics","296","624822","0.0-18.0-0.17","5c519ec789254700019f7934","636dff3392645181d3c238a1","636e029e857bb3c74c809921","null","","","","null","","","","key","16.6658474576257","604","265.5","","","","","","","","","","","","","","","","","","","",""
"psychophysics","297","625337","0.0-18.0-1.17","5c519ec789254700019f7934","636dff3392645181d3c238a1","636e029e857bb3c74c809921","null","","","","null","","","","key","16.666233333336034","604","265.5","","","","","","","","","","","","","283","-1","3","true","","","",""
"psychophysics","298","625782","0.0-18.0-2.17","5c519ec789254700019f7934","636dff3392645181d3c238a1","636e029e857bb3c74c809921","424.60000000009313","","","","77","","","","key","16.666115384616067","604","265.5","","","","","","","","","","","","","","","","","","","",""
"psychophysics","299","626789","0.0-18.0-0.18","5c519ec789254700019f7934","636dff3392645181d3c238a1","636e029e857bb3c74c809921","null","","","","null","","","","key","16.666440677967206","604","265.5","","","","","","","","","","","","","","","","","","","",""
"psychophysics","300","627306","0.0-18.0-1.18","5c519ec789254700019f7934","636dff3392645181d3c238a1","636e029e857bb3c74c809921","null","","","","null","","","","key","16.66573333333557","604","265.5","","","","","","","","","","","","","283","1","0","true","","","",""
"psychophysics","301","627593","0.0-18.0-2.18","5c519ec789254700019f7934","636dff3392645181d3c238a1","636e029e857bb3c74c809921","278.70000000018626","","","","90","","","","key","16.666352941175266","604","265.5","","","","","","","","","","","","","","","","","","","",""
"psychophysics","302","628606","0.0-18.0-0.19","5c519ec789254700019f7934","636dff3392645181d3c238a1","636e029e857bb3c74c809921","null","","","","null","","","","key","16.66615254237214","604","265.5","","","","","","","","","","","","","","","","","","","",""
"psychophysics","303","629123","0.0-18.0-1.19","5c519ec789254700019f7934","636dff3392645181d3c238a1","636e029e857bb3c74c809921","null","","","","null","","","","key","16.667599999997766","604","265.5","","","","","","","","","","","","","283","-1","4","true","","","",""
"psychophysics","304","629633","0.0-18.0-2.19","5c519ec789254700019f7934","636dff3392645181d3c238a1","636e029e857bb3c74c809921","502.70000000018626","","","","77","","","","key","16.666699999997704","604","265.5","","","","","","","","","","","","","","","","","","","",""
"psychophysics","305","630638","0.0-18.0-0.20","5c519ec789254700019f7934","636dff3392645181d3c238a1","636e029e857bb3c74c809921","null","","","","null","","","","key","16.666118644067417","604","265.5","","","","","","","","","","","","","","","","","","","",""
"psychophysics","306","631153","0.0-18.0-1.20","5c519ec789254700019f7934","636dff3392645181d3c238a1","636e029e857bb3c74c809921","null","","","","null","","","","key","16.665966666668343","604","265.5","","","","","","","","","","","","","283","1","5","true","","","",""
"psychophysics","307","631298","0.0-18.0-2.20","5c519ec789254700019f7934","636dff3392645181d3c238a1","636e029e857bb3c74c809921","139.8000000002794","","","","77","","","","key","16.660375000006752","604","265.5","","","","","","","","","","","","","","","","","","","",""
"psychophysics","308","632307","0.0-18.0-0.21","5c519ec789254700019f7934","636dff3392645181d3c238a1","636e029e857bb3c74c809921","null","","","","null","","","","key","16.665525423727882","604","265.5","","","","","","","","","","","","","","","","","","","",""
"psychophysics","309","632818","0.0-18.0-1.21","5c519ec789254700019f7934","636dff3392645181d3c238a1","636e029e857bb3c74c809921","null","","","","null","","","","key","16.666866666668405","604","265.5","","","","","","","","","","","","","283","1","4","true","","","",""
"psychophysics","310","633000","0.0-18.0-2.21","5c519ec789254700019f7934","636dff3392645181d3c238a1","636e029e857bb3c74c809921","180.20000000018626","","","","77","","","","key","16.66489999999758","604","265.5","","","","","","","","","","","","","","","","","","","",""
"psychophysics","311","634004","0.0-18.0-0.22","5c519ec789254700019f7934","636dff3392645181d3c238a1","636e029e857bb3c74c809921","null","","","","null","","","","key","16.666152542374114","604","265.5","","","","","","","","","","","","","","","","","","","",""
"psychophysics","312","634508","0.0-18.0-1.22","5c519ec789254700019f7934","636dff3392645181d3c238a1","636e029e857bb3c74c809921","null","","","","null","","","","key","16.66479999999671","604","265.5","","","","","","","","","","","","","283","1","6","true","","","",""
"psychophysics","313","634712","0.0-18.0-2.22","5c519ec789254700019f7934","636dff3392645181d3c238a1","636e029e857bb3c74c809921","199.60000000009313","","","","77","","","","key","16.666636363634925","604","265.5","","","","","","","","","","","","","","","","","","","",""
"psychophysics","314","635722","0.0-18.0-0.23","5c519ec789254700019f7934","636dff3392645181d3c238a1","636e029e857bb3c74c809921","null","","","","null","","","","key","16.666033898304626","604","265.5","","","","","","","","","","","","","","","","","","","",""
"psychophysics","315","636239","0.0-18.0-1.23","5c519ec789254700019f7934","636dff3392645181d3c238a1","636e029e857bb3c74c809921","null","","","","null","","","","key","16.66626666666707","604","265.5","","","","","","","","","","","","","283","-1","6","true","","","",""
"psychophysics","316","636410","0.0-18.0-2.23","5c519ec789254700019f7934","636dff3392645181d3c238a1","636e029e857bb3c74c809921","162.8000000002794","","","","77","","","","key","16.66809999999823","604","265.5","","","","","","","","","","","","","","","","","","","",""
"psychophysics","317","637424","0.0-18.0-0.24","5c519ec789254700019f7934","636dff3392645181d3c238a1","636e029e857bb3c74c809921","null","","","","null","","","","key","16.666966101695326","604","265.5","","","","","","","","","","","","","","","","","","","",""
"psychophysics","318","637938","0.0-18.0-1.24","5c519ec789254700019f7934","636dff3392645181d3c238a1","636e029e857bb3c74c809921","null","","","","null","","","","key","16.66739999999991","604","265.5","","","","","","","","","","","","","283","1","4","true","","","",""
"psychophysics","319","638067","0.0-18.0-2.24","5c519ec789254700019f7934","636dff3392645181d3c238a1","636e029e857bb3c74c809921","120.89999999990687","","","","77","","","","key","16.666428571433894","604","265.5","","","","","","","","","","","","","","","","","","","",""
"psychophysics","320","639072","0.0-18.0-0.25","5c519ec789254700019f7934","636dff3392645181d3c238a1","636e029e857bb3c74c809921","null","","","","null","","","","key","16.66588135593239","604","265.5","","","","","","","","","","","","","","","","","","","",""
"psychophysics","321","639588","0.0-18.0-1.25","5c519ec789254700019f7934","636dff3392645181d3c238a1","636e029e857bb3c74c809921","null","","","","null","","","","key","16.666566666665798","604","265.5","","","","","","","","","","","","","283","-1","0","true","","","",""
"psychophysics","322","640082","0.0-18.0-2.25","5c519ec789254700019f7934","636dff3392645181d3c238a1","636e029e857bb3c74c809921","484.6999999997206","","","","90","","","","key","16.666793103446253","604","265.5","","","","","","","","","","","","","","","","","","","",""
"psychophysics","323","641088","0.0-18.0-0.26","5c519ec789254700019f7934","636dff3392645181d3c238a1","636e029e857bb3c74c809921","null","","","","null","","","","key","16.666169491525487","604","265.5","","","","","","","","","","","","","","","","","","","",""
"psychophysics","324","641598","0.0-18.0-1.26","5c519ec789254700019f7934","636dff3392645181d3c238a1","636e029e857bb3c74c809921","null","","","","null","","","","key","16.665966666668343","604","265.5","","","","","","","","","","","","","283","1","0","true","","","",""
"psychophysics","325","642061","0.0-18.0-2.26","5c519ec789254700019f7934","636dff3392645181d3c238a1","636e029e857bb3c74c809921","460.89999999990687","","","","90","","","","key","16.665740740739878","604","265.5","","","","","","","","","","","","","","","","","","","",""
"psychophysics","326","643069","0.0-18.0-0.27","5c519ec789254700019f7934","636dff3392645181d3c238a1","636e029e857bb3c74c809921","null","","","","null","","","","key","16.666610169492788","604","265.5","","","","","","","","","","","","","","","","","","","",""
"psychophysics","327","643571","0.0-18.0-1.27","5c519ec789254700019f7934","636dff3392645181d3c238a1","636e029e857bb3c74c809921","null","","","","null","","","","key","16.665241379306877","604","265.5","","","","","","","","","","","","","283","-1","2","true","","","",""
"psychophysics","328","644142","0.0-18.0-2.27","5c519ec789254700019f7934","636dff3392645181d3c238a1","636e029e857bb3c74c809921","562.3999999999069","","","","90","","","","key","16.669363636364736","604","265.5","","","","","","","","","","","","","","","","","","","",""
"psychophysics","329","645155","0.0-18.0-0.28","5c519ec789254700019f7934","636dff3392645181d3c238a1","636e029e857bb3c74c809921","null","","","","null","","","","key","16.664649999999288","604","265.5","","","","","","","","","","","","","","","","","","","",""
