"trial_type","trial_index","time_elapsed","internal_node_id","PROLIFIC_PID","STUDY_ID","SESSION_ID","rt","stimulus","button_pressed","success","key_press","responses","isData","view_history","response_type","avg_frame_time","center_x","center_y","isSC","stim_side","trial_luminance","step_size","nReversal","correct","prev_ans","isThreshold","SC_threshold","final_threshold","isLuminance","FF_luminance","luminance","stimSide","ISInt","isFF","question_order","isSPQ","isCAPS","isAQ"
"pavlovia","0","8","0.0-0.0","600d559d03355c51465a7004","636dff3392645181d3c238a1","636e0164904f7b7f4aa51a70","","","","","","","","","","","","","","","","","","","","","","","","","","","","","","","",""
"html-button-response","1","36405","0.0-1.0","600d559d03355c51465a7004","636dff3392645181d3c238a1","636e0164904f7b7f4aa51a70","36393.29999999702","<div style='background-color: white; width:60%; margin: auto; padding: 50px; text-align: justify; text-justify: inter-word; margin-bottom: 20px;'><h1 style='text-align: center;'>Consent Form</h1><p>Please read this consent form carefully before deciding whether you would like to participate in this study. You have to be 18 years old or older to participate to this study.</p><p style='text-decoration: underline;'>Participation is voluntary:</p><p>It is your choice whether or not to participate in this research. If you choose to participate, you may change your mind and leave the study at any time. Refusal to participate or stopping your participation will involve no penalty or loss of benefits to which you are otherwise entitled.</p><p style='text-decoration: underline;'>Purpose of the Study:</p><p>To understand the mechanisms underlying human perception.</p><p style='text-decoration: underline;'>What you will do in this study:</p><p>You will be presented with a series of visual images and then you will press buttons on the keyboard of your computer to respond to simple questions about the images (e.g. Were one or two images presented?). In addition, you will be asked to complete a questionnaire concerning your beliefs and everyday mental and perceptual experiences.'</p><p style='text-decoration: underline;'> Time Required:</p><p>The study will take 40 minutes to complete. </p><p style='text-decoration: underline;'>Risks:</p><p>There are no anticipated risks associated with participating in this study that are beyond those experienced in everyday life. </p><p style='text-decoration: underline;'>Benefits:</p><p>There are no benefits to you in participating in the study. However, this study may lead to a better understanding of how different kinds of visual information are used.</p><p style='text-decoration: underline;'>Compensation:</p><p>You will be paid US$6.6/hour. </p><p style='text-decoration: underline;'>Privacy and Confidentiality:</p><p>Your participation in this study will be anonymous. No personal information about your name or identity will be asked or recorded. This anonymous data will be stored for several years and may be used for a variety of research purposes. The overall results of the study may be published, or the data files may be shared with other researchers, but your identity will not be revealed in any way. The online services we are using for this study may temporarily store your data, but this data will be downloaded and then promptly deleted from those services.Your data will not be permanently associated with your name, IP address, or any other identifiable information (e.g., your information will only be connected to your payment, not to any of your responses), though they may be temporarily stored together before we download and separate them. Even so, no guarantee of internet survey security can be given because, although unlikely, transmissions can be intercepted and IP addresses can be identified. The anonymous data may be shared publicly (for example, in conjunction with a resulting academic publication).</p><p style='text-decoration: underline;'>Participation and Withdrawal:</p><p>Your participation in this study is completely voluntary. You may stop responding to the stimuli or stop answering questions if you so choose and without penalty by exiting the full screen mode, closing this tab of your browser or redirecting it to a different website.</p><p style='text-decoration: underline;'>Contact Info of the Researcher: </p><p>If you have questions about this study, or if you would like to talk to the research team, please contact David Melcher (david.melcher@nyu.edu, md5050@nyu.edu) at the Perception and Active Cognition Laboratory, New York University Abu Dhabi, Computational Research Building, Saadiyat Island, Abu Dhabi, UAE.This research has been reviewed by the New York University Abu Dhabi Institutional Review Board (NYUAD IRB). To contact about your rights in this research, for questions, suggestions, or complaints that are not addressed by the researchers, please email IRBnyuad@nyu.edu, or call the NYUAD IRB at +971 2 628 4313. </p></div>","0","","","","","","","","","","","","","","","","","","","","","","","","","","","","",""
"fullscreen","2","38359","0.0-2.0","600d559d03355c51465a7004","636dff3392645181d3c238a1","636e0164904f7b7f4aa51a70","","","","true","","","","","","","","","","","","","","","","","","","","","","","","","","","",""
"html-keyboard-response","3","62674","0.0-3.0","600d559d03355c51465a7004","636dff3392645181d3c238a1","636e0164904f7b7f4aa51a70","24314.90000000596","<p>Welcome !</p><p>READ CAREFULLY THE FOLLOWING INDICATIONS:</p><p>From this moment you have ~40 minutes to complete the experiment.</p><p>During the experiment you will be prompted to take several breaks. Each break should not last longer than 2-3 minutes.</p><p>Make sure that your computer is plugged in and it's not running on battery power, even if the battery is already fully charged.</p><p>Turn off your phone and music, make sure that you are in a quiet room and that you will not be distracted for the next hour.</p><p>Failure to comply with the instructions and indications provided during the experiment will most likely result in the rejection of your data.<p>Press the spacebar to start.</p>","","","32","","","","","","","","","","","","","","","","","","","","","","","","","","",""
"survey-html-form","4","73292","0.0-4.0","600d559d03355c51465a7004","636dff3392645181d3c238a1","636e0164904f7b7f4aa51a70","10616.60000000894","","","","","{""age"":""42"",""sex"":""Female""}","true","","","","","","","","","","","","","","","","","","","","","","","","",""
"instructions","5","125299","0.0-5.0","600d559d03355c51465a7004","636dff3392645181d3c238a1","636e0164904f7b7f4aa51a70","52006.40000000596","","","","","","","[{""page_index"":0,""viewing_time"":40103.40000000596},{""page_index"":1,""viewing_time"":9694.5},{""page_index"":2,""viewing_time"":2208.0999999940395}]","","","","","","","","","","","","","","","","","","","","","","","",""
"psychophysics","6","139196","0.0-6.0-0.0","600d559d03355c51465a7004","636dff3392645181d3c238a1","636e0164904f7b7f4aa51a70","12887","","","","39","","","","key","16.72480264741276","960","468.5","true","-1","180","30","0","1","","","","","","","","","","","","","",""
"psychophysics","7","140539","0.0-6.0-0.1","600d559d03355c51465a7004","636dff3392645181d3c238a1","636e0164904f7b7f4aa51a70","334.5","","","","39","","","","key","16.721637499999996","960","468.5","true","1","210","30","0","-1","1","","","","","","","","","","","","",""
"psychophysics","8","141645","0.0-6.0-0.2","600d559d03355c51465a7004","636dff3392645181d3c238a1","636e0164904f7b7f4aa51a70","104.29999999701977","","","","37","","","","key","16.721923076923346","960","468.5","true","-1","210","24","1","-1","-1","","","","","","","","","","","","",""
"psychophysics","9","146105","0.0-6.0-0.3","600d559d03355c51465a7004","636dff3392645181d3c238a1","636e0164904f7b7f4aa51a70","3458.5","","","","39","","","","key","16.721826415094394","960","468.5","true","1","186","24","1","-1","-1","","","","","","","","","","","","",""
"psychophysics","10","148769","0.0-6.0-0.4","600d559d03355c51465a7004","636dff3392645181d3c238a1","636e0164904f7b7f4aa51a70","1660.300000011921","","","","39","","","","key","16.72203773584908","960","468.5","true","-1","186","19.2","2","1","-1","","","","","","","","","","","","",""
"psychophysics","11","151565","0.0-6.0-0.5","600d559d03355c51465a7004","636dff3392645181d3c238a1","636e0164904f7b7f4aa51a70","1785.4000000059605","","","","39","","","","key","16.722192771084284","960","468.5","true","1","205.2","19.2","2","-1","1","","","","","","","","","","","","",""
"psychophysics","12","154099","0.0-6.0-0.6","600d559d03355c51465a7004","636dff3392645181d3c238a1","636e0164904f7b7f4aa51a70","1527","","","","37","","","","key","16.722060000000056","960","468.5","true","1","205.2","15.36","3","1","-1","","","","","","","","","","","","",""
"psychophysics","13","155129","0.0-6.0-0.7","600d559d03355c51465a7004","636dff3392645181d3c238a1","636e0164904f7b7f4aa51a70","26.5","","","","39","","","","key","16.722426229508184","960","468.5","true","1","220.56","15.36","3","-1","1","","","","","","","","","","","","",""
"psychophysics","14","156162","0.0-6.0-0.8","600d559d03355c51465a7004","636dff3392645181d3c238a1","636e0164904f7b7f4aa51a70","31","","","","37","","","","key","16.721540983606484","960","468.5","true","-1","220.56","12.287999999999998","4","-1","-1","","","","","","","","","","","","",""
"psychophysics","15","157219","0.0-6.0-0.9","600d559d03355c51465a7004","636dff3392645181d3c238a1","636e0164904f7b7f4aa51a70","46.900000005960464","","","","37","","","","key","16.72232258064492","960","468.5","true","-1","208.272","12.287999999999998","4","-1","-1","","","","","","","","","","","","",""
"psychophysics","16","159399","0.0-6.0-0.10","600d559d03355c51465a7004","636dff3392645181d3c238a1","636e0164904f7b7f4aa51a70","1177.5","","","","39","","","","key","16.721651162790646","960","468.5","true","-1","208.272","9.8304","5","1","-1","","","","","","","","","","","","",""
"psychophysics","17","161725","0.0-6.0-0.11","600d559d03355c51465a7004","636dff3392645181d3c238a1","636e0164904f7b7f4aa51a70","1321.9000000059605","","","","39","","","","key","16.7224420289854","960","468.5","true","-1","218.1024","9.8304","5","1","1","","","","","","","","","","","","",""
"psychophysics","18","164396","0.0-6.0-0.12","600d559d03355c51465a7004","636dff3392645181d3c238a1","636e0164904f7b7f4aa51a70","1668.7000000029802","","","","39","","","","key","16.721805031446678","960","468.5","true","1","227.9328","9.8304","5","-1","1","","","","","","","","","","","","",""
"psychophysics","19","167404","0.0-6.0-0.13","600d559d03355c51465a7004","636dff3392645181d3c238a1","636e0164904f7b7f4aa51a70","2001.300000011921","","","","39","","","","key","16.7222011173183","960","468.5","true","-1","227.9328","7.864319999999999","6","1","-1","","","","","","","","","","","","",""
"psychophysics","20","169595","0.0-6.0-0.14","600d559d03355c51465a7004","636dff3392645181d3c238a1","636e0164904f7b7f4aa51a70","1183","","","","37","","","","key","16.722015384615336","960","468.5","true","1","235.79711999999998","7.864319999999999","6","1","1","","","","","","","","","","","","",""
"psychophysics","21","172265","0.0-6.0-0.15","600d559d03355c51465a7004","636dff3392645181d3c238a1","636e0164904f7b7f4aa51a70","1660.5","","","","39","","","","key","16.722276729559773","960","468.5","true","1","243.66143999999997","7.864319999999999","6","-1","1","","","","","","","","","","","","",""
"psychophysics","22","175012","0.0-6.0-0.16","600d559d03355c51465a7004","636dff3392645181d3c238a1","636e0164904f7b7f4aa51a70","1739","","","","37","","","","key","16.721907975460134","960","468.5","true","1","243.66143999999997","6.291456","7","1","-1","","","","","","","","","","","","",""
"psychophysics","23","177102","0.0-6.0-0.17","600d559d03355c51465a7004","636dff3392645181d3c238a1","636e0164904f7b7f4aa51a70","1082.4000000059605","","","","37","","","","key","16.72208870967757","960","468.5","true","-1","249.95289599999998","6.291456","7","-1","1","","","","","","","","","","","","",""
"psychophysics","24","178161","0.0-6.0-0.18","600d559d03355c51465a7004","636dff3392645181d3c238a1","636e0164904f7b7f4aa51a70","53.099999994039536","","","","37","","","","key","16.721322580645303","960","468.5","true","-1","249.95289599999998","5.033164800000001","8","-1","-1","","","","","","","","","","","","",""
"psychophysics","25","180293","0.0-6.0-0.19","600d559d03355c51465a7004","636dff3392645181d3c238a1","636e0164904f7b7f4aa51a70","1129.5","","","","37","","","","key","16.721858267716588","960","468.5","true","1","244.91973119999997","4.0265318400000005","9","1","-1","","","","","","","","","","","","",""
"psychophysics","26","182838","0.0-6.0-0.20","600d559d03355c51465a7004","636dff3392645181d3c238a1","636e0164904f7b7f4aa51a70","1539.2999999970198","","","","39","","","","key","16.72178145695365","960","468.5","true","-1","248.94626303999996","4.0265318400000005","9","1","1","","","","","","","","","","","","",""
"psychophysics","27","184911","0.0-6.0-0.21","600d559d03355c51465a7004","636dff3392645181d3c238a1","636e0164904f7b7f4aa51a70","1068.0999999940395","","","","39","","","","key","16.722040650406633","960","468.5","true","-1","252.97279487999995","4.0265318400000005","9","1","1","","","","","","","","","","","","",""
"psychophysics","28","186989","0.0-6.0-0.22","600d559d03355c51465a7004","636dff3392645181d3c238a1","636e0164904f7b7f4aa51a70","1073.9000000059605","","","","39","","","","key","16.72204878048785","960","468.5","true","1","255","4.0265318400000005","9","-1","1","","","","","","","","","","","","",""
"psychophysics","29","189097","0.0-6.0-0.23","600d559d03355c51465a7004","636dff3392645181d3c238a1","636e0164904f7b7f4aa51a70","1103.0999999940395","","","","37","","","","key","16.722232000000076","960","468.5","true","1","255","3.2212254720000004","10","1","-1","","","","","","","","","","","","",""
"psychophysics","30","191222","0.0-6.0-0.24","600d559d03355c51465a7004","636dff3392645181d3c238a1","636e0164904f7b7f4aa51a70","1123.2000000029802","","","","37","","","","key","16.722251968503898","960","468.5","true","-1","255","3.2212254720000004","10","-1","1","","","","","","","","","","","","",""
"psychophysics","31","192249","0.0-6.0-0.25","600d559d03355c51465a7004","636dff3392645181d3c238a1","636e0164904f7b7f4aa51a70","24","","","","37","","","","key","16.721983333333142","960","468.5","true","-1","251.77877452799999","2.5769803776000004","11","-1","-1","","","","","","","","","","","","",""
"psychophysics","32","194438","0.0-6.0-0.26","600d559d03355c51465a7004","636dff3392645181d3c238a1","636e0164904f7b7f4aa51a70","1185.7999999970198","","","","39","","","","key","16.721846153846126","960","468.5","true","-1","251.77877452799999","2.0615843020800004","12","1","-1","","","","","","","","","","","","",""
"psychophysics","33","196712","0.0-6.0-0.27","600d559d03355c51465a7004","636dff3392645181d3c238a1","636e0164904f7b7f4aa51a70","1268.5","","","","39","","","","key","16.721614814814853","960","468.5","true","1","253.84035883008","2.0615843020800004","12","-1","1","","","","","","","","","","","","",""
"psychophysics","34","198372","0.0-6.0-0.28","600d559d03355c51465a7004","636dff3392645181d3c238a1","636e0164904f7b7f4aa51a70","657.2000000029802","","","","39","","","","key","16.72183673469378","960","468.5","true","-1","253.84035883008","1.6492674416640005","13","1","-1","","","","","","","","","","","","",""
"psychophysics","35","200372","0.0-6.0-0.29","600d559d03355c51465a7004","636dff3392645181d3c238a1","636e0164904f7b7f4aa51a70","992.0999999940395","","","","39","","","","key","16.721991596638542","960","468.5","true","1","255","1.6492674416640005","13","-1","1","","","","","","","","","","","","",""
"psychophysics","36","202091","0.0-6.0-0.30","600d559d03355c51465a7004","636dff3392645181d3c238a1","636e0164904f7b7f4aa51a70","711","","","","39","","","","key","16.722168316831812","960","468.5","true","-1","255","1.3194139533312006","14","1","-1","","","","","","","","","","","","",""
"psychophysics","37","203847","0.0-6.0-0.31","600d559d03355c51465a7004","636dff3392645181d3c238a1","636e0164904f7b7f4aa51a70","752.7999999970198","","","","39","","","","key","16.72171153846144","960","468.5","true","-1","255","1.3194139533312006","14","1","1","","","","","","","","","","","","",""
"psychophysics","38","205619","0.0-6.0-0.32","600d559d03355c51465a7004","636dff3392645181d3c238a1","636e0164904f7b7f4aa51a70","768.4000000059605","","","","37","","","","key","16.721980952381134","960","468.5","true","1","255","1.3194139533312006","14","1","1","","","","","","","","","","","","",""
"psychophysics","39","207484","0.0-6.0-0.33","600d559d03355c51465a7004","636dff3392645181d3c238a1","636e0164904f7b7f4aa51a70","862.2000000029802","","","","39","","","","key","16.721846846846848","960","468.5","true","-1","255","1.3194139533312006","14","1","1","","","","","","","","","","","","",""
"psychophysics","40","209348","0.0-6.0-0.34","600d559d03355c51465a7004","636dff3392645181d3c238a1","636e0164904f7b7f4aa51a70","856.1000000089407","","","","39","","","","key","16.721827272727122","960","468.5","true","1","255","1.3194139533312006","14","-1","1","","","","","","","","","","","","",""
"psychophysics","41","210447","0.0-6.0-0.35","600d559d03355c51465a7004","636dff3392645181d3c238a1","636e0164904f7b7f4aa51a70","95.70000000298023","","","","39","","","","key","16.723076923076924","960","468.5","true","1","253.6805860466688","1.0555311626649604","15","-1","-1","","","","","","","","","","","","",""
"psychophysics","42","211753","0.0-6.0-0.36","600d559d03355c51465a7004","636dff3392645181d3c238a1","636e0164904f7b7f4aa51a70","302.1000000089407","","","","37","","","","key","16.72177922077947","960","468.5","true","-1","253.6805860466688","1.0555311626649604","15","-1","-1","","","","","","","","","","","","",""
"psychophysics","43","213684","0.0-6.0-0.37","600d559d03355c51465a7004","636dff3392645181d3c238a1","636e0164904f7b7f4aa51a70","928.5","","","","37","","","","key","16.72246086956508","960","468.5","true","1","252.62505488400384","1","16","1","-1","","","","","","","","","","","","",""
"psychophysics","44","215864","0.0-6.0-0.38","600d559d03355c51465a7004","636dff3392645181d3c238a1","636e0164904f7b7f4aa51a70","1173.7000000029802","","","","37","","","","key","16.721798449612354","960","468.5","true","1","253.62505488400384","1","16","1","1","","","","","","","","","","","","",""
"psychophysics","45","217803","0.0-6.0-0.39","600d559d03355c51465a7004","636dff3392645181d3c238a1","636e0164904f7b7f4aa51a70","935.5","","","","37","","","","key","16.722147826086882","960","468.5","true","1","254.62505488400384","1","16","1","1","","","","","","","","","","","","",""
"html-keyboard-response","46","223891","0.0-7.0","600d559d03355c51465a7004","636dff3392645181d3c238a1","636e0164904f7b7f4aa51a70","6087.0999999940395","<p>Well Done !</p><p>Prepare for a new block.</p><p>DON'T EXIT THE FULL SCREEN MODE</p><p>Press the Spacebar to start.</p>","","","32","","","","","","","","","","","","","","","true","253.96497356410063","","","","","","","","","","",""
"psychophysics","47","226553","0.0-8.0-0.0","600d559d03355c51465a7004","636dff3392645181d3c238a1","636e0164904f7b7f4aa51a70","1653.9000000059605","","","","37","","","","key","16.750854430379622","960","468.5","true","1","180","30","0","1","","","","","","","","","","","","","",""
"psychophysics","48","228837","0.0-8.0-0.1","600d559d03355c51465a7004","636dff3392645181d3c238a1","636e0164904f7b7f4aa51a70","1280.7000000029802","","","","37","","","","key","16.72211029411761","960","468.5","true","1","210","30","0","1","1","","","","","","","","","","","","",""
"psychophysics","49","230532","0.0-8.0-0.2","600d559d03355c51465a7004","636dff3392645181d3c238a1","636e0164904f7b7f4aa51a70","687.6000000089407","","","","39","","","","key","16.72186000000016","960","468.5","true","-1","240","30","0","1","1","","","","","","","","","","","","",""
"psychophysics","50","232139","0.0-8.0-0.3","600d559d03355c51465a7004","636dff3392645181d3c238a1","636e0164904f7b7f4aa51a70","600.7999999970198","","","","37","","","","key","16.72207368421062","960","468.5","true","1","255","30","0","1","1","","","","","","","","","","","","",""
"psychophysics","51","233606","0.0-8.0-0.4","600d559d03355c51465a7004","636dff3392645181d3c238a1","636e0164904f7b7f4aa51a70","463","","","","39","","","","key","16.721195402298587","960","468.5","true","-1","255","30","0","1","1","","","","","","","","","","","","",""
"psychophysics","52","235583","0.0-8.0-0.5","600d559d03355c51465a7004","636dff3392645181d3c238a1","636e0164904f7b7f4aa51a70","971.1000000089407","","","","39","","","","key","16.721931623931752","960","468.5","true","-1","255","30","0","1","1","","","","","","","","","","","","",""
"psychophysics","53","237448","0.0-8.0-0.6","600d559d03355c51465a7004","636dff3392645181d3c238a1","636e0164904f7b7f4aa51a70","860.7999999970198","","","","39","","","","key","16.721882882883023","960","468.5","true","-1","255","30","0","1","1","","","","","","","","","","","","",""
"psychophysics","54","239164","0.0-8.0-0.7","600d559d03355c51465a7004","636dff3392645181d3c238a1","636e0164904f7b7f4aa51a70","713.1999999880791","","","","37","","","","key","16.722068627451105","960","468.5","true","1","255","30","0","1","1","","","","","","","","","","","","",""
"psychophysics","55","241696","0.0-8.0-0.8","600d559d03355c51465a7004","636dff3392645181d3c238a1","636e0164904f7b7f4aa51a70","1529.5","","","","39","","","","key","16.722040000000074","960","468.5","true","-1","255","30","0","1","1","","","","","","","","","","","","",""
"psychophysics","56","243382","0.0-8.0-0.9","600d559d03355c51465a7004","636dff3392645181d3c238a1","636e0164904f7b7f4aa51a70","683.2000000029802","","","","39","","","","key","16.7225999999998","960","468.5","true","-1","255","30","0","1","1","","","","","","","","","","","","",""
"psychophysics","57","244807","0.0-8.0-0.10","600d559d03355c51465a7004","636dff3392645181d3c238a1","636e0164904f7b7f4aa51a70","420.20000000298023","","","","39","","","","key","16.722214285714255","960","468.5","true","-1","255","30","0","1","1","","","","","","","","","","","","",""
"psychophysics","58","246183","0.0-8.0-0.11","600d559d03355c51465a7004","636dff3392645181d3c238a1","636e0164904f7b7f4aa51a70","371.29999999701977","","","","39","","","","key","16.720901234568036","960","468.5","true","-1","255","30","0","1","1","","","","","","","","","","","","",""
"psychophysics","59","247614","0.0-8.0-0.12","600d559d03355c51465a7004","636dff3392645181d3c238a1","636e0164904f7b7f4aa51a70","426.29999999701977","","","","39","","","","key","16.721482352941187","960","468.5","true","-1","255","30","0","1","1","","","","","","","","","","","","",""
"psychophysics","60","249161","0.0-8.0-0.13","600d559d03355c51465a7004","636dff3392645181d3c238a1","636e0164904f7b7f4aa51a70","542.0999999940395","","","","37","","","","key","16.72206593406576","960","468.5","true","1","255","30","0","1","1","","","","","","","","","","","","",""
"psychophysics","61","250676","0.0-8.0-0.14","600d559d03355c51465a7004","636dff3392645181d3c238a1","636e0164904f7b7f4aa51a70","512.7000000029802","","","","37","","","","key","16.721855555555603","960","468.5","true","1","255","30","0","1","1","","","","","","","","","","","","",""
"psychophysics","62","252413","0.0-8.0-0.15","600d559d03355c51465a7004","636dff3392645181d3c238a1","636e0164904f7b7f4aa51a70","729.4000000059605","","","","39","","","","key","16.72145631067959","960","468.5","true","-1","255","30","0","1","1","","","","","","","","","","","","",""
"psychophysics","63","253828","0.0-8.0-0.16","600d559d03355c51465a7004","636dff3392645181d3c238a1","636e0164904f7b7f4aa51a70","408.90000000596046","","","","39","","","","key","16.722337349397915","960","468.5","true","-1","255","30","0","1","1","","","","","","","","","","","","",""
"psychophysics","64","255202","0.0-8.0-0.17","600d559d03355c51465a7004","636dff3392645181d3c238a1","636e0164904f7b7f4aa51a70","370.29999999701977","","","","39","","","","key","16.721829268292712","960","468.5","true","-1","255","30","0","1","1","","","","","","","","","","","","",""
"psychophysics","65","256693","0.0-8.0-0.18","600d559d03355c51465a7004","636dff3392645181d3c238a1","636e0164904f7b7f4aa51a70","489","","","","37","","","","key","16.72160227272715","960","468.5","true","1","255","30","0","1","1","","","","","","","","","","","","",""
"psychophysics","66","257740","0.0-8.0-0.19","600d559d03355c51465a7004","636dff3392645181d3c238a1","636e0164904f7b7f4aa51a70","41.1000000089407","","","","37","","","","key","16.723704918032915","960","468.5","true","-1","255","30","0","-1","1","","","","","","","","","","","","",""
"psychophysics","67","259997","0.0-8.0-0.20","600d559d03355c51465a7004","636dff3392645181d3c238a1","636e0164904f7b7f4aa51a70","1250.9000000059605","","","","39","","","","key","16.721880597015062","960","468.5","true","-1","225","24","1","1","-1","","","","","","","","","","","","",""
"psychophysics","68","262278","0.0-8.0-0.21","600d559d03355c51465a7004","636dff3392645181d3c238a1","636e0164904f7b7f4aa51a70","1273.7000000029802","","","","39","","","","key","16.721955882352844","960","468.5","true","1","249","24","1","-1","1","","","","","","","","","","","","",""
"psychophysics","69","264272","0.0-8.0-0.22","600d559d03355c51465a7004","636dff3392645181d3c238a1","636e0164904f7b7f4aa51a70","988.8000000119209","","","","39","","","","key","16.72216949152555","960","468.5","true","1","249","19.2","2","-1","-1","","","","","","","","","","","","",""
"psychophysics","70","265339","0.0-8.0-0.23","600d559d03355c51465a7004","636dff3392645181d3c238a1","636e0164904f7b7f4aa51a70","63.5","","","","37","","","","key","16.722523809523352","960","468.5","true","-1","229.8","19.2","2","-1","-1","","","","","","","","","","","","",""
"psychophysics","71","268165","0.0-8.0-0.24","600d559d03355c51465a7004","636dff3392645181d3c238a1","636e0164904f7b7f4aa51a70","1817.7000000029802","","","","37","","","","key","16.72246428571435","960","468.5","true","1","229.8","15.36","3","1","-1","","","","","","","","","","","","",""
"psychophysics","72","270116","0.0-8.0-0.25","600d559d03355c51465a7004","636dff3392645181d3c238a1","636e0164904f7b7f4aa51a70","945.1999999880791","","","","39","","","","key","16.721724137930792","960","468.5","true","1","245.16000000000003","15.36","3","-1","1","","","","","","","","","","","","",""
"psychophysics","73","272035","0.0-8.0-0.26","600d559d03355c51465a7004","636dff3392645181d3c238a1","636e0164904f7b7f4aa51a70","915.2000000029802","","","","39","","","","key","16.72292035398232","960","468.5","true","-1","245.16000000000003","12.287999999999998","4","1","-1","","","","","","","","","","","","",""
"psychophysics","74","273793","0.0-8.0-0.27","600d559d03355c51465a7004","636dff3392645181d3c238a1","636e0164904f7b7f4aa51a70","749.6000000089407","","","","37","","","","key","16.72207692307711","960","468.5","true","1","255","12.287999999999998","4","1","1","","","","","","","","","","","","",""
"psychophysics","75","275880","0.0-8.0-0.28","600d559d03355c51465a7004","636dff3392645181d3c238a1","636e0164904f7b7f4aa51a70","1084.7999999970198","","","","37","","","","key","16.722080645161295","960","468.5","true","1","255","12.287999999999998","4","1","1","","","","","","","","","","","","",""
"psychophysics","76","277432","0.0-8.0-0.29","600d559d03355c51465a7004","636dff3392645181d3c238a1","636e0164904f7b7f4aa51a70","549.9000000059605","","","","37","","","","key","16.722173913043502","960","468.5","true","1","255","12.287999999999998","4","1","1","","","","","","","","","","","","",""
"psychophysics","77","279240","0.0-8.0-0.30","600d559d03355c51465a7004","636dff3392645181d3c238a1","636e0164904f7b7f4aa51a70","804.8999999910593","","","","39","","","","key","16.721728971962943","960","468.5","true","-1","255","12.287999999999998","4","1","1","","","","","","","","","","","","",""
"psychophysics","78","281124","0.0-8.0-0.31","600d559d03355c51465a7004","636dff3392645181d3c238a1","636e0164904f7b7f4aa51a70","880.5999999940395","","","","37","","","","key","16.722339285714302","960","468.5","true","1","255","12.287999999999998","4","1","1","","","","","","","","","","","","",""
"psychophysics","79","282994","0.0-8.0-0.32","600d559d03355c51465a7004","636dff3392645181d3c238a1","636e0164904f7b7f4aa51a70","862.0999999940395","","","","39","","","","key","16.722027027027195","960","468.5","true","-1","255","12.287999999999998","4","1","1","","","","","","","","","","","","",""
"psychophysics","80","284520","0.0-8.0-0.33","600d559d03355c51465a7004","636dff3392645181d3c238a1","636e0164904f7b7f4aa51a70","525","","","","37","","","","key","16.722400000000036","960","468.5","true","1","255","12.287999999999998","4","1","1","","","","","","","","","","","","",""
"psychophysics","81","285543","0.0-8.0-0.34","600d559d03355c51465a7004","636dff3392645181d3c238a1","636e0164904f7b7f4aa51a70","19.5","","","","39","","","","key","16.722199999999916","960","468.5","true","1","255","12.287999999999998","4","-1","1","","","","","","","","","","","","",""
"psychophysics","82","287456","0.0-8.0-0.35","600d559d03355c51465a7004","636dff3392645181d3c238a1","636e0164904f7b7f4aa51a70","909.1000000089407","","","","37","","","","key","16.72222123893835","960","468.5","true","1","242.712","9.8304","5","1","-1","","","","","","","","","","","","",""
"psychophysics","83","289185","0.0-8.0-0.36","600d559d03355c51465a7004","636dff3392645181d3c238a1","636e0164904f7b7f4aa51a70","725.5999999940395","","","","39","","","","key","16.722378640776405","960","468.5","true","1","252.5424","9.8304","5","-1","1","","","","","","","","","","","","",""
"psychophysics","84","290693","0.0-8.0-0.37","600d559d03355c51465a7004","636dff3392645181d3c238a1","636e0164904f7b7f4aa51a70","505","","","","39","","","","key","16.721157303371","960","468.5","true","-1","252.5424","7.864319999999999","6","1","-1","","","","","","","","","","","","",""
"psychophysics","85","292320","0.0-8.0-0.38","600d559d03355c51465a7004","636dff3392645181d3c238a1","636e0164904f7b7f4aa51a70","620.7999999970198","","","","39","","","","key","16.722499999999854","960","468.5","true","-1","255","7.864319999999999","6","1","1","","","","","","","","","","","","",""
"psychophysics","86","293845","0.0-8.0-0.39","600d559d03355c51465a7004","636dff3392645181d3c238a1","636e0164904f7b7f4aa51a70","521.9000000059605","","","","39","","","","key","16.72250549450573","960","468.5","true","1","255","7.864319999999999","6","-1","1","","","","","","","","","","","","",""
"html-keyboard-response","87","314037","0.0-9.0","600d559d03355c51465a7004","636dff3392645181d3c238a1","636e0164904f7b7f4aa51a70","20190.39999999106","<p>Well Done !</p><p>Prepare for a new block.</p><p>DON'T EXIT THE FULL SCREEN MODE</p><p>Press the Spacebar to start.</p>","","","32","","","","","","","","","","","","","","","true","252.54111999999998","","","","","","","","","","",""
"psychophysics","88","315171","0.0-10.0-0.0","600d559d03355c51465a7004","636dff3392645181d3c238a1","636e0164904f7b7f4aa51a70","123.5","","","","39","","","","key","16.78616176470635","960","468.5","true","1","180","30","0","-1","","","","","","","","","","","","","",""
"psychophysics","89","316234","0.0-10.0-0.1","600d559d03355c51465a7004","636dff3392645181d3c238a1","636e0164904f7b7f4aa51a70","61.29999999701977","","","","39","","","","key","16.722629032258297","960","468.5","true","1","180","30","0","-1","-1","","","","","","","","","","","","",""
"psychophysics","90","318252","0.0-10.0-0.2","600d559d03355c51465a7004","636dff3392645181d3c238a1","636e0164904f7b7f4aa51a70","1013.1000000089407","","","","37","","","","key","16.721633333333497","960","468.5","true","1","150","24","1","1","-1","","","","","","","","","","","","",""
"psychophysics","91","319981","0.0-10.0-0.3","600d559d03355c51465a7004","636dff3392645181d3c238a1","636e0164904f7b7f4aa51a70","718.7999999970198","","","","39","","","","key","16.721549019607824","960","468.5","true","-1","174","24","1","1","1","","","","","","","","","","","","",""
"psychophysics","92","322058","0.0-10.0-0.4","600d559d03355c51465a7004","636dff3392645181d3c238a1","636e0164904f7b7f4aa51a70","1074.2999999970198","","","","37","","","","key","16.722177419354743","960","468.5","true","-1","198","24","1","-1","1","","","","","","","","","","","","",""
"psychophysics","93","323732","0.0-10.0-0.5","600d559d03355c51465a7004","636dff3392645181d3c238a1","636e0164904f7b7f4aa51a70","672.0999999940395","","","","37","","","","key","16.72188888888893","960","468.5","true","-1","198","19.2","2","-1","-1","","","","","","","","","","","","",""
"psychophysics","94","325592","0.0-10.0-0.6","600d559d03355c51465a7004","636dff3392645181d3c238a1","636e0164904f7b7f4aa51a70","847","","","","39","","","","key","16.72178181818189","960","468.5","true","-1","178.8","15.36","3","1","-1","","","","","","","","","","","","",""
"psychophysics","95","327674","0.0-10.0-0.7","600d559d03355c51465a7004","636dff3392645181d3c238a1","636e0164904f7b7f4aa51a70","1072.9000000059605","","","","37","","","","key","16.721682926829207","960","468.5","true","1","194.16000000000003","15.36","3","1","1","","","","","","","","","","","","",""
"psychophysics","96","329703","0.0-10.0-0.8","600d559d03355c51465a7004","636dff3392645181d3c238a1","636e0164904f7b7f4aa51a70","1024.7999999970198","","","","37","","","","key","16.721826446281113","960","468.5","true","-1","209.52000000000004","15.36","3","-1","1","","","","","","","","","","","","",""
"psychophysics","97","331316","0.0-10.0-0.9","600d559d03355c51465a7004","636dff3392645181d3c238a1","636e0164904f7b7f4aa51a70","603.4000000059605","","","","37","","","","key","16.722431578947305","960","468.5","true","1","209.52000000000004","12.287999999999998","4","1","-1","","","","","","","","","","","","",""
"psychophysics","98","333005","0.0-10.0-0.10","600d559d03355c51465a7004","636dff3392645181d3c238a1","636e0164904f7b7f4aa51a70","683.7999999970198","","","","37","","","","key","16.722310000000288","960","468.5","true","1","221.80800000000005","12.287999999999998","4","1","1","","","","","","","","","","","","",""
"psychophysics","99","334600","0.0-10.0-0.11","600d559d03355c51465a7004","636dff3392645181d3c238a1","636e0164904f7b7f4aa51a70","593.2999999970198","","","","37","","","","key","16.721947368421272","960","468.5","true","1","234.09600000000006","12.287999999999998","4","1","1","","","","","","","","","","","","",""
"psychophysics","100","336298","0.0-10.0-0.12","600d559d03355c51465a7004","636dff3392645181d3c238a1","636e0164904f7b7f4aa51a70","696.5","","","","39","","","","key","16.721840000000086","960","468.5","true","-1","246.38400000000007","12.287999999999998","4","1","1","","","","","","","","","","","","",""
"psychophysics","101","337966","0.0-10.0-0.13","600d559d03355c51465a7004","636dff3392645181d3c238a1","636e0164904f7b7f4aa51a70","660.4000000059605","","","","37","","","","key","16.721858585858364","960","468.5","true","1","255","12.287999999999998","4","1","1","","","","","","","","","","","","",""
"psychophysics","102","339553","0.0-10.0-0.14","600d559d03355c51465a7004","636dff3392645181d3c238a1","636e0164904f7b7f4aa51a70","576.0999999940395","","","","37","","","","key","16.722010638297938","960","468.5","true","1","255","12.287999999999998","4","1","1","","","","","","","","","","","","",""
"psychophysics","103","341049","0.0-10.0-0.15","600d559d03355c51465a7004","636dff3392645181d3c238a1","636e0164904f7b7f4aa51a70","487.80000001192093","","","","37","","","","key","16.72195454545462","960","468.5","true","1","255","12.287999999999998","4","1","1","","","","","","","","","","","","",""
"psychophysics","104","343128","0.0-10.0-0.16","600d559d03355c51465a7004","636dff3392645181d3c238a1","636e0164904f7b7f4aa51a70","1072","","","","39","","","","key","16.722491935483696","960","468.5","true","-1","255","12.287999999999998","4","1","1","","","","","","","","","","","","",""
"psychophysics","105","344838","0.0-10.0-0.17","600d559d03355c51465a7004","636dff3392645181d3c238a1","636e0164904f7b7f4aa51a70","706.2999999970198","","","","39","","","","key","16.722089108910716","960","468.5","true","-1","255","12.287999999999998","4","1","1","","","","","","","","","","","","",""
"psychophysics","106","345937","0.0-10.0-0.18","600d559d03355c51465a7004","636dff3392645181d3c238a1","636e0164904f7b7f4aa51a70","92.1000000089407","","","","37","","","","key","16.721676923077588","960","468.5","true","-1","255","12.287999999999998","4","-1","1","","","","","","","","","","","","",""
"psychophysics","107","347946","0.0-10.0-0.19","600d559d03355c51465a7004","636dff3392645181d3c238a1","636e0164904f7b7f4aa51a70","1007.3000000119209","","","","37","","","","key","16.722075630251823","960","468.5","true","1","242.712","9.8304","5","1","-1","","","","","","","","","","","","",""
"psychophysics","108","349893","0.0-10.0-0.20","600d559d03355c51465a7004","636dff3392645181d3c238a1","636e0164904f7b7f4aa51a70","936.2999999970198","","","","37","","","","key","16.721886956521676","960","468.5","true","1","252.5424","9.8304","5","1","1","","","","","","","","","","","","",""
"psychophysics","109","351858","0.0-10.0-0.21","600d559d03355c51465a7004","636dff3392645181d3c238a1","636e0164904f7b7f4aa51a70","957.2999999970198","","","","39","","","","key","16.722111111111307","960","468.5","true","-1","255","9.8304","5","1","1","","","","","","","","","","","","",""
"psychophysics","110","353876","0.0-10.0-0.22","600d559d03355c51465a7004","636dff3392645181d3c238a1","636e0164904f7b7f4aa51a70","1017.5","","","","37","","","","key","16.72239495798292","960","468.5","true","1","255","9.8304","5","1","1","","","","","","","","","","","","",""
"psychophysics","111","355502","0.0-10.0-0.23","600d559d03355c51465a7004","636dff3392645181d3c238a1","636e0164904f7b7f4aa51a70","622.2999999970198","","","","37","","","","key","16.721185567010476","960","468.5","true","1","255","9.8304","5","1","1","","","","","","","","","","","","",""
"psychophysics","112","357173","0.0-10.0-0.24","600d559d03355c51465a7004","636dff3392645181d3c238a1","636e0164904f7b7f4aa51a70","670","","","","37","","","","key","16.7225757575755","960","468.5","true","1","255","9.8304","5","1","1","","","","","","","","","","","","",""
"psychophysics","113","358742","0.0-10.0-0.25","600d559d03355c51465a7004","636dff3392645181d3c238a1","636e0164904f7b7f4aa51a70","567.2000000029802","","","","39","","","","key","16.721967391304688","960","468.5","true","-1","255","9.8304","5","1","1","","","","","","","","","","","","",""
"psychophysics","114","359834","0.0-10.0-0.26","600d559d03355c51465a7004","636dff3392645181d3c238a1","636e0164904f7b7f4aa51a70","88","","","","37","","","","key","16.72136923076961","960","468.5","true","-1","255","9.8304","5","-1","1","","","","","","","","","","","","",""
"psychophysics","115","362531","0.0-10.0-0.27","600d559d03355c51465a7004","636dff3392645181d3c238a1","636e0164904f7b7f4aa51a70","1687.8999999910593","","","","39","","","","key","16.722187499999926","960","468.5","true","1","245.1696","7.864319999999999","6","-1","-1","","","","","","","","","","","","",""
"psychophysics","116","363619","0.0-10.0-0.28","600d559d03355c51465a7004","636dff3392645181d3c238a1","636e0164904f7b7f4aa51a70","76.29999999701977","","","","37","","","","key","16.722734375000073","960","468.5","true","-1","245.1696","7.864319999999999","6","-1","-1","","","","","","","","","","","","",""
"psychophysics","117","364698","0.0-10.0-0.29","600d559d03355c51465a7004","636dff3392645181d3c238a1","636e0164904f7b7f4aa51a70","68.8999999910593","","","","37","","","","key","16.722515624999687","960","468.5","true","-1","237.30528","7.864319999999999","6","-1","-1","","","","","","","","","","","","",""
"psychophysics","118","366838","0.0-10.0-0.30","600d559d03355c51465a7004","636dff3392645181d3c238a1","636e0164904f7b7f4aa51a70","1136.7000000029802","","","","39","","","","key","16.721968503937028","960","468.5","true","-1","237.30528","6.291456","7","1","-1","","","","","","","","","","","","",""
"psychophysics","119","368930","0.0-10.0-0.31","600d559d03355c51465a7004","636dff3392645181d3c238a1","636e0164904f7b7f4aa51a70","1090.0999999940395","","","","39","","","","key","16.72225806451658","960","468.5","true","1","243.59673600000002","6.291456","7","-1","1","","","","","","","","","","","","",""
"psychophysics","120","370828","0.0-10.0-0.32","600d559d03355c51465a7004","636dff3392645181d3c238a1","636e0164904f7b7f4aa51a70","897","","","","39","","","","key","16.722410714285484","960","468.5","true","-1","243.59673600000002","5.033164800000001","8","1","-1","","","","","","","","","","","","",""
"psychophysics","121","372653","0.0-10.0-0.33","600d559d03355c51465a7004","636dff3392645181d3c238a1","636e0164904f7b7f4aa51a70","817.2999999970198","","","","39","","","","key","16.721898148147847","960","468.5","true","-1","248.62990080000003","5.033164800000001","8","1","1","","","","","","","","","","","","",""
"psychophysics","122","374296","0.0-10.0-0.34","600d559d03355c51465a7004","636dff3392645181d3c238a1","636e0164904f7b7f4aa51a70","636.5","","","","37","","","","key","16.722154639175248","960","468.5","true","1","253.66306560000004","5.033164800000001","8","1","1","","","","","","","","","","","","",""
"psychophysics","123","375965","0.0-10.0-0.35","600d559d03355c51465a7004","636dff3392645181d3c238a1","636e0164904f7b7f4aa51a70","666.5","","","","39","","","","key","16.722484848484974","960","468.5","true","-1","255","5.033164800000001","8","1","1","","","","","","","","","","","","",""
"psychophysics","124","377501","0.0-10.0-0.36","600d559d03355c51465a7004","636dff3392645181d3c238a1","636e0164904f7b7f4aa51a70","530.7999999970198","","","","39","","","","key","16.722131868132266","960","468.5","true","-1","255","5.033164800000001","8","1","1","","","","","","","","","","","","",""
"psychophysics","125","378545","0.0-10.0-0.37","600d559d03355c51465a7004","636dff3392645181d3c238a1","636e0164904f7b7f4aa51a70","37.099999994039536","","","","39","","","","key","16.721451612903863","960","468.5","true","1","255","5.033164800000001","8","-1","1","","","","","","","","","","","","",""
"psychophysics","126","379607","0.0-10.0-0.38","600d559d03355c51465a7004","636dff3392645181d3c238a1","636e0164904f7b7f4aa51a70","61.29999999701977","","","","39","","","","key","16.721935483871118","960","468.5","true","1","249.9668352","4.0265318400000005","9","-1","-1","","","","","","","","","","","","",""
"psychophysics","127","380758","0.0-10.0-0.39","600d559d03355c51465a7004","636dff3392645181d3c238a1","636e0164904f7b7f4aa51a70","143.20000000298023","","","","37","","","","key","16.722411764706038","960","468.5","true","-1","249.9668352","4.0265318400000005","9","-1","-1","","","","","","","","","","","","",""
"html-keyboard-response","128","384100","0.0-11.0","600d559d03355c51465a7004","636dff3392645181d3c238a1","636e0164904f7b7f4aa51a70","3341.8999999910593","<p>Well Done !</p><p>Prepare for a new block.</p><p>DON'T EXIT THE FULL SCREEN MODE</p><p>Press the Spacebar to start.</p>","","","32","","","","","","","","","","","","","","","true","248.62465792","","","","","","","","","","",""
"psychophysics","129","386184","0.0-12.0-0.0","600d559d03355c51465a7004","636dff3392645181d3c238a1","636e0164904f7b7f4aa51a70","1076.7000000029802","","","","37","","","","key","16.68115199999977","960","468.5","true","1","180","30","0","1","","","","","","","","","","","","","",""
"psychophysics","130","387198","0.0-12.0-0.1","600d559d03355c51465a7004","636dff3392645181d3c238a1","636e0164904f7b7f4aa51a70","11.200000002980232","","","","37","","","","key","16.722406779660574","960","468.5","true","-1","210","30","0","-1","1","","","","","","","","","","","","",""
"psychophysics","131","388951","0.0-12.0-0.2","600d559d03355c51465a7004","636dff3392645181d3c238a1","636e0164904f7b7f4aa51a70","747.2000000029802","","","","39","","","","key","16.722432692307986","960","468.5","true","1","210","24","1","-1","-1","","","","","","","","","","","","",""
"psychophysics","132","390787","0.0-12.0-0.3","600d559d03355c51465a7004","636dff3392645181d3c238a1","636e0164904f7b7f4aa51a70","832.3999999910593","","","","39","","","","key","16.72143119266054","960","468.5","true","-1","186","19.2","2","1","-1","","","","","","","","","","","","",""
"psychophysics","133","392581","0.0-12.0-0.4","600d559d03355c51465a7004","636dff3392645181d3c238a1","636e0164904f7b7f4aa51a70","785.5999999940395","","","","37","","","","key","16.721783018868113","960","468.5","true","1","205.2","19.2","2","1","1","","","","","","","","","","","","",""
"psychophysics","134","394272","0.0-12.0-0.5","600d559d03355c51465a7004","636dff3392645181d3c238a1","636e0164904f7b7f4aa51a70","685.0999999940395","","","","37","","","","key","16.721909999999916","960","468.5","true","1","224.39999999999998","19.2","2","1","1","","","","","","","","","","","","",""
"psychophysics","135","395943","0.0-12.0-0.6","600d559d03355c51465a7004","636dff3392645181d3c238a1","636e0164904f7b7f4aa51a70","668.5","","","","39","","","","key","16.72191919191891","960","468.5","true","-1","243.59999999999997","19.2","2","1","1","","","","","","","","","","","","",""
"psychophysics","136","397671","0.0-12.0-0.7","600d559d03355c51465a7004","636dff3392645181d3c238a1","636e0164904f7b7f4aa51a70","723.8999999910593","","","","39","","","","key","16.722598039215846","960","468.5","true","-1","255","19.2","2","1","1","","","","","","","","","","","","",""
"psychophysics","137","399320","0.0-12.0-0.8","600d559d03355c51465a7004","636dff3392645181d3c238a1","636e0164904f7b7f4aa51a70","645.8000000119209","","","","37","","","","key","16.721744897958885","960","468.5","true","1","255","19.2","2","1","1","","","","","","","","","","","","",""
"psychophysics","138","400938","0.0-12.0-0.9","600d559d03355c51465a7004","636dff3392645181d3c238a1","636e0164904f7b7f4aa51a70","614.7000000029802","","","","39","","","","key","16.72265625","960","468.5","true","-1","255","19.2","2","1","1","","","","","","","","","","","","",""
"psychophysics","139","402051","0.0-12.0-0.10","600d559d03355c51465a7004","636dff3392645181d3c238a1","636e0164904f7b7f4aa51a70","103.3999999910593","","","","37","","","","key","16.72227692307743","960","468.5","true","-1","255","19.2","2","-1","1","","","","","","","","","","","","",""
"psychophysics","140","403964","0.0-12.0-0.11","600d559d03355c51465a7004","636dff3392645181d3c238a1","636e0164904f7b7f4aa51a70","909.3999999910593","","","","39","","","","key","16.72189473684238","960","468.5","true","1","235.8","15.36","3","-1","-1","","","","","","","","","","","","",""
"psychophysics","141","405913","0.0-12.0-0.12","600d559d03355c51465a7004","636dff3392645181d3c238a1","636e0164904f7b7f4aa51a70","940.7999999970198","","","","37","","","","key","16.722130434782468","960","468.5","true","1","235.8","12.287999999999998","4","1","-1","","","","","","","","","","","","",""
"psychophysics","142","407874","0.0-12.0-0.13","600d559d03355c51465a7004","636dff3392645181d3c238a1","636e0164904f7b7f4aa51a70","958.9000000059605","","","","37","","","","key","16.722589743589786","960","468.5","true","1","248.08800000000002","12.287999999999998","4","1","1","","","","","","","","","","","","",""
"psychophysics","143","409579","0.0-12.0-0.14","600d559d03355c51465a7004","636dff3392645181d3c238a1","636e0164904f7b7f4aa51a70","703.7999999970198","","","","39","","","","key","16.722267326732318","960","468.5","true","-1","255","12.287999999999998","4","1","1","","","","","","","","","","","","",""
"psychophysics","144","411411","0.0-12.0-0.15","600d559d03355c51465a7004","636dff3392645181d3c238a1","636e0164904f7b7f4aa51a70","830.6999999880791","","","","39","","","","key","16.722324074074063","960","468.5","true","-1","255","12.287999999999998","4","1","1","","","","","","","","","","","","",""
"psychophysics","145","413069","0.0-12.0-0.16","600d559d03355c51465a7004","636dff3392645181d3c238a1","636e0164904f7b7f4aa51a70","650.2999999970198","","","","37","","","","key","16.721765306122524","960","468.5","true","1","255","12.287999999999998","4","1","1","","","","","","","","","","","","",""
"psychophysics","146","414633","0.0-12.0-0.17","600d559d03355c51465a7004","636dff3392645181d3c238a1","636e0164904f7b7f4aa51a70","558.2999999970198","","","","39","","","","key","16.721795698924502","960","468.5","true","-1","255","12.287999999999998","4","1","1","","","","","","","","","","","","",""
"psychophysics","147","416424","0.0-12.0-0.18","600d559d03355c51465a7004","636dff3392645181d3c238a1","636e0164904f7b7f4aa51a70","789.1000000089407","","","","37","","","","key","16.722094339622792","960","468.5","true","1","255","12.287999999999998","4","1","1","","","","","","","","","","","","",""
"psychophysics","148","418133","0.0-12.0-0.19","600d559d03355c51465a7004","636dff3392645181d3c238a1","636e0164904f7b7f4aa51a70","706.2000000029802","","","","37","","","","key","16.72195049504966","960","468.5","true","1","255","12.287999999999998","4","1","1","","","","","","","","","","","","",""
"psychophysics","149","420377","0.0-12.0-0.20","600d559d03355c51465a7004","636dff3392645181d3c238a1","636e0164904f7b7f4aa51a70","1236.2000000029802","","","","39","","","","key","16.72212781954891","960","468.5","true","-1","255","12.287999999999998","4","1","1","","","","","","","","","","","","",""
"psychophysics","150","423028","0.0-12.0-0.21","600d559d03355c51465a7004","636dff3392645181d3c238a1","636e0164904f7b7f4aa51a70","1644.7000000029802","","","","39","","","","key","16.722139240506316","960","468.5","true","1","255","12.287999999999998","4","-1","1","","","","","","","","","","","","",""
"psychophysics","151","424800","0.0-12.0-0.22","600d559d03355c51465a7004","636dff3392645181d3c238a1","636e0164904f7b7f4aa51a70","763.7999999970198","","","","39","","","","key","16.722038095237664","960","468.5","true","-1","242.712","9.8304","5","1","-1","","","","","","","","","","","","",""
"psychophysics","152","426630","0.0-12.0-0.23","600d559d03355c51465a7004","636dff3392645181d3c238a1","636e0164904f7b7f4aa51a70","826.7999999970198","","","","37","","","","key","16.722166666666723","960","468.5","true","1","252.5424","9.8304","5","1","1","","","","","","","","","","","","",""
"psychophysics","153","428665","0.0-12.0-0.24","600d559d03355c51465a7004","636dff3392645181d3c238a1","636e0164904f7b7f4aa51a70","1030","","","","39","","","","key","16.722198347107426","960","468.5","true","-1","255","9.8304","5","1","1","","","","","","","","","","","","",""
"psychophysics","154","429729","0.0-12.0-0.25","600d559d03355c51465a7004","636dff3392645181d3c238a1","636e0164904f7b7f4aa51a70","61.20000000298023","","","","37","","","","key","16.721888888889687","960","468.5","true","-1","255","9.8304","5","-1","1","","","","","","","","","","","","",""
"psychophysics","155","432356","0.0-12.0-0.26","600d559d03355c51465a7004","636dff3392645181d3c238a1","636e0164904f7b7f4aa51a70","1625.9000000059605","","","","39","","","","key","16.722064102564055","960","468.5","true","-1","245.1696","7.864319999999999","6","1","-1","","","","","","","","","","","","",""
"psychophysics","156","434205","0.0-12.0-0.27","600d559d03355c51465a7004","636dff3392645181d3c238a1","636e0164904f7b7f4aa51a70","847.4000000059605","","","","37","","","","key","16.721678899082573","960","468.5","true","1","253.03392","7.864319999999999","6","1","1","","","","","","","","","","","","",""
"psychophysics","157","436028","0.0-12.0-0.28","600d559d03355c51465a7004","636dff3392645181d3c238a1","636e0164904f7b7f4aa51a70","817.7000000029802","","","","39","","","","key","16.72225000000024","960","468.5","true","-1","255","7.864319999999999","6","1","1","","","","","","","","","","","","",""
"psychophysics","158","437927","0.0-12.0-0.29","600d559d03355c51465a7004","636dff3392645181d3c238a1","636e0164904f7b7f4aa51a70","894.1000000089407","","","","37","","","","key","16.72173451327418","960","468.5","true","1","255","7.864319999999999","6","1","1","","","","","","","","","","","","",""
"psychophysics","159","438970","0.0-12.0-0.30","600d559d03355c51465a7004","636dff3392645181d3c238a1","636e0164904f7b7f4aa51a70","37.8999999910593","","","","37","","","","key","16.72108196721271","960","468.5","true","-1","255","7.864319999999999","6","-1","1","","","","","","","","","","","","",""
"psychophysics","160","441005","0.0-12.0-0.31","600d559d03355c51465a7004","636dff3392645181d3c238a1","636e0164904f7b7f4aa51a70","1032.7999999970198","","","","39","","","","key","16.72176033057838","960","468.5","true","-1","247.13568","6.291456","7","1","-1","","","","","","","","","","","","",""
"psychophysics","161","443661","0.0-12.0-0.32","600d559d03355c51465a7004","636dff3392645181d3c238a1","636e0164904f7b7f4aa51a70","1649.7000000029802","","","","39","","","","key","16.72224683544298","960","468.5","true","-1","253.42713600000002","6.291456","7","1","1","","","","","","","","","","","","",""
"psychophysics","162","445579","0.0-12.0-0.33","600d559d03355c51465a7004","636dff3392645181d3c238a1","636e0164904f7b7f4aa51a70","917.5999999940395","","","","37","","","","key","16.722194690265553","960","468.5","true","1","255","6.291456","7","1","1","","","","","","","","","","","","",""
"psychophysics","163","447340","0.0-12.0-0.34","600d559d03355c51465a7004","636dff3392645181d3c238a1","636e0164904f7b7f4aa51a70","756.7999999970198","","","","37","","","","key","16.72185714285754","960","468.5","true","1","255","6.291456","7","1","1","","","","","","","","","","","","",""
"psychophysics","164","449099","0.0-12.0-0.35","600d559d03355c51465a7004","636dff3392645181d3c238a1","636e0164904f7b7f4aa51a70","758.7999999970198","","","","37","","","","key","16.72191346153816","960","468.5","true","1","255","6.291456","7","1","1","","","","","","","","","","","","",""
"psychophysics","165","450808","0.0-12.0-0.36","600d559d03355c51465a7004","636dff3392645181d3c238a1","636e0164904f7b7f4aa51a70","701.2999999970198","","","","37","","","","key","16.722000000000204","960","468.5","true","1","255","6.291456","7","1","1","","","","","","","","","","","","",""
"psychophysics","166","452726","0.0-12.0-0.37","600d559d03355c51465a7004","636dff3392645181d3c238a1","636e0164904f7b7f4aa51a70","915.5","","","","39","","","","key","16.72169298245653","960","468.5","true","-1","255","6.291456","7","1","1","","","","","","","","","","","","",""
"psychophysics","167","455118","0.0-12.0-0.38","600d559d03355c51465a7004","636dff3392645181d3c238a1","636e0164904f7b7f4aa51a70","1387.5999999940395","","","","37","","","","key","16.722049295774358","960","468.5","true","1","255","6.291456","7","1","1","","","","","","","","","","","","",""
"psychophysics","168","457065","0.0-12.0-0.39","600d559d03355c51465a7004","636dff3392645181d3c238a1","636e0164904f7b7f4aa51a70","941.9000000059605","","","","39","","","","key","16.72227826086936","960","468.5","true","-1","255","6.291456","7","1","1","","","","","","","","","","","","",""
"html-keyboard-response","169","460931","0.0-13.0","600d559d03355c51465a7004","636dff3392645181d3c238a1","636e0164904f7b7f4aa51a70","3865.2999999970198","<p>Well Done !</p><p>Prepare for a new block.</p><p>DON'T EXIT THE FULL SCREEN MODE</p><p>Press the Spacebar to start.</p>","","","32","","","","","","","","","","","","","","","true","253.58442240000002","","","","","","","","","","",""
"html-keyboard-response","170","461049","0.0-14.0","600d559d03355c51465a7004","636dff3392645181d3c238a1","636e0164904f7b7f4aa51a70","null","","","","null","","","","","","","","","","","","","","","","","252.17879347102516","true","376.3575869420503","","","","","","","",""
"instructions","171","493473","0.0-15.0","600d559d03355c51465a7004","636dff3392645181d3c238a1","636e0164904f7b7f4aa51a70","32423","","","","","","","[{""page_index"":0,""viewing_time"":26870.90000000596},{""page_index"":1,""viewing_time"":2191.5999999940395},{""page_index"":2,""viewing_time"":3360.1000000089407}]","","","","","","","","","","","","","","","","","","","","","","","",""
"psychophysics","172","496481","0.0-16.0-0.0","600d559d03355c51465a7004","636dff3392645181d3c238a1","636e0164904f7b7f4aa51a70","null","","","","null","","","","key","16.84081355932216","960","468.5","","","","","","","","","","","","","","","","","","","",""
"psychophysics","173","496984","0.0-16.0-1.0","600d559d03355c51465a7004","636dff3392645181d3c238a1","636e0164904f7b7f4aa51a70","null","","","","null","","","","key","16.72290000000115","960","468.5","","","","","","","","","","","","","376","-1","2","false","","","",""
"psychophysics","174","498189","0.0-16.0-2.0","600d559d03355c51465a7004","636dff3392645181d3c238a1","636e0164904f7b7f4aa51a70","1204.2999999970198","","","","90","","","","key","16.722563380281226","960","468.5","","","","","","","","","","","","","","","","","","","",""
"psychophysics","175","499190","0.0-16.0-0.1","600d559d03355c51465a7004","636dff3392645181d3c238a1","636e0164904f7b7f4aa51a70","null","","","","null","","","","key","16.722525423729074","960","468.5","","","","","","","","","","","","","","","","","","","",""
"psychophysics","176","499692","0.0-16.0-1.1","600d559d03355c51465a7004","636dff3392645181d3c238a1","636e0164904f7b7f4aa51a70","null","","","","null","","","","key","16.721821428571793","960","468.5","","","","","","","","","","","","","376","-1","4","false","","","",""
"psychophysics","177","500500","0.0-16.0-2.1","600d559d03355c51465a7004","636dff3392645181d3c238a1","636e0164904f7b7f4aa51a70","805","","","","90","","","","key","16.72116666666625","960","468.5","","","","","","","","","","","","","","","","","","","",""
"psychophysics","178","501507","0.0-16.0-0.2","600d559d03355c51465a7004","636dff3392645181d3c238a1","636e0164904f7b7f4aa51a70","null","","","","null","","","","key","16.721728813559235","960","468.5","","","","","","","","","","","","","","","","","","","",""
"psychophysics","179","502010","0.0-16.0-1.2","600d559d03355c51465a7004","636dff3392645181d3c238a1","636e0164904f7b7f4aa51a70","null","","","","null","","","","key","16.721310344827764","960","468.5","","","","","","","","","","","","","376","1","3","false","","","",""
"psychophysics","180","503093","0.0-16.0-2.2","600d559d03355c51465a7004","636dff3392645181d3c238a1","636e0164904f7b7f4aa51a70","1081.8999999910593","","","","77","","","","key","16.72173437499987","960","468.5","","","","","","","","","","","","","","","","","","","",""
"psychophysics","181","504099","0.0-16.0-0.3","600d559d03355c51465a7004","636dff3392645181d3c238a1","636e0164904f7b7f4aa51a70","null","","","","null","","","","key","16.722135593219843","960","468.5","","","","","","","","","","","","","","","","","","","",""
"psychophysics","182","504603","0.0-16.0-1.3","600d559d03355c51465a7004","636dff3392645181d3c238a1","636e0164904f7b7f4aa51a70","null","","","","null","","","","key","16.722034482757064","960","468.5","","","","","","","","","","","","","376","1","2","false","","","",""
"psychophysics","183","505153","0.0-16.0-2.3","600d559d03355c51465a7004","636dff3392645181d3c238a1","636e0164904f7b7f4aa51a70","549.1000000089407","","","","77","","","","key","16.720687499999258","960","468.5","","","","","","","","","","","","","","","","","","","",""
"psychophysics","184","506155","0.0-16.0-0.4","600d559d03355c51465a7004","636dff3392645181d3c238a1","636e0164904f7b7f4aa51a70","null","","","","null","","","","key","16.721966101695248","960","468.5","","","","","","","","","","","","","","","","","","","",""
"psychophysics","185","506660","0.0-16.0-1.4","600d559d03355c51465a7004","636dff3392645181d3c238a1","636e0164904f7b7f4aa51a70","null","","","","null","","","","key","16.720172413793424","960","468.5","","","","","","","","","","","","","376","1","4","false","","","",""
"psychophysics","186","507260","0.0-16.0-2.4","600d559d03355c51465a7004","636dff3392645181d3c238a1","636e0164904f7b7f4aa51a70","599.7000000029802","","","","77","","","","key","16.721971428572267","960","468.5","","","","","","","","","","","","","","","","","","","",""
"psychophysics","187","508267","0.0-16.0-0.5","600d559d03355c51465a7004","636dff3392645181d3c238a1","636e0164904f7b7f4aa51a70","null","","","","null","","","","key","16.720864406779953","960","468.5","","","","","","","","","","","","","","","","","","","",""
"psychophysics","188","508771","0.0-16.0-1.5","600d559d03355c51465a7004","636dff3392645181d3c238a1","636e0164904f7b7f4aa51a70","null","","","","null","","","","key","16.72155172413753","960","468.5","","","","","","","","","","","","","376","-1","5","false","","","",""
"psychophysics","189","509433","0.0-16.0-2.5","600d559d03355c51465a7004","636dff3392645181d3c238a1","636e0164904f7b7f4aa51a70","661","","","","77","","","","key","16.720923076922563","960","468.5","","","","","","","","","","","","","","","","","","","",""
"psychophysics","190","510435","0.0-16.0-0.6","600d559d03355c51465a7004","636dff3392645181d3c238a1","636e0164904f7b7f4aa51a70","null","","","","null","","","","key","16.722406779660574","960","468.5","","","","","","","","","","","","","","","","","","","",""
"psychophysics","191","510939","0.0-16.0-1.6","600d559d03355c51465a7004","636dff3392645181d3c238a1","636e0164904f7b7f4aa51a70","null","","","","null","","","","key","16.718103448276263","960","468.5","","","","","","","","","","","","","376","1","6","false","","","",""
"psychophysics","192","511337","0.0-16.0-2.6","600d559d03355c51465a7004","636dff3392645181d3c238a1","636e0164904f7b7f4aa51a70","397.59999999403954","","","","77","","","","key","16.71743478260823","960","468.5","","","","","","","","","","","","","","","","","","","",""
"psychophysics","193","512339","0.0-16.0-0.7","600d559d03355c51465a7004","636dff3392645181d3c238a1","636e0164904f7b7f4aa51a70","null","","","","null","","","","key","16.723338983051274","960","468.5","","","","","","","","","","","","","","","","","","","",""
"psychophysics","194","512843","0.0-16.0-1.7","600d559d03355c51465a7004","636dff3392645181d3c238a1","636e0164904f7b7f4aa51a70","null","","","","null","","","","key","16.721724137930792","960","468.5","","","","","","","","","","","","","376","-1","0","false","","","",""
"psychophysics","195","513288","0.0-16.0-2.7","600d559d03355c51465a7004","636dff3392645181d3c238a1","636e0164904f7b7f4aa51a70","443.19999998807907","","","","90","","","","key","16.720576923076386","960","468.5","","","","","","","","","","","","","","","","","","","",""
"psychophysics","196","514291","0.0-16.0-0.8","600d559d03355c51465a7004","636dff3392645181d3c238a1","636e0164904f7b7f4aa51a70","null","","","","null","","","","key","16.721051724137865","960","468.5","","","","","","","","","","","","","","","","","","","",""
"psychophysics","197","514794","0.0-16.0-1.8","600d559d03355c51465a7004","636dff3392645181d3c238a1","636e0164904f7b7f4aa51a70","null","","","","null","","","","key","16.723066666666032","960","468.5","","","","","","","","","","","","","376","-1","6","false","","","",""
"psychophysics","198","515509","0.0-16.0-2.8","600d559d03355c51465a7004","636dff3392645181d3c238a1","636e0164904f7b7f4aa51a70","713.5","","","","90","","","","key","16.72321951219517","960","468.5","","","","","","","","","","","","","","","","","","","",""
"psychophysics","199","516515","0.0-16.0-0.9","600d559d03355c51465a7004","636dff3392645181d3c238a1","636e0164904f7b7f4aa51a70","null","","","","null","","","","key","16.72154237288129","960","468.5","","","","","","","","","","","","","","","","","","","",""
"psychophysics","200","517017","0.0-16.0-1.9","600d559d03355c51465a7004","636dff3392645181d3c238a1","636e0164904f7b7f4aa51a70","null","","","","null","","","","key","16.721700000000418","960","468.5","","","","","","","","","","","","","376","1","0","false","","","",""
"psychophysics","201","518026","0.0-16.0-2.9","600d559d03355c51465a7004","636dff3392645181d3c238a1","636e0164904f7b7f4aa51a70","1007.5","","","","90","","","","key","16.722406779660574","960","468.5","","","","","","","","","","","","","","","","","","","",""
"psychophysics","202","519035","0.0-16.0-0.10","600d559d03355c51465a7004","636dff3392645181d3c238a1","636e0164904f7b7f4aa51a70","null","","","","null","","","","key","16.721728813560222","960","468.5","","","","","","","","","","","","","","","","","","","",""
"psychophysics","203","519539","0.0-16.0-1.10","600d559d03355c51465a7004","636dff3392645181d3c238a1","636e0164904f7b7f4aa51a70","null","","","","null","","","","key","16.721344827586016","960","468.5","","","","","","","","","","","","","376","-1","3","false","","","",""
"psychophysics","204","520099","0.0-16.0-2.10","600d559d03355c51465a7004","636dff3392645181d3c238a1","636e0164904f7b7f4aa51a70","558.7000000029802","","","","90","","","","key","16.72287878787999","960","468.5","","","","","","","","","","","","","","","","","","","",""
"psychophysics","205","521108","0.0-16.0-0.11","600d559d03355c51465a7004","636dff3392645181d3c238a1","636e0164904f7b7f4aa51a70","null","","","","null","","","","key","16.722288135592077","960","468.5","","","","","","","","","","","","","","","","","","","",""
"psychophysics","206","521611","0.0-16.0-1.11","600d559d03355c51465a7004","636dff3392645181d3c238a1","636e0164904f7b7f4aa51a70","null","","","","null","","","","key","16.721689655172543","960","468.5","","","","","","","","","","","","","376","1","5","false","","","",""
"psychophysics","207","521950","0.0-16.0-2.11","600d559d03355c51465a7004","636dff3392645181d3c238a1","636e0164904f7b7f4aa51a70","337.70000000298023","","","","77","","","","key","16.72124999999651","960","468.5","","","","","","","","","","","","","","","","","","","",""
"psychophysics","208","522954","0.0-16.0-0.12","600d559d03355c51465a7004","636dff3392645181d3c238a1","636e0164904f7b7f4aa51a70","null","","","","null","","","","key","16.72208620689745","960","468.5","","","","","","","","","","","","","","","","","","","",""
"psychophysics","209","523455","0.0-16.0-1.12","600d559d03355c51465a7004","636dff3392645181d3c238a1","636e0164904f7b7f4aa51a70","null","","","","null","","","","key","16.722366666665767","960","468.5","","","","","","","","","","","","","376","1","3","false","","","",""
"psychophysics","210","524157","0.0-16.0-2.12","600d559d03355c51465a7004","636dff3392645181d3c238a1","636e0164904f7b7f4aa51a70","700","","","","77","","","","key","16.72202439024397","960","468.5","","","","","","","","","","","","","","","","","","","",""
"psychophysics","211","525161","0.0-16.0-0.13","600d559d03355c51465a7004","636dff3392645181d3c238a1","636e0164904f7b7f4aa51a70","null","","","","null","","","","key","16.72327586207017","960","468.5","","","","","","","","","","","","","","","","","","","",""
"psychophysics","212","525662","0.0-16.0-1.13","600d559d03355c51465a7004","636dff3392645181d3c238a1","636e0164904f7b7f4aa51a70","null","","","","null","","","","key","16.72003448276042","960","468.5","","","","","","","","","","","","","376","-1","0","false","","","",""
"psychophysics","213","526115","0.0-16.0-2.13","600d559d03355c51465a7004","636dff3392645181d3c238a1","636e0164904f7b7f4aa51a70","449.79999999701977","","","","90","","","","key","16.72255555555414","960","468.5","","","","","","","","","","","","","","","","","","","",""
"psychophysics","214","527116","0.0-16.0-0.14","600d559d03355c51465a7004","636dff3392645181d3c238a1","636e0164904f7b7f4aa51a70","null","","","","null","","","","key","16.721948275862438","960","468.5","","","","","","","","","","","","","","","","","","","",""
"psychophysics","215","527618","0.0-16.0-1.14","600d559d03355c51465a7004","636dff3392645181d3c238a1","636e0164904f7b7f4aa51a70","null","","","","null","","","","key","16.721517241379278","960","468.5","","","","","","","","","","","","","376","-1","3","false","","","",""
"psychophysics","216","527969","0.0-16.0-2.14","600d559d03355c51465a7004","636dff3392645181d3c238a1","636e0164904f7b7f4aa51a70","348.5","","","","90","","","","key","16.722949999995762","960","468.5","","","","","","","","","","","","","","","","","","","",""
"psychophysics","217","528971","0.0-16.0-0.15","600d559d03355c51465a7004","636dff3392645181d3c238a1","636e0164904f7b7f4aa51a70","null","","","","null","","","","key","16.7212033898321","960","468.5","","","","","","","","","","","","","","","","","","","",""
"psychophysics","218","529475","0.0-16.0-1.15","600d559d03355c51465a7004","636dff3392645181d3c238a1","636e0164904f7b7f4aa51a70","null","","","","null","","","","key","16.72351724137793","960","468.5","","","","","","","","","","","","","376","-1","4","false","","","",""
"psychophysics","219","529746","0.0-16.0-2.15","600d559d03355c51465a7004","636dff3392645181d3c238a1","636e0164904f7b7f4aa51a70","267.80000001192093","","","","77","","","","key","16.719874999995227","960","468.5","","","","","","","","","","","","","","","","","","","",""
"psychophysics","220","530747","0.0-16.0-0.16","600d559d03355c51465a7004","636dff3392645181d3c238a1","636e0164904f7b7f4aa51a70","null","","","","null","","","","key","16.721796610169665","960","468.5","","","","","","","","","","","","","","","","","","","",""
"psychophysics","221","531248","0.0-16.0-1.16","600d559d03355c51465a7004","636dff3392645181d3c238a1","636e0164904f7b7f4aa51a70","null","","","","null","","","","key","16.72448275862101","960","468.5","","","","","","","","","","","","","376","-1","2","false","","","",""
"psychophysics","222","531722","0.0-16.0-2.16","600d559d03355c51465a7004","636dff3392645181d3c238a1","636e0164904f7b7f4aa51a70","472","","","","90","","","","key","16.718074074075385","960","468.5","","","","","","","","","","","","","","","","","","","",""
"psychophysics","223","532723","0.0-16.0-0.17","600d559d03355c51465a7004","636dff3392645181d3c238a1","636e0164904f7b7f4aa51a70","null","","","","null","","","","key","16.72208474576276","960","468.5","","","","","","","","","","","","","","","","","","","",""
"psychophysics","224","533228","0.0-16.0-1.17","600d559d03355c51465a7004","636dff3392645181d3c238a1","636e0164904f7b7f4aa51a70","null","","","","null","","","","key","16.725344827583317","960","468.5","","","","","","","","","","","","","376","-1","6","false","","","",""
"psychophysics","225","533500","0.0-16.0-2.17","600d559d03355c51465a7004","636dff3392645181d3c238a1","636e0164904f7b7f4aa51a70","270.79999999701977","","","","77","","","","key","16.723400000001615","960","468.5","","","","","","","","","","","","","","","","","","","",""
"psychophysics","226","534507","0.0-16.0-0.18","600d559d03355c51465a7004","636dff3392645181d3c238a1","636e0164904f7b7f4aa51a70","null","","","","null","","","","key","16.72203389830469","960","468.5","","","","","","","","","","","","","","","","","","","",""
"psychophysics","227","535009","0.0-16.0-1.18","600d559d03355c51465a7004","636dff3392645181d3c238a1","636e0164904f7b7f4aa51a70","null","","","","null","","","","key","16.72003448276042","960","468.5","","","","","","","","","","","","","376","1","2","false","","","",""
"psychophysics","228","535494","0.0-16.0-2.18","600d559d03355c51465a7004","636dff3392645181d3c238a1","636e0164904f7b7f4aa51a70","479.8999999910593","","","","90","","","","key","16.721107142856845","960","468.5","","","","","","","","","","","","","","","","","","","",""
"psychophysics","229","536498","0.0-16.0-0.19","600d559d03355c51465a7004","636dff3392645181d3c238a1","636e0164904f7b7f4aa51a70","null","","","","null","","","","key","16.721525423727947","960","468.5","","","","","","","","","","","","","","","","","","","",""
"psychophysics","230","537000","0.0-16.0-1.19","600d559d03355c51465a7004","636dff3392645181d3c238a1","636e0164904f7b7f4aa51a70","null","","","","null","","","","key","16.72233333333473","960","468.5","","","","","","","","","","","","","376","1","6","false","","","",""
"psychophysics","231","537259","0.0-16.0-2.19","600d559d03355c51465a7004","636dff3392645181d3c238a1","636e0164904f7b7f4aa51a70","256.90000000596046","","","","77","","","","key","16.721499999993416","960","468.5","","","","","","","","","","","","","","","","","","","",""
"psychophysics","232","538267","0.0-16.0-0.20","600d559d03355c51465a7004","636dff3392645181d3c238a1","636e0164904f7b7f4aa51a70","null","","","","null","","","","key","16.722610169492853","960","468.5","","","","","","","","","","","","","","","","","","","",""
"psychophysics","233","538771","0.0-16.0-1.20","600d559d03355c51465a7004","636dff3392645181d3c238a1","636e0164904f7b7f4aa51a70","null","","","","null","","","","key","16.724758620687023","960","468.5","","","","","","","","","","","","","376","1","0","false","","","",""
"psychophysics","234","538972","0.0-16.0-2.20","600d559d03355c51465a7004","636dff3392645181d3c238a1","636e0164904f7b7f4aa51a70","197.79999999701977","","","","77","","","","key","16.718636363638904","960","468.5","","","","","","","","","","","","","","","","","","","",""
"psychophysics","235","539975","0.0-16.0-0.21","600d559d03355c51465a7004","636dff3392645181d3c238a1","636e0164904f7b7f4aa51a70","null","","","","null","","","","key","16.72147457627185","960","468.5","","","","","","","","","","","","","","","","","","","",""
"psychophysics","236","540478","0.0-16.0-1.21","600d559d03355c51465a7004","636dff3392645181d3c238a1","636e0164904f7b7f4aa51a70","null","","","","null","","","","key","16.722172413792077","960","468.5","","","","","","","","","","","","","376","1","5","false","","","",""
"psychophysics","237","540753","0.0-16.0-2.21","600d559d03355c51465a7004","636dff3392645181d3c238a1","636e0164904f7b7f4aa51a70","272.29999999701977","","","","77","","","","key","16.723500000000058","960","468.5","","","","","","","","","","","","","","","","","","","",""
"psychophysics","238","541755","0.0-16.0-0.22","600d559d03355c51465a7004","636dff3392645181d3c238a1","636e0164904f7b7f4aa51a70","null","","","","null","","","","key","16.721830508474387","960","468.5","","","","","","","","","","","","","","","","","","","",""
"psychophysics","239","542259","0.0-16.0-1.22","600d559d03355c51465a7004","636dff3392645181d3c238a1","636e0164904f7b7f4aa51a70","null","","","","null","","","","key","16.721103448276246","960","468.5","","","","","","","","","","","","","376","-1","5","false","","","",""
"psychophysics","240","542670","0.0-16.0-2.22","600d559d03355c51465a7004","636dff3392645181d3c238a1","636e0164904f7b7f4aa51a70","410","","","","90","","","","key","16.71966666666655","960","468.5","","","","","","","","","","","","","","","","","","","",""
"psychophysics","241","543672","0.0-16.0-0.23","600d559d03355c51465a7004","636dff3392645181d3c238a1","636e0164904f7b7f4aa51a70","null","","","","null","","","","key","16.721677966102153","960","468.5","","","","","","","","","","","","","","","","","","","",""
"psychophysics","242","544174","0.0-16.0-1.23","600d559d03355c51465a7004","636dff3392645181d3c238a1","636e0164904f7b7f4aa51a70","null","","","","null","","","","key","16.72003448276042","960","468.5","","","","","","","","","","","","","376","1","4","false","","","",""
"psychophysics","243","544656","0.0-16.0-2.23","600d559d03355c51465a7004","636dff3392645181d3c238a1","636e0164904f7b7f4aa51a70","480.29999999701977","","","","90","","","","key","16.722444444446378","960","468.5","","","","","","","","","","","","","","","","","","","",""
"html-keyboard-response","244","548024","0.0-17.0","600d559d03355c51465a7004","636dff3392645181d3c238a1","636e0164904f7b7f4aa51a70","3367.3999999910593","<p>Well Done !</p><p>Training Complete. Press the spacebar to start.</p><p>DON'T EXIT THE FULL SCREEN MODE</p>","","","32","","","","","","","","","","","","","","","","","","","","","","","","","","",""
"psychophysics","245","551043","0.0-18.0-0.0","600d559d03355c51465a7004","636dff3392645181d3c238a1","636e0164904f7b7f4aa51a70","null","","","","null","","","","key","16.84128813559221","960","468.5","","","","","","","","","","","","","","","","","","","",""
"psychophysics","246","551548","0.0-18.0-1.0","600d559d03355c51465a7004","636dff3392645181d3c238a1","636e0164904f7b7f4aa51a70","null","","","","null","","","","key","16.723655172410936","960","468.5","","","","","","","","","","","","","376","1","4","true","","","",""
"psychophysics","247","551920","0.0-18.0-2.0","600d559d03355c51465a7004","636dff3392645181d3c238a1","636e0164904f7b7f4aa51a70","367.80000001192093","","","","77","","","","key","16.719772727271035","960","468.5","","","","","","","","","","","","","","","","","","","",""
"psychophysics","248","552923","0.0-18.0-0.1","600d559d03355c51465a7004","636dff3392645181d3c238a1","636e0164904f7b7f4aa51a70","null","","","","null","","","","key","16.721440677967127","960","468.5","","","","","","","","","","","","","","","","","","","",""
"psychophysics","249","553427","0.0-18.0-1.1","600d559d03355c51465a7004","636dff3392645181d3c238a1","636e0164904f7b7f4aa51a70","null","","","","null","","","","key","16.722379310345598","960","468.5","","","","","","","","","","","","","376","-1","0","true","","","",""
"psychophysics","250","553912","0.0-18.0-2.1","600d559d03355c51465a7004","636dff3392645181d3c238a1","636e0164904f7b7f4aa51a70","483.79999999701977","","","","90","","","","key","16.72060714285804","960","468.5","","","","","","","","","","","","","","","","","","","",""
"psychophysics","251","554915","0.0-18.0-0.2","600d559d03355c51465a7004","636dff3392645181d3c238a1","636e0164904f7b7f4aa51a70","null","","","","null","","","","key","16.723305084746553","960","468.5","","","","","","","","","","","","","","","","","","","",""
"psychophysics","252","555420","0.0-18.0-1.2","600d559d03355c51465a7004","636dff3392645181d3c238a1","636e0164904f7b7f4aa51a70","null","","","","null","","","","key","16.7224482758621","960","468.5","","","","","","","","","","","","","376","1","6","true","","","",""
"psychophysics","253","556237","0.0-18.0-2.2","600d559d03355c51465a7004","636dff3392645181d3c238a1","636e0164904f7b7f4aa51a70","815.5","","","","90","","","","key","16.72145833333343","960","468.5","","","","","","","","","","","","","","","","","","","",""
"psychophysics","254","557243","0.0-18.0-0.3","600d559d03355c51465a7004","636dff3392645181d3c238a1","636e0164904f7b7f4aa51a70","null","","","","null","","","","key","16.72166101695078","960","468.5","","","","","","","","","","","","","","","","","","","",""
"psychophysics","255","557747","0.0-18.0-1.3","600d559d03355c51465a7004","636dff3392645181d3c238a1","636e0164904f7b7f4aa51a70","null","","","","null","","","","key","16.723068965518653","960","468.5","","","","","","","","","","","","","376","-1","4","true","","","",""
"psychophysics","256","557955","0.0-18.0-2.3","600d559d03355c51465a7004","636dff3392645181d3c238a1","636e0164904f7b7f4aa51a70","206.59999999403954","","","","77","","","","key","16.724583333329065","960","468.5","","","","","","","","","","","","","","","","","","","",""
"psychophysics","257","558957","0.0-18.0-0.4","600d559d03355c51465a7004","636dff3392645181d3c238a1","636e0164904f7b7f4aa51a70","null","","","","null","","","","key","16.721559322032668","960","468.5","","","","","","","","","","","","","","","","","","","",""
"psychophysics","258","559458","0.0-18.0-1.4","600d559d03355c51465a7004","636dff3392645181d3c238a1","636e0164904f7b7f4aa51a70","null","","","","null","","","","key","16.723758620687697","960","468.5","","","","","","","","","","","","","376","1","2","true","","","",""
"psychophysics","259","559881","0.0-18.0-2.4","600d559d03355c51465a7004","636dff3392645181d3c238a1","636e0164904f7b7f4aa51a70","422.40000000596046","","","","90","","","","key","16.72416666666686","960","468.5","","","","","","","","","","","","","","","","","","","",""
"psychophysics","260","560884","0.0-18.0-0.5","600d559d03355c51465a7004","636dff3392645181d3c238a1","636e0164904f7b7f4aa51a70","null","","","","null","","","","key","16.722474576270017","960","468.5","","","","","","","","","","","","","","","","","","","",""
"psychophysics","261","561387","0.0-18.0-1.5","600d559d03355c51465a7004","636dff3392645181d3c238a1","636e0164904f7b7f4aa51a70","null","","","","null","","","","key","16.72306896551464","960","468.5","","","","","","","","","","","","","376","-1","5","true","","","",""
"psychophysics","262","561848","0.0-18.0-2.5","600d559d03355c51465a7004","636dff3392645181d3c238a1","636e0164904f7b7f4aa51a70","460.70000000298023","","","","77","","","","key","16.721925925924786","960","468.5","","","","","","","","","","","","","","","","","","","",""
"psychophysics","263","562851","0.0-18.0-0.6","600d559d03355c51465a7004","636dff3392645181d3c238a1","636e0164904f7b7f4aa51a70","null","","","","null","","","","key","16.722500000000483","960","468.5","","","","","","","","","","","","","","","","","","","",""
"psychophysics","264","563353","0.0-18.0-1.6","600d559d03355c51465a7004","636dff3392645181d3c238a1","636e0164904f7b7f4aa51a70","null","","","","null","","","","key","16.72272413792811","960","468.5","","","","","","","","","","","","","376","1","0","true","","","",""
"psychophysics","265","563606","0.0-18.0-2.6","600d559d03355c51465a7004","636dff3392645181d3c238a1","636e0164904f7b7f4aa51a70","250.40000000596046","","","","90","","","","key","16.721733333333397","960","468.5","","","","","","","","","","","","","","","","","","","",""
"psychophysics","266","564607","0.0-18.0-0.7","600d559d03355c51465a7004","636dff3392645181d3c238a1","636e0164904f7b7f4aa51a70","null","","","","null","","","","key","16.722224137930457","960","468.5","","","","","","","","","","","","","","","","","","","",""
"psychophysics","267","565110","0.0-18.0-1.7","600d559d03355c51465a7004","636dff3392645181d3c238a1","636e0164904f7b7f4aa51a70","null","","","","null","","","","key","16.72190000000022","960","468.5","","","","","","","","","","","","","376","1","3","true","","","",""
"psychophysics","268","565273","0.0-18.0-2.7","600d559d03355c51465a7004","636dff3392645181d3c238a1","636e0164904f7b7f4aa51a70","161.59999999403954","","","","77","","","","key","16.72362499999872","960","468.5","","","","","","","","","","","","","","","","","","","",""
"psychophysics","269","566275","0.0-18.0-0.8","600d559d03355c51465a7004","636dff3392645181d3c238a1","636e0164904f7b7f4aa51a70","null","","","","null","","","","key","16.721694915253526","960","468.5","","","","","","","","","","","","","","","","","","","",""
"psychophysics","270","566779","0.0-18.0-1.8","600d559d03355c51465a7004","636dff3392645181d3c238a1","636e0164904f7b7f4aa51a70","null","","","","null","","","","key","16.724172413790725","960","468.5","","","","","","","","","","","","","376","1","5","true","","","",""
"psychophysics","271","566973","0.0-18.0-2.8","600d559d03355c51465a7004","636dff3392645181d3c238a1","636e0164904f7b7f4aa51a70","192.90000000596046","","","","77","","","","key","16.727454545463182","960","468.5","","","","","","","","","","","","","","","","","","","",""
"psychophysics","272","567978","0.0-18.0-0.9","600d559d03355c51465a7004","636dff3392645181d3c238a1","636e0164904f7b7f4aa51a70","null","","","","null","","","","key","16.72154237288129","960","468.5","","","","","","","","","","","","","","","","","","","",""
"psychophysics","273","568483","0.0-18.0-1.9","600d559d03355c51465a7004","636dff3392645181d3c238a1","636e0164904f7b7f4aa51a70","null","","","","null","","","","key","16.723275862068164","960","468.5","","","","","","","","","","","","","376","-1","2","true","","","",""
"psychophysics","274","568783","0.0-18.0-2.9","600d559d03355c51465a7004","636dff3392645181d3c238a1","636e0164904f7b7f4aa51a70","299.6000000089407","","","","90","","","","key","16.72205882353078","960","468.5","","","","","","","","","","","","","","","","","","","",""
"psychophysics","275","569786","0.0-18.0-0.10","600d559d03355c51465a7004","636dff3392645181d3c238a1","636e0164904f7b7f4aa51a70","null","","","","null","","","","key","16.722118644067482","960","468.5","","","","","","","","","","","","","","","","","","","",""
"psychophysics","276","570291","0.0-18.0-1.10","600d559d03355c51465a7004","636dff3392645181d3c238a1","636e0164904f7b7f4aa51a70","null","","","","null","","","","key","16.722999999998137","960","468.5","","","","","","","","","","","","","376","-1","3","true","","","",""
"psychophysics","277","570954","0.0-18.0-2.10","600d559d03355c51465a7004","636dff3392645181d3c238a1","636e0164904f7b7f4aa51a70","662","","","","90","","","","key","16.722641025640023","960","468.5","","","","","","","","","","","","","","","","","","","",""
"psychophysics","278","571963","0.0-18.0-0.11","600d559d03355c51465a7004","636dff3392645181d3c238a1","636e0164904f7b7f4aa51a70","null","","","","null","","","","key","16.72186440677911","960","468.5","","","","","","","","","","","","","","","","","","","",""
"psychophysics","279","572466","0.0-18.0-1.11","600d559d03355c51465a7004","636dff3392645181d3c238a1","636e0164904f7b7f4aa51a70","null","","","","null","","","","key","16.722620689655365","960","468.5","","","","","","","","","","","","","376","-1","6","true","","","",""
"psychophysics","280","572895","0.0-18.0-2.11","600d559d03355c51465a7004","636dff3392645181d3c238a1","636e0164904f7b7f4aa51a70","426.90000000596046","","","","77","","","","key","16.721439999998548","960","468.5","","","","","","","","","","","","","","","","","","","",""
"psychophysics","281","573898","0.0-18.0-0.12","600d559d03355c51465a7004","636dff3392645181d3c238a1","636e0164904f7b7f4aa51a70","null","","","","null","","","","key","16.722067796609412","960","468.5","","","","","","","","","","","","","","","","","","","",""
"psychophysics","282","574403","0.0-18.0-1.12","600d559d03355c51465a7004","636dff3392645181d3c238a1","636e0164904f7b7f4aa51a70","null","","","","null","","","","key","16.72203448275907","960","468.5","","","","","","","","","","","","","376","-1","5","true","","","",""
"psychophysics","283","574628","0.0-18.0-2.12","600d559d03355c51465a7004","636dff3392645181d3c238a1","636e0164904f7b7f4aa51a70","224.20000000298023","","","","77","","","","key","16.72376923077704","960","468.5","","","","","","","","","","","","","","","","","","","",""
"psychophysics","284","575636","0.0-18.0-0.13","600d559d03355c51465a7004","636dff3392645181d3c238a1","636e0164904f7b7f4aa51a70","null","","","","null","","","","key","16.7223898305092","960","468.5","","","","","","","","","","","","","","","","","","","",""
"psychophysics","285","576138","0.0-18.0-1.13","600d559d03355c51465a7004","636dff3392645181d3c238a1","636e0164904f7b7f4aa51a70","null","","","","null","","","","key","16.72089655172674","960","468.5","","","","","","","","","","","","","376","1","2","true","","","",""
"psychophysics","286","576548","0.0-18.0-2.13","600d559d03355c51465a7004","636dff3392645181d3c238a1","636e0164904f7b7f4aa51a70","409.40000000596046","","","","90","","","","key","16.725291666666937","960","468.5","","","","","","","","","","","","","","","","","","","",""
"psychophysics","287","577550","0.0-18.0-0.14","600d559d03355c51465a7004","636dff3392645181d3c238a1","636e0164904f7b7f4aa51a70","null","","","","null","","","","key","16.72161016949271","960","468.5","","","","","","","","","","","","","","","","","","","",""
"psychophysics","288","578052","0.0-18.0-1.14","600d559d03355c51465a7004","636dff3392645181d3c238a1","636e0164904f7b7f4aa51a70","null","","","","null","","","","key","16.722206896552333","960","468.5","","","","","","","","","","","","","376","-1","0","true","","","",""
"psychophysics","289","578388","0.0-18.0-2.14","600d559d03355c51465a7004","636dff3392645181d3c238a1","636e0164904f7b7f4aa51a70","335.09999999403954","","","","77","","","","key","16.722157894737872","960","468.5","","","","","","","","","","","","","","","","","","","",""
"psychophysics","290","579389","0.0-18.0-0.15","600d559d03355c51465a7004","636dff3392645181d3c238a1","636e0164904f7b7f4aa51a70","null","","","","null","","","","key","16.722627118644226","960","468.5","","","","","","","","","","","","","","","","","","","",""
"psychophysics","291","579891","0.0-18.0-1.15","600d559d03355c51465a7004","636dff3392645181d3c238a1","636e0164904f7b7f4aa51a70","null","","","","null","","","","key","16.723464285713685","960","468.5","","","","","","","","","","","","","376","1","3","true","","","",""
"psychophysics","292","580158","0.0-18.0-2.15","600d559d03355c51465a7004","636dff3392645181d3c238a1","636e0164904f7b7f4aa51a70","264.90000000596046","","","","77","","","","key","16.72213333332911","960","468.5","","","","","","","","","","","","","","","","","","","",""
"psychophysics","293","581161","0.0-18.0-0.16","600d559d03355c51465a7004","636dff3392645181d3c238a1","636e0164904f7b7f4aa51a70","null","","","","null","","","","key","16.721915254237178","960","468.5","","","","","","","","","","","","","","","","","","","",""
"psychophysics","294","581663","0.0-18.0-1.16","600d559d03355c51465a7004","636dff3392645181d3c238a1","636e0164904f7b7f4aa51a70","null","","","","null","","","","key","16.719793103446637","960","468.5","","","","","","","","","","","","","376","-1","2","true","","","",""
"psychophysics","295","581867","0.0-18.0-2.16","600d559d03355c51465a7004","636dff3392645181d3c238a1","636e0164904f7b7f4aa51a70","201.09999999403954","","","","90","","","","key","16.71950000000652","960","468.5","","","","","","","","","","","","","","","","","","","",""
"psychophysics","296","582868","0.0-18.0-0.17","600d559d03355c51465a7004","636dff3392645181d3c238a1","636e0164904f7b7f4aa51a70","null","","","","null","","","","key","16.72205084745804","960","468.5","","","","","","","","","","","","","","","","","","","",""
"psychophysics","297","583369","0.0-18.0-1.17","600d559d03355c51465a7004","636dff3392645181d3c238a1","636e0164904f7b7f4aa51a70","null","","","","null","","","","key","16.722827586204872","960","468.5","","","","","","","","","","","","","376","-1","4","true","","","",""
"psychophysics","298","583554","0.0-18.0-2.17","600d559d03355c51465a7004","636dff3392645181d3c238a1","636e0164904f7b7f4aa51a70","184.30000001192093","","","","77","","","","key","16.720200000004844","960","468.5","","","","","","","","","","","","","","","","","","","",""
"psychophysics","299","584556","0.0-18.0-0.18","600d559d03355c51465a7004","636dff3392645181d3c238a1","636e0164904f7b7f4aa51a70","null","","","","null","","","","key","16.721344827586016","960","468.5","","","","","","","","","","","","","","","","","","","",""
"psychophysics","300","585059","0.0-18.0-1.18","600d559d03355c51465a7004","636dff3392645181d3c238a1","636e0164904f7b7f4aa51a70","null","","","","null","","","","key","16.722206896552333","960","468.5","","","","","","","","","","","","","376","-1","3","true","","","",""
"psychophysics","301","585194","0.0-18.0-2.18","600d559d03355c51465a7004","636dff3392645181d3c238a1","636e0164904f7b7f4aa51a70","133","","","","77","","","","key","16.721999999994296","960","468.5","","","","","","","","","","","","","","","","","","","",""
"psychophysics","302","586195","0.0-18.0-0.19","600d559d03355c51465a7004","636dff3392645181d3c238a1","636e0164904f7b7f4aa51a70","null","","","","null","","","","key","16.721728813558247","960","468.5","","","","","","","","","","","","","","","","","","","",""
"psychophysics","303","586697","0.0-18.0-1.19","600d559d03355c51465a7004","636dff3392645181d3c238a1","636e0164904f7b7f4aa51a70","null","","","","null","","","","key","16.71955172413687","960","468.5","","","","","","","","","","","","","376","-1","6","true","","","",""
"psychophysics","304","586866","0.0-18.0-2.19","600d559d03355c51465a7004","636dff3392645181d3c238a1","636e0164904f7b7f4aa51a70","167.5","","","","77","","","","key","16.723111111114527","960","468.5","","","","","","","","","","","","","","","","","","","",""
"psychophysics","305","587867","0.0-18.0-0.20","600d559d03355c51465a7004","636dff3392645181d3c238a1","636e0164904f7b7f4aa51a70","null","","","","null","","","","key","16.722137931033824","960","468.5","","","","","","","","","","","","","","","","","","","",""
"psychophysics","306","588369","0.0-18.0-1.20","600d559d03355c51465a7004","636dff3392645181d3c238a1","636e0164904f7b7f4aa51a70","null","","","","null","","","","key","16.72353333333352","960","468.5","","","","","","","","","","","","","376","1","6","true","","","",""
"psychophysics","307","588522","0.0-18.0-2.20","600d559d03355c51465a7004","636dff3392645181d3c238a1","636e0164904f7b7f4aa51a70","152.5","","","","77","","","","key","16.718875000005937","960","468.5","","","","","","","","","","","","","","","","","","","",""
"psychophysics","308","589524","0.0-18.0-0.21","600d559d03355c51465a7004","636dff3392645181d3c238a1","636e0164904f7b7f4aa51a70","null","","","","null","","","","key","16.721322033899614","960","468.5","","","","","","","","","","","","","","","","","","","",""
"psychophysics","309","590025","0.0-18.0-1.21","600d559d03355c51465a7004","636dff3392645181d3c238a1","636e0164904f7b7f4aa51a70","null","","","","null","","","","key","16.723689655171192","960","468.5","","","","","","","","","","","","","376","1","4","true","","","",""
"psychophysics","310","590257","0.0-18.0-2.21","600d559d03355c51465a7004","636dff3392645181d3c238a1","636e0164904f7b7f4aa51a70","230.90000000596046","","","","77","","","","key","16.724333333336592","960","468.5","","","","","","","","","","","","","","","","","","","",""
"psychophysics","311","591259","0.0-18.0-0.22","600d559d03355c51465a7004","636dff3392645181d3c238a1","636e0164904f7b7f4aa51a70","null","","","","null","","","","key","16.721881355932457","960","468.5","","","","","","","","","","","","","","","","","","","",""
"psychophysics","312","591763","0.0-18.0-1.22","600d559d03355c51465a7004","636dff3392645181d3c238a1","636e0164904f7b7f4aa51a70","null","","","","null","","","","key","16.72124137930925","960","468.5","","","","","","","","","","","","","376","1","5","true","","","",""
"psychophysics","313","591908","0.0-18.0-2.22","600d559d03355c51465a7004","636dff3392645181d3c238a1","636e0164904f7b7f4aa51a70","141.79999999701977","","","","77","","","","key","16.720625000001746","960","468.5","","","","","","","","","","","","","","","","","","","",""
"psychophysics","314","592915","0.0-18.0-0.23","600d559d03355c51465a7004","636dff3392645181d3c238a1","636e0164904f7b7f4aa51a70","null","","","","null","","","","key","16.722322033897782","960","468.5","","","","","","","","","","","","","","","","","","","",""
"psychophysics","315","593418","0.0-18.0-1.23","600d559d03355c51465a7004","636dff3392645181d3c238a1","636e0164904f7b7f4aa51a70","null","","","","null","","","","key","16.724724137930778","960","468.5","","","","","","","","","","","","","376","1","0","true","","","",""
"psychophysics","316","593598","0.0-18.0-2.23","600d559d03355c51465a7004","636dff3392645181d3c238a1","636e0164904f7b7f4aa51a70","175.8999999910593","","","","77","","","","key","16.72510000000475","960","468.5","","","","","","","","","","","","","","","","","","","",""
"psychophysics","317","594603","0.0-18.0-0.24","600d559d03355c51465a7004","636dff3392645181d3c238a1","636e0164904f7b7f4aa51a70","null","","","","null","","","","key","16.721745762711596","960","468.5","","","","","","","","","","","","","","","","","","","",""
"psychophysics","318","595106","0.0-18.0-1.24","600d559d03355c51465a7004","636dff3392645181d3c238a1","636e0164904f7b7f4aa51a70","null","","","","null","","","","key","16.723275862068164","960","468.5","","","","","","","","","","","","","376","-1","0","true","","","",""
"psychophysics","319","595309","0.0-18.0-2.24","600d559d03355c51465a7004","636dff3392645181d3c238a1","636e0164904f7b7f4aa51a70","202","","","","90","","","","key","16.720333333330927","960","468.5","","","","","","","","","","","","","","","","","","","",""
"psychophysics","320","596311","0.0-18.0-0.25","600d559d03355c51465a7004","636dff3392645181d3c238a1","636e0164904f7b7f4aa51a70","null","","","","null","","","","key","16.72237931034359","960","468.5","","","","","","","","","","","","","","","","","","","",""
"psychophysics","321","596813","0.0-18.0-1.25","600d559d03355c51465a7004","636dff3392645181d3c238a1","636e0164904f7b7f4aa51a70","null","","","","null","","","","key","16.723379310344924","960","468.5","","","","","","","","","","","","","376","1","6","true","","","",""
"psychophysics","322","597027","0.0-18.0-2.25","600d559d03355c51465a7004","636dff3392645181d3c238a1","636e0164904f7b7f4aa51a70","212.5","","","","77","","","","key","16.72599999999511","960","468.5","","","","","","","","","","","","","","","","","","","",""
"psychophysics","323","598033","0.0-18.0-0.26","600d559d03355c51465a7004","636dff3392645181d3c238a1","636e0164904f7b7f4aa51a70","null","","","","null","","","","key","16.72238983050723","960","468.5","","","","","","","","","","","","","","","","","","","",""
"psychophysics","324","598536","0.0-18.0-1.26","600d559d03355c51465a7004","636dff3392645181d3c238a1","636e0164904f7b7f4aa51a70","null","","","","null","","","","key","16.72448275862101","960","468.5","","","","","","","","","","","","","376","1","4","true","","","",""
"psychophysics","325","598704","0.0-18.0-2.26","600d559d03355c51465a7004","636dff3392645181d3c238a1","636e0164904f7b7f4aa51a70","166.19999998807907","","","","77","","","","key","16.721899999992456","960","468.5","","","","","","","","","","","","","","","","","","","",""
"psychophysics","326","599706","0.0-18.0-0.27","600d559d03355c51465a7004","636dff3392645181d3c238a1","636e0164904f7b7f4aa51a70","null","","","","null","","","","key","16.722327586207218","960","468.5","","","","","","","","","","","","","","","","","","","",""
"psychophysics","327","600208","0.0-18.0-1.27","600d559d03355c51465a7004","636dff3392645181d3c238a1","636e0164904f7b7f4aa51a70","null","","","","null","","","","key","16.721100000001023","960","468.5","","","","","","","","","","","","","376","1","2","true","","","",""
"psychophysics","328","600569","0.0-18.0-2.27","600d559d03355c51465a7004","636dff3392645181d3c238a1","636e0164904f7b7f4aa51a70","359.69999998807907","","","","90","","","","key","16.723749999998837","960","468.5","","","","","","","","","","","","","","","","","","","",""
"psychophysics","329","601572","0.0-18.0-0.28","600d559d03355c51465a7004","636dff3392645181d3c238a1","636e0164904f7b7f4aa51a70","null","","","","null","","","","key","16.721966101695248","960","468.5","","","","","","","","","","","","","","","","","","","",""
"psychophysics","330","602075","0.0-18.0-1.28","600d559d03355c51465a7004","636dff3392645181d3c238a1","636e0164904f7b7f4aa51a70","null","","","","null","","","","key","16.722827586204872","960","468.5","","","","","","","","","","","","","376","1","5","true","","","",""
"psychophysics","331","602216","0.0-18.0-2.28","600d559d03355c51465a7004","636dff3392645181d3c238a1","636e0164904f7b7f4aa51a70","140.59999999403954","","","","77","","","","key","16.721749999996973","960","468.5","","","","","","","","","","","","","","","","","","","",""
"psychophysics","332","603218","0.0-18.0-0.29","600d559d03355c51465a7004","636dff3392645181d3c238a1","636e0164904f7b7f4aa51a70","null","","","","null","","","","key","16.721948275862438","960","468.5","","","","","","","","","","","","","","","","","","","",""
"psychophysics","333","603719","0.0-18.0-1.29","600d559d03355c51465a7004","636dff3392645181d3c238a1","636e0164904f7b7f4aa51a70","null","","","","null","","","","key","16.722310344829097","960","468.5","","","","","","","","","","","","","376","-1","5","true","","","",""
"psychophysics","334","604528","0.0-18.0-2.29","600d559d03355c51465a7004","636dff3392645181d3c238a1","636e0164904f7b7f4aa51a70","806.7000000029802","","","","77","","","","key","16.723395833333296","960","468.5","","","","","","","","","","","","","","","","","","","",""
