"trial_type","trial_index","time_elapsed","internal_node_id","PROLIFIC_PID","STUDY_ID","SESSION_ID","rt","stimulus","button_pressed","success","key_press","responses","isData","view_history","response_type","avg_frame_time","center_x","center_y","isSC","stim_side","trial_luminance","step_size","nReversal","correct","prev_ans","isThreshold","SC_threshold","final_threshold","isLuminance","FF_luminance","luminance","stimSide","ISInt","isFF","question_order","isSPQ","isCAPS","isAQ"
"pavlovia","0","20","0.0-0.0","5fa915e567510582b2104be1","636dff3392645181d3c238a1","636e01763424970ff3ec464f","","","","","","","","","","","","","","","","","","","","","","","","","","","","","","","",""
"html-button-response","1","52933","0.0-1.0","5fa915e567510582b2104be1","636dff3392645181d3c238a1","636e01763424970ff3ec464f","52910.900000002235","<div style='background-color: white; width:60%; margin: auto; padding: 50px; text-align: justify; text-justify: inter-word; margin-bottom: 20px;'><h1 style='text-align: center;'>Consent Form</h1><p>Please read this consent form carefully before deciding whether you would like to participate in this study. You have to be 18 years old or older to participate to this study.</p><p style='text-decoration: underline;'>Participation is voluntary:</p><p>It is your choice whether or not to participate in this research. If you choose to participate, you may change your mind and leave the study at any time. Refusal to participate or stopping your participation will involve no penalty or loss of benefits to which you are otherwise entitled.</p><p style='text-decoration: underline;'>Purpose of the Study:</p><p>To understand the mechanisms underlying human perception.</p><p style='text-decoration: underline;'>What you will do in this study:</p><p>You will be presented with a series of visual images and then you will press buttons on the keyboard of your computer to respond to simple questions about the images (e.g. Were one or two images presented?). In addition, you will be asked to complete a questionnaire concerning your beliefs and everyday mental and perceptual experiences.'</p><p style='text-decoration: underline;'> Time Required:</p><p>The study will take 40 minutes to complete. </p><p style='text-decoration: underline;'>Risks:</p><p>There are no anticipated risks associated with participating in this study that are beyond those experienced in everyday life. </p><p style='text-decoration: underline;'>Benefits:</p><p>There are no benefits to you in participating in the study. However, this study may lead to a better understanding of how different kinds of visual information are used.</p><p style='text-decoration: underline;'>Compensation:</p><p>You will be paid US$6.6/hour. </p><p style='text-decoration: underline;'>Privacy and Confidentiality:</p><p>Your participation in this study will be anonymous. No personal information about your name or identity will be asked or recorded. This anonymous data will be stored for several years and may be used for a variety of research purposes. The overall results of the study may be published, or the data files may be shared with other researchers, but your identity will not be revealed in any way. The online services we are using for this study may temporarily store your data, but this data will be downloaded and then promptly deleted from those services.Your data will not be permanently associated with your name, IP address, or any other identifiable information (e.g., your information will only be connected to your payment, not to any of your responses), though they may be temporarily stored together before we download and separate them. Even so, no guarantee of internet survey security can be given because, although unlikely, transmissions can be intercepted and IP addresses can be identified. The anonymous data may be shared publicly (for example, in conjunction with a resulting academic publication).</p><p style='text-decoration: underline;'>Participation and Withdrawal:</p><p>Your participation in this study is completely voluntary. You may stop responding to the stimuli or stop answering questions if you so choose and without penalty by exiting the full screen mode, closing this tab of your browser or redirecting it to a different website.</p><p style='text-decoration: underline;'>Contact Info of the Researcher: </p><p>If you have questions about this study, or if you would like to talk to the research team, please contact David Melcher (david.melcher@nyu.edu, md5050@nyu.edu) at the Perception and Active Cognition Laboratory, New York University Abu Dhabi, Computational Research Building, Saadiyat Island, Abu Dhabi, UAE.This research has been reviewed by the New York University Abu Dhabi Institutional Review Board (NYUAD IRB). To contact about your rights in this research, for questions, suggestions, or complaints that are not addressed by the researchers, please email IRBnyuad@nyu.edu, or call the NYUAD IRB at +971 2 628 4313. </p></div>","0","","","","","","","","","","","","","","","","","","","","","","","","","","","","",""
"fullscreen","2","72589","0.0-2.0","5fa915e567510582b2104be1","636dff3392645181d3c238a1","636e01763424970ff3ec464f","","","","true","","","","","","","","","","","","","","","","","","","","","","","","","","","",""
"html-keyboard-response","3","100674","0.0-3.0","5fa915e567510582b2104be1","636dff3392645181d3c238a1","636e01763424970ff3ec464f","28083.199999999255","<p>Welcome !</p><p>READ CAREFULLY THE FOLLOWING INDICATIONS:</p><p>From this moment you have ~40 minutes to complete the experiment.</p><p>During the experiment you will be prompted to take several breaks. Each break should not last longer than 2-3 minutes.</p><p>Make sure that your computer is plugged in and it's not running on battery power, even if the battery is already fully charged.</p><p>Turn off your phone and music, make sure that you are in a quiet room and that you will not be distracted for the next hour.</p><p>Failure to comply with the instructions and indications provided during the experiment will most likely result in the rejection of your data.<p>Press the spacebar to start.</p>","","","32","","","","","","","","","","","","","","","","","","","","","","","","","","",""
"survey-html-form","4","114908","0.0-4.0","5fa915e567510582b2104be1","636dff3392645181d3c238a1","636e01763424970ff3ec464f","14231.199999999255","","","","","{""age"":""50"",""sex"":""M""}","true","","","","","","","","","","","","","","","","","","","","","","","","",""
"instructions","5","203899","0.0-5.0","5fa915e567510582b2104be1","636dff3392645181d3c238a1","636e01763424970ff3ec464f","88990.89999999851","","","","","","","[{""page_index"":0,""viewing_time"":53646.199999999255},{""page_index"":1,""viewing_time"":23655.5},{""page_index"":2,""viewing_time"":11688.60000000149}]","","","","","","","","","","","","","","","","","","","","","","","",""
"psychophysics","6","207177","0.0-6.0-0.0","5fa915e567510582b2104be1","636dff3392645181d3c238a1","636e01763424970ff3ec464f","2259.89999999851","","","","37","","","","key","19.156561403508757","512","328.5","true","-1","180","30","0","-1","","","","","","","","","","","","","",""
"psychophysics","7","211155","0.0-6.0-0.1","5fa915e567510582b2104be1","636dff3392645181d3c238a1","636e01763424970ff3ec464f","2973.900000002235","","","","37","","","","key","16.710375527426148","512","328.5","true","1","180","30","0","1","-1","","","","","","","","","","","","",""
"psychophysics","8","215685","0.0-6.0-0.2","5fa915e567510582b2104be1","636dff3392645181d3c238a1","636e01763424970ff3ec464f","3518.699999999255","","","","37","","","","key","16.710348148148235","512","328.5","true","-1","210","30","0","-1","1","","","","","","","","","","","","",""
"psychophysics","9","217543","0.0-6.0-0.3","5fa915e567510582b2104be1","636dff3392645181d3c238a1","636e01763424970ff3ec464f","849","","","","39","","","","key","16.709990909091058","512","328.5","true","1","210","24","1","-1","-1","","","","","","","","","","","","",""
"psychophysics","10","219302","0.0-6.0-0.4","5fa915e567510582b2104be1","636dff3392645181d3c238a1","636e01763424970ff3ec464f","752.7999999970198","","","","37","","","","key","16.710250000000087","512","328.5","true","-1","186","24","1","-1","-1","","","","","","","","","","","","",""
"psychophysics","11","220515","0.0-6.0-0.5","5fa915e567510582b2104be1","636dff3392645181d3c238a1","636e01763424970ff3ec464f","206.89999999850988","","","","39","","","","key","16.710208333333462","512","328.5","true","1","186","24","1","-1","-1","","","","","","","","","","","","",""
"psychophysics","12","221781","0.0-6.0-0.6","5fa915e567510582b2104be1","636dff3392645181d3c238a1","636e01763424970ff3ec464f","262.5","","","","37","","","","key","16.71061333333336","512","328.5","true","-1","162","24","1","-1","-1","","","","","","","","","","","","",""
"psychophysics","13","223083","0.0-6.0-0.7","5fa915e567510582b2104be1","636dff3392645181d3c238a1","636e01763424970ff3ec464f","292.30000000074506","","","","37","","","","key","17.155946666666615","512","328.5","true","-1","162","24","1","-1","-1","","","","","","","","","","","","",""
"psychophysics","14","227361","0.0-6.0-0.8","5fa915e567510582b2104be1","636dff3392645181d3c238a1","636e01763424970ff3ec464f","3275.400000002235","","","","37","","","","key","16.842335968379466","512","328.5","true","-1","138","24","1","-1","-1","","","","","","","","","","","","",""
"psychophysics","15","234124","0.0-6.0-0.9","5fa915e567510582b2104be1","636dff3392645181d3c238a1","636e01763424970ff3ec464f","5757.300000000745","","","","39","","","","key","16.752034825870645","512","328.5","true","-1","138","19.2","2","1","-1","","","","","","","","","","","","",""
"psychophysics","16","235678","0.0-6.0-0.10","5fa915e567510582b2104be1","636dff3392645181d3c238a1","636e01763424970ff3ec464f","548.6000000014901","","","","39","","","","key","16.710326086956584","512","328.5","true","1","157.2","19.2","2","-1","1","","","","","","","","","","","","",""
"psychophysics","17","237022","0.0-6.0-0.11","5fa915e567510582b2104be1","636dff3392645181d3c238a1","636e01763424970ff3ec464f","341","","","","39","","","","key","16.70982499999991","512","328.5","true","1","157.2","15.36","3","-1","-1","","","","","","","","","","","","",""
"psychophysics","18","239749","0.0-6.0-0.12","5fa915e567510582b2104be1","636dff3392645181d3c238a1","636e01763424970ff3ec464f","1718.199999999255","","","","39","","","","key","16.710574074073968","512","328.5","true","1","141.83999999999997","15.36","3","-1","-1","","","","","","","","","","","","",""
"psychophysics","19","242220","0.0-6.0-0.13","5fa915e567510582b2104be1","636dff3392645181d3c238a1","636e01763424970ff3ec464f","1462.800000000745","","","","39","","","","key","16.71017006802714","512","328.5","true","-1","141.83999999999997","12.287999999999998","4","1","-1","","","","","","","","","","","","",""
"psychophysics","20","243558","0.0-6.0-0.14","5fa915e567510582b2104be1","636dff3392645181d3c238a1","636e01763424970ff3ec464f","327.5999999977648","","","","37","","","","key","16.71048101265819","512","328.5","true","-1","154.128","12.287999999999998","4","-1","1","","","","","","","","","","","","",""
"psychophysics","21","247480","0.0-6.0-0.15","5fa915e567510582b2104be1","636dff3392645181d3c238a1","636e01763424970ff3ec464f","2912.800000000745","","","","37","","","","key","16.710482905982893","512","328.5","true","1","154.128","9.8304","5","1","-1","","","","","","","","","","","","",""
"psychophysics","22","248640","0.0-6.0-0.16","5fa915e567510582b2104be1","636dff3392645181d3c238a1","636e01763424970ff3ec464f","154.19999999925494","","","","39","","","","key","16.709691176470454","512","328.5","true","1","163.95839999999998","9.8304","5","-1","1","","","","","","","","","","","","",""
"psychophysics","23","249934","0.0-6.0-0.17","5fa915e567510582b2104be1","636dff3392645181d3c238a1","636e01763424970ff3ec464f","288.5","","","","37","","","","key","16.709723684210314","512","328.5","true","-1","163.95839999999998","7.864319999999999","6","-1","-1","","","","","","","","","","","","",""
"psychophysics","24","251031","0.0-6.0-0.18","5fa915e567510582b2104be1","636dff3392645181d3c238a1","636e01763424970ff3ec464f","89.80000000074506","","","","39","","","","key","16.71107692307694","512","328.5","true","1","156.09408","7.864319999999999","6","-1","-1","","","","","","","","","","","","",""
"psychophysics","25","252225","0.0-6.0-0.19","5fa915e567510582b2104be1","636dff3392645181d3c238a1","636e01763424970ff3ec464f","184.80000000074506","","","","39","","","","key","16.71001408450694","512","328.5","true","1","156.09408","7.864319999999999","6","-1","-1","","","","","","","","","","","","",""
"psychophysics","26","254220","0.0-6.0-0.20","5fa915e567510582b2104be1","636dff3392645181d3c238a1","636e01763424970ff3ec464f","989.6000000014901","","","","37","","","","key","16.710279661016905","512","328.5","true","-1","148.22976","7.864319999999999","6","-1","-1","","","","","","","","","","","","",""
"psychophysics","27","257482","0.0-6.0-0.21","5fa915e567510582b2104be1","636dff3392645181d3c238a1","636e01763424970ff3ec464f","2252.300000000745","","","","37","","","","key","16.7104742268041","512","328.5","true","-1","148.22976","7.864319999999999","6","-1","-1","","","","","","","","","","","","",""
"psychophysics","28","259821","0.0-6.0-0.22","5fa915e567510582b2104be1","636dff3392645181d3c238a1","636e01763424970ff3ec464f","1336.1000000014901","","","","37","","","","key","16.710345323741095","512","328.5","true","1","140.36544","6.291456","7","1","-1","","","","","","","","","","","","",""
"psychophysics","29","261355","0.0-6.0-0.23","5fa915e567510582b2104be1","636dff3392645181d3c238a1","636e01763424970ff3ec464f","527.6999999992549","","","","39","","","","key","16.710637362637417","512","328.5","true","1","146.65689600000002","6.291456","7","-1","1","","","","","","","","","","","","",""
"psychophysics","30","264096","0.0-6.0-0.24","5fa915e567510582b2104be1","636dff3392645181d3c238a1","636e01763424970ff3ec464f","1737.800000000745","","","","39","","","","key","16.710374233129","512","328.5","true","1","146.65689600000002","5.033164800000001","8","-1","-1","","","","","","","","","","","","",""
"psychophysics","31","267714","0.0-6.0-0.25","5fa915e567510582b2104be1","636dff3392645181d3c238a1","636e01763424970ff3ec464f","2612","","","","39","","","","key","16.710296296296292","512","328.5","true","1","141.6237312","5.033164800000001","8","-1","-1","","","","","","","","","","","","",""
"psychophysics","32","270649","0.0-6.0-0.26","5fa915e567510582b2104be1","636dff3392645181d3c238a1","636e01763424970ff3ec464f","1932.7000000029802","","","","39","","","","key","16.709982758620754","512","328.5","true","-1","141.6237312","4.0265318400000005","9","1","-1","","","","","","","","","","","","",""
"psychophysics","33","274223","0.0-6.0-0.27","5fa915e567510582b2104be1","636dff3392645181d3c238a1","636e01763424970ff3ec464f","2569.400000002235","","","","39","","","","key","16.71046009389689","512","328.5","true","1","145.65026304","4.0265318400000005","9","-1","1","","","","","","","","","","","","",""
"psychophysics","34","276884","0.0-6.0-0.28","5fa915e567510582b2104be1","636dff3392645181d3c238a1","636e01763424970ff3ec464f","1654","","","","39","","","","key","16.710234177215217","512","328.5","true","1","145.65026304","3.2212254720000004","10","-1","-1","","","","","","","","","","","","",""
"psychophysics","35","278597","0.0-6.0-0.29","5fa915e567510582b2104be1","636dff3392645181d3c238a1","636e01763424970ff3ec464f","711.8000000007451","","","","37","","","","key","16.710303921568638","512","328.5","true","1","142.429037568","2.5769803776000004","11","1","-1","","","","","","","","","","","","",""
"psychophysics","36","280257","0.0-6.0-0.30","5fa915e567510582b2104be1","636dff3392645181d3c238a1","636e01763424970ff3ec464f","651","","","","37","","","","key","16.71073469387757","512","328.5","true","-1","145.0060179456","2.5769803776000004","11","-1","1","","","","","","","","","","","","",""
"psychophysics","37","281686","0.0-6.0-0.31","5fa915e567510582b2104be1","636dff3392645181d3c238a1","636e01763424970ff3ec464f","423.4000000022352","","","","39","","","","key","16.710682352941127","512","328.5","true","1","145.0060179456","2.0615843020800004","12","-1","-1","","","","","","","","","","","","",""
"psychophysics","38","284221","0.0-6.0-0.32","5fa915e567510582b2104be1","636dff3392645181d3c238a1","636e01763424970ff3ec464f","1528.1000000014901","","","","39","","","","key","16.71053333333344","512","328.5","true","1","142.94443364352","2.0615843020800004","12","-1","-1","","","","","","","","","","","","",""
"psychophysics","39","286993","0.0-6.0-0.33","5fa915e567510582b2104be1","636dff3392645181d3c238a1","636e01763424970ff3ec464f","1763.199999999255","","","","39","","","","key","16.71049696969708","512","328.5","true","-1","142.94443364352","1.6492674416640005","13","1","-1","","","","","","","","","","","","",""
"psychophysics","40","288919","0.0-6.0-0.34","5fa915e567510582b2104be1","636dff3392645181d3c238a1","636e01763424970ff3ec464f","920.1000000014901","","","","39","","","","key","16.710587719298097","512","328.5","true","-1","144.593701085184","1.6492674416640005","13","1","1","","","","","","","","","","","","",""
"psychophysics","41","291042","0.0-6.0-0.35","5fa915e567510582b2104be1","636dff3392645181d3c238a1","636e01763424970ff3ec464f","1119.699999999255","","","","39","","","","key","16.710110236220537","512","328.5","true","-1","146.242968526848","1.6492674416640005","13","1","1","","","","","","","","","","","","",""
"psychophysics","42","294916","0.0-6.0-0.36","5fa915e567510582b2104be1","636dff3392645181d3c238a1","636e01763424970ff3ec464f","2862.10000000149","","","","39","","","","key","16.710473913043668","512","328.5","true","-1","147.89223596851198","1.6492674416640005","13","1","1","","","","","","","","","","","","",""
"psychophysics","43","296494","0.0-6.0-0.37","5fa915e567510582b2104be1","636dff3392645181d3c238a1","636e01763424970ff3ec464f","573.9000000022352","","","","37","","","","key","16.710031914893175","512","328.5","true","-1","149.54150341017598","1.6492674416640005","13","-1","1","","","","","","","","","","","","",""
"psychophysics","44","300177","0.0-6.0-0.38","5fa915e567510582b2104be1","636dff3392645181d3c238a1","636e01763424970ff3ec464f","2675.599999997765","","","","37","","","","key","16.710310502283193","512","328.5","true","1","149.54150341017598","1.3194139533312006","14","1","-1","","","","","","","","","","","","",""
"psychophysics","45","302313","0.0-6.0-0.39","5fa915e567510582b2104be1","636dff3392645181d3c238a1","636e01763424970ff3ec464f","1130.699999999255","","","","37","","","","key","16.710598425197187","512","328.5","true","-1","150.86091736350718","1.3194139533312006","14","-1","1","","","","","","","","","","","","",""
"html-keyboard-response","46","310733","0.0-7.0","5fa915e567510582b2104be1","636dff3392645181d3c238a1","636e01763424970ff3ec464f","8418.300000000745","<p>Well Done !</p><p>Prepare for a new block.</p><p>DON'T EXIT THE FULL SCREEN MODE</p><p>Press the Spacebar to start.</p>","","","32","","","","","","","","","","","","","","","true","145.43671726604285","","","","","","","","","","",""
"psychophysics","47","311757","0.0-8.0-0.0","5fa915e567510582b2104be1","636dff3392645181d3c238a1","636e01763424970ff3ec464f","15.199999999254942","","","","39","","","","key","16.737639344262043","512","328.5","true","1","180","30","0","-1","","","","","","","","","","","","","",""
"psychophysics","48","312810","0.0-8.0-0.1","5fa915e567510582b2104be1","636dff3392645181d3c238a1","636e01763424970ff3ec464f","46.20000000298023","","","","37","","","","key","16.7106290322582","512","328.5","true","-1","180","30","0","-1","-1","","","","","","","","","","","","",""
"psychophysics","49","313882","0.0-8.0-0.2","5fa915e567510582b2104be1","636dff3392645181d3c238a1","636e01763424970ff3ec464f","68.39999999850988","","","","39","","","","key","16.980048387097344","512","328.5","true","1","150","30","0","-1","-1","","","","","","","","","","","","",""
"psychophysics","50","315423","0.0-8.0-0.3","5fa915e567510582b2104be1","636dff3392645181d3c238a1","636e01763424970ff3ec464f","536.1999999992549","","","","37","","","","key","17.08109999999999","512","328.5","true","-1","150","30","0","-1","-1","","","","","","","","","","","","",""
"psychophysics","51","317040","0.0-8.0-0.4","5fa915e567510582b2104be1","636dff3392645181d3c238a1","636e01763424970ff3ec464f","615","","","","37","","","","key","16.888606382979134","512","328.5","true","1","129","24","1","1","-1","","","","","","","","","","","","",""
"psychophysics","52","318143","0.0-8.0-0.5","5fa915e567510582b2104be1","636dff3392645181d3c238a1","636e01763424970ff3ec464f","96.19999999925494","","","","39","","","","key","17.240047619047036","512","328.5","true","1","153","24","1","-1","1","","","","","","","","","","","","",""
"psychophysics","53","319251","0.0-8.0-0.6","5fa915e567510582b2104be1","636dff3392645181d3c238a1","636e01763424970ff3ec464f","103.09999999776483","","","","39","","","","key","16.96689230769228","512","328.5","true","1","153","19.2","2","-1","-1","","","","","","","","","","","","",""
"psychophysics","54","321000","0.0-8.0-0.7","5fa915e567510582b2104be1","636dff3392645181d3c238a1","636e01763424970ff3ec464f","745.8000000007451","","","","37","","","","key","16.71033980582504","512","328.5","true","-1","133.8","19.2","2","-1","-1","","","","","","","","","","","","",""
"psychophysics","55","322303","0.0-8.0-0.8","5fa915e567510582b2104be1","636dff3392645181d3c238a1","636e01763424970ff3ec464f","299.70000000298023","","","","39","","","","key","16.930789473684086","512","328.5","true","-1","133.8","15.36","3","1","-1","","","","","","","","","","","","",""
"psychophysics","56","323436","0.0-8.0-0.9","5fa915e567510582b2104be1","636dff3392645181d3c238a1","636e01763424970ff3ec464f","128.59999999776483","","","","39","","","","key","17.49323437500061","512","328.5","true","1","149.16000000000003","15.36","3","-1","1","","","","","","","","","","","","",""
"psychophysics","57","324565","0.0-8.0-0.10","5fa915e567510582b2104be1","636dff3392645181d3c238a1","636e01763424970ff3ec464f","121.79999999701977","","","","37","","","","key","16.963712121212723","512","328.5","true","-1","149.16000000000003","12.287999999999998","4","-1","-1","","","","","","","","","","","","",""
"psychophysics","58","326660","0.0-8.0-0.11","5fa915e567510582b2104be1","636dff3392645181d3c238a1","636e01763424970ff3ec464f","1085.7999999970198","","","","39","","","","key","16.846203252032865","512","328.5","true","-1","136.872","9.8304","5","1","-1","","","","","","","","","","","","",""
"psychophysics","59","328554","0.0-8.0-0.12","5fa915e567510582b2104be1","636dff3392645181d3c238a1","636e01763424970ff3ec464f","884.8000000007451","","","","39","","","","key","17.170651376146477","512","328.5","true","1","146.7024","9.8304","5","-1","1","","","","","","","","","","","","",""
"psychophysics","60","330503","0.0-8.0-0.13","5fa915e567510582b2104be1","636dff3392645181d3c238a1","636e01763424970ff3ec464f","946","","","","39","","","","key","17.00325438596529","512","328.5","true","-1","146.7024","7.864319999999999","6","1","-1","","","","","","","","","","","","",""
"psychophysics","61","331833","0.0-8.0-0.14","5fa915e567510582b2104be1","636dff3392645181d3c238a1","636e01763424970ff3ec464f","324.5","","","","39","","","","key","17.144584415584816","512","328.5","true","1","154.56672","7.864319999999999","6","-1","1","","","","","","","","","","","","",""
"psychophysics","62","333087","0.0-8.0-0.15","5fa915e567510582b2104be1","636dff3392645181d3c238a1","636e01763424970ff3ec464f","252.69999999925494","","","","39","","","","key","16.93902739726026","512","328.5","true","1","154.56672","6.291456","7","-1","-1","","","","","","","","","","","","",""
"psychophysics","63","335531","0.0-8.0-0.16","5fa915e567510582b2104be1","636dff3392645181d3c238a1","636e01763424970ff3ec464f","1437","","","","37","","","","key","16.826854166666536","512","328.5","true","-1","148.275264","6.291456","7","-1","-1","","","","","","","","","","","","",""
"psychophysics","64","337391","0.0-8.0-0.17","5fa915e567510582b2104be1","636dff3392645181d3c238a1","636e01763424970ff3ec464f","856.1999999992549","","","","37","","","","key","16.710099999999777","512","328.5","true","-1","148.275264","6.291456","7","-1","-1","","","","","","","","","","","","",""
"psychophysics","65","339170","0.0-8.0-0.18","5fa915e567510582b2104be1","636dff3392645181d3c238a1","636e01763424970ff3ec464f","772.6000000014901","","","","37","","","","key","16.71023584905691","512","328.5","true","-1","141.98380799999998","6.291456","7","-1","-1","","","","","","","","","","","","",""
"psychophysics","66","341920","0.0-8.0-0.19","5fa915e567510582b2104be1","636dff3392645181d3c238a1","636e01763424970ff3ec464f","1748.9000000022352","","","","39","","","","key","16.71014110429428","512","328.5","true","-1","141.98380799999998","5.033164800000001","8","1","-1","","","","","","","","","","","","",""
"psychophysics","67","343468","0.0-8.0-0.20","5fa915e567510582b2104be1","636dff3392645181d3c238a1","636e01763424970ff3ec464f","543.1999999992549","","","","39","","","","key","16.71076086956537","512","328.5","true","1","147.0169728","5.033164800000001","8","-1","1","","","","","","","","","","","","",""
"psychophysics","68","345874","0.0-8.0-0.21","5fa915e567510582b2104be1","636dff3392645181d3c238a1","636e01763424970ff3ec464f","1395.699999999255","","","","39","","","","key","16.710118881119023","512","328.5","true","-1","147.0169728","4.0265318400000005","9","1","-1","","","","","","","","","","","","",""
"psychophysics","69","348134","0.0-8.0-0.22","5fa915e567510582b2104be1","636dff3392645181d3c238a1","636e01763424970ff3ec464f","1256","","","","39","","","","key","16.710268656716252","512","328.5","true","1","151.04350463999998","4.0265318400000005","9","-1","1","","","","","","","","","","","","",""
"psychophysics","70","349931","0.0-8.0-0.23","5fa915e567510582b2104be1","636dff3392645181d3c238a1","636e01763424970ff3ec464f","788.5999999977648","","","","39","","","","key","16.868283018867928","512","328.5","true","-1","151.04350463999998","3.2212254720000004","10","1","-1","","","","","","","","","","","","",""
"psychophysics","71","352825","0.0-8.0-0.24","5fa915e567510582b2104be1","636dff3392645181d3c238a1","636e01763424970ff3ec464f","1891.5","","","","39","","","","key","16.71056976744182","512","328.5","true","1","154.264730112","3.2212254720000004","10","-1","1","","","","","","","","","","","","",""
"psychophysics","72","354459","0.0-8.0-0.25","5fa915e567510582b2104be1","636dff3392645181d3c238a1","636e01763424970ff3ec464f","629.7000000029802","","","","39","","","","key","16.70986597938163","512","328.5","true","1","154.264730112","2.5769803776000004","11","-1","-1","","","","","","","","","","","","",""
"psychophysics","73","357652","0.0-8.0-0.26","5fa915e567510582b2104be1","636dff3392645181d3c238a1","636e01763424970ff3ec464f","2190.699999999255","","","","37","","","","key","16.710594736842292","512","328.5","true","-1","151.6877497344","2.5769803776000004","11","-1","-1","","","","","","","","","","","","",""
"psychophysics","74","361011","0.0-8.0-0.27","5fa915e567510582b2104be1","636dff3392645181d3c238a1","636e01763424970ff3ec464f","2348.900000002235","","","","39","","","","key","16.710309999999883","512","328.5","true","-1","151.6877497344","2.0615843020800004","12","1","-1","","","","","","","","","","","","",""
"psychophysics","75","364021","0.0-8.0-0.28","5fa915e567510582b2104be1","636dff3392645181d3c238a1","636e01763424970ff3ec464f","2000.1000000014901","","","","39","","","","key","16.710357541899658","512","328.5","true","-1","153.74933403648","2.0615843020800004","12","1","1","","","","","","","","","","","","",""
"psychophysics","76","367375","0.0-8.0-0.29","5fa915e567510582b2104be1","636dff3392645181d3c238a1","636e01763424970ff3ec464f","2345.7000000029802","","","","39","","","","key","16.71029999999999","512","328.5","true","-1","155.81091833856001","2.0615843020800004","12","1","1","","","","","","","","","","","","",""
"psychophysics","77","369854","0.0-8.0-0.30","5fa915e567510582b2104be1","636dff3392645181d3c238a1","636e01763424970ff3ec464f","1471.199999999255","","","","39","","","","key","16.710598639455675","512","328.5","true","1","157.87250264064002","2.0615843020800004","12","-1","1","","","","","","","","","","","","",""
"psychophysics","78","371498","0.0-8.0-0.31","5fa915e567510582b2104be1","636dff3392645181d3c238a1","636e01763424970ff3ec464f","637.1999999992549","","","","37","","","","key","16.710288659793676","512","328.5","true","-1","157.87250264064002","1.6492674416640005","13","-1","-1","","","","","","","","","","","","",""
"psychophysics","79","372792","0.0-8.0-0.32","5fa915e567510582b2104be1","636dff3392645181d3c238a1","636e01763424970ff3ec464f","290.70000000298023","","","","39","","","","key","16.710350649351216","512","328.5","true","1","156.22323519897603","1.6492674416640005","13","-1","-1","","","","","","","","","","","","",""
"psychophysics","80","374054","0.0-8.0-0.33","5fa915e567510582b2104be1","636dff3392645181d3c238a1","636e01763424970ff3ec464f","257.30000000074506","","","","39","","","","key","16.710445945945605","512","328.5","true","1","156.22323519897603","1.6492674416640005","13","-1","-1","","","","","","","","","","","","",""
"psychophysics","81","377052","0.0-8.0-0.34","5fa915e567510582b2104be1","636dff3392645181d3c238a1","636e01763424970ff3ec464f","1992.0999999977648","","","","37","","","","key","16.710178770949575","512","328.5","true","-1","154.57396775731203","1.6492674416640005","13","-1","-1","","","","","","","","","","","","",""
"psychophysics","82","378213","0.0-8.0-0.35","5fa915e567510582b2104be1","636dff3392645181d3c238a1","636e01763424970ff3ec464f","152.40000000223517","","","","39","","","","key","16.709999999999553","512","328.5","true","1","154.57396775731203","1.6492674416640005","13","-1","-1","","","","","","","","","","","","",""
"psychophysics","83","379401","0.0-8.0-0.36","5fa915e567510582b2104be1","636dff3392645181d3c238a1","636e01763424970ff3ec464f","181","","","","39","","","","key","16.71044285714244","512","328.5","true","1","152.92470031564804","1.6492674416640005","13","-1","-1","","","","","","","","","","","","",""
"psychophysics","84","381501","0.0-8.0-0.37","5fa915e567510582b2104be1","636dff3392645181d3c238a1","636e01763424970ff3ec464f","1095.699999999255","","","","37","","","","key","16.710383999999614","512","328.5","true","-1","152.92470031564804","1.6492674416640005","13","-1","-1","","","","","","","","","","","","",""
"psychophysics","85","382584","0.0-8.0-0.38","5fa915e567510582b2104be1","636dff3392645181d3c238a1","636e01763424970ff3ec464f","75.19999999925494","","","","39","","","","key","16.709937499999796","512","328.5","true","1","151.27543287398404","1.6492674416640005","13","-1","-1","","","","","","","","","","","","",""
"psychophysics","86","383828","0.0-8.0-0.39","5fa915e567510582b2104be1","636dff3392645181d3c238a1","636e01763424970ff3ec464f","237.90000000223517","","","","39","","","","key","16.710000000000225","512","328.5","true","1","151.27543287398404","1.6492674416640005","13","-1","-1","","","","","","","","","","","","",""
"html-keyboard-response","87","387052","0.0-9.0","5fa915e567510582b2104be1","636dff3392645181d3c238a1","636e01763424970ff3ec464f","3223.699999999255","<p>Well Done !</p><p>Prepare for a new block.</p><p>DON'T EXIT THE FULL SCREEN MODE</p><p>Press the Spacebar to start.</p>","","","32","","","","","","","","","","","","","","","true","154.196010635264","","","","","","","","","","",""
"psychophysics","88","390490","0.0-10.0-0.0","5fa915e567510582b2104be1","636dff3392645181d3c238a1","636e01763424970ff3ec464f","2429.199999999255","","","","39","","","","key","16.714286407766902","512","328.5","true","1","180","30","0","-1","","","","","","","","","","","","","",""
"psychophysics","89","391632","0.0-10.0-0.1","5fa915e567510582b2104be1","636dff3392645181d3c238a1","636e01763424970ff3ec464f","138.89999999850988","","","","37","","","","key","16.710701492536856","512","328.5","true","-1","180","30","0","-1","-1","","","","","","","","","","","","",""
"psychophysics","90","394253","0.0-10.0-0.2","5fa915e567510582b2104be1","636dff3392645181d3c238a1","636e01763424970ff3ec464f","1615.3999999985099","","","","37","","","","key","16.710480769230532","512","328.5","true","-1","150","30","0","-1","-1","","","","","","","","","","","","",""
"psychophysics","91","395336","0.0-10.0-0.3","5fa915e567510582b2104be1","636dff3392645181d3c238a1","636e01763424970ff3ec464f","74.69999999925494","","","","39","","","","key","16.71050000000014","512","328.5","true","1","150","30","0","-1","-1","","","","","","","","","","","","",""
"psychophysics","92","398042","0.0-10.0-0.4","5fa915e567510582b2104be1","636dff3392645181d3c238a1","636e01763424970ff3ec464f","1700","","","","37","","","","key","16.71035403726689","512","328.5","true","1","129","24","1","1","-1","","","","","","","","","","","","",""
"psychophysics","93","400117","0.0-10.0-0.5","5fa915e567510582b2104be1","636dff3392645181d3c238a1","636e01763424970ff3ec464f","1071.2000000029802","","","","37","","","","key","16.710024390244246","512","328.5","true","1","153","24","1","1","1","","","","","","","","","","","","",""
"psychophysics","94","401150","0.0-10.0-0.6","5fa915e567510582b2104be1","636dff3392645181d3c238a1","636e01763424970ff3ec464f","24.700000002980232","","","","37","","","","key","16.71144262295155","512","328.5","true","-1","177","24","1","-1","1","","","","","","","","","","","","",""
"psychophysics","95","403881","0.0-10.0-0.7","5fa915e567510582b2104be1","636dff3392645181d3c238a1","636e01763424970ff3ec464f","1722.8999999985099","","","","39","","","","key","16.709938271604997","512","328.5","true","-1","177","19.2","2","1","-1","","","","","","","","","","","","",""
"psychophysics","96","405025","0.0-10.0-0.8","5fa915e567510582b2104be1","636dff3392645181d3c238a1","636e01763424970ff3ec464f","139.30000000074506","","","","37","","","","key","16.711044117647415","512","328.5","true","-1","196.2","19.2","2","-1","1","","","","","","","","","","","","",""
"psychophysics","97","406106","0.0-10.0-0.9","5fa915e567510582b2104be1","636dff3392645181d3c238a1","636e01763424970ff3ec464f","76.80000000074506","","","","39","","","","key","16.71019047618999","512","328.5","true","1","196.2","15.36","3","-1","-1","","","","","","","","","","","","",""
"psychophysics","98","409124","0.0-10.0-0.10","5fa915e567510582b2104be1","636dff3392645181d3c238a1","636e01763424970ff3ec464f","2014.8999999985099","","","","39","","","","key","16.710472222222275","512","328.5","true","-1","180.83999999999997","12.287999999999998","4","1","-1","","","","","","","","","","","","",""
"psychophysics","99","410304","0.0-10.0-0.11","5fa915e567510582b2104be1","636dff3392645181d3c238a1","636e01763424970ff3ec464f","170.30000000074506","","","","39","","","","key","16.71035714285681","512","328.5","true","1","193.128","12.287999999999998","4","-1","1","","","","","","","","","","","","",""
"psychophysics","100","413002","0.0-10.0-0.12","5fa915e567510582b2104be1","636dff3392645181d3c238a1","636e01763424970ff3ec464f","1692.5","","","","39","","","","key","16.710449999999764","512","328.5","true","-1","193.128","9.8304","5","1","-1","","","","","","","","","","","","",""
"psychophysics","101","414473","0.0-10.0-0.13","5fa915e567510582b2104be1","636dff3392645181d3c238a1","636e01763424970ff3ec464f","466.80000000074506","","","","39","","","","key","16.71055172413826","512","328.5","true","1","202.95839999999998","9.8304","5","-1","1","","","","","","","","","","","","",""
"psychophysics","102","416088","0.0-10.0-0.14","5fa915e567510582b2104be1","636dff3392645181d3c238a1","636e01763424970ff3ec464f","610.2999999970198","","","","39","","","","key","16.71032291666658","512","328.5","true","1","202.95839999999998","7.864319999999999","6","-1","-1","","","","","","","","","","","","",""
"psychophysics","103","417621","0.0-10.0-0.15","5fa915e567510582b2104be1","636dff3392645181d3c238a1","636e01763424970ff3ec464f","527.6000000014901","","","","39","","","","key","16.70991111111103","512","328.5","true","1","195.09408","7.864319999999999","6","-1","-1","","","","","","","","","","","","",""
"psychophysics","104","419331","0.0-10.0-0.16","5fa915e567510582b2104be1","636dff3392645181d3c238a1","636e01763424970ff3ec464f","706.8999999985099","","","","39","","","","key","16.710696078431177","512","328.5","true","1","195.09408","7.864319999999999","6","-1","-1","","","","","","","","","","","","",""
"psychophysics","105","420468","0.0-10.0-0.17","5fa915e567510582b2104be1","636dff3392645181d3c238a1","636e01763424970ff3ec464f","134.40000000223517","","","","37","","","","key","16.71032835820902","512","328.5","true","-1","187.22976","7.864319999999999","6","-1","-1","","","","","","","","","","","","",""
"psychophysics","106","421512","0.0-10.0-0.18","5fa915e567510582b2104be1","636dff3392645181d3c238a1","636e01763424970ff3ec464f","35.30000000074506","","","","37","","","","key","16.710606557377194","512","328.5","true","-1","187.22976","7.864319999999999","6","-1","-1","","","","","","","","","","","","",""
"psychophysics","107","422519","0.0-10.0-0.19","5fa915e567510582b2104be1","636dff3392645181d3c238a1","636e01763424970ff3ec464f","1.800000000745058","","","","37","","","","key","16.70954999999958","512","328.5","true","-1","179.36544","7.864319999999999","6","-1","-1","","","","","","","","","","","","",""
"psychophysics","108","423582","0.0-10.0-0.20","5fa915e567510582b2104be1","636dff3392645181d3c238a1","636e01763424970ff3ec464f","56.5","","","","39","","","","key","16.710241935484397","512","328.5","true","1","179.36544","7.864319999999999","6","-1","-1","","","","","","","","","","","","",""
"psychophysics","109","424626","0.0-10.0-0.21","5fa915e567510582b2104be1","636dff3392645181d3c238a1","636e01763424970ff3ec464f","37","","","","39","","","","key","16.710903225806465","512","328.5","true","1","171.50112000000001","7.864319999999999","6","-1","-1","","","","","","","","","","","","",""
"psychophysics","110","425663","0.0-10.0-0.22","5fa915e567510582b2104be1","636dff3392645181d3c238a1","636e01763424970ff3ec464f","25.099999997764826","","","","37","","","","key","16.710557377048897","512","328.5","true","-1","171.50112000000001","7.864319999999999","6","-1","-1","","","","","","","","","","","","",""
"psychophysics","111","428940","0.0-10.0-0.23","5fa915e567510582b2104be1","636dff3392645181d3c238a1","636e01763424970ff3ec464f","2274.400000002235","","","","39","","","","key","16.71034358974355","512","328.5","true","1","163.63680000000002","7.864319999999999","6","-1","-1","","","","","","","","","","","","",""
"psychophysics","112","430078","0.0-10.0-0.24","5fa915e567510582b2104be1","636dff3392645181d3c238a1","636e01763424970ff3ec464f","128.30000000074506","","","","39","","","","key","16.709970149254154","512","328.5","true","1","163.63680000000002","7.864319999999999","6","-1","-1","","","","","","","","","","","","",""
"psychophysics","113","432679","0.0-10.0-0.25","5fa915e567510582b2104be1","636dff3392645181d3c238a1","636e01763424970ff3ec464f","1593.199999999255","","","","39","","","","key","16.710548387096836","512","328.5","true","-1","155.77248000000003","6.291456","7","1","-1","","","","","","","","","","","","",""
"psychophysics","114","435110","0.0-10.0-0.26","5fa915e567510582b2104be1","636dff3392645181d3c238a1","636e01763424970ff3ec464f","1424.5999999977648","","","","39","","","","key","16.710402777777844","512","328.5","true","1","162.06393600000004","6.291456","7","-1","1","","","","","","","","","","","","",""
"psychophysics","115","436709","0.0-10.0-0.27","5fa915e567510582b2104be1","636dff3392645181d3c238a1","636e01763424970ff3ec464f","591.6999999992549","","","","37","","","","key","16.709947368421126","512","328.5","true","-1","162.06393600000004","5.033164800000001","8","-1","-1","","","","","","","","","","","","",""
"psychophysics","116","438568","0.0-10.0-0.28","5fa915e567510582b2104be1","636dff3392645181d3c238a1","636e01763424970ff3ec464f","850.4000000022352","","","","37","","","","key","16.71070000000023","512","328.5","true","-1","157.03077120000003","5.033164800000001","8","-1","-1","","","","","","","","","","","","",""
"psychophysics","117","440735","0.0-10.0-0.29","5fa915e567510582b2104be1","636dff3392645181d3c238a1","636e01763424970ff3ec464f","1161.5","","","","37","","","","key","16.710108527131723","512","328.5","true","-1","157.03077120000003","5.033164800000001","8","-1","-1","","","","","","","","","","","","",""
"psychophysics","118","442854","0.0-10.0-0.30","5fa915e567510582b2104be1","636dff3392645181d3c238a1","636e01763424970ff3ec464f","1111.199999999255","","","","39","","","","key","16.710343999999576","512","328.5","true","-1","151.99760640000002","4.0265318400000005","9","1","-1","","","","","","","","","","","","",""
"psychophysics","119","444605","0.0-10.0-0.31","5fa915e567510582b2104be1","636dff3392645181d3c238a1","636e01763424970ff3ec464f","748.3000000007451","","","","39","","","","key","16.710307692307442","512","328.5","true","1","156.02413824","4.0265318400000005","9","-1","1","","","","","","","","","","","","",""
"psychophysics","120","446269","0.0-10.0-0.32","5fa915e567510582b2104be1","636dff3392645181d3c238a1","636e01763424970ff3ec464f","657.9000000022352","","","","39","","","","key","16.710616161615818","512","328.5","true","1","156.02413824","3.2212254720000004","10","-1","-1","","","","","","","","","","","","",""
"psychophysics","121","447638","0.0-10.0-0.33","5fa915e567510582b2104be1","636dff3392645181d3c238a1","636e01763424970ff3ec464f","360.30000000074506","","","","37","","","","key","16.710753086419707","512","328.5","true","-1","152.802912768","3.2212254720000004","10","-1","-1","","","","","","","","","","","","",""
"psychophysics","122","449142","0.0-10.0-0.34","5fa915e567510582b2104be1","636dff3392645181d3c238a1","636e01763424970ff3ec464f","494.80000000074506","","","","37","","","","key","16.710000000000026","512","328.5","true","-1","152.802912768","3.2212254720000004","10","-1","-1","","","","","","","","","","","","",""
"psychophysics","123","453556","0.0-10.0-0.35","5fa915e567510582b2104be1","636dff3392645181d3c238a1","636e01763424970ff3ec464f","3406.60000000149","","","","37","","","","key","16.71036501901141","512","328.5","true","1","149.58168729599998","2.5769803776000004","11","1","-1","","","","","","","","","","","","",""
"psychophysics","124","454839","0.0-10.0-0.36","5fa915e567510582b2104be1","636dff3392645181d3c238a1","636e01763424970ff3ec464f","273.80000000074506","","","","39","","","","key","16.710421052631176","512","328.5","true","1","152.15866767359998","2.5769803776000004","11","-1","1","","","","","","","","","","","","",""
"psychophysics","125","456518","0.0-10.0-0.37","5fa915e567510582b2104be1","636dff3392645181d3c238a1","636e01763424970ff3ec464f","672.3000000007451","","","","39","","","","key","16.710313131313093","512","328.5","true","-1","152.15866767359998","2.0615843020800004","12","1","-1","","","","","","","","","","","","",""
"psychophysics","126","461204","0.0-10.0-0.38","5fa915e567510582b2104be1","636dff3392645181d3c238a1","636e01763424970ff3ec464f","3678.7999999970198","","","","37","","","","key","16.71025714285726","512","328.5","true","-1","154.22025197568","2.0615843020800004","12","-1","1","","","","","","","","","","","","",""
"psychophysics","127","462748","0.0-10.0-0.39","5fa915e567510582b2104be1","636dff3392645181d3c238a1","636e01763424970ff3ec464f","533.6000000014901","","","","39","","","","key","16.710164835164836","512","328.5","true","1","154.22025197568","1.6492674416640005","13","-1","-1","","","","","","","","","","","","",""
"html-keyboard-response","128","465030","0.0-11.0","5fa915e567510582b2104be1","636dff3392645181d3c238a1","636e01763424970ff3ec464f","2280.900000002235","<p>Well Done !</p><p>Prepare for a new block.</p><p>DON'T EXIT THE FULL SCREEN MODE</p><p>Press the Spacebar to start.</p>","","","32","","","","","","","","","","","","","","","true","155.063541960704","","","","","","","","","","",""
"psychophysics","129","466121","0.0-12.0-0.0","5fa915e567510582b2104be1","636dff3392645181d3c238a1","636e01763424970ff3ec464f","88.39999999850988","","","","39","","","","key","16.719153846153773","512","328.5","true","1","180","30","0","-1","","","","","","","","","","","","","",""
"psychophysics","130","467463","0.0-12.0-0.1","5fa915e567510582b2104be1","636dff3392645181d3c238a1","636e01763424970ff3ec464f","337.5999999977648","","","","39","","","","key","16.710582278480995","512","328.5","true","1","180","30","0","-1","-1","","","","","","","","","","","","",""
"psychophysics","131","469868","0.0-12.0-0.2","5fa915e567510582b2104be1","636dff3392645181d3c238a1","636e01763424970ff3ec464f","1398.699999999255","","","","39","","","","key","16.71053146853167","512","328.5","true","1","150","30","0","-1","-1","","","","","","","","","","","","",""
"psychophysics","132","472763","0.0-12.0-0.3","5fa915e567510582b2104be1","636dff3392645181d3c238a1","636e01763424970ff3ec464f","1887.300000000745","","","","39","","","","key","16.710110465116085","512","328.5","true","-1","150","24","1","1","-1","","","","","","","","","","","","",""
"psychophysics","133","474267","0.0-12.0-0.4","5fa915e567510582b2104be1","636dff3392645181d3c238a1","636e01763424970ff3ec464f","500.19999999925494","","","","39","","","","key","16.710853932583653","512","328.5","true","1","174","24","1","-1","1","","","","","","","","","","","","",""
"psychophysics","134","475385","0.0-12.0-0.5","5fa915e567510582b2104be1","636dff3392645181d3c238a1","636e01763424970ff3ec464f","114.5","","","","37","","","","key","16.709787878788177","512","328.5","true","-1","174","19.2","2","-1","-1","","","","","","","","","","","","",""
"psychophysics","135","477867","0.0-12.0-0.6","5fa915e567510582b2104be1","636dff3392645181d3c238a1","636e01763424970ff3ec464f","1476.199999999255","","","","39","","","","key","16.710628378378445","512","328.5","true","-1","154.8","15.36","3","1","-1","","","","","","","","","","","","",""
"psychophysics","136","479499","0.0-12.0-0.7","5fa915e567510582b2104be1","636dff3392645181d3c238a1","636e01763424970ff3ec464f","630.1999999992549","","","","39","","","","key","16.710270833333805","512","328.5","true","1","170.16000000000003","15.36","3","-1","1","","","","","","","","","","","","",""
"psychophysics","137","480898","0.0-12.0-0.8","5fa915e567510582b2104be1","636dff3392645181d3c238a1","636e01763424970ff3ec464f","396.80000000074506","","","","37","","","","key","16.710277108433488","512","328.5","true","-1","170.16000000000003","12.287999999999998","4","-1","-1","","","","","","","","","","","","",""
"psychophysics","138","483133","0.0-12.0-0.9","5fa915e567510582b2104be1","636dff3392645181d3c238a1","636e01763424970ff3ec464f","1231.5","","","","37","","","","key","16.710293233083014","512","328.5","true","-1","157.872","12.287999999999998","4","-1","-1","","","","","","","","","","","","",""
"psychophysics","139","485359","0.0-12.0-0.10","5fa915e567510582b2104be1","636dff3392645181d3c238a1","636e01763424970ff3ec464f","1216.7000000029802","","","","39","","","","key","16.710583333333048","512","328.5","true","-1","157.872","9.8304","5","1","-1","","","","","","","","","","","","",""
"psychophysics","140","486432","0.0-12.0-0.11","5fa915e567510582b2104be1","636dff3392645181d3c238a1","636e01763424970ff3ec464f","66.80000000074506","","","","37","","","","key","16.711095238095222","512","328.5","true","-1","167.7024","9.8304","5","-1","1","","","","","","","","","","","","",""
"psychophysics","141","487526","0.0-12.0-0.12","5fa915e567510582b2104be1","636dff3392645181d3c238a1","636e01763424970ff3ec464f","89.20000000298023","","","","39","","","","key","16.710153846153453","512","328.5","true","1","167.7024","7.864319999999999","6","-1","-1","","","","","","","","","","","","",""
"psychophysics","142","488889","0.0-12.0-0.13","5fa915e567510582b2104be1","636dff3392645181d3c238a1","636e01763424970ff3ec464f","355.20000000298023","","","","39","","","","key","16.710650000000168","512","328.5","true","1","159.83808000000002","7.864319999999999","6","-1","-1","","","","","","","","","","","","",""
"psychophysics","143","489902","0.0-12.0-0.14","5fa915e567510582b2104be1","636dff3392645181d3c238a1","636e01763424970ff3ec464f","8.800000000745058","","","","37","","","","key","16.71038333333369","512","328.5","true","-1","159.83808000000002","7.864319999999999","6","-1","-1","","","","","","","","","","","","",""
"psychophysics","144","492604","0.0-12.0-0.15","5fa915e567510582b2104be1","636dff3392645181d3c238a1","636e01763424970ff3ec464f","1694.3999999985099","","","","37","","","","key","16.710285714285533","512","328.5","true","-1","151.97376000000003","7.864319999999999","6","-1","-1","","","","","","","","","","","","",""
"psychophysics","145","495640","0.0-12.0-0.16","5fa915e567510582b2104be1","636dff3392645181d3c238a1","636e01763424970ff3ec464f","2034.3999999985099","","","","39","","","","key","16.710305555555774","512","328.5","true","1","151.97376000000003","7.864319999999999","6","-1","-1","","","","","","","","","","","","",""
"psychophysics","146","497405","0.0-12.0-0.17","5fa915e567510582b2104be1","636dff3392645181d3c238a1","636e01763424970ff3ec464f","759.6999999992549","","","","39","","","","key","16.710466666666548","512","328.5","true","1","144.10944000000003","7.864319999999999","6","-1","-1","","","","","","","","","","","","",""
"psychophysics","147","499629","0.0-12.0-0.18","5fa915e567510582b2104be1","636dff3392645181d3c238a1","636e01763424970ff3ec464f","1215.800000000745","","","","37","","","","key","16.71011363636353","512","328.5","true","1","144.10944000000003","6.291456","7","1","-1","","","","","","","","","","","","",""
"psychophysics","148","501184","0.0-12.0-0.19","5fa915e567510582b2104be1","636dff3392645181d3c238a1","636e01763424970ff3ec464f","546.4000000022352","","","","39","","","","key","16.710565217391654","512","328.5","true","-1","150.40089600000005","6.291456","7","1","1","","","","","","","","","","","","",""
"psychophysics","149","502853","0.0-12.0-0.20","5fa915e567510582b2104be1","636dff3392645181d3c238a1","636e01763424970ff3ec464f","664.1999999992549","","","","39","","","","key","16.71001010101037","512","328.5","true","-1","156.69235200000006","6.291456","7","1","1","","","","","","","","","","","","",""
"psychophysics","150","504076","0.0-12.0-0.21","5fa915e567510582b2104be1","636dff3392645181d3c238a1","636e01763424970ff3ec464f","214.80000000074506","","","","39","","","","key","16.710208333333462","512","328.5","true","1","162.98380800000007","6.291456","7","-1","1","","","","","","","","","","","","",""
"psychophysics","151","505130","0.0-12.0-0.22","5fa915e567510582b2104be1","636dff3392645181d3c238a1","636e01763424970ff3ec464f","51.19999999925494","","","","39","","","","key","16.710758064515822","512","328.5","true","1","162.98380800000007","5.033164800000001","8","-1","-1","","","","","","","","","","","","",""
"psychophysics","152","507512","0.0-12.0-0.23","5fa915e567510582b2104be1","636dff3392645181d3c238a1","636e01763424970ff3ec464f","1377.5","","","","39","","","","key","16.710415492957853","512","328.5","true","1","157.95064320000006","5.033164800000001","8","-1","-1","","","","","","","","","","","","",""
"psychophysics","153","509951","0.0-12.0-0.24","5fa915e567510582b2104be1","636dff3392645181d3c238a1","636e01763424970ff3ec464f","1431.8999999985099","","","","39","","","","key","16.71037931034486","512","328.5","true","1","157.95064320000006","5.033164800000001","8","-1","-1","","","","","","","","","","","","",""
"psychophysics","154","511530","0.0-12.0-0.25","5fa915e567510582b2104be1","636dff3392645181d3c238a1","636e01763424970ff3ec464f","572.3999999985099","","","","37","","","","key","16.70995698924745","512","328.5","true","-1","152.91747840000005","5.033164800000001","8","-1","-1","","","","","","","","","","","","",""
"psychophysics","155","513209","0.0-12.0-0.26","5fa915e567510582b2104be1","636dff3392645181d3c238a1","636e01763424970ff3ec464f","675.5","","","","39","","","","key","16.710380000000004","512","328.5","true","1","152.91747840000005","5.033164800000001","8","-1","-1","","","","","","","","","","","","",""
"psychophysics","156","514798","0.0-12.0-0.27","5fa915e567510582b2104be1","636dff3392645181d3c238a1","636e01763424970ff3ec464f","583.9000000022352","","","","39","","","","key","16.709936170212732","512","328.5","true","1","147.88431360000004","5.033164800000001","8","-1","-1","","","","","","","","","","","","",""
"psychophysics","157","516331","0.0-12.0-0.28","5fa915e567510582b2104be1","636dff3392645181d3c238a1","636e01763424970ff3ec464f","525.1999999992549","","","","39","","","","key","16.710582417582422","512","328.5","true","-1","147.88431360000004","4.0265318400000005","9","1","-1","","","","","","","","","","","","",""
"psychophysics","158","518055","0.0-12.0-0.29","5fa915e567510582b2104be1","636dff3392645181d3c238a1","636e01763424970ff3ec464f","713.5","","","","39","","","","key","16.710725490196136","512","328.5","true","-1","151.91084544000003","4.0265318400000005","9","1","1","","","","","","","","","","","","",""
"psychophysics","159","519841","0.0-12.0-0.30","5fa915e567510582b2104be1","636dff3392645181d3c238a1","636e01763424970ff3ec464f","778.1999999992549","","","","37","","","","key","16.710349056603967","512","328.5","true","-1","155.93737728000002","4.0265318400000005","9","-1","1","","","","","","","","","","","","",""
"psychophysics","160","521052","0.0-12.0-0.31","5fa915e567510582b2104be1","636dff3392645181d3c238a1","636e01763424970ff3ec464f","205","","","","39","","","","key","16.710591549295636","512","328.5","true","1","155.93737728000002","3.2212254720000004","10","-1","-1","","","","","","","","","","","","",""
"psychophysics","161","522791","0.0-12.0-0.32","5fa915e567510582b2104be1","636dff3392645181d3c238a1","636e01763424970ff3ec464f","730.5999999977648","","","","39","","","","key","16.710475728155377","512","328.5","true","-1","152.716151808","2.5769803776000004","11","1","-1","","","","","","","","","","","","",""
"psychophysics","162","524580","0.0-12.0-0.33","5fa915e567510582b2104be1","636dff3392645181d3c238a1","636e01763424970ff3ec464f","780.9000000022352","","","","37","","","","key","16.709924528301684","512","328.5","true","-1","155.2931321856","2.5769803776000004","11","-1","1","","","","","","","","","","","","",""
"psychophysics","163","526093","0.0-12.0-0.34","5fa915e567510582b2104be1","636dff3392645181d3c238a1","636e01763424970ff3ec464f","512.0999999977648","","","","39","","","","key","16.710322222222263","512","328.5","true","1","155.2931321856","2.0615843020800004","12","-1","-1","","","","","","","","","","","","",""
"psychophysics","164","527845","0.0-12.0-0.35","5fa915e567510582b2104be1","636dff3392645181d3c238a1","636e01763424970ff3ec464f","743.3000000007451","","","","39","","","","key","16.710442307692855","512","328.5","true","-1","153.23154788352","1.6492674416640005","13","1","-1","","","","","","","","","","","","",""
"psychophysics","165","529834","0.0-12.0-0.36","5fa915e567510582b2104be1","636dff3392645181d3c238a1","636e01763424970ff3ec464f","980.3000000007451","","","","39","","","","key","16.710279661016656","512","328.5","true","1","154.880815325184","1.6492674416640005","13","-1","1","","","","","","","","","","","","",""
"psychophysics","166","532465","0.0-12.0-0.37","5fa915e567510582b2104be1","636dff3392645181d3c238a1","636e01763424970ff3ec464f","1625.6000000014901","","","","37","","","","key","16.71049999999993","512","328.5","true","-1","154.880815325184","1.3194139533312006","14","-1","-1","","","","","","","","","","","","",""
"psychophysics","167","534049","0.0-12.0-0.38","5fa915e567510582b2104be1","636dff3392645181d3c238a1","636e01763424970ff3ec464f","579","","","","37","","","","key","16.710212765957547","512","328.5","true","1","153.56140137185278","1.0555311626649604","15","1","-1","","","","","","","","","","","","",""
"psychophysics","168","535348","0.0-12.0-0.39","5fa915e567510582b2104be1","636dff3392645181d3c238a1","636e01763424970ff3ec464f","293.80000000074506","","","","37","","","","key","16.710324675325523","512","328.5","true","-1","154.61693253451773","1.0555311626649604","15","-1","1","","","","","","","","","","","","",""
"html-keyboard-response","169","540225","0.0-13.0","5fa915e567510582b2104be1","636dff3392645181d3c238a1","636e01763424970ff3ec464f","4874.39999999851","<p>Well Done !</p><p>Prepare for a new block.</p><p>DON'T EXIT THE FULL SCREEN MODE</p><p>Press the Spacebar to start.</p>","","","32","","","","","","","","","","","","","","","true","153.32420750796388","","","","","","","","","","",""
"html-keyboard-response","170","540333","0.0-14.0","5fa915e567510582b2104be1","636dff3392645181d3c238a1","636e01763424970ff3ec464f","null","","","","null","","","","","","","","","","","","","","","","","152.00511934249369","true","176.01023868498737","","","","","","","",""
"instructions","171","603607","0.0-15.0","5fa915e567510582b2104be1","636dff3392645181d3c238a1","636e01763424970ff3ec464f","63272.699999999255","","","","","","","[{""page_index"":0,""viewing_time"":50584.800000000745},{""page_index"":1,""viewing_time"":2983.300000000745},{""page_index"":2,""viewing_time"":9704.099999997765}]","","","","","","","","","","","","","","","","","","","","","","","",""
"psychophysics","172","606617","0.0-16.0-0.0","5fa915e567510582b2104be1","636dff3392645181d3c238a1","636e01763424970ff3ec464f","null","","","","null","","","","key","16.725133333333847","512","328.5","","","","","","","","","","","","","","","","","","","",""
"psychophysics","173","607127","0.0-16.0-1.0","5fa915e567510582b2104be1","636dff3392645181d3c238a1","636e01763424970ff3ec464f","null","","","","null","","","","key","16.71017241379214","512","328.5","","","","","","","","","","","","","176","-1","4","false","","","",""
"psychophysics","174","607774","0.0-16.0-2.0","5fa915e567510582b2104be1","636dff3392645181d3c238a1","636e01763424970ff3ec464f","643.8999999985099","","","","90","","","","key","16.710447368420365","512","328.5","","","","","","","","","","","","","","","","","","","",""
"psychophysics","175","608782","0.0-16.0-0.1","5fa915e567510582b2104be1","636dff3392645181d3c238a1","636e01763424970ff3ec464f","null","","","","null","","","","key","16.71069491525394","512","328.5","","","","","","","","","","","","","","","","","","","",""
"psychophysics","176","609286","0.0-16.0-1.1","5fa915e567510582b2104be1","636dff3392645181d3c238a1","636e01763424970ff3ec464f","null","","","","null","","","","key","16.709827586205613","512","328.5","","","","","","","","","","","","","176","1","3","false","","","",""
"psychophysics","177","609818","0.0-16.0-2.1","5fa915e567510582b2104be1","636dff3392645181d3c238a1","636e01763424970ff3ec464f","529","","","","90","","","","key","16.70990322580591","512","328.5","","","","","","","","","","","","","","","","","","","",""
"psychophysics","178","610821","0.0-16.0-0.2","5fa915e567510582b2104be1","636dff3392645181d3c238a1","636e01763424970ff3ec464f","null","","","","null","","","","key","16.710355932202773","512","328.5","","","","","","","","","","","","","","","","","","","",""
"psychophysics","179","611326","0.0-16.0-1.2","5fa915e567510582b2104be1","636dff3392645181d3c238a1","636e01763424970ff3ec464f","null","","","","null","","","","key","16.71179310344802","512","328.5","","","","","","","","","","","","","176","-1","0","false","","","",""
"psychophysics","180","611514","0.0-16.0-2.2","5fa915e567510582b2104be1","636dff3392645181d3c238a1","636e01763424970ff3ec464f","185.09999999776483","","","","90","","","","key","16.710545454544693","512","328.5","","","","","","","","","","","","","","","","","","","",""
"psychophysics","181","612518","0.0-16.0-0.3","5fa915e567510582b2104be1","636dff3392645181d3c238a1","636e01763424970ff3ec464f","null","","","","null","","","","key","16.70955932203491","512","328.5","","","","","","","","","","","","","","","","","","","",""
"psychophysics","182","613022","0.0-16.0-1.3","5fa915e567510582b2104be1","636dff3392645181d3c238a1","636e01763424970ff3ec464f","null","","","","null","","","","key","16.70986206896587","512","328.5","","","","","","","","","","","","","176","-1","5","false","","","",""
"psychophysics","183","613257","0.0-16.0-2.3","5fa915e567510582b2104be1","636dff3392645181d3c238a1","636e01763424970ff3ec464f","233.80000000074506","","","","90","","","","key","16.712769230765005","512","328.5","","","","","","","","","","","","","","","","","","","",""
"psychophysics","184","614262","0.0-16.0-0.4","5fa915e567510582b2104be1","636dff3392645181d3c238a1","636e01763424970ff3ec464f","null","","","","null","","","","key","16.7094067796607","512","328.5","","","","","","","","","","","","","","","","","","","",""
"psychophysics","185","614765","0.0-16.0-1.4","5fa915e567510582b2104be1","636dff3392645181d3c238a1","636e01763424970ff3ec464f","null","","","","null","","","","key","16.71000000000289","512","328.5","","","","","","","","","","","","","176","-1","2","false","","","",""
"psychophysics","186","614867","0.0-16.0-2.4","5fa915e567510582b2104be1","636dff3392645181d3c238a1","636e01763424970ff3ec464f","100.59999999776483","","","","90","","","","key","16.70879999999888","512","328.5","","","","","","","","","","","","","","","","","","","",""
"psychophysics","187","615870","0.0-16.0-0.5","5fa915e567510582b2104be1","636dff3392645181d3c238a1","636e01763424970ff3ec464f","null","","","","null","","","","key","16.709745762711865","512","328.5","","","","","","","","","","","","","","","","","","","",""
"psychophysics","188","616374","0.0-16.0-1.5","5fa915e567510582b2104be1","636dff3392645181d3c238a1","636e01763424970ff3ec464f","null","","","","null","","","","key","16.71200000000154","512","328.5","","","","","","","","","","","","","176","1","0","false","","","",""
"psychophysics","189","616822","0.0-16.0-2.5","5fa915e567510582b2104be1","636dff3392645181d3c238a1","636e01763424970ff3ec464f","443.69999999925494","","","","90","","","","key","16.70857692307506","512","328.5","","","","","","","","","","","","","","","","","","","",""
"psychophysics","190","617828","0.0-16.0-0.6","5fa915e567510582b2104be1","636dff3392645181d3c238a1","636e01763424970ff3ec464f","null","","","","null","","","","key","16.710491525423635","512","328.5","","","","","","","","","","","","","","","","","","","",""
"psychophysics","191","618331","0.0-16.0-1.6","5fa915e567510582b2104be1","636dff3392645181d3c238a1","636e01763424970ff3ec464f","null","","","","null","","","","key","16.711166666665424","512","328.5","","","","","","","","","","","","","176","1","6","false","","","",""
"psychophysics","192","618893","0.0-16.0-2.6","5fa915e567510582b2104be1","636dff3392645181d3c238a1","636e01763424970ff3ec464f","558.1999999992549","","","","90","","","","key","16.71131249999962","512","328.5","","","","","","","","","","","","","","","","","","","",""
"psychophysics","193","619899","0.0-16.0-0.7","5fa915e567510582b2104be1","636dff3392645181d3c238a1","636e01763424970ff3ec464f","null","","","","null","","","","key","16.710762711865353","512","328.5","","","","","","","","","","","","","","","","","","","",""
"psychophysics","194","620405","0.0-16.0-1.7","5fa915e567510582b2104be1","636dff3392645181d3c238a1","636e01763424970ff3ec464f","null","","","","null","","","","key","16.70919999999848","512","328.5","","","","","","","","","","","","","176","1","2","false","","","",""
"psychophysics","195","620567","0.0-16.0-2.7","5fa915e567510582b2104be1","636dff3392645181d3c238a1","636e01763424970ff3ec464f","157.69999999925494","","","","77","","","","key","16.714749999999185","512","328.5","","","","","","","","","","","","","","","","","","","",""
"psychophysics","196","621571","0.0-16.0-0.8","5fa915e567510582b2104be1","636dff3392645181d3c238a1","636e01763424970ff3ec464f","null","","","","null","","","","key","16.709559322032934","512","328.5","","","","","","","","","","","","","","","","","","","",""
"psychophysics","197","622074","0.0-16.0-1.8","5fa915e567510582b2104be1","636dff3392645181d3c238a1","636e01763424970ff3ec464f","null","","","","null","","","","key","16.710333333335196","512","328.5","","","","","","","","","","","","","176","-1","6","false","","","",""
"psychophysics","198","622383","0.0-16.0-2.8","5fa915e567510582b2104be1","636dff3392645181d3c238a1","636e01763424970ff3ec464f","306.5","","","","90","","","","key","16.71064705882386","512","328.5","","","","","","","","","","","","","","","","","","","",""
"psychophysics","199","623390","0.0-16.0-0.9","5fa915e567510582b2104be1","636dff3392645181d3c238a1","636e01763424970ff3ec464f","null","","","","null","","","","key","16.710881355930894","512","328.5","","","","","","","","","","","","","","","","","","","",""
"psychophysics","200","623894","0.0-16.0-1.9","5fa915e567510582b2104be1","636dff3392645181d3c238a1","636e01763424970ff3ec464f","null","","","","null","","","","key","16.711206896551722","512","328.5","","","","","","","","","","","","","176","-1","3","false","","","",""
"psychophysics","201","624531","0.0-16.0-2.9","5fa915e567510582b2104be1","636dff3392645181d3c238a1","636e01763424970ff3ec464f","631.1999999992549","","","","90","","","","key","16.709763157892187","512","328.5","","","","","","","","","","","","","","","","","","","",""
"psychophysics","202","625542","0.0-16.0-0.10","5fa915e567510582b2104be1","636dff3392645181d3c238a1","636e01763424970ff3ec464f","null","","","","null","","","","key","16.710745762712005","512","328.5","","","","","","","","","","","","","","","","","","","",""
"psychophysics","203","626046","0.0-16.0-1.10","5fa915e567510582b2104be1","636dff3392645181d3c238a1","636e01763424970ff3ec464f","null","","","","null","","","","key","16.711000000002215","512","328.5","","","","","","","","","","","","","176","1","5","false","","","",""
"psychophysics","204","626590","0.0-16.0-2.10","5fa915e567510582b2104be1","636dff3392645181d3c238a1","636e01763424970ff3ec464f","541.8000000007451","","","","90","","","","key","16.70953124999869","512","328.5","","","","","","","","","","","","","","","","","","","",""
"psychophysics","205","627598","0.0-16.0-0.11","5fa915e567510582b2104be1","636dff3392645181d3c238a1","636e01763424970ff3ec464f","null","","","","null","","","","key","16.71059322033977","512","328.5","","","","","","","","","","","","","","","","","","","",""
"psychophysics","206","628101","0.0-16.0-1.11","5fa915e567510582b2104be1","636dff3392645181d3c238a1","636e01763424970ff3ec464f","null","","","","null","","","","key","16.7102758620689","512","328.5","","","","","","","","","","","","","176","1","4","false","","","",""
"psychophysics","207","628470","0.0-16.0-2.11","5fa915e567510582b2104be1","636dff3392645181d3c238a1","636e01763424970ff3ec464f","366.19999999925494","","","","90","","","","key","16.710476190478186","512","328.5","","","","","","","","","","","","","","","","","","","",""
"psychophysics","208","629475","0.0-16.0-0.12","5fa915e567510582b2104be1","636dff3392645181d3c238a1","636e01763424970ff3ec464f","null","","","","null","","","","key","16.710440677967537","512","328.5","","","","","","","","","","","","","","","","","","","",""
"psychophysics","209","629982","0.0-16.0-1.12","5fa915e567510582b2104be1","636dff3392645181d3c238a1","636e01763424970ff3ec464f","null","","","","null","","","","key","16.71003333333259","512","328.5","","","","","","","","","","","","","176","-1","4","false","","","",""
"psychophysics","210","630196","0.0-16.0-2.12","5fa915e567510582b2104be1","636dff3392645181d3c238a1","636e01763424970ff3ec464f","210.29999999701977","","","","90","","","","key","16.71083333333566","512","328.5","","","","","","","","","","","","","","","","","","","",""
"psychophysics","211","631205","0.0-16.0-0.13","5fa915e567510582b2104be1","636dff3392645181d3c238a1","636e01763424970ff3ec464f","null","","","","null","","","","key","16.710661016949217","512","328.5","","","","","","","","","","","","","","","","","","","",""
"psychophysics","212","631710","0.0-16.0-1.13","5fa915e567510582b2104be1","636dff3392645181d3c238a1","636e01763424970ff3ec464f","null","","","","null","","","","key","16.711379310344988","512","328.5","","","","","","","","","","","","","176","1","4","false","","","",""
"psychophysics","213","632406","0.0-16.0-2.13","5fa915e567510582b2104be1","636dff3392645181d3c238a1","636e01763424970ff3ec464f","693.7000000029802","","","","77","","","","key","16.710341463416317","512","328.5","","","","","","","","","","","","","","","","","","","",""
"psychophysics","214","633414","0.0-16.0-0.14","5fa915e567510582b2104be1","636dff3392645181d3c238a1","636e01763424970ff3ec464f","null","","","","null","","","","key","16.71023728813526","512","328.5","","","","","","","","","","","","","","","","","","","",""
"psychophysics","215","633917","0.0-16.0-1.14","5fa915e567510582b2104be1","636dff3392645181d3c238a1","636e01763424970ff3ec464f","null","","","","null","","","","key","16.709379310346336","512","328.5","","","","","","","","","","","","","176","1","3","false","","","",""
"psychophysics","216","634861","0.0-16.0-2.14","5fa915e567510582b2104be1","636dff3392645181d3c238a1","636e01763424970ff3ec464f","942.8000000007451","","","","90","","","","key","16.709625000001065","512","328.5","","","","","","","","","","","","","","","","","","","",""
"psychophysics","217","635869","0.0-16.0-0.15","5fa915e567510582b2104be1","636dff3392645181d3c238a1","636e01763424970ff3ec464f","null","","","","null","","","","key","16.71018644067719","512","328.5","","","","","","","","","","","","","","","","","","","",""
"psychophysics","218","636374","0.0-16.0-1.15","5fa915e567510582b2104be1","636dff3392645181d3c238a1","636e01763424970ff3ec464f","null","","","","null","","","","key","16.711586206894495","512","328.5","","","","","","","","","","","","","176","1","0","false","","","",""
"psychophysics","219","637133","0.0-16.0-2.15","5fa915e567510582b2104be1","636dff3392645181d3c238a1","636e01763424970ff3ec464f","756.5","","","","90","","","","key","16.709600000000663","512","328.5","","","","","","","","","","","","","","","","","","","",""
"psychophysics","220","638141","0.0-16.0-0.16","5fa915e567510582b2104be1","636dff3392645181d3c238a1","636e01763424970ff3ec464f","null","","","","null","","","","key","16.7098983050841","512","328.5","","","","","","","","","","","","","","","","","","","",""
"psychophysics","221","638645","0.0-16.0-1.16","5fa915e567510582b2104be1","636dff3392645181d3c238a1","636e01763424970ff3ec464f","null","","","","null","","","","key","16.708689655169266","512","328.5","","","","","","","","","","","","","176","-1","3","false","","","",""
"psychophysics","222","639314","0.0-16.0-2.16","5fa915e567510582b2104be1","636dff3392645181d3c238a1","636e01763424970ff3ec464f","667.5","","","","90","","","","key","16.711282051281813","512","328.5","","","","","","","","","","","","","","","","","","","",""
"psychophysics","223","640317","0.0-16.0-0.17","5fa915e567510582b2104be1","636dff3392645181d3c238a1","636e01763424970ff3ec464f","null","","","","null","","","","key","16.71020338983054","512","328.5","","","","","","","","","","","","","","","","","","","",""
"psychophysics","224","640820","0.0-16.0-1.17","5fa915e567510582b2104be1","636dff3392645181d3c238a1","636e01763424970ff3ec464f","null","","","","null","","","","key","16.71179310344802","512","328.5","","","","","","","","","","","","","176","-1","0","false","","","",""
"psychophysics","225","641024","0.0-16.0-2.17","5fa915e567510582b2104be1","636dff3392645181d3c238a1","636e01763424970ff3ec464f","179.19999999925494","","","","90","","","","key","16.708583333335508","512","328.5","","","","","","","","","","","","","","","","","","","",""
"psychophysics","226","642030","0.0-16.0-0.18","5fa915e567510582b2104be1","636dff3392645181d3c238a1","636e01763424970ff3ec464f","null","","","","null","","","","key","16.7110338983051","512","328.5","","","","","","","","","","","","","","","","","","","",""
"psychophysics","227","642533","0.0-16.0-1.18","5fa915e567510582b2104be1","636dff3392645181d3c238a1","636e01763424970ff3ec464f","null","","","","null","","","","key","16.711379310344988","512","328.5","","","","","","","","","","","","","176","1","5","false","","","",""
"psychophysics","228","642783","0.0-16.0-2.18","5fa915e567510582b2104be1","636dff3392645181d3c238a1","636e01763424970ff3ec464f","247.69999999925494","","","","77","","","","key","16.709785714288177","512","328.5","","","","","","","","","","","","","","","","","","","",""
"psychophysics","229","643790","0.0-16.0-0.19","5fa915e567510582b2104be1","636dff3392645181d3c238a1","636e01763424970ff3ec464f","null","","","","null","","","","key","16.710135593221096","512","328.5","","","","","","","","","","","","","","","","","","","",""
"psychophysics","230","644293","0.0-16.0-1.19","5fa915e567510582b2104be1","636dff3392645181d3c238a1","636e01763424970ff3ec464f","null","","","","null","","","","key","16.710965517241956","512","328.5","","","","","","","","","","","","","176","-1","6","false","","","",""
"psychophysics","231","644803","0.0-16.0-2.19","5fa915e567510582b2104be1","636dff3392645181d3c238a1","636e01763424970ff3ec464f","509","","","","77","","","","key","16.70873333333293","512","328.5","","","","","","","","","","","","","","","","","","","",""
"psychophysics","232","645805","0.0-16.0-0.20","5fa915e567510582b2104be1","636dff3392645181d3c238a1","636e01763424970ff3ec464f","null","","","","null","","","","key","16.71015254237247","512","328.5","","","","","","","","","","","","","","","","","","","",""
"psychophysics","233","646310","0.0-16.0-1.20","5fa915e567510582b2104be1","636dff3392645181d3c238a1","636e01763424970ff3ec464f","null","","","","null","","","","key","16.711551724138253","512","328.5","","","","","","","","","","","","","176","-1","5","false","","","",""
"psychophysics","234","647155","0.0-16.0-2.20","5fa915e567510582b2104be1","636dff3392645181d3c238a1","636e01763424970ff3ec464f","843.3999999985099","","","","77","","","","key","16.7103600000008","512","328.5","","","","","","","","","","","","","","","","","","","",""
"psychophysics","235","648158","0.0-16.0-0.21","5fa915e567510582b2104be1","636dff3392645181d3c238a1","636e01763424970ff3ec464f","null","","","","null","","","","key","16.71077966101673","512","328.5","","","","","","","","","","","","","","","","","","","",""
"psychophysics","236","648661","0.0-16.0-1.21","5fa915e567510582b2104be1","636dff3392645181d3c238a1","636e01763424970ff3ec464f","null","","","","null","","","","key","16.709310344829834","512","328.5","","","","","","","","","","","","","176","1","2","false","","","",""
"psychophysics","237","649121","0.0-16.0-2.21","5fa915e567510582b2104be1","636dff3392645181d3c238a1","636e01763424970ff3ec464f","458.3999999985099","","","","90","","","","key","16.710153846155244","512","328.5","","","","","","","","","","","","","","","","","","","",""
"psychophysics","238","650125","0.0-16.0-0.22","5fa915e567510582b2104be1","636dff3392645181d3c238a1","636e01763424970ff3ec464f","null","","","","null","","","","key","16.71018644067719","512","328.5","","","","","","","","","","","","","","","","","","","",""
"psychophysics","239","650630","0.0-16.0-1.22","5fa915e567510582b2104be1","636dff3392645181d3c238a1","636e01763424970ff3ec464f","null","","","","null","","","","key","16.710551724138927","512","328.5","","","","","","","","","","","","","176","1","6","false","","","",""
"psychophysics","240","651307","0.0-16.0-2.22","5fa915e567510582b2104be1","636dff3392645181d3c238a1","636e01763424970ff3ec464f","650.5","","","","77","","","","key","16.710399999999208","512","328.5","","","","","","","","","","","","","","","","","","","",""
"psychophysics","241","652310","0.0-16.0-0.23","5fa915e567510582b2104be1","636dff3392645181d3c238a1","636e01763424970ff3ec464f","null","","","","null","","","","key","16.710525423728356","512","328.5","","","","","","","","","","","","","","","","","","","",""
"psychophysics","242","652813","0.0-16.0-1.23","5fa915e567510582b2104be1","636dff3392645181d3c238a1","636e01763424970ff3ec464f","null","","","","null","","","","key","16.71010344827564","512","328.5","","","","","","","","","","","","","176","-1","2","false","","","",""
"psychophysics","243","653447","0.0-16.0-2.23","5fa915e567510582b2104be1","636dff3392645181d3c238a1","636e01763424970ff3ec464f","631.8000000007451","","","","90","","","","key","16.709918918918717","512","328.5","","","","","","","","","","","","","","","","","","","",""
"html-keyboard-response","244","656310","0.0-17.0","5fa915e567510582b2104be1","636dff3392645181d3c238a1","636e01763424970ff3ec464f","2861.099999997765","<p>Well Done !</p><p>Training Complete. Press the spacebar to start.</p><p>DON'T EXIT THE FULL SCREEN MODE</p>","","","32","","","","","","","","","","","","","","","","","","","","","","","","","","",""
"psychophysics","245","659319","0.0-18.0-0.0","5fa915e567510582b2104be1","636dff3392645181d3c238a1","636e01763424970ff3ec464f","null","","","","null","","","","key","16.719830508474104","512","328.5","","","","","","","","","","","","","","","","","","","",""
"psychophysics","246","659830","0.0-18.0-1.0","5fa915e567510582b2104be1","636dff3392645181d3c238a1","636e01763424970ff3ec464f","null","","","","null","","","","key","16.710433333332183","512","328.5","","","","","","","","","","","","","176","-1","5","true","","","",""
"psychophysics","247","660266","0.0-18.0-2.0","5fa915e567510582b2104be1","636dff3392645181d3c238a1","636e01763424970ff3ec464f","433.8999999985099","","","","77","","","","key","16.711439999998547","512","328.5","","","","","","","","","","","","","","","","","","","",""
"psychophysics","248","661270","0.0-18.0-0.1","5fa915e567510582b2104be1","636dff3392645181d3c238a1","636e01763424970ff3ec464f","null","","","","null","","","","key","16.7103389830514","512","328.5","","","","","","","","","","","","","","","","","","","",""
"psychophysics","249","661773","0.0-18.0-1.1","5fa915e567510582b2104be1","636dff3392645181d3c238a1","636e01763424970ff3ec464f","null","","","","null","","","","key","16.70986206896587","512","328.5","","","","","","","","","","","","","176","1","6","true","","","",""
"psychophysics","250","661939","0.0-18.0-2.1","5fa915e567510582b2104be1","636dff3392645181d3c238a1","636e01763424970ff3ec464f","163.69999999925494","","","","77","","","","key","16.707999999997103","512","328.5","","","","","","","","","","","","","","","","","","","",""
"psychophysics","251","662942","0.0-18.0-0.2","5fa915e567510582b2104be1","636dff3392645181d3c238a1","636e01763424970ff3ec464f","null","","","","null","","","","key","16.710610169491147","512","328.5","","","","","","","","","","","","","","","","","","","",""
"psychophysics","252","663445","0.0-18.0-1.2","5fa915e567510582b2104be1","636dff3392645181d3c238a1","636e01763424970ff3ec464f","null","","","","null","","","","key","16.710793103448694","512","328.5","","","","","","","","","","","","","176","1","2","true","","","",""
"psychophysics","253","663861","0.0-18.0-2.2","5fa915e567510582b2104be1","636dff3392645181d3c238a1","636e01763424970ff3ec464f","411.0999999977648","","","","90","","","","key","16.712250000001706","512","328.5","","","","","","","","","","","","","","","","","","","",""
"psychophysics","254","664867","0.0-18.0-0.3","5fa915e567510582b2104be1","636dff3392645181d3c238a1","636e01763424970ff3ec464f","null","","","","null","","","","key","16.710508474576983","512","328.5","","","","","","","","","","","","","","","","","","","",""
"psychophysics","255","665370","0.0-18.0-1.3","5fa915e567510582b2104be1","636dff3392645181d3c238a1","636e01763424970ff3ec464f","null","","","","null","","","","key","16.709399999996336","512","328.5","","","","","","","","","","","","","176","1","0","true","","","",""
"psychophysics","256","665745","0.0-18.0-2.3","5fa915e567510582b2104be1","636dff3392645181d3c238a1","636e01763424970ff3ec464f","370.6000000014901","","","","77","","","","key","16.711999999996763","512","328.5","","","","","","","","","","","","","","","","","","","",""
"psychophysics","257","666749","0.0-18.0-0.4","5fa915e567510582b2104be1","636dff3392645181d3c238a1","636e01763424970ff3ec464f","null","","","","null","","","","key","16.71094915254231","512","328.5","","","","","","","","","","","","","","","","","","","",""
"psychophysics","258","667254","0.0-18.0-1.4","5fa915e567510582b2104be1","636dff3392645181d3c238a1","636e01763424970ff3ec464f","null","","","","null","","","","key","16.7102068965524","512","328.5","","","","","","","","","","","","","176","1","5","true","","","",""
"psychophysics","259","667520","0.0-18.0-2.4","5fa915e567510582b2104be1","636dff3392645181d3c238a1","636e01763424970ff3ec464f","263.6000000014901","","","","77","","","","key","16.707200000000498","512","328.5","","","","","","","","","","","","","","","","","","","",""
"psychophysics","260","668526","0.0-18.0-0.5","5fa915e567510582b2104be1","636dff3392645181d3c238a1","636e01763424970ff3ec464f","null","","","","null","","","","key","16.711271186440126","512","328.5","","","","","","","","","","","","","","","","","","","",""
"psychophysics","261","669030","0.0-18.0-1.5","5fa915e567510582b2104be1","636dff3392645181d3c238a1","636e01763424970ff3ec464f","null","","","","null","","","","key","16.709233333333394","512","328.5","","","","","","","","","","","","","176","1","4","true","","","",""
"psychophysics","262","669286","0.0-18.0-2.5","5fa915e567510582b2104be1","636dff3392645181d3c238a1","636e01763424970ff3ec464f","252.19999999925494","","","","77","","","","key","16.713000000005454","512","328.5","","","","","","","","","","","","","","","","","","","",""
"psychophysics","263","670294","0.0-18.0-0.6","5fa915e567510582b2104be1","636dff3392645181d3c238a1","636e01763424970ff3ec464f","null","","","","null","","","","key","16.710711864407283","512","328.5","","","","","","","","","","","","","","","","","","","",""
"psychophysics","264","670797","0.0-18.0-1.6","5fa915e567510582b2104be1","636dff3392645181d3c238a1","636e01763424970ff3ec464f","null","","","","null","","","","key","16.711172413791466","512","328.5","","","","","","","","","","","","","176","1","3","true","","","",""
"psychophysics","265","671181","0.0-18.0-2.6","5fa915e567510582b2104be1","636dff3392645181d3c238a1","636e01763424970ff3ec464f","380.5","","","","90","","","","key","16.710636363634627","512","328.5","","","","","","","","","","","","","","","","","","","",""
"psychophysics","266","672185","0.0-18.0-0.7","5fa915e567510582b2104be1","636dff3392645181d3c238a1","636e01763424970ff3ec464f","null","","","","null","","","","key","16.710881355932866","512","328.5","","","","","","","","","","","","","","","","","","","",""
"psychophysics","267","672694","0.0-18.0-1.7","5fa915e567510582b2104be1","636dff3392645181d3c238a1","636e01763424970ff3ec464f","null","","","","null","","","","key","16.70889999999975","512","328.5","","","","","","","","","","","","","176","-1","4","true","","","",""
"psychophysics","268","673077","0.0-18.0-2.7","5fa915e567510582b2104be1","636dff3392645181d3c238a1","636e01763424970ff3ec464f","381.30000000074506","","","","77","","","","key","16.71049999999708","512","328.5","","","","","","","","","","","","","","","","","","","",""
"psychophysics","269","674086","0.0-18.0-0.8","5fa915e567510582b2104be1","636dff3392645181d3c238a1","636e01763424970ff3ec464f","null","","","","null","","","","key","16.710338983049425","512","328.5","","","","","","","","","","","","","","","","","","","",""
"psychophysics","270","674590","0.0-18.0-1.8","5fa915e567510582b2104be1","636dff3392645181d3c238a1","636e01763424970ff3ec464f","null","","","","null","","","","key","16.70862068965678","512","328.5","","","","","","","","","","","","","176","-1","6","true","","","",""
"psychophysics","271","674898","0.0-18.0-2.8","5fa915e567510582b2104be1","636dff3392645181d3c238a1","636e01763424970ff3ec464f","303.69999999925494","","","","77","","","","key","16.70838888888506","512","328.5","","","","","","","","","","","","","","","","","","","",""
"psychophysics","272","675902","0.0-18.0-0.9","5fa915e567510582b2104be1","636dff3392645181d3c238a1","636e01763424970ff3ec464f","null","","","","null","","","","key","16.7103389830514","512","328.5","","","","","","","","","","","","","","","","","","","",""
"psychophysics","273","676405","0.0-18.0-1.9","5fa915e567510582b2104be1","636dff3392645181d3c238a1","636e01763424970ff3ec464f","null","","","","null","","","","key","16.70886206896253","512","328.5","","","","","","","","","","","","","176","-1","0","true","","","",""
"psychophysics","274","676892","0.0-18.0-2.9","5fa915e567510582b2104be1","636dff3392645181d3c238a1","636e01763424970ff3ec464f","485.5","","","","90","","","","key","16.712214285711525","512","328.5","","","","","","","","","","","","","","","","","","","",""
"psychophysics","275","677900","0.0-18.0-0.10","5fa915e567510582b2104be1","636dff3392645181d3c238a1","636e01763424970ff3ec464f","null","","","","null","","","","key","16.709932203390792","512","328.5","","","","","","","","","","","","","","","","","","","",""
"psychophysics","276","678404","0.0-18.0-1.10","5fa915e567510582b2104be1","636dff3392645181d3c238a1","636e01763424970ff3ec464f","null","","","","null","","","","key","16.711466666668034","512","328.5","","","","","","","","","","","","","176","-1","2","true","","","",""
"psychophysics","277","679198","0.0-18.0-2.10","5fa915e567510582b2104be1","636dff3392645181d3c238a1","636e01763424970ff3ec464f","791.1000000014901","","","","90","","","","key","16.71021739130526","512","328.5","","","","","","","","","","","","","","","","","","","",""
"psychophysics","278","680205","0.0-18.0-0.11","5fa915e567510582b2104be1","636dff3392645181d3c238a1","636e01763424970ff3ec464f","null","","","","null","","","","key","16.709762711865213","512","328.5","","","","","","","","","","","","","","","","","","","",""
"psychophysics","279","680709","0.0-18.0-1.11","5fa915e567510582b2104be1","636dff3392645181d3c238a1","636e01763424970ff3ec464f","null","","","","null","","","","key","16.711310344828487","512","328.5","","","","","","","","","","","","","176","-1","3","true","","","",""
"psychophysics","280","681210","0.0-18.0-2.11","5fa915e567510582b2104be1","636dff3392645181d3c238a1","636e01763424970ff3ec464f","495.0999999977648","","","","77","","","","key","16.71075862069245","512","328.5","","","","","","","","","","","","","","","","","","","",""
"psychophysics","281","682213","0.0-18.0-0.12","5fa915e567510582b2104be1","636dff3392645181d3c238a1","636e01763424970ff3ec464f","null","","","","null","","","","key","16.709881355932723","512","328.5","","","","","","","","","","","","","","","","","","","",""
"psychophysics","282","682715","0.0-18.0-1.12","5fa915e567510582b2104be1","636dff3392645181d3c238a1","636e01763424970ff3ec464f","null","","","","null","","","","key","16.710466666667102","512","328.5","","","","","","","","","","","","","176","1","6","true","","","",""
"psychophysics","283","683093","0.0-18.0-2.12","5fa915e567510582b2104be1","636dff3392645181d3c238a1","636e01763424970ff3ec464f","374.5","","","","77","","","","key","16.708619047621532","512","328.5","","","","","","","","","","","","","","","","","","","",""
"psychophysics","284","684101","0.0-18.0-0.13","5fa915e567510582b2104be1","636dff3392645181d3c238a1","636e01763424970ff3ec464f","null","","","","null","","","","key","16.711169491523986","512","328.5","","","","","","","","","","","","","","","","","","","",""
"psychophysics","285","684606","0.0-18.0-1.13","5fa915e567510582b2104be1","636dff3392645181d3c238a1","636e01763424970ff3ec464f","null","","","","null","","","","key","16.71009999999854","512","328.5","","","","","","","","","","","","","176","-1","2","true","","","",""
"psychophysics","286","685025","0.0-18.0-2.13","5fa915e567510582b2104be1","636dff3392645181d3c238a1","636e01763424970ff3ec464f","416.9000000022352","","","","90","","","","key","16.7109583333319","512","328.5","","","","","","","","","","","","","","","","","","","",""
"psychophysics","287","686029","0.0-18.0-0.14","5fa915e567510582b2104be1","636dff3392645181d3c238a1","636e01763424970ff3ec464f","null","","","","null","","","","key","16.71098305084703","512","328.5","","","","","","","","","","","","","","","","","","","",""
"psychophysics","288","686534","0.0-18.0-1.14","5fa915e567510582b2104be1","636dff3392645181d3c238a1","636e01763424970ff3ec464f","null","","","","null","","","","key","16.70858620689652","512","328.5","","","","","","","","","","","","","176","-1","0","true","","","",""
"psychophysics","289","686798","0.0-18.0-2.14","5fa915e567510582b2104be1","636dff3392645181d3c238a1","636e01763424970ff3ec464f","263.30000000074506","","","","90","","","","key","16.708800000006644","512","328.5","","","","","","","","","","","","","","","","","","","",""
"psychophysics","290","687806","0.0-18.0-0.15","5fa915e567510582b2104be1","636dff3392645181d3c238a1","636e01763424970ff3ec464f","null","","","","null","","","","key","16.710745762710033","512","328.5","","","","","","","","","","","","","","","","","","","",""
"psychophysics","291","688309","0.0-18.0-1.15","5fa915e567510582b2104be1","636dff3392645181d3c238a1","636e01763424970ff3ec464f","null","","","","null","","","","key","16.7095517241396","512","328.5","","","","","","","","","","","","","176","-1","4","true","","","",""
"psychophysics","292","688549","0.0-18.0-2.15","5fa915e567510582b2104be1","636dff3392645181d3c238a1","636e01763424970ff3ec464f","238.39999999850988","","","","90","","","","key","16.709214285714552","512","328.5","","","","","","","","","","","","","","","","","","","",""
"psychophysics","293","689558","0.0-18.0-0.16","5fa915e567510582b2104be1","636dff3392645181d3c238a1","636e01763424970ff3ec464f","null","","","","null","","","","key","16.711135593219264","512","328.5","","","","","","","","","","","","","","","","","","","",""
"psychophysics","294","690061","0.0-18.0-1.16","5fa915e567510582b2104be1","636dff3392645181d3c238a1","636e01763424970ff3ec464f","null","","","","null","","","","key","16.710448275862166","512","328.5","","","","","","","","","","","","","176","1","5","true","","","",""
"psychophysics","295","690234","0.0-18.0-2.16","5fa915e567510582b2104be1","636dff3392645181d3c238a1","636e01763424970ff3ec464f","171.39999999850988","","","","77","","","","key","16.71139999999432","512","328.5","","","","","","","","","","","","","","","","","","","",""
"psychophysics","296","691237","0.0-18.0-0.17","5fa915e567510582b2104be1","636dff3392645181d3c238a1","636e01763424970ff3ec464f","null","","","","null","","","","key","16.710118644067748","512","328.5","","","","","","","","","","","","","","","","","","","",""
"psychophysics","297","691741","0.0-18.0-1.17","5fa915e567510582b2104be1","636dff3392645181d3c238a1","636e01763424970ff3ec464f","null","","","","null","","","","key","16.71024137930864","512","328.5","","","","","","","","","","","","","176","-1","6","true","","","",""
"psychophysics","298","692283","0.0-18.0-2.17","5fa915e567510582b2104be1","636dff3392645181d3c238a1","636e01763424970ff3ec464f","539.8999999985099","","","","90","","","","key","16.709129032258303","512","328.5","","","","","","","","","","","","","","","","","","","",""
"psychophysics","299","693285","0.0-18.0-0.18","5fa915e567510582b2104be1","636dff3392645181d3c238a1","636e01763424970ff3ec464f","null","","","","null","","","","key","16.710305084744704","512","328.5","","","","","","","","","","","","","","","","","","","",""
"psychophysics","300","693790","0.0-18.0-1.18","5fa915e567510582b2104be1","636dff3392645181d3c238a1","636e01763424970ff3ec464f","null","","","","null","","","","key","16.710172413796155","512","328.5","","","","","","","","","","","","","176","-1","3","true","","","",""
"psychophysics","301","694314","0.0-18.0-2.18","5fa915e567510582b2104be1","636dff3392645181d3c238a1","636e01763424970ff3ec464f","522.7000000029802","","","","90","","","","key","16.70958064516045","512","328.5","","","","","","","","","","","","","","","","","","","",""
"psychophysics","302","695317","0.0-18.0-0.19","5fa915e567510582b2104be1","636dff3392645181d3c238a1","636e01763424970ff3ec464f","null","","","","null","","","","key","16.71055932203505","512","328.5","","","","","","","","","","","","","","","","","","","",""
"psychophysics","303","695821","0.0-18.0-1.19","5fa915e567510582b2104be1","636dff3392645181d3c238a1","636e01763424970ff3ec464f","null","","","","null","","","","key","16.709999999998875","512","328.5","","","","","","","","","","","","","176","1","3","true","","","",""
"psychophysics","304","696030","0.0-18.0-2.19","5fa915e567510582b2104be1","636dff3392645181d3c238a1","636e01763424970ff3ec464f","207.10000000149012","","","","77","","","","key","16.70718181818004","512","328.5","","","","","","","","","","","","","","","","","","","",""
"psychophysics","305","697035","0.0-18.0-0.20","5fa915e567510582b2104be1","636dff3392645181d3c238a1","636e01763424970ff3ec464f","null","","","","null","","","","key","16.710220338981916","512","328.5","","","","","","","","","","","","","","","","","","","",""
"psychophysics","306","697536","0.0-18.0-1.20","5fa915e567510582b2104be1","636dff3392645181d3c238a1","636e01763424970ff3ec464f","null","","","","null","","","","key","16.711965517241282","512","328.5","","","","","","","","","","","","","176","1","4","true","","","",""
"psychophysics","307","698416","0.0-18.0-2.20","5fa915e567510582b2104be1","636dff3392645181d3c238a1","636e01763424970ff3ec464f","874.8000000007451","","","","77","","","","key","16.710442307693974","512","328.5","","","","","","","","","","","","","","","","","","","",""
"psychophysics","308","699422","0.0-18.0-0.21","5fa915e567510582b2104be1","636dff3392645181d3c238a1","636e01763424970ff3ec464f","null","","","","null","","","","key","16.710033898304957","512","328.5","","","","","","","","","","","","","","","","","","","",""
"psychophysics","309","699926","0.0-18.0-1.21","5fa915e567510582b2104be1","636dff3392645181d3c238a1","636e01763424970ff3ec464f","null","","","","null","","","","key","16.709966666666634","512","328.5","","","","","","","","","","","","","176","1","0","true","","","",""
"psychophysics","310","700339","0.0-18.0-2.21","5fa915e567510582b2104be1","636dff3392645181d3c238a1","636e01763424970ff3ec464f","408.5","","","","90","","","","key","16.710391304349404","512","328.5","","","","","","","","","","","","","","","","","","","",""
"psychophysics","311","701341","0.0-18.0-0.22","5fa915e567510582b2104be1","636dff3392645181d3c238a1","636e01763424970ff3ec464f","null","","","","null","","","","key","16.710796610168103","512","328.5","","","","","","","","","","","","","","","","","","","",""
"psychophysics","312","701845","0.0-18.0-1.22","5fa915e567510582b2104be1","636dff3392645181d3c238a1","636e01763424970ff3ec464f","null","","","","null","","","","key","16.709793103449368","512","328.5","","","","","","","","","","","","","176","-1","5","true","","","",""
"psychophysics","313","702320","0.0-18.0-2.22","5fa915e567510582b2104be1","636dff3392645181d3c238a1","636e01763424970ff3ec464f","471.6000000014901","","","","77","","","","key","16.71142857143007","512","328.5","","","","","","","","","","","","","","","","","","","",""
"psychophysics","314","703325","0.0-18.0-0.23","5fa915e567510582b2104be1","636dff3392645181d3c238a1","636e01763424970ff3ec464f","null","","","","null","","","","key","16.709796610169935","512","328.5","","","","","","","","","","","","","","","","","","","",""
"psychophysics","315","703829","0.0-18.0-1.23","5fa915e567510582b2104be1","636dff3392645181d3c238a1","636e01763424970ff3ec464f","null","","","","null","","","","key","16.711965517241282","512","328.5","","","","","","","","","","","","","176","1","2","true","","","",""
"psychophysics","316","704285","0.0-18.0-2.23","5fa915e567510582b2104be1","636dff3392645181d3c238a1","636e01763424970ff3ec464f","453.29999999701977","","","","90","","","","key","16.70980769230608","512","328.5","","","","","","","","","","","","","","","","","","","",""
"psychophysics","317","705289","0.0-18.0-0.24","5fa915e567510582b2104be1","636dff3392645181d3c238a1","636e01763424970ff3ec464f","null","","","","null","","","","key","16.71023728813526","512","328.5","","","","","","","","","","","","","","","","","","","",""
"psychophysics","318","705792","0.0-18.0-1.24","5fa915e567510582b2104be1","636dff3392645181d3c238a1","636e01763424970ff3ec464f","null","","","","null","","","","key","16.70983333333085","512","328.5","","","","","","","","","","","","","176","-1","2","true","","","",""
"psychophysics","319","706497","0.0-18.0-2.24","5fa915e567510582b2104be1","636dff3392645181d3c238a1","636e01763424970ff3ec464f","701.3000000007451","","","","90","","","","key","16.710073170732002","512","328.5","","","","","","","","","","","","","","","","","","","",""
"psychophysics","320","707501","0.0-18.0-0.25","5fa915e567510582b2104be1","636dff3392645181d3c238a1","636e01763424970ff3ec464f","null","","","","null","","","","key","16.71028813559333","512","328.5","","","","","","","","","","","","","","","","","","","",""
"psychophysics","321","708005","0.0-18.0-1.25","5fa915e567510582b2104be1","636dff3392645181d3c238a1","636e01763424970ff3ec464f","null","","","","null","","","","key","16.710206896548385","512","328.5","","","","","","","","","","","","","176","-1","5","true","","","",""
"psychophysics","322","708245","0.0-18.0-2.25","5fa915e567510582b2104be1","636dff3392645181d3c238a1","636e01763424970ff3ec464f","237.19999999925494","","","","77","","","","key","16.711307692305688","512","328.5","","","","","","","","","","","","","","","","","","","",""
"psychophysics","323","709248","0.0-18.0-0.26","5fa915e567510582b2104be1","636dff3392645181d3c238a1","636e01763424970ff3ec464f","null","","","","null","","","","key","16.710355932202773","512","328.5","","","","","","","","","","","","","","","","","","","",""
"psychophysics","324","709752","0.0-18.0-1.26","5fa915e567510582b2104be1","636dff3392645181d3c238a1","636e01763424970ff3ec464f","null","","","","null","","","","key","16.710266666665362","512","328.5","","","","","","","","","","","","","176","1","3","true","","","",""
"psychophysics","325","710400","0.0-18.0-2.26","5fa915e567510582b2104be1","636dff3392645181d3c238a1","636e01763424970ff3ec464f","644.1000000014901","","","","77","","","","key","16.71043243243145","512","328.5","","","","","","","","","","","","","","","","","","","",""
"psychophysics","326","711406","0.0-18.0-0.27","5fa915e567510582b2104be1","636dff3392645181d3c238a1","636e01763424970ff3ec464f","null","","","","null","","","","key","16.709644067795725","512","328.5","","","","","","","","","","","","","","","","","","","",""
"psychophysics","327","711908","0.0-18.0-1.27","5fa915e567510582b2104be1","636dff3392645181d3c238a1","636e01763424970ff3ec464f","null","","","","null","","","","key","16.710333333335196","512","328.5","","","","","","","","","","","","","176","-1","0","true","","","",""
"psychophysics","328","712399","0.0-18.0-2.27","5fa915e567510582b2104be1","636dff3392645181d3c238a1","636e01763424970ff3ec464f","487.80000000074506","","","","90","","","","key","16.711107142855845","512","328.5","","","","","","","","","","","","","","","","","","","",""
