"trial_type","trial_index","time_elapsed","internal_node_id","PROLIFIC_PID","STUDY_ID","SESSION_ID","rt","stimulus","button_pressed","success","key_press","responses","isData","view_history","response_type","avg_frame_time","center_x","center_y","isSC","stim_side","trial_luminance","step_size","nReversal","correct","prev_ans","isThreshold","SC_threshold","final_threshold","isLuminance","FF_luminance","luminance","stimSide","ISInt","isFF","question_order","isSPQ","isCAPS","isAQ"
"pavlovia","0","5","0.0-0.0","6169e3ce218baf793744b030","636dff3392645181d3c238a1","636e01f3c8b4a6f86a30820f","","","","","","","","","","","","","","","","","","","","","","","","","","","","","","","",""
"html-button-response","1","7658","0.0-1.0","6169e3ce218baf793744b030","636dff3392645181d3c238a1","636e01f3c8b4a6f86a30820f","7650.5","<div style='background-color: white; width:60%; margin: auto; padding: 50px; text-align: justify; text-justify: inter-word; margin-bottom: 20px;'><h1 style='text-align: center;'>Consent Form</h1><p>Please read this consent form carefully before deciding whether you would like to participate in this study. You have to be 18 years old or older to participate to this study.</p><p style='text-decoration: underline;'>Participation is voluntary:</p><p>It is your choice whether or not to participate in this research. If you choose to participate, you may change your mind and leave the study at any time. Refusal to participate or stopping your participation will involve no penalty or loss of benefits to which you are otherwise entitled.</p><p style='text-decoration: underline;'>Purpose of the Study:</p><p>To understand the mechanisms underlying human perception.</p><p style='text-decoration: underline;'>What you will do in this study:</p><p>You will be presented with a series of visual images and then you will press buttons on the keyboard of your computer to respond to simple questions about the images (e.g. Were one or two images presented?). In addition, you will be asked to complete a questionnaire concerning your beliefs and everyday mental and perceptual experiences.'</p><p style='text-decoration: underline;'> Time Required:</p><p>The study will take 40 minutes to complete. </p><p style='text-decoration: underline;'>Risks:</p><p>There are no anticipated risks associated with participating in this study that are beyond those experienced in everyday life. </p><p style='text-decoration: underline;'>Benefits:</p><p>There are no benefits to you in participating in the study. However, this study may lead to a better understanding of how different kinds of visual information are used.</p><p style='text-decoration: underline;'>Compensation:</p><p>You will be paid US$6.6/hour. </p><p style='text-decoration: underline;'>Privacy and Confidentiality:</p><p>Your participation in this study will be anonymous. No personal information about your name or identity will be asked or recorded. This anonymous data will be stored for several years and may be used for a variety of research purposes. The overall results of the study may be published, or the data files may be shared with other researchers, but your identity will not be revealed in any way. The online services we are using for this study may temporarily store your data, but this data will be downloaded and then promptly deleted from those services.Your data will not be permanently associated with your name, IP address, or any other identifiable information (e.g., your information will only be connected to your payment, not to any of your responses), though they may be temporarily stored together before we download and separate them. Even so, no guarantee of internet survey security can be given because, although unlikely, transmissions can be intercepted and IP addresses can be identified. The anonymous data may be shared publicly (for example, in conjunction with a resulting academic publication).</p><p style='text-decoration: underline;'>Participation and Withdrawal:</p><p>Your participation in this study is completely voluntary. You may stop responding to the stimuli or stop answering questions if you so choose and without penalty by exiting the full screen mode, closing this tab of your browser or redirecting it to a different website.</p><p style='text-decoration: underline;'>Contact Info of the Researcher: </p><p>If you have questions about this study, or if you would like to talk to the research team, please contact David Melcher (david.melcher@nyu.edu, md5050@nyu.edu) at the Perception and Active Cognition Laboratory, New York University Abu Dhabi, Computational Research Building, Saadiyat Island, Abu Dhabi, UAE.This research has been reviewed by the New York University Abu Dhabi Institutional Review Board (NYUAD IRB). To contact about your rights in this research, for questions, suggestions, or complaints that are not addressed by the researchers, please email IRBnyuad@nyu.edu, or call the NYUAD IRB at +971 2 628 4313. </p></div>","0","","","","","","","","","","","","","","","","","","","","","","","","","","","","",""
"fullscreen","2","13398","0.0-2.0","6169e3ce218baf793744b030","636dff3392645181d3c238a1","636e01f3c8b4a6f86a30820f","","","","true","","","","","","","","","","","","","","","","","","","","","","","","","","","",""
"html-keyboard-response","3","27704","0.0-3.0","6169e3ce218baf793744b030","636dff3392645181d3c238a1","636e01f3c8b4a6f86a30820f","14304.5","<p>Welcome !</p><p>READ CAREFULLY THE FOLLOWING INDICATIONS:</p><p>From this moment you have ~40 minutes to complete the experiment.</p><p>During the experiment you will be prompted to take several breaks. Each break should not last longer than 2-3 minutes.</p><p>Make sure that your computer is plugged in and it's not running on battery power, even if the battery is already fully charged.</p><p>Turn off your phone and music, make sure that you are in a quiet room and that you will not be distracted for the next hour.</p><p>Failure to comply with the instructions and indications provided during the experiment will most likely result in the rejection of your data.<p>Press the spacebar to start.</p>","","","32","","","","","","","","","","","","","","","","","","","","","","","","","","",""
"survey-html-form","4","34564","0.0-4.0","6169e3ce218baf793744b030","636dff3392645181d3c238a1","636e01f3c8b4a6f86a30820f","6858.9000000059605","","","","","{""age"":""45"",""sex"":""m""}","true","","","","","","","","","","","","","","","","","","","","","","","","",""
"instructions","5","73598","0.0-5.0","6169e3ce218baf793744b030","636dff3392645181d3c238a1","636e01f3c8b4a6f86a30820f","39037.29999998212","","","","","","","[{""page_index"":0,""viewing_time"":24177.19999998808},{""page_index"":1,""viewing_time"":11559.59999999404},{""page_index"":2,""viewing_time"":3299.800000011921}]","","","","","","","","","","","","","","","","","","","","","","","",""
"psychophysics","6","75361","0.0-6.0-0.0","6169e3ce218baf793744b030","636dff3392645181d3c238a1","636e01f3c8b4a6f86a30820f","756.1999999880791","","","","39","","","","key","16.66126415094337","640","300.5","true","1","180","30","0","-1","","","","","","","","","","","","","",""
"psychophysics","7","76681","0.0-6.0-0.1","6169e3ce218baf793744b030","636dff3392645181d3c238a1","636e01f3c8b4a6f86a30820f","310.09999999403954","","","","39","","","","key","16.660487179487134","640","300.5","true","1","180","30","0","-1","-1","","","","","","","","","","","","",""
"psychophysics","8","78932","0.0-6.0-0.2","6169e3ce218baf793744b030","636dff3392645181d3c238a1","636e01f3c8b4a6f86a30820f","1245.5999999940395","","","","37","","","","key","16.661119402985157","640","300.5","true","-1","150","30","0","-1","-1","","","","","","","","","","","","",""
"psychophysics","9","80083","0.0-6.0-0.3","6169e3ce218baf793744b030","636dff3392645181d3c238a1","636e01f3c8b4a6f86a30820f","147.69999998807907","","","","39","","","","key","16.664308823529556","640","300.5","true","1","150","30","0","-1","-1","","","","","","","","","","","","",""
"psychophysics","10","81844","0.0-6.0-0.4","6169e3ce218baf793744b030","636dff3392645181d3c238a1","636e01f3c8b4a6f86a30820f","756.5","","","","39","","","","key","16.663190476190564","640","300.5","true","1","129","30","0","-1","-1","","","","","","","","","","","","",""
"psychophysics","11","84472","0.0-6.0-0.5","6169e3ce218baf793744b030","636dff3392645181d3c238a1","636e01f3c8b4a6f86a30820f","1620.699999988079","","","","37","","","","key","16.660235668789852","640","300.5","true","1","129","24","1","1","-1","","","","","","","","","","","","",""
"psychophysics","12","87172","0.0-6.0-0.6","6169e3ce218baf793744b030","636dff3392645181d3c238a1","636e01f3c8b4a6f86a30820f","1688.1000000238419","","","","37","","","","key","16.660962732919216","640","300.5","true","-1","153","24","1","-1","1","","","","","","","","","","","","",""
"psychophysics","13","88512","0.0-6.0-0.7","6169e3ce218baf793744b030","636dff3392645181d3c238a1","636e01f3c8b4a6f86a30820f","333.59999999403954","","","","39","","","","key","16.661848101265914","640","300.5","true","1","153","19.2","2","-1","-1","","","","","","","","","","","","",""
"psychophysics","14","90279","0.0-6.0-0.8","6169e3ce218baf793744b030","636dff3392645181d3c238a1","636e01f3c8b4a6f86a30820f","764.1999999880791","","","","39","","","","key","16.664057142857235","640","300.5","true","-1","133.8","15.36","3","1","-1","","","","","","","","","","","","",""
"psychophysics","15","91359","0.0-6.0-0.9","6169e3ce218baf793744b030","636dff3392645181d3c238a1","636e01f3c8b4a6f86a30820f","77.40000000596046","","","","39","","","","key","16.66621874999987","640","300.5","true","1","149.16000000000003","15.36","3","-1","1","","","","","","","","","","","","",""
"psychophysics","16","93146","0.0-6.0-0.10","6169e3ce218baf793744b030","636dff3392645181d3c238a1","636e01f3c8b4a6f86a30820f","780.9000000059605","","","","37","","","","key","16.661000000000058","640","300.5","true","-1","149.16000000000003","12.287999999999998","4","-1","-1","","","","","","","","","","","","",""
"psychophysics","17","94239","0.0-6.0-0.11","6169e3ce218baf793744b030","636dff3392645181d3c238a1","636e01f3c8b4a6f86a30820f","89.5","","","","39","","","","key","16.663553846153977","640","300.5","true","1","136.872","12.287999999999998","4","-1","-1","","","","","","","","","","","","",""
"psychophysics","18","96687","0.0-6.0-0.12","6169e3ce218baf793744b030","636dff3392645181d3c238a1","636e01f3c8b4a6f86a30820f","1439.699999988079","","","","37","","","","key","16.660705479452076","640","300.5","true","1","136.872","9.8304","5","1","-1","","","","","","","","","","","","",""
"psychophysics","19","98135","0.0-6.0-0.13","6169e3ce218baf793744b030","636dff3392645181d3c238a1","636e01f3c8b4a6f86a30820f","439.30000001192093","","","","37","","","","key","16.662255813953465","640","300.5","true","-1","146.7024","9.8304","5","-1","1","","","","","","","","","","","","",""
"psychophysics","20","99564","0.0-6.0-0.14","6169e3ce218baf793744b030","636dff3392645181d3c238a1","636e01f3c8b4a6f86a30820f","425.30000001192093","","","","39","","","","key","16.661164705882445","640","300.5","true","1","146.7024","7.864319999999999","6","-1","-1","","","","","","","","","","","","",""
"psychophysics","21","101341","0.0-6.0-0.15","6169e3ce218baf793744b030","636dff3392645181d3c238a1","636e01f3c8b4a6f86a30820f","763","","","","39","","","","key","16.659114285714377","640","300.5","true","1","138.83808000000002","7.864319999999999","6","-1","-1","","","","","","","","","","","","",""
"psychophysics","22","102431","0.0-6.0-0.16","6169e3ce218baf793744b030","636dff3392645181d3c238a1","636e01f3c8b4a6f86a30820f","86","","","","39","","","","key","16.667723076923107","640","300.5","true","1","138.83808000000002","7.864319999999999","6","-1","-1","","","","","","","","","","","","",""
"psychophysics","23","104296","0.0-6.0-0.17","6169e3ce218baf793744b030","636dff3392645181d3c238a1","636e01f3c8b4a6f86a30820f","851.9000000059605","","","","37","","","","key","16.660855855855818","640","300.5","true","-1","130.97376000000003","7.864319999999999","6","-1","-1","","","","","","","","","","","","",""
"psychophysics","24","106371","0.0-6.0-0.18","6169e3ce218baf793744b030","636dff3392645181d3c238a1","636e01f3c8b4a6f86a30820f","1064.0999999940395","","","","37","","","","key","16.66086991869916","640","300.5","true","-1","130.97376000000003","7.864319999999999","6","-1","-1","","","","","","","","","","","","",""
"psychophysics","25","107953","0.0-6.0-0.19","6169e3ce218baf793744b030","636dff3392645181d3c238a1","636e01f3c8b4a6f86a30820f","577.2999999821186","","","","39","","","","key","16.66091489361691","640","300.5","true","-1","129","6.291456","7","1","-1","","","","","","","","","","","","",""
"psychophysics","26","111556","0.0-6.0-0.20","6169e3ce218baf793744b030","636dff3392645181d3c238a1","636e01f3c8b4a6f86a30820f","2597","","","","39","","","","key","16.661204651162787","640","300.5","true","1","135.291456","6.291456","7","-1","1","","","","","","","","","","","","",""
"psychophysics","27","113515","0.0-6.0-0.21","6169e3ce218baf793744b030","636dff3392645181d3c238a1","636e01f3c8b4a6f86a30820f","953.7999999821186","","","","39","","","","key","16.66311965811971","640","300.5","true","1","135.291456","5.033164800000001","8","-1","-1","","","","","","","","","","","","",""
"psychophysics","28","115066","0.0-6.0-0.22","6169e3ce218baf793744b030","636dff3392645181d3c238a1","636e01f3c8b4a6f86a30820f","540.6999999880791","","","","37","","","","key","16.66118478260867","640","300.5","true","-1","130.2582912","5.033164800000001","8","-1","-1","","","","","","","","","","","","",""
"psychophysics","29","116912","0.0-6.0-0.23","6169e3ce218baf793744b030","636dff3392645181d3c238a1","636e01f3c8b4a6f86a30820f","836.6999999880791","","","","37","","","","key","16.6625","640","300.5","true","1","130.2582912","4.0265318400000005","9","1","-1","","","","","","","","","","","","",""
"psychophysics","30","120360","0.0-6.0-0.24","6169e3ce218baf793744b030","636dff3392645181d3c238a1","636e01f3c8b4a6f86a30820f","2440.2999999821186","","","","37","","","","key","16.662014563106798","640","300.5","true","-1","134.28482304","4.0265318400000005","9","-1","1","","","","","","","","","","","","",""
"psychophysics","31","123860","0.0-6.0-0.25","6169e3ce218baf793744b030","636dff3392645181d3c238a1","636e01f3c8b4a6f86a30820f","2486.5999999940395","","","","39","","","","key","16.66064593301434","640","300.5","true","-1","134.28482304","3.2212254720000004","10","1","-1","","","","","","","","","","","","",""
"psychophysics","32","125263","0.0-6.0-0.26","6169e3ce218baf793744b030","636dff3392645181d3c238a1","636e01f3c8b4a6f86a30820f","393.80000001192093","","","","39","","","","key","16.66220481927715","640","300.5","true","1","137.506048512","3.2212254720000004","10","-1","1","","","","","","","","","","","","",""
"psychophysics","33","126729","0.0-6.0-0.27","6169e3ce218baf793744b030","636dff3392645181d3c238a1","636e01f3c8b4a6f86a30820f","457.7000000178814","","","","39","","","","key","16.663988505747042","640","300.5","true","1","137.506048512","2.5769803776000004","11","-1","-1","","","","","","","","","","","","",""
"psychophysics","34","128279","0.0-6.0-0.28","6169e3ce218baf793744b030","636dff3392645181d3c238a1","636e01f3c8b4a6f86a30820f","541.0999999940395","","","","37","","","","key","16.661097826086916","640","300.5","true","1","134.9290681344","2.0615843020800004","12","1","-1","","","","","","","","","","","","",""
"psychophysics","35","129884","0.0-6.0-0.29","6169e3ce218baf793744b030","636dff3392645181d3c238a1","636e01f3c8b4a6f86a30820f","596.7000000178814","","","","37","","","","key","16.660252631578814","640","300.5","true","-1","136.99065243648002","2.0615843020800004","12","-1","1","","","","","","","","","","","","",""
"psychophysics","36","132139","0.0-6.0-0.30","6169e3ce218baf793744b030","636dff3392645181d3c238a1","636e01f3c8b4a6f86a30820f","1252.199999988079","","","","37","","","","key","16.661992592592636","640","300.5","true","-1","136.99065243648002","1.6492674416640005","13","-1","-1","","","","","","","","","","","","",""
"psychophysics","37","135342","0.0-6.0-0.31","6169e3ce218baf793744b030","636dff3392645181d3c238a1","636e01f3c8b4a6f86a30820f","2195.699999988079","","","","37","","","","key","16.66046596858641","640","300.5","true","-1","135.34138499481602","1.6492674416640005","13","-1","-1","","","","","","","","","","","","",""
"psychophysics","38","136804","0.0-6.0-0.32","6169e3ce218baf793744b030","636dff3392645181d3c238a1","636e01f3c8b4a6f86a30820f","454.2999999821186","","","","37","","","","key","16.66234482758633","640","300.5","true","-1","135.34138499481602","1.6492674416640005","13","-1","-1","","","","","","","","","","","","",""
"psychophysics","39","138703","0.0-6.0-0.33","6169e3ce218baf793744b030","636dff3392645181d3c238a1","636e01f3c8b4a6f86a30820f","890.2000000178814","","","","37","","","","key","16.662185840707878","640","300.5","true","1","133.69211755315203","1.3194139533312006","14","1","-1","","","","","","","","","","","","",""
"psychophysics","40","140233","0.0-6.0-0.34","6169e3ce218baf793744b030","636dff3392645181d3c238a1","636e01f3c8b4a6f86a30820f","516.1999999880791","","","","39","","","","key","16.659511111111108","640","300.5","true","-1","135.01153150648324","1.3194139533312006","14","1","1","","","","","","","","","","","","",""
"psychophysics","41","141737","0.0-6.0-0.35","6169e3ce218baf793744b030","636dff3392645181d3c238a1","636e01f3c8b4a6f86a30820f","502.40000000596046","","","","39","","","","key","16.663744444444376","640","300.5","true","-1","136.33094545981444","1.3194139533312006","14","1","1","","","","","","","","","","","","",""
"psychophysics","42","143164","0.0-6.0-0.36","6169e3ce218baf793744b030","636dff3392645181d3c238a1","636e01f3c8b4a6f86a30820f","414.80000001192093","","","","39","","","","key","16.663202380952413","640","300.5","true","1","137.65035941314565","1.3194139533312006","14","-1","1","","","","","","","","","","","","",""
"psychophysics","43","144543","0.0-6.0-0.37","6169e3ce218baf793744b030","636dff3392645181d3c238a1","636e01f3c8b4a6f86a30820f","375.7999999821186","","","","37","","","","key","16.664621951219644","640","300.5","true","-1","137.65035941314565","1.0555311626649604","15","-1","-1","","","","","","","","","","","","",""
"psychophysics","44","145701","0.0-6.0-0.38","6169e3ce218baf793744b030","636dff3392645181d3c238a1","636e01f3c8b4a6f86a30820f","152.5","","","","37","","","","key","16.66305797101476","640","300.5","true","-1","136.5948282504807","1.0555311626649604","15","-1","-1","","","","","","","","","","","","",""
"psychophysics","45","146745","0.0-6.0-0.39","6169e3ce218baf793744b030","636dff3392645181d3c238a1","636e01f3c8b4a6f86a30820f","30.5","","","","37","","","","key","16.660065573770897","640","300.5","true","-1","136.5948282504807","1.0555311626649604","15","-1","-1","","","","","","","","","","","","",""
"html-keyboard-response","46","151072","0.0-7.0","6169e3ce218baf793744b030","636dff3392645181d3c238a1","636e01f3c8b4a6f86a30820f","4325.4000000059605","<p>Well Done !</p><p>Prepare for a new block.</p><p>DON'T EXIT THE FULL SCREEN MODE</p><p>Press the Spacebar to start.</p>","","","32","","","","","","","","","","","","","","","true","136.16100219384631","","","","","","","","","","",""
"psychophysics","47","152146","0.0-8.0-0.0","6169e3ce218baf793744b030","636dff3392645181d3c238a1","636e01f3c8b4a6f86a30820f","66.59999999403954","","","","39","","","","key","16.624546875000306","640","300.5","true","1","180","30","0","-1","","","","","","","","","","","","","",""
"psychophysics","48","155023","0.0-8.0-0.1","6169e3ce218baf793744b030","636dff3392645181d3c238a1","636e01f3c8b4a6f86a30820f","1874.5","","","","37","","","","key","16.66126162790694","640","300.5","true","1","180","30","0","1","-1","","","","","","","","","","","","",""
"psychophysics","49","156118","0.0-8.0-0.2","6169e3ce218baf793744b030","636dff3392645181d3c238a1","636e01f3c8b4a6f86a30820f","91.90000000596046","","","","37","","","","key","16.659600000000164","640","300.5","true","-1","210","30","0","-1","1","","","","","","","","","","","","",""
"psychophysics","50","158825","0.0-8.0-0.3","6169e3ce218baf793744b030","636dff3392645181d3c238a1","636e01f3c8b4a6f86a30820f","1703","","","","37","","","","key","16.660913043478303","640","300.5","true","-1","210","24","1","-1","-1","","","","","","","","","","","","",""
"psychophysics","51","160245","0.0-8.0-0.4","6169e3ce218baf793744b030","636dff3392645181d3c238a1","636e01f3c8b4a6f86a30820f","416.69999998807907","","","","37","","","","key","16.663741176470648","640","300.5","true","-1","186","24","1","-1","-1","","","","","","","","","","","","",""
"psychophysics","52","161756","0.0-8.0-0.5","6169e3ce218baf793744b030","636dff3392645181d3c238a1","636e01f3c8b4a6f86a30820f","503.10000002384186","","","","37","","","","key","16.660606741573297","640","300.5","true","-1","186","24","1","-1","-1","","","","","","","","","","","","",""
"psychophysics","53","163249","0.0-8.0-0.6","6169e3ce218baf793744b030","636dff3392645181d3c238a1","636e01f3c8b4a6f86a30820f","489.7999999821186","","","","37","","","","key","16.66226966292146","640","300.5","true","-1","162","24","1","-1","-1","","","","","","","","","","","","",""
"psychophysics","54","164583","0.0-8.0-0.7","6169e3ce218baf793744b030","636dff3392645181d3c238a1","636e01f3c8b4a6f86a30820f","324.5","","","","39","","","","key","16.661025316455945","640","300.5","true","1","162","24","1","-1","-1","","","","","","","","","","","","",""
"psychophysics","55","165900","0.0-8.0-0.8","6169e3ce218baf793744b030","636dff3392645181d3c238a1","636e01f3c8b4a6f86a30820f","309","","","","39","","","","key","16.65837179487183","640","300.5","true","1","138","24","1","-1","-1","","","","","","","","","","","","",""
"psychophysics","56","167177","0.0-8.0-0.9","6169e3ce218baf793744b030","636dff3392645181d3c238a1","636e01f3c8b4a6f86a30820f","269.40000000596046","","","","39","","","","key","16.665131578947214","640","300.5","true","1","138","24","1","-1","-1","","","","","","","","","","","","",""
"psychophysics","57","168673","0.0-8.0-0.10","6169e3ce218baf793744b030","636dff3392645181d3c238a1","636e01f3c8b4a6f86a30820f","482.5","","","","39","","","","key","16.661772727272776","640","300.5","true","1","129","24","1","-1","-1","","","","","","","","","","","","",""
"psychophysics","58","170118","0.0-8.0-0.11","6169e3ce218baf793744b030","636dff3392645181d3c238a1","636e01f3c8b4a6f86a30820f","442","","","","37","","","","key","16.663476744185804","640","300.5","true","-1","129","24","1","-1","-1","","","","","","","","","","","","",""
"psychophysics","59","171616","0.0-8.0-0.12","6169e3ce218baf793744b030","636dff3392645181d3c238a1","636e01f3c8b4a6f86a30820f","493.19999998807907","","","","39","","","","key","16.662640449438268","640","300.5","true","-1","129","19.2","2","1","-1","","","","","","","","","","","","",""
"psychophysics","60","172971","0.0-8.0-0.13","6169e3ce218baf793744b030","636dff3392645181d3c238a1","636e01f3c8b4a6f86a30820f","351.7000000178814","","","","37","","","","key","16.662475000000267","640","300.5","true","-1","148.2","19.2","2","-1","1","","","","","","","","","","","","",""
"psychophysics","61","175942","0.0-8.0-0.14","6169e3ce218baf793744b030","636dff3392645181d3c238a1","636e01f3c8b4a6f86a30820f","1966.300000011921","","","","39","","","","key","16.66161797752799","640","300.5","true","1","148.2","15.36","3","-1","-1","","","","","","","","","","","","",""
"psychophysics","62","177410","0.0-8.0-0.15","6169e3ce218baf793744b030","636dff3392645181d3c238a1","636e01f3c8b4a6f86a30820f","459","","","","37","","","","key","16.6660344827587","640","300.5","true","1","132.83999999999997","12.287999999999998","4","1","-1","","","","","","","","","","","","",""
"psychophysics","63","179741","0.0-8.0-0.16","6169e3ce218baf793744b030","636dff3392645181d3c238a1","636e01f3c8b4a6f86a30820f","1326.7000000178814","","","","39","","","","key","16.65944604316547","640","300.5","true","1","145.128","12.287999999999998","4","-1","1","","","","","","","","","","","","",""
"psychophysics","64","181659","0.0-8.0-0.17","6169e3ce218baf793744b030","636dff3392645181d3c238a1","636e01f3c8b4a6f86a30820f","908.4000000059605","","","","37","","","","key","16.66122807017548","640","300.5","true","1","145.128","9.8304","5","1","-1","","","","","","","","","","","","",""
"psychophysics","65","182990","0.0-8.0-0.18","6169e3ce218baf793744b030","636dff3392645181d3c238a1","636e01f3c8b4a6f86a30820f","318.69999998807907","","","","37","","","","key","16.663316455696226","640","300.5","true","-1","154.95839999999998","9.8304","5","-1","1","","","","","","","","","","","","",""
"psychophysics","66","184099","0.0-8.0-0.19","6169e3ce218baf793744b030","636dff3392645181d3c238a1","636e01f3c8b4a6f86a30820f","107.5","","","","39","","","","key","16.660046153846018","640","300.5","true","1","154.95839999999998","7.864319999999999","6","-1","-1","","","","","","","","","","","","",""
"psychophysics","67","185382","0.0-8.0-0.20","6169e3ce218baf793744b030","636dff3392645181d3c238a1","636e01f3c8b4a6f86a30820f","277.90000000596046","","","","39","","","","key","16.658776315789606","640","300.5","true","1","147.09408","7.864319999999999","6","-1","-1","","","","","","","","","","","","",""
"psychophysics","68","187446","0.0-8.0-0.21","6169e3ce218baf793744b030","636dff3392645181d3c238a1","636e01f3c8b4a6f86a30820f","1059.2999999821186","","","","39","","","","key","16.661414634146276","640","300.5","true","1","147.09408","7.864319999999999","6","-1","-1","","","","","","","","","","","","",""
"psychophysics","69","189226","0.0-8.0-0.22","6169e3ce218baf793744b030","636dff3392645181d3c238a1","636e01f3c8b4a6f86a30820f","773.3999999761581","","","","39","","","","key","16.663547169811416","640","300.5","true","1","139.22976","7.864319999999999","6","-1","-1","","","","","","","","","","","","",""
"psychophysics","70","190691","0.0-8.0-0.23","6169e3ce218baf793744b030","636dff3392645181d3c238a1","636e01f3c8b4a6f86a30820f","459.5","","","","39","","","","key","16.659448275862104","640","300.5","true","1","139.22976","7.864319999999999","6","-1","-1","","","","","","","","","","","","",""
"psychophysics","71","192343","0.0-8.0-0.24","6169e3ce218baf793744b030","636dff3392645181d3c238a1","636e01f3c8b4a6f86a30820f","641.3000000119209","","","","39","","","","key","16.660193877550952","640","300.5","true","-1","131.36544","6.291456","7","1","-1","","","","","","","","","","","","",""
"psychophysics","72","193690","0.0-8.0-0.25","6169e3ce218baf793744b030","636dff3392645181d3c238a1","636e01f3c8b4a6f86a30820f","341.40000000596046","","","","39","","","","key","16.65967500000006","640","300.5","true","1","137.65689600000002","6.291456","7","-1","1","","","","","","","","","","","","",""
"psychophysics","73","195263","0.0-8.0-0.26","6169e3ce218baf793744b030","636dff3392645181d3c238a1","636e01f3c8b4a6f86a30820f","564.6999999880791","","","","39","","","","key","16.661505376343975","640","300.5","true","-1","137.65689600000002","5.033164800000001","8","1","-1","","","","","","","","","","","","",""
"psychophysics","74","196655","0.0-8.0-0.27","6169e3ce218baf793744b030","636dff3392645181d3c238a1","636e01f3c8b4a6f86a30820f","388.19999998807907","","","","37","","","","key","16.661722891566384","640","300.5","true","-1","142.69006080000003","5.033164800000001","8","-1","1","","","","","","","","","","","","",""
"psychophysics","75","197929","0.0-8.0-0.28","6169e3ce218baf793744b030","636dff3392645181d3c238a1","636e01f3c8b4a6f86a30820f","264.40000000596046","","","","37","","","","key","16.660320000000066","640","300.5","true","-1","142.69006080000003","4.0265318400000005","9","-1","-1","","","","","","","","","","","","",""
"psychophysics","76","199268","0.0-8.0-0.29","6169e3ce218baf793744b030","636dff3392645181d3c238a1","636e01f3c8b4a6f86a30820f","336.30000001192093","","","","37","","","","key","16.662812499999927","640","300.5","true","-1","138.66352896000004","4.0265318400000005","9","-1","-1","","","","","","","","","","","","",""
"psychophysics","77","200334","0.0-8.0-0.30","6169e3ce218baf793744b030","636dff3392645181d3c238a1","636e01f3c8b4a6f86a30820f","52.400000005960464","","","","37","","","","key","16.668031746031446","640","300.5","true","-1","138.66352896000004","4.0265318400000005","9","-1","-1","","","","","","","","","","","","",""
"psychophysics","78","201807","0.0-8.0-0.31","6169e3ce218baf793744b030","636dff3392645181d3c238a1","636e01f3c8b4a6f86a30820f","467","","","","37","","","","key","16.660609195402277","640","300.5","true","-1","134.63699712000005","4.0265318400000005","9","-1","-1","","","","","","","","","","","","",""
"psychophysics","79","202862","0.0-8.0-0.32","6169e3ce218baf793744b030","636dff3392645181d3c238a1","636e01f3c8b4a6f86a30820f","48.19999998807907","","","","39","","","","key","16.65543548387077","640","300.5","true","1","134.63699712000005","4.0265318400000005","9","-1","-1","","","","","","","","","","","","",""
"psychophysics","80","204498","0.0-8.0-0.33","6169e3ce218baf793744b030","636dff3392645181d3c238a1","636e01f3c8b4a6f86a30820f","631.5","","","","39","","","","key","16.66345360824753","640","300.5","true","1","130.61046528000006","4.0265318400000005","9","-1","-1","","","","","","","","","","","","",""
"psychophysics","81","205941","0.0-8.0-0.34","6169e3ce218baf793744b030","636dff3392645181d3c238a1","636e01f3c8b4a6f86a30820f","441.40000000596046","","","","39","","","","key","16.661546511628035","640","300.5","true","-1","130.61046528000006","3.2212254720000004","10","1","-1","","","","","","","","","","","","",""
"psychophysics","82","207382","0.0-8.0-0.35","6169e3ce218baf793744b030","636dff3392645181d3c238a1","636e01f3c8b4a6f86a30820f","436.40000000596046","","","","39","","","","key","16.661186046511894","640","300.5","true","-1","133.83169075200004","3.2212254720000004","10","1","1","","","","","","","","","","","","",""
"psychophysics","83","208649","0.0-8.0-0.36","6169e3ce218baf793744b030","636dff3392645181d3c238a1","636e01f3c8b4a6f86a30820f","258.40000000596046","","","","39","","","","key","16.659973333333618","640","300.5","true","1","137.05291622400006","3.2212254720000004","10","-1","1","","","","","","","","","","","","",""
"psychophysics","84","209831","0.0-8.0-0.37","6169e3ce218baf793744b030","636dff3392645181d3c238a1","636e01f3c8b4a6f86a30820f","176.60000002384186","","","","37","","","","key","16.658942857142705","640","300.5","true","-1","137.05291622400006","2.5769803776000004","11","-1","-1","","","","","","","","","","","","",""
"psychophysics","85","211437","0.0-8.0-0.38","6169e3ce218baf793744b030","636dff3392645181d3c238a1","636e01f3c8b4a6f86a30820f","595.4000000059605","","","","37","","","","key","16.660705263157816","640","300.5","true","-1","134.47593584640006","2.5769803776000004","11","-1","-1","","","","","","","","","","","","",""
"psychophysics","86","213183","0.0-8.0-0.39","6169e3ce218baf793744b030","636dff3392645181d3c238a1","636e01f3c8b4a6f86a30820f","739","","","","37","","","","key","16.66100961538457","640","300.5","true","1","134.47593584640006","2.0615843020800004","12","1","-1","","","","","","","","","","","","",""
"html-keyboard-response","87","216352","0.0-9.0","6169e3ce218baf793744b030","636dff3392645181d3c238a1","636e01f3c8b4a6f86a30820f","3168.199999988079","<p>Well Done !</p><p>Prepare for a new block.</p><p>DON'T EXIT THE FULL SCREEN MODE</p><p>Press the Spacebar to start.</p>","","","32","","","","","","","","","","","","","","","true","136.36035274752","","","","","","","","","","",""
"psychophysics","88","217674","0.0-10.0-0.0","6169e3ce218baf793744b030","636dff3392645181d3c238a1","636e01f3c8b4a6f86a30820f","317.5","","","","39","","","","key","16.64059493670909","640","300.5","true","1","180","30","0","-1","","","","","","","","","","","","","",""
"psychophysics","89","219779","0.0-10.0-0.1","6169e3ce218baf793744b030","636dff3392645181d3c238a1","636e01f3c8b4a6f86a30820f","1102.7999999821186","","","","39","","","","key","16.662396825397053","640","300.5","true","1","180","30","0","-1","-1","","","","","","","","","","","","",""
"psychophysics","90","220936","0.0-10.0-0.2","6169e3ce218baf793744b030","636dff3392645181d3c238a1","636e01f3c8b4a6f86a30820f","144.69999998807907","","","","39","","","","key","16.660000000000068","640","300.5","true","1","150","30","0","-1","-1","","","","","","","","","","","","",""
"psychophysics","91","222018","0.0-10.0-0.3","6169e3ce218baf793744b030","636dff3392645181d3c238a1","636e01f3c8b4a6f86a30820f","77.5","","","","39","","","","key","16.66176562499959","640","300.5","true","1","150","30","0","-1","-1","","","","","","","","","","","","",""
"psychophysics","92","223399","0.0-10.0-0.4","6169e3ce218baf793744b030","636dff3392645181d3c238a1","636e01f3c8b4a6f86a30820f","375.19999998807907","","","","39","","","","key","16.65865853658548","640","300.5","true","1","129","30","0","-1","-1","","","","","","","","","","","","",""
"psychophysics","93","224728","0.0-10.0-0.5","6169e3ce218baf793744b030","636dff3392645181d3c238a1","636e01f3c8b4a6f86a30820f","322.2000000178814","","","","37","","","","key","16.663632911392355","640","300.5","true","-1","129","30","0","-1","-1","","","","","","","","","","","","",""
"psychophysics","94","226268","0.0-10.0-0.6","6169e3ce218baf793744b030","636dff3392645181d3c238a1","636e01f3c8b4a6f86a30820f","530.5","","","","39","","","","key","16.662538461538432","640","300.5","true","1","129","30","0","-1","-1","","","","","","","","","","","","",""
"psychophysics","95","227920","0.0-10.0-0.7","6169e3ce218baf793744b030","636dff3392645181d3c238a1","636e01f3c8b4a6f86a30820f","647.8000000119209","","","","39","","","","key","16.659622448979704","640","300.5","true","1","129","30","0","-1","-1","","","","","","","","","","","","",""
"psychophysics","96","229114","0.0-10.0-0.8","6169e3ce218baf793744b030","636dff3392645181d3c238a1","636e01f3c8b4a6f86a30820f","192","","","","39","","","","key","16.664211267605832","640","300.5","true","1","129","30","0","-1","-1","","","","","","","","","","","","",""
"psychophysics","97","231303","0.0-10.0-0.9","6169e3ce218baf793744b030","636dff3392645181d3c238a1","636e01f3c8b4a6f86a30820f","1182","","","","39","","","","key","16.663384615384768","640","300.5","true","1","129","30","0","-1","-1","","","","","","","","","","","","",""
"psychophysics","98","232639","0.0-10.0-0.10","6169e3ce218baf793744b030","636dff3392645181d3c238a1","636e01f3c8b4a6f86a30820f","333.69999998807907","","","","37","","","","key","16.665350000000036","640","300.5","true","1","129","24","1","1","-1","","","","","","","","","","","","",""
"psychophysics","99","233808","0.0-10.0-0.11","6169e3ce218baf793744b030","636dff3392645181d3c238a1","636e01f3c8b4a6f86a30820f","162.5","","","","37","","","","key","16.66115942029021","640","300.5","true","-1","153","24","1","-1","1","","","","","","","","","","","","",""
"psychophysics","100","234858","0.0-10.0-0.12","6169e3ce218baf793744b030","636dff3392645181d3c238a1","636e01f3c8b4a6f86a30820f","44.69999998807907","","","","39","","","","key","16.66370967741926","640","300.5","true","1","153","19.2","2","-1","-1","","","","","","","","","","","","",""
"psychophysics","101","236095","0.0-10.0-0.13","6169e3ce218baf793744b030","636dff3392645181d3c238a1","636e01f3c8b4a6f86a30820f","231.90000000596046","","","","39","","","","key","16.661465753424412","640","300.5","true","1","133.8","19.2","2","-1","-1","","","","","","","","","","","","",""
"psychophysics","102","237704","0.0-10.0-0.14","6169e3ce218baf793744b030","636dff3392645181d3c238a1","636e01f3c8b4a6f86a30820f","601.0999999940395","","","","37","","","","key","16.659895833333394","640","300.5","true","-1","133.8","19.2","2","-1","-1","","","","","","","","","","","","",""
"psychophysics","103","239333","0.0-10.0-0.15","6169e3ce218baf793744b030","636dff3392645181d3c238a1","636e01f3c8b4a6f86a30820f","621.9000000059605","","","","37","","","","key","16.660437500000018","640","300.5","true","1","129","15.36","3","1","-1","","","","","","","","","","","","",""
"psychophysics","104","240353","0.0-10.0-0.16","6169e3ce218baf793744b030","636dff3392645181d3c238a1","636e01f3c8b4a6f86a30820f","18","","","","37","","","","key","16.660885245901376","640","300.5","true","-1","144.36","15.36","3","-1","1","","","","","","","","","","","","",""
"psychophysics","105","242469","0.0-10.0-0.17","6169e3ce218baf793744b030","636dff3392645181d3c238a1","636e01f3c8b4a6f86a30820f","1106.4000000059605","","","","39","","","","key","16.662404761904675","640","300.5","true","-1","144.36","12.287999999999998","4","1","-1","","","","","","","","","","","","",""
"psychophysics","106","245905","0.0-10.0-0.18","6169e3ce218baf793744b030","636dff3392645181d3c238a1","636e01f3c8b4a6f86a30820f","2425.2000000178814","","","","39","","","","key","16.660731707316987","640","300.5","true","1","156.64800000000002","12.287999999999998","4","-1","1","","","","","","","","","","","","",""
"psychophysics","107","247588","0.0-10.0-0.19","6169e3ce218baf793744b030","636dff3392645181d3c238a1","636e01f3c8b4a6f86a30820f","674","","","","37","","","","key","16.658030000000146","640","300.5","true","-1","156.64800000000002","9.8304","5","-1","-1","","","","","","","","","","","","",""
"psychophysics","108","249194","0.0-10.0-0.20","6169e3ce218baf793744b030","636dff3392645181d3c238a1","636e01f3c8b4a6f86a30820f","596","","","","37","","","","key","16.662810526315834","640","300.5","true","-1","146.81760000000003","9.8304","5","-1","-1","","","","","","","","","","","","",""
"psychophysics","109","250385","0.0-10.0-0.21","6169e3ce218baf793744b030","636dff3392645181d3c238a1","636e01f3c8b4a6f86a30820f","186.2000000178814","","","","37","","","","key","16.66447887323923","640","300.5","true","-1","146.81760000000003","9.8304","5","-1","-1","","","","","","","","","","","","",""
"psychophysics","110","251498","0.0-10.0-0.22","6169e3ce218baf793744b030","636dff3392645181d3c238a1","636e01f3c8b4a6f86a30820f","105","","","","37","","","","key","16.661151515151495","640","300.5","true","-1","136.98720000000003","9.8304","5","-1","-1","","","","","","","","","","","","",""
"psychophysics","111","253030","0.0-10.0-0.23","6169e3ce218baf793744b030","636dff3392645181d3c238a1","636e01f3c8b4a6f86a30820f","516.4000000059605","","","","37","","","","key","16.663777777777675","640","300.5","true","-1","136.98720000000003","9.8304","5","-1","-1","","","","","","","","","","","","",""
"psychophysics","112","254590","0.0-10.0-0.24","6169e3ce218baf793744b030","636dff3392645181d3c238a1","636e01f3c8b4a6f86a30820f","546.0999999940395","","","","39","","","","key","16.664451612903477","640","300.5","true","1","129","9.8304","5","-1","-1","","","","","","","","","","","","",""
"psychophysics","113","255902","0.0-10.0-0.25","6169e3ce218baf793744b030","636dff3392645181d3c238a1","636e01f3c8b4a6f86a30820f","306.2999999821186","","","","39","","","","key","16.659948717948655","640","300.5","true","1","129","9.8304","5","-1","-1","","","","","","","","","","","","",""
"psychophysics","114","257509","0.0-10.0-0.26","6169e3ce218baf793744b030","636dff3392645181d3c238a1","636e01f3c8b4a6f86a30820f","597.5","","","","37","","","","key","16.660999999999827","640","300.5","true","1","129","7.864319999999999","6","1","-1","","","","","","","","","","","","",""
"psychophysics","115","259713","0.0-10.0-0.27","6169e3ce218baf793744b030","636dff3392645181d3c238a1","636e01f3c8b4a6f86a30820f","1200.9000000059605","","","","37","","","","key","16.66265909090924","640","300.5","true","-1","136.86432","7.864319999999999","6","-1","1","","","","","","","","","","","","",""
"psychophysics","116","262265","0.0-10.0-0.28","6169e3ce218baf793744b030","636dff3392645181d3c238a1","636e01f3c8b4a6f86a30820f","1545.1000000238419","","","","39","","","","key","16.661671052631345","640","300.5","true","-1","136.86432","6.291456","7","1","-1","","","","","","","","","","","","",""
"psychophysics","117","263440","0.0-10.0-0.29","6169e3ce218baf793744b030","636dff3392645181d3c238a1","636e01f3c8b4a6f86a30820f","168.5","","","","37","","","","key","16.662579710144833","640","300.5","true","-1","143.155776","6.291456","7","-1","1","","","","","","","","","","","","",""
"psychophysics","118","264482","0.0-10.0-0.30","6169e3ce218baf793744b030","636dff3392645181d3c238a1","636e01f3c8b4a6f86a30820f","39.20000001788139","","","","39","","","","key","16.663403225806356","640","300.5","true","1","143.155776","5.033164800000001","8","-1","-1","","","","","","","","","","","","",""
"psychophysics","119","266072","0.0-10.0-0.31","6169e3ce218baf793744b030","636dff3392645181d3c238a1","636e01f3c8b4a6f86a30820f","582.8999999761581","","","","37","","","","key","16.66076595744705","640","300.5","true","-1","138.1226112","5.033164800000001","8","-1","-1","","","","","","","","","","","","",""
"psychophysics","120","267314","0.0-10.0-0.32","6169e3ce218baf793744b030","636dff3392645181d3c238a1","636e01f3c8b4a6f86a30820f","238.69999998807907","","","","39","","","","key","16.663297297297724","640","300.5","true","1","138.1226112","5.033164800000001","8","-1","-1","","","","","","","","","","","","",""
"psychophysics","121","268508","0.0-10.0-0.33","6169e3ce218baf793744b030","636dff3392645181d3c238a1","636e01f3c8b4a6f86a30820f","184.59999999403954","","","","37","","","","key","16.660571428571295","640","300.5","true","-1","133.08944639999999","5.033164800000001","8","-1","-1","","","","","","","","","","","","",""
"psychophysics","122","269552","0.0-10.0-0.34","6169e3ce218baf793744b030","636dff3392645181d3c238a1","636e01f3c8b4a6f86a30820f","42.79999998211861","","","","39","","","","key","16.666483870967507","640","300.5","true","1","133.08944639999999","5.033164800000001","8","-1","-1","","","","","","","","","","","","",""
"psychophysics","123","271161","0.0-10.0-0.35","6169e3ce218baf793744b030","636dff3392645181d3c238a1","636e01f3c8b4a6f86a30820f","602.6999999880791","","","","37","","","","key","16.660166666666555","640","300.5","true","-1","129","5.033164800000001","8","-1","-1","","","","","","","","","","","","",""
"psychophysics","124","272625","0.0-10.0-0.36","6169e3ce218baf793744b030","636dff3392645181d3c238a1","636e01f3c8b4a6f86a30820f","456.90000000596046","","","","37","","","","key","16.659551724137863","640","300.5","true","-1","129","5.033164800000001","8","-1","-1","","","","","","","","","","","","",""
"psychophysics","125","274084","0.0-10.0-0.37","6169e3ce218baf793744b030","636dff3392645181d3c238a1","636e01f3c8b4a6f86a30820f","452.19999998807907","","","","37","","","","key","16.66038372093029","640","300.5","true","-1","129","5.033164800000001","8","-1","-1","","","","","","","","","","","","",""
"psychophysics","126","275499","0.0-10.0-0.38","6169e3ce218baf793744b030","636dff3392645181d3c238a1","636e01f3c8b4a6f86a30820f","409.60000002384186","","","","37","","","","key","16.65954761904764","640","300.5","true","-1","129","5.033164800000001","8","-1","-1","","","","","","","","","","","","",""
"psychophysics","127","278607","0.0-10.0-0.39","6169e3ce218baf793744b030","636dff3392645181d3c238a1","636e01f3c8b4a6f86a30820f","2100.9000000059605","","","","39","","","","key","16.66349462365609","640","300.5","true","-1","129","4.0265318400000005","9","1","-1","","","","","","","","","","","","",""
"html-keyboard-response","128","286055","0.0-11.0","6169e3ce218baf793744b030","636dff3392645181d3c238a1","636e01f3c8b4a6f86a30820f","7445.700000017881","<p>Well Done !</p><p>Prepare for a new block.</p><p>DON'T EXIT THE FULL SCREEN MODE</p><p>Press the Spacebar to start.</p>","","","32","","","","","","","","","","","","","","","true","133.69762048","","","","","","","","","","",""
"psychophysics","129","287092","0.0-12.0-0.0","6169e3ce218baf793744b030","636dff3392645181d3c238a1","636e01f3c8b4a6f86a30820f","24.400000005960464","","","","37","","","","key","16.594790322580298","640","300.5","true","-1","180","30","0","-1","","","","","","","","","","","","","",""
"psychophysics","130","288647","0.0-12.0-0.1","6169e3ce218baf793744b030","636dff3392645181d3c238a1","636e01f3c8b4a6f86a30820f","545.1999999880791","","","","37","","","","key","16.659576086956328","640","300.5","true","-1","180","30","0","-1","-1","","","","","","","","","","","","",""
"psychophysics","131","290152","0.0-12.0-0.2","6169e3ce218baf793744b030","636dff3392645181d3c238a1","636e01f3c8b4a6f86a30820f","499.80000001192093","","","","39","","","","key","16.657099999999627","640","300.5","true","1","150","30","0","-1","-1","","","","","","","","","","","","",""
"psychophysics","132","291618","0.0-12.0-0.3","6169e3ce218baf793744b030","636dff3392645181d3c238a1","636e01f3c8b4a6f86a30820f","459.7000000178814","","","","37","","","","key","16.660103448275905","640","300.5","true","-1","150","30","0","-1","-1","","","","","","","","","","","","",""
"psychophysics","133","293148","0.0-12.0-0.4","6169e3ce218baf793744b030","636dff3392645181d3c238a1","636e01f3c8b4a6f86a30820f","530.3000000119209","","","","37","","","","key","16.659967032967362","640","300.5","true","1","129","24","1","1","-1","","","","","","","","","","","","",""
"psychophysics","134","294542","0.0-12.0-0.5","6169e3ce218baf793744b030","636dff3392645181d3c238a1","636e01f3c8b4a6f86a30820f","389.09999999403954","","","","39","","","","key","16.659121951219632","640","300.5","true","1","153","24","1","-1","1","","","","","","","","","","","","",""
"psychophysics","135","295734","0.0-12.0-0.6","6169e3ce218baf793744b030","636dff3392645181d3c238a1","636e01f3c8b4a6f86a30820f","189.2999999821186","","","","39","","","","key","16.665422535211203","640","300.5","true","1","153","19.2","2","-1","-1","","","","","","","","","","","","",""
"psychophysics","136","297349","0.0-12.0-0.7","6169e3ce218baf793744b030","636dff3392645181d3c238a1","636e01f3c8b4a6f86a30820f","604.9000000059605","","","","39","","","","key","16.659531249999418","640","300.5","true","-1","133.8","15.36","3","1","-1","","","","","","","","","","","","",""
"psychophysics","137","298654","0.0-12.0-0.8","6169e3ce218baf793744b030","636dff3392645181d3c238a1","636e01f3c8b4a6f86a30820f","302.80000001192093","","","","39","","","","key","16.660168831169383","640","300.5","true","1","149.16000000000003","15.36","3","-1","1","","","","","","","","","","","","",""
"psychophysics","138","299765","0.0-12.0-0.9","6169e3ce218baf793744b030","636dff3392645181d3c238a1","636e01f3c8b4a6f86a30820f","105.7000000178814","","","","37","","","","key","16.66056060606074","640","300.5","true","-1","149.16000000000003","12.287999999999998","4","-1","-1","","","","","","","","","","","","",""
"psychophysics","139","300912","0.0-12.0-0.10","6169e3ce218baf793744b030","636dff3392645181d3c238a1","636e01f3c8b4a6f86a30820f","139","","","","37","","","","key","16.660132352941538","640","300.5","true","-1","136.872","12.287999999999998","4","-1","-1","","","","","","","","","","","","",""
"psychophysics","140","302010","0.0-12.0-0.11","6169e3ce218baf793744b030","636dff3392645181d3c238a1","636e01f3c8b4a6f86a30820f","86.69999998807907","","","","39","","","","key","16.66575384615437","640","300.5","true","1","136.872","12.287999999999998","4","-1","-1","","","","","","","","","","","","",""
"psychophysics","141","303712","0.0-12.0-0.12","6169e3ce218baf793744b030","636dff3392645181d3c238a1","636e01f3c8b4a6f86a30820f","692.8000000119209","","","","39","","","","key","16.66218811881182","640","300.5","true","-1","129","9.8304","5","1","-1","","","","","","","","","","","","",""
"psychophysics","142","305280","0.0-12.0-0.13","6169e3ce218baf793744b030","636dff3392645181d3c238a1","636e01f3c8b4a6f86a30820f","560.7999999821186","","","","39","","","","key","16.660709677419316","640","300.5","true","1","138.8304","9.8304","5","-1","1","","","","","","","","","","","","",""
"psychophysics","143","306591","0.0-12.0-0.14","6169e3ce218baf793744b030","636dff3392645181d3c238a1","636e01f3c8b4a6f86a30820f","299.7000000178814","","","","39","","","","key","16.65797435897492","640","300.5","true","1","138.8304","7.864319999999999","6","-1","-1","","","","","","","","","","","","",""
"psychophysics","144","308296","0.0-12.0-0.15","6169e3ce218baf793744b030","636dff3392645181d3c238a1","636e01f3c8b4a6f86a30820f","691.0999999940395","","","","37","","","","key","16.661910891089136","640","300.5","true","-1","130.96608","7.864319999999999","6","-1","-1","","","","","","","","","","","","",""
"psychophysics","145","312637","0.0-12.0-0.16","6169e3ce218baf793744b030","636dff3392645181d3c238a1","636e01f3c8b4a6f86a30820f","3330.800000011921","","","","37","","","","key","16.66003088803079","640","300.5","true","1","130.96608","6.291456","7","1","-1","","","","","","","","","","","","",""
"psychophysics","146","316308","0.0-12.0-0.17","6169e3ce218baf793744b030","636dff3392645181d3c238a1","636e01f3c8b4a6f86a30820f","2669","","","","39","","","","key","16.660322727272764","640","300.5","true","1","137.25753600000002","6.291456","7","-1","1","","","","","","","","","","","","",""
"psychophysics","147","317709","0.0-12.0-0.18","6169e3ce218baf793744b030","636dff3392645181d3c238a1","636e01f3c8b4a6f86a30820f","397.80000001192093","","","","39","","","","key","16.65963855421687","640","300.5","true","1","137.25753600000002","5.033164800000001","8","-1","-1","","","","","","","","","","","","",""
"psychophysics","148","318996","0.0-12.0-0.19","6169e3ce218baf793744b030","636dff3392645181d3c238a1","636e01f3c8b4a6f86a30820f","277.90000000596046","","","","39","","","","key","16.659921052631322","640","300.5","true","-1","132.2243712","4.0265318400000005","9","1","-1","","","","","","","","","","","","",""
"psychophysics","149","320053","0.0-12.0-0.20","6169e3ce218baf793744b030","636dff3392645181d3c238a1","636e01f3c8b4a6f86a30820f","54.5","","","","37","","","","key","16.66090476190457","640","300.5","true","-1","136.25090304","4.0265318400000005","9","-1","1","","","","","","","","","","","","",""
"psychophysics","150","321366","0.0-12.0-0.21","6169e3ce218baf793744b030","636dff3392645181d3c238a1","636e01f3c8b4a6f86a30820f","305.09999999403954","","","","39","","","","key","16.662597402596887","640","300.5","true","-1","136.25090304","3.2212254720000004","10","1","-1","","","","","","","","","","","","",""
"psychophysics","151","322381","0.0-12.0-0.22","6169e3ce218baf793744b030","636dff3392645181d3c238a1","636e01f3c8b4a6f86a30820f","12.299999982118607","","","","39","","","","key","16.665233333334132","640","300.5","true","1","139.47212851199998","3.2212254720000004","10","-1","1","","","","","","","","","","","","",""
"psychophysics","152","324329","0.0-12.0-0.23","6169e3ce218baf793744b030","636dff3392645181d3c238a1","636e01f3c8b4a6f86a30820f","944.4000000059605","","","","39","","","","key","16.661499999999972","640","300.5","true","1","139.47212851199998","2.5769803776000004","11","-1","-1","","","","","","","","","","","","",""
"psychophysics","153","325368","0.0-12.0-0.24","6169e3ce218baf793744b030","636dff3392645181d3c238a1","636e01f3c8b4a6f86a30820f","33.19999998807907","","","","39","","","","key","16.658258064515746","640","300.5","true","1","136.8951481344","2.5769803776000004","11","-1","-1","","","","","","","","","","","","",""
"psychophysics","154","327377","0.0-12.0-0.25","6169e3ce218baf793744b030","636dff3392645181d3c238a1","636e01f3c8b4a6f86a30820f","996","","","","39","","","","key","16.66247058823507","640","300.5","true","-1","136.8951481344","2.0615843020800004","12","1","-1","","","","","","","","","","","","",""
"psychophysics","155","328887","0.0-12.0-0.26","6169e3ce218baf793744b030","636dff3392645181d3c238a1","636e01f3c8b4a6f86a30820f","505.09999999403954","","","","39","","","","key","16.662588888889232","640","300.5","true","1","138.95673243648","2.0615843020800004","12","-1","1","","","","","","","","","","","","",""
"psychophysics","156","330529","0.0-12.0-0.27","6169e3ce218baf793744b030","636dff3392645181d3c238a1","636e01f3c8b4a6f86a30820f","629.2000000178814","","","","39","","","","key","16.660938144330242","640","300.5","true","-1","138.95673243648","1.6492674416640005","13","1","-1","","","","","","","","","","","","",""
"psychophysics","157","331804","0.0-12.0-0.28","6169e3ce218baf793744b030","636dff3392645181d3c238a1","636e01f3c8b4a6f86a30820f","272.19999998807907","","","","37","","","","key","16.663381578947575","640","300.5","true","-1","140.605999878144","1.6492674416640005","13","-1","1","","","","","","","","","","","","",""
"psychophysics","158","332839","0.0-12.0-0.29","6169e3ce218baf793744b030","636dff3392645181d3c238a1","636e01f3c8b4a6f86a30820f","28.599999994039536","","","","39","","","","key","16.66188524590164","640","300.5","true","1","140.605999878144","1.3194139533312006","14","-1","-1","","","","","","","","","","","","",""
"psychophysics","159","334117","0.0-12.0-0.30","6169e3ce218baf793744b030","636dff3392645181d3c238a1","636e01f3c8b4a6f86a30820f","270.09999999403954","","","","37","","","","key","16.66297368421051","640","300.5","true","-1","139.28658592481278","1.3194139533312006","14","-1","-1","","","","","","","","","","","","",""
"psychophysics","160","335248","0.0-12.0-0.31","6169e3ce218baf793744b030","636dff3392645181d3c238a1","636e01f3c8b4a6f86a30820f","119","","","","37","","","","key","16.660074626865324","640","300.5","true","-1","139.28658592481278","1.3194139533312006","14","-1","-1","","","","","","","","","","","","",""
"psychophysics","161","336354","0.0-12.0-0.32","6169e3ce218baf793744b030","636dff3392645181d3c238a1","636e01f3c8b4a6f86a30820f","92.69999998807907","","","","39","","","","key","16.6650461538462","640","300.5","true","1","137.96717197148158","1.3194139533312006","14","-1","-1","","","","","","","","","","","","",""
"psychophysics","162","337835","0.0-12.0-0.33","6169e3ce218baf793744b030","636dff3392645181d3c238a1","636e01f3c8b4a6f86a30820f","471.7999999821186","","","","39","","","","key","16.659022727272795","640","300.5","true","1","137.96717197148158","1.3194139533312006","14","-1","-1","","","","","","","","","","","","",""
"psychophysics","163","338972","0.0-12.0-0.34","6169e3ce218baf793744b030","636dff3392645181d3c238a1","636e01f3c8b4a6f86a30820f","127.30000001192093","","","","37","","","","key","16.664985074626923","640","300.5","true","-1","136.64775801815037","1.3194139533312006","14","-1","-1","","","","","","","","","","","","",""
"psychophysics","164","340718","0.0-12.0-0.35","6169e3ce218baf793744b030","636dff3392645181d3c238a1","636e01f3c8b4a6f86a30820f","738.9000000059605","","","","39","","","","key","16.660865384615207","640","300.5","true","1","136.64775801815037","1.3194139533312006","14","-1","-1","","","","","","","","","","","","",""
"psychophysics","165","342204","0.0-12.0-0.36","6169e3ce218baf793744b030","636dff3392645181d3c238a1","636e01f3c8b4a6f86a30820f","475.5","","","","37","","","","key","16.659499999999586","640","300.5","true","-1","135.32834406481916","1.3194139533312006","14","-1","-1","","","","","","","","","","","","",""
"psychophysics","166","343826","0.0-12.0-0.37","6169e3ce218baf793744b030","636dff3392645181d3c238a1","636e01f3c8b4a6f86a30820f","617.5","","","","39","","","","key","16.662312499999945","640","300.5","true","-1","135.32834406481916","1.0555311626649604","15","1","-1","","","","","","","","","","","","",""
"psychophysics","167","345223","0.0-12.0-0.38","6169e3ce218baf793744b030","636dff3392645181d3c238a1","636e01f3c8b4a6f86a30820f","395.69999998807907","","","","39","","","","key","16.662795180722746","640","300.5","true","1","136.3838752274841","1.0555311626649604","15","-1","1","","","","","","","","","","","","",""
"psychophysics","168","346986","0.0-12.0-0.39","6169e3ce218baf793744b030","636dff3392645181d3c238a1","636e01f3c8b4a6f86a30820f","759.4000000059605","","","","37","","","","key","16.661523809523455","640","300.5","true","-1","136.3838752274841","1","16","-1","-1","","","","","","","","","","","","",""
"html-keyboard-response","169","348397","0.0-13.0","6169e3ce218baf793744b030","636dff3392645181d3c238a1","636e01f3c8b4a6f86a30820f","1409.5999999940395","<p>Well Done !</p><p>Prepare for a new block.</p><p>DON'T EXIT THE FULL SCREEN MODE</p><p>Press the Spacebar to start.</p>","","","32","","","","","","","","","","","","","","","true","137.81653887847628","","","","","","","","","","",""
"html-keyboard-response","170","348509","0.0-14.0","6169e3ce218baf793744b030","636dff3392645181d3c238a1","636e01f3c8b4a6f86a30820f","null","","","","null","","","","","","","","","","","","","","","","","136.00887857496065","true","144.0177571499213","","","","","","","",""
"instructions","171","374157","0.0-15.0","6169e3ce218baf793744b030","636dff3392645181d3c238a1","636e01f3c8b4a6f86a30820f","25642.09999999404","","","","","","","[{""page_index"":0,""viewing_time"":17051.5},{""page_index"":1,""viewing_time"":3314.0999999940395},{""page_index"":2,""viewing_time"":5275.799999982119}]","","","","","","","","","","","","","","","","","","","","","","","",""
"psychophysics","172","377172","0.0-16.0-0.0","6169e3ce218baf793744b030","636dff3392645181d3c238a1","636e01f3c8b4a6f86a30820f","null","","","","null","","","","key","16.922199999999915","640","300.5","","","","","","","","","","","","","","","","","","","",""
"psychophysics","173","377688","0.0-16.0-1.0","6169e3ce218baf793744b030","636dff3392645181d3c238a1","636e01f3c8b4a6f86a30820f","null","","","","null","","","","key","16.661833333332712","640","300.5","","","","","","","","","","","","","144","1","6","false","","","",""
"psychophysics","174","379661","0.0-16.0-2.0","6169e3ce218baf793744b030","636dff3392645181d3c238a1","636e01f3c8b4a6f86a30820f","1971.0999999940395","","","","77","","","","key","16.6602393162395","640","300.5","","","","","","","","","","","","","","","","","","","",""
"psychophysics","175","380668","0.0-16.0-0.1","6169e3ce218baf793744b030","636dff3392645181d3c238a1","636e01f3c8b4a6f86a30820f","null","","","","null","","","","key","16.664101694914773","640","300.5","","","","","","","","","","","","","","","","","","","",""
"psychophysics","176","381171","0.0-16.0-1.1","6169e3ce218baf793744b030","636dff3392645181d3c238a1","636e01f3c8b4a6f86a30820f","null","","","","null","","","","key","16.671866666665302","640","300.5","","","","","","","","","","","","","144","-1","2","false","","","",""
"psychophysics","177","381959","0.0-16.0-2.1","6169e3ce218baf793744b030","636dff3392645181d3c238a1","636e01f3c8b4a6f86a30820f","786.3000000119209","","","","90","","","","key","16.663543478260575","640","300.5","","","","","","","","","","","","","","","","","","","",""
"psychophysics","178","382964","0.0-16.0-0.2","6169e3ce218baf793744b030","636dff3392645181d3c238a1","636e01f3c8b4a6f86a30820f","null","","","","null","","","","key","16.662677966101665","640","300.5","","","","","","","","","","","","","","","","","","","",""
"psychophysics","179","383469","0.0-16.0-1.2","6169e3ce218baf793744b030","636dff3392645181d3c238a1","636e01f3c8b4a6f86a30820f","null","","","","null","","","","key","16.65889999999975","640","300.5","","","","","","","","","","","","","144","-1","4","false","","","",""
"psychophysics","180","384031","0.0-16.0-2.2","6169e3ce218baf793744b030","636dff3392645181d3c238a1","636e01f3c8b4a6f86a30820f","560.6000000238419","","","","90","","","","key","16.66040624999914","640","300.5","","","","","","","","","","","","","","","","","","","",""
"psychophysics","181","385035","0.0-16.0-0.3","6169e3ce218baf793744b030","636dff3392645181d3c238a1","636e01f3c8b4a6f86a30820f","null","","","","null","","","","key","16.662533333332977","640","300.5","","","","","","","","","","","","","","","","","","","",""
"psychophysics","182","385537","0.0-16.0-1.3","6169e3ce218baf793744b030","636dff3392645181d3c238a1","636e01f3c8b4a6f86a30820f","null","","","","null","","","","key","16.658655172412622","640","300.5","","","","","","","","","","","","","144","-1","0","false","","","",""
"psychophysics","183","386206","0.0-16.0-2.3","6169e3ce218baf793744b030","636dff3392645181d3c238a1","636e01f3c8b4a6f86a30820f","666.8000000119209","","","","90","","","","key","16.661333333332248","640","300.5","","","","","","","","","","","","","","","","","","","",""
"psychophysics","184","387213","0.0-16.0-0.4","6169e3ce218baf793744b030","636dff3392645181d3c238a1","636e01f3c8b4a6f86a30820f","null","","","","null","","","","key","16.662627118643595","640","300.5","","","","","","","","","","","","","","","","","","","",""
"psychophysics","185","387716","0.0-16.0-1.4","6169e3ce218baf793744b030","636dff3392645181d3c238a1","636e01f3c8b4a6f86a30820f","null","","","","null","","","","key","16.65796551724157","640","300.5","","","","","","","","","","","","","144","-1","6","false","","","",""
"psychophysics","186","388439","0.0-16.0-2.4","6169e3ce218baf793744b030","636dff3392645181d3c238a1","636e01f3c8b4a6f86a30820f","720.5","","","","77","","","","key","16.667534883721558","640","300.5","","","","","","","","","","","","","","","","","","","",""
"psychophysics","187","389449","0.0-16.0-0.5","6169e3ce218baf793744b030","636dff3392645181d3c238a1","636e01f3c8b4a6f86a30820f","null","","","","null","","","","key","16.66511864406826","640","300.5","","","","","","","","","","","","","","","","","","","",""
"psychophysics","188","389951","0.0-16.0-1.5","6169e3ce218baf793744b030","636dff3392645181d3c238a1","636e01f3c8b4a6f86a30820f","null","","","","null","","","","key","16.660566666666032","640","300.5","","","","","","","","","","","","","144","-1","5","false","","","",""
"psychophysics","189","390495","0.0-16.0-2.5","6169e3ce218baf793744b030","636dff3392645181d3c238a1","636e01f3c8b4a6f86a30820f","542.0999999940395","","","","90","","","","key","16.662709677419176","640","300.5","","","","","","","","","","","","","","","","","","","",""
"psychophysics","190","391499","0.0-16.0-0.6","6169e3ce218baf793744b030","636dff3392645181d3c238a1","636e01f3c8b4a6f86a30820f","null","","","","null","","","","key","16.66076271186417","640","300.5","","","","","","","","","","","","","","","","","","","",""
"psychophysics","191","392000","0.0-16.0-1.6","6169e3ce218baf793744b030","636dff3392645181d3c238a1","636e01f3c8b4a6f86a30820f","null","","","","null","","","","key","16.660966666665626","640","300.5","","","","","","","","","","","","","144","1","2","false","","","",""
"psychophysics","192","392659","0.0-16.0-2.6","6169e3ce218baf793744b030","636dff3392645181d3c238a1","636e01f3c8b4a6f86a30820f","656.4000000059605","","","","90","","","","key","16.657842105263722","640","300.5","","","","","","","","","","","","","","","","","","","",""
"psychophysics","193","393666","0.0-16.0-0.7","6169e3ce218baf793744b030","636dff3392645181d3c238a1","636e01f3c8b4a6f86a30820f","null","","","","null","","","","key","16.661899999999637","640","300.5","","","","","","","","","","","","","","","","","","","",""
"psychophysics","194","394167","0.0-16.0-1.7","6169e3ce218baf793744b030","636dff3392645181d3c238a1","636e01f3c8b4a6f86a30820f","null","","","","null","","","","key","16.666965517241525","640","300.5","","","","","","","","","","","","","144","1","5","false","","","",""
"psychophysics","195","394962","0.0-16.0-2.7","6169e3ce218baf793744b030","636dff3392645181d3c238a1","636e01f3c8b4a6f86a30820f","792.1999999880791","","","","90","","","","key","16.656739130433973","640","300.5","","","","","","","","","","","","","","","","","","","",""
"psychophysics","196","395965","0.0-16.0-0.8","6169e3ce218baf793744b030","636dff3392645181d3c238a1","636e01f3c8b4a6f86a30820f","null","","","","null","","","","key","16.666866666666465","640","300.5","","","","","","","","","","","","","","","","","","","",""
"psychophysics","197","396466","0.0-16.0-1.8","6169e3ce218baf793744b030","636dff3392645181d3c238a1","636e01f3c8b4a6f86a30820f","null","","","","null","","","","key","16.660620689655026","640","300.5","","","","","","","","","","","","","144","-1","3","false","","","",""
"psychophysics","198","396973","0.0-16.0-2.8","6169e3ce218baf793744b030","636dff3392645181d3c238a1","636e01f3c8b4a6f86a30820f","504.09999999403954","","","","90","","","","key","16.66044827586377","640","300.5","","","","","","","","","","","","","","","","","","","",""
"psychophysics","199","397981","0.0-16.0-0.9","6169e3ce218baf793744b030","636dff3392645181d3c238a1","636e01f3c8b4a6f86a30820f","null","","","","null","","","","key","16.66131666666673","640","300.5","","","","","","","","","","","","","","","","","","","",""
"psychophysics","200","398489","0.0-16.0-1.9","6169e3ce218baf793744b030","636dff3392645181d3c238a1","636e01f3c8b4a6f86a30820f","null","","","","null","","","","key","16.663758620690025","640","300.5","","","","","","","","","","","","","144","1","4","false","","","",""
"psychophysics","201","398958","0.0-16.0-2.9","6169e3ce218baf793744b030","636dff3392645181d3c238a1","636e01f3c8b4a6f86a30820f","467.2999999821186","","","","77","","","","key","16.656777777778053","640","300.5","","","","","","","","","","","","","","","","","","","",""
"psychophysics","202","399963","0.0-16.0-0.10","6169e3ce218baf793744b030","636dff3392645181d3c238a1","636e01f3c8b4a6f86a30820f","null","","","","null","","","","key","16.663559322034292","640","300.5","","","","","","","","","","","","","","","","","","","",""
"psychophysics","203","400464","0.0-16.0-1.10","6169e3ce218baf793744b030","636dff3392645181d3c238a1","636e01f3c8b4a6f86a30820f","null","","","","null","","","","key","16.662366666666156","640","300.5","","","","","","","","","","","","","144","1","3","false","","","",""
"psychophysics","204","401230","0.0-16.0-2.10","6169e3ce218baf793744b030","636dff3392645181d3c238a1","636e01f3c8b4a6f86a30820f","763.3999999761581","","","","90","","","","key","16.657000000000053","640","300.5","","","","","","","","","","","","","","","","","","","",""
"psychophysics","205","402241","0.0-16.0-0.11","6169e3ce218baf793744b030","636dff3392645181d3c238a1","636e01f3c8b4a6f86a30820f","null","","","","null","","","","key","16.663779661016957","640","300.5","","","","","","","","","","","","","","","","","","","",""
"psychophysics","206","402746","0.0-16.0-1.11","6169e3ce218baf793744b030","636dff3392645181d3c238a1","636e01f3c8b4a6f86a30820f","null","","","","null","","","","key","16.659900000000682","640","300.5","","","","","","","","","","","","","144","1","0","false","","","",""
"psychophysics","207","403238","0.0-16.0-2.11","6169e3ce218baf793744b030","636dff3392645181d3c238a1","636e01f3c8b4a6f86a30820f","490.2999999821186","","","","77","","","","key","16.657464285713754","640","300.5","","","","","","","","","","","","","","","","","","","",""
"psychophysics","208","404245","0.0-16.0-0.12","6169e3ce218baf793744b030","636dff3392645181d3c238a1","636e01f3c8b4a6f86a30820f","null","","","","null","","","","key","16.6615254237283","640","300.5","","","","","","","","","","","","","","","","","","","",""
"psychophysics","209","404746","0.0-16.0-1.12","6169e3ce218baf793744b030","636dff3392645181d3c238a1","636e01f3c8b4a6f86a30820f","null","","","","null","","","","key","16.65826666666544","640","300.5","","","","","","","","","","","","","144","-1","4","false","","","",""
"psychophysics","210","405312","0.0-16.0-2.12","6169e3ce218baf793744b030","636dff3392645181d3c238a1","636e01f3c8b4a6f86a30820f","563.7000000178814","","","","90","","","","key","16.663484848485414","640","300.5","","","","","","","","","","","","","","","","","","","",""
"psychophysics","211","406315","0.0-16.0-0.13","6169e3ce218baf793744b030","636dff3392645181d3c238a1","636e01f3c8b4a6f86a30820f","null","","","","null","","","","key","16.661000000000183","640","300.5","","","","","","","","","","","","","","","","","","","",""
"psychophysics","212","406827","0.0-16.0-1.13","6169e3ce218baf793744b030","636dff3392645181d3c238a1","636e01f3c8b4a6f86a30820f","null","","","","null","","","","key","16.66096551723955","640","300.5","","","","","","","","","","","","","144","1","0","false","","","",""
"psychophysics","213","407335","0.0-16.0-2.13","6169e3ce218baf793744b030","636dff3392645181d3c238a1","636e01f3c8b4a6f86a30820f","505.80000001192093","","","","90","","","","key","16.657666666666046","640","300.5","","","","","","","","","","","","","","","","","","","",""
"psychophysics","214","408344","0.0-16.0-0.14","6169e3ce218baf793744b030","636dff3392645181d3c238a1","636e01f3c8b4a6f86a30820f","null","","","","null","","","","key","16.662916666666085","640","300.5","","","","","","","","","","","","","","","","","","","",""
"psychophysics","215","408856","0.0-16.0-1.14","6169e3ce218baf793744b030","636dff3392645181d3c238a1","636e01f3c8b4a6f86a30820f","null","","","","null","","","","key","16.652344827586383","640","300.5","","","","","","","","","","","","","144","1","2","false","","","",""
"psychophysics","216","409345","0.0-16.0-2.14","6169e3ce218baf793744b030","636dff3392645181d3c238a1","636e01f3c8b4a6f86a30820f","488.30000001192093","","","","90","","","","key","16.660999999999806","640","300.5","","","","","","","","","","","","","","","","","","","",""
"psychophysics","217","410360","0.0-16.0-0.15","6169e3ce218baf793744b030","636dff3392645181d3c238a1","636e01f3c8b4a6f86a30820f","null","","","","null","","","","key","16.661216666666828","640","300.5","","","","","","","","","","","","","","","","","","","",""
"psychophysics","218","410861","0.0-16.0-1.15","6169e3ce218baf793744b030","636dff3392645181d3c238a1","636e01f3c8b4a6f86a30820f","null","","","","null","","","","key","16.656793103448983","640","300.5","","","","","","","","","","","","","144","-1","2","false","","","",""
"psychophysics","219","411361","0.0-16.0-2.15","6169e3ce218baf793744b030","636dff3392645181d3c238a1","636e01f3c8b4a6f86a30820f","496.80000001192093","","","","90","","","","key","16.668655172413906","640","300.5","","","","","","","","","","","","","","","","","","","",""
"psychophysics","220","412365","0.0-16.0-0.16","6169e3ce218baf793744b030","636dff3392645181d3c238a1","636e01f3c8b4a6f86a30820f","null","","","","null","","","","key","16.657847457626534","640","300.5","","","","","","","","","","","","","","","","","","","",""
"psychophysics","221","412870","0.0-16.0-1.16","6169e3ce218baf793744b030","636dff3392645181d3c238a1","636e01f3c8b4a6f86a30820f","null","","","","null","","","","key","16.66517241379238","640","300.5","","","","","","","","","","","","","144","1","5","false","","","",""
"psychophysics","222","413254","0.0-16.0-2.16","6169e3ce218baf793744b030","636dff3392645181d3c238a1","636e01f3c8b4a6f86a30820f","384.30000001192093","","","","77","","","","key","16.659318181818392","640","300.5","","","","","","","","","","","","","","","","","","","",""
"psychophysics","223","414257","0.0-16.0-0.17","6169e3ce218baf793744b030","636dff3392645181d3c238a1","636e01f3c8b4a6f86a30820f","null","","","","null","","","","key","16.661616666667395","640","300.5","","","","","","","","","","","","","","","","","","","",""
"psychophysics","224","414764","0.0-16.0-1.17","6169e3ce218baf793744b030","636dff3392645181d3c238a1","636e01f3c8b4a6f86a30820f","null","","","","null","","","","key","16.660620689655026","640","300.5","","","","","","","","","","","","","144","1","6","false","","","",""
"psychophysics","225","415180","0.0-16.0-2.17","6169e3ce218baf793744b030","636dff3392645181d3c238a1","636e01f3c8b4a6f86a30820f","414.09999999403954","","","","77","","","","key","16.66141666666469","640","300.5","","","","","","","","","","","","","","","","","","","",""
"psychophysics","226","416187","0.0-16.0-0.18","6169e3ce218baf793744b030","636dff3392645181d3c238a1","636e01f3c8b4a6f86a30820f","null","","","","null","","","","key","16.656474576271496","640","300.5","","","","","","","","","","","","","","","","","","","",""
"psychophysics","227","416689","0.0-16.0-1.18","6169e3ce218baf793744b030","636dff3392645181d3c238a1","636e01f3c8b4a6f86a30820f","null","","","","null","","","","key","16.666466666666867","640","300.5","","","","","","","","","","","","","144","-1","0","false","","","",""
"psychophysics","228","417096","0.0-16.0-2.18","6169e3ce218baf793744b030","636dff3392645181d3c238a1","636e01f3c8b4a6f86a30820f","405.09999999403954","","","","90","","","","key","16.66134782608487","640","300.5","","","","","","","","","","","","","","","","","","","",""
"psychophysics","229","418105","0.0-16.0-0.19","6169e3ce218baf793744b030","636dff3392645181d3c238a1","636e01f3c8b4a6f86a30820f","null","","","","null","","","","key","16.660083333333993","640","300.5","","","","","","","","","","","","","","","","","","","",""
"psychophysics","230","418612","0.0-16.0-1.19","6169e3ce218baf793744b030","636dff3392645181d3c238a1","636e01f3c8b4a6f86a30820f","null","","","","null","","","","key","16.66068965517153","640","300.5","","","","","","","","","","","","","144","1","4","false","","","",""
"psychophysics","231","419011","0.0-16.0-2.19","6169e3ce218baf793744b030","636dff3392645181d3c238a1","636e01f3c8b4a6f86a30820f","397.40000000596046","","","","77","","","","key","16.657956521740466","640","300.5","","","","","","","","","","","","","","","","","","","",""
"psychophysics","232","420017","0.0-16.0-0.20","6169e3ce218baf793744b030","636dff3392645181d3c238a1","636e01f3c8b4a6f86a30820f","null","","","","null","","","","key","16.661220338982847","640","300.5","","","","","","","","","","","","","","","","","","","",""
"psychophysics","233","420521","0.0-16.0-1.20","6169e3ce218baf793744b030","636dff3392645181d3c238a1","636e01f3c8b4a6f86a30820f","null","","","","null","","","","key","16.66846666666679","640","300.5","","","","","","","","","","","","","144","-1","3","false","","","",""
"psychophysics","234","420930","0.0-16.0-2.20","6169e3ce218baf793744b030","636dff3392645181d3c238a1","636e01f3c8b4a6f86a30820f","407.69999998807907","","","","90","","","","key","16.660217391304247","640","300.5","","","","","","","","","","","","","","","","","","","",""
"psychophysics","235","421937","0.0-16.0-0.21","6169e3ce218baf793744b030","636dff3392645181d3c238a1","636e01f3c8b4a6f86a30820f","null","","","","null","","","","key","16.659266666666372","640","300.5","","","","","","","","","","","","","","","","","","","",""
"psychophysics","236","422439","0.0-16.0-1.21","6169e3ce218baf793744b030","636dff3392645181d3c238a1","636e01f3c8b4a6f86a30820f","null","","","","null","","","","key","16.665310344827393","640","300.5","","","","","","","","","","","","","144","1","3","false","","","",""
"psychophysics","237","423054","0.0-16.0-2.21","6169e3ce218baf793744b030","636dff3392645181d3c238a1","636e01f3c8b4a6f86a30820f","612.5999999940395","","","","90","","","","key","16.66522222222314","640","300.5","","","","","","","","","","","","","","","","","","","",""
"psychophysics","238","424058","0.0-16.0-0.22","6169e3ce218baf793744b030","636dff3392645181d3c238a1","636e01f3c8b4a6f86a30820f","null","","","","null","","","","key","16.661423728814135","640","300.5","","","","","","","","","","","","","","","","","","","",""
"psychophysics","239","424565","0.0-16.0-1.22","6169e3ce218baf793744b030","636dff3392645181d3c238a1","636e01f3c8b4a6f86a30820f","null","","","","null","","","","key","16.650586206895493","640","300.5","","","","","","","","","","","","","144","-1","6","false","","","",""
"psychophysics","240","425346","0.0-16.0-2.22","6169e3ce218baf793744b030","636dff3392645181d3c238a1","636e01f3c8b4a6f86a30820f","778.7999999821186","","","","77","","","","key","16.660586956521477","640","300.5","","","","","","","","","","","","","","","","","","","",""
"psychophysics","241","426352","0.0-16.0-0.23","6169e3ce218baf793744b030","636dff3392645181d3c238a1","636e01f3c8b4a6f86a30820f","null","","","","null","","","","key","16.660389830508286","640","300.5","","","","","","","","","","","","","","","","","","","",""
"psychophysics","242","426854","0.0-16.0-1.23","6169e3ce218baf793744b030","636dff3392645181d3c238a1","636e01f3c8b4a6f86a30820f","null","","","","null","","","","key","16.659866666665767","640","300.5","","","","","","","","","","","","","144","-1","5","false","","","",""
"psychophysics","243","427198","0.0-16.0-2.23","6169e3ce218baf793744b030","636dff3392645181d3c238a1","636e01f3c8b4a6f86a30820f","341.09999999403954","","","","77","","","","key","16.675526315790577","640","300.5","","","","","","","","","","","","","","","","","","","",""
"html-keyboard-response","244","428869","0.0-17.0","6169e3ce218baf793744b030","636dff3392645181d3c238a1","636e01f3c8b4a6f86a30820f","1670","<p>Well Done !</p><p>Training Complete. Press the spacebar to start.</p><p>DON'T EXIT THE FULL SCREEN MODE</p>","","","32","","","","","","","","","","","","","","","","","","","","","","","","","","",""
"psychophysics","245","431885","0.0-18.0-0.0","6169e3ce218baf793744b030","636dff3392645181d3c238a1","636e01f3c8b4a6f86a30820f","null","","","","null","","","","key","16.64641666666624","640","300.5","","","","","","","","","","","","","","","","","","","",""
"psychophysics","246","432395","0.0-18.0-1.0","6169e3ce218baf793744b030","636dff3392645181d3c238a1","636e01f3c8b4a6f86a30820f","null","","","","null","","","","key","16.65562068965639","640","300.5","","","","","","","","","","","","","144","-1","2","true","","","",""
"psychophysics","247","433026","0.0-18.0-2.0","6169e3ce218baf793744b030","636dff3392645181d3c238a1","636e01f3c8b4a6f86a30820f","629.8000000119209","","","","90","","","","key","16.66002702702787","640","300.5","","","","","","","","","","","","","","","","","","","",""
"psychophysics","248","434033","0.0-18.0-0.1","6169e3ce218baf793744b030","636dff3392645181d3c238a1","636e01f3c8b4a6f86a30820f","null","","","","null","","","","key","16.662716666666288","640","300.5","","","","","","","","","","","","","","","","","","","",""
"psychophysics","249","434539","0.0-18.0-1.1","6169e3ce218baf793744b030","636dff3392645181d3c238a1","636e01f3c8b4a6f86a30820f","null","","","","null","","","","key","16.657724137931805","640","300.5","","","","","","","","","","","","","144","1","4","true","","","",""
"psychophysics","250","434884","0.0-18.0-2.1","6169e3ce218baf793744b030","636dff3392645181d3c238a1","636e01f3c8b4a6f86a30820f","342.7000000178814","","","","77","","","","key","16.68059999999823","640","300.5","","","","","","","","","","","","","","","","","","","",""
"psychophysics","251","435895","0.0-18.0-0.2","6169e3ce218baf793744b030","636dff3392645181d3c238a1","636e01f3c8b4a6f86a30820f","null","","","","null","","","","key","16.661355932203705","640","300.5","","","","","","","","","","","","","","","","","","","",""
"psychophysics","252","436399","0.0-18.0-1.2","6169e3ce218baf793744b030","636dff3392645181d3c238a1","636e01f3c8b4a6f86a30820f","null","","","","null","","","","key","16.667300000000978","640","300.5","","","","","","","","","","","","","144","-1","6","true","","","",""
"psychophysics","253","436797","0.0-18.0-2.2","6169e3ce218baf793744b030","636dff3392645181d3c238a1","636e01f3c8b4a6f86a30820f","396.5","","","","77","","","","key","16.660363636363233","640","300.5","","","","","","","","","","","","","","","","","","","",""
"psychophysics","254","437798","0.0-18.0-0.3","6169e3ce218baf793744b030","636dff3392645181d3c238a1","636e01f3c8b4a6f86a30820f","null","","","","null","","","","key","16.666666666666668","640","300.5","","","","","","","","","","","","","","","","","","","",""
"psychophysics","255","438300","0.0-18.0-1.3","6169e3ce218baf793744b030","636dff3392645181d3c238a1","636e01f3c8b4a6f86a30820f","null","","","","null","","","","key","16.659793103446958","640","300.5","","","","","","","","","","","","","144","1","6","true","","","",""
"psychophysics","256","438505","0.0-18.0-2.3","6169e3ce218baf793744b030","636dff3392645181d3c238a1","636e01f3c8b4a6f86a30820f","202.40000000596046","","","","77","","","","key","16.65945454545065","640","300.5","","","","","","","","","","","","","","","","","","","",""
"psychophysics","257","439515","0.0-18.0-0.4","6169e3ce218baf793744b030","636dff3392645181d3c238a1","636e01f3c8b4a6f86a30820f","null","","","","null","","","","key","16.659033333333596","640","300.5","","","","","","","","","","","","","","","","","","","",""
"psychophysics","258","440025","0.0-18.0-1.4","6169e3ce218baf793744b030","636dff3392645181d3c238a1","636e01f3c8b4a6f86a30820f","null","","","","null","","","","key","16.661241379309573","640","300.5","","","","","","","","","","","","","144","1","0","true","","","",""
"psychophysics","259","440927","0.0-18.0-2.4","6169e3ce218baf793744b030","636dff3392645181d3c238a1","636e01f3c8b4a6f86a30820f","900.4000000059605","","","","90","","","","key","16.663207547170252","640","300.5","","","","","","","","","","","","","","","","","","","",""
"psychophysics","260","441930","0.0-18.0-0.5","6169e3ce218baf793744b030","636dff3392645181d3c238a1","636e01f3c8b4a6f86a30820f","null","","","","null","","","","key","16.66161016949208","640","300.5","","","","","","","","","","","","","","","","","","","",""
"psychophysics","261","442431","0.0-18.0-1.5","6169e3ce218baf793744b030","636dff3392645181d3c238a1","636e01f3c8b4a6f86a30820f","null","","","","null","","","","key","16.655633333333146","640","300.5","","","","","","","","","","","","","144","-1","5","true","","","",""
"psychophysics","262","442669","0.0-18.0-2.5","6169e3ce218baf793744b030","636dff3392645181d3c238a1","636e01f3c8b4a6f86a30820f","234.40000000596046","","","","77","","","","key","16.68069230769134","640","300.5","","","","","","","","","","","","","","","","","","","",""
"psychophysics","263","443680","0.0-18.0-0.6","6169e3ce218baf793744b030","636dff3392645181d3c238a1","636e01f3c8b4a6f86a30820f","null","","","","null","","","","key","16.660050000000048","640","300.5","","","","","","","","","","","","","","","","","","","",""
"psychophysics","264","444181","0.0-18.0-1.6","6169e3ce218baf793744b030","636dff3392645181d3c238a1","636e01f3c8b4a6f86a30820f","null","","","","null","","","","key","16.666206896551966","640","300.5","","","","","","","","","","","","","144","-1","0","true","","","",""
"psychophysics","265","444595","0.0-18.0-2.6","6169e3ce218baf793744b030","636dff3392645181d3c238a1","636e01f3c8b4a6f86a30820f","410.59999999403954","","","","77","","","","key","16.65413043478443","640","300.5","","","","","","","","","","","","","","","","","","","",""
"psychophysics","266","445596","0.0-18.0-0.7","6169e3ce218baf793744b030","636dff3392645181d3c238a1","636e01f3c8b4a6f86a30820f","null","","","","null","","","","key","16.665933333333427","640","300.5","","","","","","","","","","","","","","","","","","","",""
"psychophysics","267","446097","0.0-18.0-1.7","6169e3ce218baf793744b030","636dff3392645181d3c238a1","636e01f3c8b4a6f86a30820f","null","","","","null","","","","key","16.659275862069173","640","300.5","","","","","","","","","","","","","144","1","2","true","","","",""
"psychophysics","268","446681","0.0-18.0-2.7","6169e3ce218baf793744b030","636dff3392645181d3c238a1","636e01f3c8b4a6f86a30820f","580.4000000059605","","","","77","","","","key","16.660411764706677","640","300.5","","","","","","","","","","","","","","","","","","","",""
"psychophysics","269","447695","0.0-18.0-0.8","6169e3ce218baf793744b030","636dff3392645181d3c238a1","636e01f3c8b4a6f86a30820f","null","","","","null","","","","key","16.66066666666593","640","300.5","","","","","","","","","","","","","","","","","","","",""
"psychophysics","270","448202","0.0-18.0-1.8","6169e3ce218baf793744b030","636dff3392645181d3c238a1","636e01f3c8b4a6f86a30820f","null","","","","null","","","","key","16.649068965516374","640","300.5","","","","","","","","","","","","","144","-1","4","true","","","",""
"psychophysics","271","448687","0.0-18.0-2.8","6169e3ce218baf793744b030","636dff3392645181d3c238a1","636e01f3c8b4a6f86a30820f","484.2000000178814","","","","77","","","","key","16.670571428569797","640","300.5","","","","","","","","","","","","","","","","","","","",""
"psychophysics","272","449695","0.0-18.0-0.9","6169e3ce218baf793744b030","636dff3392645181d3c238a1","636e01f3c8b4a6f86a30820f","null","","","","null","","","","key","16.661000000000545","640","300.5","","","","","","","","","","","","","","","","","","","",""
"psychophysics","273","450202","0.0-18.0-1.9","6169e3ce218baf793744b030","636dff3392645181d3c238a1","636e01f3c8b4a6f86a30820f","null","","","","null","","","","key","16.661413793104845","640","300.5","","","","","","","","","","","","","144","1","3","true","","","",""
"psychophysics","274","450796","0.0-18.0-2.9","6169e3ce218baf793744b030","636dff3392645181d3c238a1","636e01f3c8b4a6f86a30820f","592.1000000238419","","","","90","","","","key","16.660742857144214","640","300.5","","","","","","","","","","","","","","","","","","","",""
"psychophysics","275","451806","0.0-18.0-0.10","6169e3ce218baf793744b030","636dff3392645181d3c238a1","636e01f3c8b4a6f86a30820f","null","","","","null","","","","key","16.66389830508447","640","300.5","","","","","","","","","","","","","","","","","","","",""
"psychophysics","276","452310","0.0-18.0-1.10","6169e3ce218baf793744b030","636dff3392645181d3c238a1","636e01f3c8b4a6f86a30820f","null","","","","null","","","","key","16.655899999998898","640","300.5","","","","","","","","","","","","","144","1","5","true","","","",""
"psychophysics","277","452479","0.0-18.0-2.10","6169e3ce218baf793744b030","636dff3392645181d3c238a1","636e01f3c8b4a6f86a30820f","167","","","","77","","","","key","16.685555555553744","640","300.5","","","","","","","","","","","","","","","","","","","",""
"psychophysics","278","453493","0.0-18.0-0.11","6169e3ce218baf793744b030","636dff3392645181d3c238a1","636e01f3c8b4a6f86a30820f","null","","","","null","","","","key","16.6606666666669","640","300.5","","","","","","","","","","","","","","","","","","","",""
"psychophysics","279","454006","0.0-18.0-1.11","6169e3ce218baf793744b030","636dff3392645181d3c238a1","636e01f3c8b4a6f86a30820f","null","","","","null","","","","key","16.659793103446958","640","300.5","","","","","","","","","","","","","144","-1","3","true","","","",""
"psychophysics","280","454407","0.0-18.0-2.11","6169e3ce218baf793744b030","636dff3392645181d3c238a1","636e01f3c8b4a6f86a30820f","399.69999998807907","","","","90","","","","key","16.664173913044024","640","300.5","","","","","","","","","","","","","","","","","","","",""
"psychophysics","281","455409","0.0-18.0-0.12","6169e3ce218baf793744b030","636dff3392645181d3c238a1","636e01f3c8b4a6f86a30820f","null","","","","null","","","","key","16.665116666666776","640","300.5","","","","","","","","","","","","","","","","","","","",""
"psychophysics","282","455919","0.0-18.0-1.12","6169e3ce218baf793744b030","636dff3392645181d3c238a1","636e01f3c8b4a6f86a30820f","null","","","","null","","","","key","16.660896551725052","640","300.5","","","","","","","","","","","","","144","1","4","true","","","",""
"psychophysics","283","456181","0.0-18.0-2.12","6169e3ce218baf793744b030","636dff3392645181d3c238a1","636e01f3c8b4a6f86a30820f","260.5","","","","77","","","","key","16.663733333333706","640","300.5","","","","","","","","","","","","","","","","","","","",""
"psychophysics","284","457192","0.0-18.0-0.13","6169e3ce218baf793744b030","636dff3392645181d3c238a1","636e01f3c8b4a6f86a30820f","null","","","","null","","","","key","16.661149999999907","640","300.5","","","","","","","","","","","","","","","","","","","",""
"psychophysics","285","457693","0.0-18.0-1.13","6169e3ce218baf793744b030","636dff3392645181d3c238a1","636e01f3c8b4a6f86a30820f","null","","","","null","","","","key","16.660620689655026","640","300.5","","","","","","","","","","","","","144","-1","5","true","","","",""
"psychophysics","286","457881","0.0-18.0-2.13","6169e3ce218baf793744b030","636dff3392645181d3c238a1","636e01f3c8b4a6f86a30820f","179.59999999403954","","","","77","","","","key","16.663899999996648","640","300.5","","","","","","","","","","","","","","","","","","","",""
"psychophysics","287","458891","0.0-18.0-0.14","6169e3ce218baf793744b030","636dff3392645181d3c238a1","636e01f3c8b4a6f86a30820f","null","","","","null","","","","key","16.663366666667084","640","300.5","","","","","","","","","","","","","","","","","","","",""
"psychophysics","288","459393","0.0-18.0-1.14","6169e3ce218baf793744b030","636dff3392645181d3c238a1","636e01f3c8b4a6f86a30820f","null","","","","null","","","","key","16.660482758620017","640","300.5","","","","","","","","","","","","","144","1","3","true","","","",""
"psychophysics","289","459792","0.0-18.0-2.14","6169e3ce218baf793744b030","636dff3392645181d3c238a1","636e01f3c8b4a6f86a30820f","396.80000001192093","","","","90","","","","key","16.660739130434155","640","300.5","","","","","","","","","","","","","","","","","","","",""
"psychophysics","290","460802","0.0-18.0-0.15","6169e3ce218baf793744b030","636dff3392645181d3c238a1","636e01f3c8b4a6f86a30820f","null","","","","null","","","","key","16.662457627118012","640","300.5","","","","","","","","","","","","","","","","","","","",""
"psychophysics","291","461307","0.0-18.0-1.15","6169e3ce218baf793744b030","636dff3392645181d3c238a1","636e01f3c8b4a6f86a30820f","null","","","","null","","","","key","16.6609999999986","640","300.5","","","","","","","","","","","","","144","-1","3","true","","","",""
"psychophysics","292","461705","0.0-18.0-2.15","6169e3ce218baf793744b030","636dff3392645181d3c238a1","636e01f3c8b4a6f86a30820f","395.90000000596046","","","","77","","","","key","16.663363636362853","640","300.5","","","","","","","","","","","","","","","","","","","",""
"psychophysics","293","462707","0.0-18.0-0.16","6169e3ce218baf793744b030","636dff3392645181d3c238a1","636e01f3c8b4a6f86a30820f","null","","","","null","","","","key","16.665100000000287","640","300.5","","","","","","","","","","","","","","","","","","","",""
"psychophysics","294","463211","0.0-18.0-1.16","6169e3ce218baf793744b030","636dff3392645181d3c238a1","636e01f3c8b4a6f86a30820f","null","","","","null","","","","key","16.661137931032812","640","300.5","","","","","","","","","","","","","144","-1","0","true","","","",""
"psychophysics","295","464118","0.0-18.0-2.16","6169e3ce218baf793744b030","636dff3392645181d3c238a1","636e01f3c8b4a6f86a30820f","904.7000000178814","","","","90","","","","key","16.661849056603387","640","300.5","","","","","","","","","","","","","","","","","","","",""
"psychophysics","296","465123","0.0-18.0-0.17","6169e3ce218baf793744b030","636dff3392645181d3c238a1","636e01f3c8b4a6f86a30820f","null","","","","null","","","","key","16.66313333333334","640","300.5","","","","","","","","","","","","","","","","","","","",""
"psychophysics","297","465631","0.0-18.0-1.17","6169e3ce218baf793744b030","636dff3392645181d3c238a1","636e01f3c8b4a6f86a30820f","null","","","","null","","","","key","16.660965517241557","640","300.5","","","","","","","","","","","","","144","1","2","true","","","",""
"psychophysics","298","466095","0.0-18.0-2.17","6169e3ce218baf793744b030","636dff3392645181d3c238a1","636e01f3c8b4a6f86a30820f","462.09999999403954","","","","77","","","","key","16.656962962963412","640","300.5","","","","","","","","","","","","","","","","","","","",""
"psychophysics","299","467101","0.0-18.0-0.18","6169e3ce218baf793744b030","636dff3392645181d3c238a1","636e01f3c8b4a6f86a30820f","null","","","","null","","","","key","16.662033898305044","640","300.5","","","","","","","","","","","","","","","","","","","",""
"psychophysics","300","467605","0.0-18.0-1.18","6169e3ce218baf793744b030","636dff3392645181d3c238a1","636e01f3c8b4a6f86a30820f","null","","","","null","","","","key","16.66866666666659","640","300.5","","","","","","","","","","","","","144","-1","2","true","","","",""
"psychophysics","301","467944","0.0-18.0-2.18","6169e3ce218baf793744b030","636dff3392645181d3c238a1","636e01f3c8b4a6f86a30820f","337.09999999403954","","","","90","","","","key","16.66436842105376","640","300.5","","","","","","","","","","","","","","","","","","","",""
"psychophysics","302","468949","0.0-18.0-0.19","6169e3ce218baf793744b030","636dff3392645181d3c238a1","636e01f3c8b4a6f86a30820f","null","","","","null","","","","key","16.660186440677982","640","300.5","","","","","","","","","","","","","","","","","","","",""
"psychophysics","303","469454","0.0-18.0-1.19","6169e3ce218baf793744b030","636dff3392645181d3c238a1","636e01f3c8b4a6f86a30820f","null","","","","null","","","","key","16.65790000000076","640","300.5","","","","","","","","","","","","","144","1","6","true","","","",""
"psychophysics","304","469637","0.0-18.0-2.19","6169e3ce218baf793744b030","636dff3392645181d3c238a1","636e01f3c8b4a6f86a30820f","181.19999998807907","","","","77","","","","key","16.67922222222357","640","300.5","","","","","","","","","","","","","","","","","","","",""
"psychophysics","305","470638","0.0-18.0-0.20","6169e3ce218baf793744b030","636dff3392645181d3c238a1","636e01f3c8b4a6f86a30820f","null","","","","null","","","","key","16.664466666666947","640","300.5","","","","","","","","","","","","","","","","","","","",""
"psychophysics","306","471149","0.0-18.0-1.20","6169e3ce218baf793744b030","636dff3392645181d3c238a1","636e01f3c8b4a6f86a30820f","null","","","","null","","","","key","16.649172413793135","640","300.5","","","","","","","","","","","","","144","-1","6","true","","","",""
"psychophysics","307","471618","0.0-18.0-2.20","6169e3ce218baf793744b030","636dff3392645181d3c238a1","636e01f3c8b4a6f86a30820f","467.69999998807907","","","","77","","","","key","16.669666666666874","640","300.5","","","","","","","","","","","","","","","","","","","",""
"psychophysics","308","472620","0.0-18.0-0.21","6169e3ce218baf793744b030","636dff3392645181d3c238a1","636e01f3c8b4a6f86a30820f","null","","","","null","","","","key","16.66359999999986","640","300.5","","","","","","","","","","","","","","","","","","","",""
"psychophysics","309","473136","0.0-18.0-1.21","6169e3ce218baf793744b030","636dff3392645181d3c238a1","636e01f3c8b4a6f86a30820f","null","","","","null","","","","key","16.662199999999334","640","300.5","","","","","","","","","","","","","144","1","5","true","","","",""
"psychophysics","310","473459","0.0-18.0-2.21","6169e3ce218baf793744b030","636dff3392645181d3c238a1","636e01f3c8b4a6f86a30820f","324.30000001192093","","","","77","","","","key","16.659944444445298","640","300.5","","","","","","","","","","","","","","","","","","","",""
"psychophysics","311","474465","0.0-18.0-0.22","6169e3ce218baf793744b030","636dff3392645181d3c238a1","636e01f3c8b4a6f86a30820f","null","","","","null","","","","key","16.661220338982847","640","300.5","","","","","","","","","","","","","","","","","","","",""
"psychophysics","312","474967","0.0-18.0-1.22","6169e3ce218baf793744b030","636dff3392645181d3c238a1","636e01f3c8b4a6f86a30820f","null","","","","null","","","","key","16.660600000000947","640","300.5","","","","","","","","","","","","","144","1","0","true","","","",""
"psychophysics","313","475076","0.0-18.0-2.22","6169e3ce218baf793744b030","636dff3392645181d3c238a1","636e01f3c8b4a6f86a30820f","107.5","","","","77","","","","key","16.668799999996555","640","300.5","","","","","","","","","","","","","","","","","","","",""
"psychophysics","314","476084","0.0-18.0-0.23","6169e3ce218baf793744b030","636dff3392645181d3c238a1","636e01f3c8b4a6f86a30820f","null","","","","null","","","","key","16.66738333333342","640","300.5","","","","","","","","","","","","","","","","","","","",""
"psychophysics","315","476593","0.0-18.0-1.23","6169e3ce218baf793744b030","636dff3392645181d3c238a1","636e01f3c8b4a6f86a30820f","null","","","","null","","","","key","16.651448275861814","640","300.5","","","","","","","","","","","","","144","-1","4","true","","","",""
"psychophysics","316","476743","0.0-18.0-2.23","6169e3ce218baf793744b030","636dff3392645181d3c238a1","636e01f3c8b4a6f86a30820f","148.59999999403954","","","","77","","","","key","16.65987500000483","640","300.5","","","","","","","","","","","","","","","","","","","",""
"psychophysics","317","477748","0.0-18.0-0.24","6169e3ce218baf793744b030","636dff3392645181d3c238a1","636e01f3c8b4a6f86a30820f","null","","","","null","","","","key","16.66303333333247","640","300.5","","","","","","","","","","","","","","","","","","","",""
"psychophysics","318","478259","0.0-18.0-1.24","6169e3ce218baf793744b030","636dff3392645181d3c238a1","636e01f3c8b4a6f86a30820f","null","","","","null","","","","key","16.659379310345937","640","300.5","","","","","","","","","","","","","144","1","4","true","","","",""
"psychophysics","319","479195","0.0-18.0-2.24","6169e3ce218baf793744b030","636dff3392645181d3c238a1","636e01f3c8b4a6f86a30820f","935.1999999880791","","","","77","","","","key","16.66010909090877","640","300.5","","","","","","","","","","","","","","","","","","","",""
"psychophysics","320","480198","0.0-18.0-0.25","6169e3ce218baf793744b030","636dff3392645181d3c238a1","636e01f3c8b4a6f86a30820f","null","","","","null","","","","key","16.666016666666838","640","300.5","","","","","","","","","","","","","","","","","","","",""
"psychophysics","321","480699","0.0-18.0-1.25","6169e3ce218baf793744b030","636dff3392645181d3c238a1","636e01f3c8b4a6f86a30820f","null","","","","null","","","","key","16.660551724138525","640","300.5","","","","","","","","","","","","","144","1","6","true","","","",""
"psychophysics","322","480891","0.0-18.0-2.25","6169e3ce218baf793744b030","636dff3392645181d3c238a1","636e01f3c8b4a6f86a30820f","189.2999999821186","","","","77","","","","key","16.674699999997394","640","300.5","","","","","","","","","","","","","","","","","","","",""
"psychophysics","323","481896","0.0-18.0-0.26","6169e3ce218baf793744b030","636dff3392645181d3c238a1","636e01f3c8b4a6f86a30820f","null","","","","null","","","","key","16.663593220339013","640","300.5","","","","","","","","","","","","","","","","","","","",""
"psychophysics","324","482398","0.0-18.0-1.26","6169e3ce218baf793744b030","636dff3392645181d3c238a1","636e01f3c8b4a6f86a30820f","null","","","","null","","","","key","16.6606666666669","640","300.5","","","","","","","","","","","","","144","-1","6","true","","","",""
"psychophysics","325","482664","0.0-18.0-2.26","6169e3ce218baf793744b030","636dff3392645181d3c238a1","636e01f3c8b4a6f86a30820f","264.19999998807907","","","","77","","","","key","16.67213333333299","640","300.5","","","","","","","","","","","","","","","","","","","",""
"psychophysics","326","483673","0.0-18.0-0.27","6169e3ce218baf793744b030","636dff3392645181d3c238a1","636e01f3c8b4a6f86a30820f","null","","","","null","","","","key","16.662457627119","640","300.5","","","","","","","","","","","","","","","","","","","",""
"psychophysics","327","484180","0.0-18.0-1.27","6169e3ce218baf793744b030","636dff3392645181d3c238a1","636e01f3c8b4a6f86a30820f","null","","","","null","","","","key","16.659700000000885","640","300.5","","","","","","","","","","","","","144","1","0","true","","","",""
"psychophysics","328","484393","0.0-18.0-2.27","6169e3ce218baf793744b030","636dff3392645181d3c238a1","636e01f3c8b4a6f86a30820f","204.59999999403954","","","","77","","","","key","16.661363636360463","640","300.5","","","","","","","","","","","","","","","","","","","",""
"psychophysics","329","485396","0.0-18.0-0.28","6169e3ce218baf793744b030","636dff3392645181d3c238a1","636e01f3c8b4a6f86a30820f","null","","","","null","","","","key","16.66250847457707","640","300.5","","","","","","","","","","","","","","","","","","","",""
"psychophysics","330","485897","0.0-18.0-1.28","6169e3ce218baf793744b030","636dff3392645181d3c238a1","636e01f3c8b4a6f86a30820f","null","","","","null","","","","key","16.663166666665347","640","300.5","","","","","","","","","","","","","144","-1","3","true","","","",""
