"trial_type","trial_index","time_elapsed","internal_node_id","PROLIFIC_PID","STUDY_ID","SESSION_ID","rt","stimulus","button_pressed","success","key_press","responses","isData","view_history","response_type","avg_frame_time","center_x","center_y","isSC","stim_side","trial_luminance","step_size","nReversal","correct","prev_ans","isThreshold","SC_threshold","final_threshold","isLuminance","FF_luminance","luminance","stimSide","ISInt","isFF","question_order","isSPQ","isCAPS","isAQ"
"pavlovia","0","28","0.0-0.0","5da74e9437d4210016492810","637ca5e1af997cace1140107","637cab11fcce50cbf46eeeef","","","","","","","","","","","","","","","","","","","","","","","","","","","","","","","",""
"html-button-response","1","6970","0.0-1.0","5da74e9437d4210016492810","637ca5e1af997cace1140107","637cab11fcce50cbf46eeeef","6933.699999988079","<div style='background-color: white; width:60%; margin: auto; padding: 50px; text-align: justify; text-justify: inter-word; margin-bottom: 20px;'><h1 style='text-align: center;'>Consent Form</h1><p>Please read this consent form carefully before deciding whether you would like to participate in this study. You have to be 18 years old or older to participate to this study.</p><p style='text-decoration: underline;'>Participation is voluntary:</p><p>It is your choice whether or not to participate in this research. If you choose to participate, you may change your mind and leave the study at any time. Refusal to participate or stopping your participation will involve no penalty or loss of benefits to which you are otherwise entitled.</p><p style='text-decoration: underline;'>Purpose of the Study:</p><p>To understand the mechanisms underlying human perception.</p><p style='text-decoration: underline;'>What you will do in this study:</p><p>You will be presented with a series of visual images and then you will press buttons on the keyboard of your computer to respond to simple questions about the images (e.g. Were one or two images presented?). In addition, you will be asked to complete a questionnaire concerning your beliefs and everyday mental and perceptual experiences.'</p><p style='text-decoration: underline;'> Time Required:</p><p>The study will take 40 minutes to complete. </p><p style='text-decoration: underline;'>Risks:</p><p>There are no anticipated risks associated with participating in this study that are beyond those experienced in everyday life. </p><p style='text-decoration: underline;'>Benefits:</p><p>There are no benefits to you in participating in the study. However, this study may lead to a better understanding of how different kinds of visual information are used.</p><p style='text-decoration: underline;'>Compensation:</p><p>You will be paid US$6.6/hour. </p><p style='text-decoration: underline;'>Privacy and Confidentiality:</p><p>Your participation in this study will be anonymous. No personal information about your name or identity will be asked or recorded. This anonymous data will be stored for several years and may be used for a variety of research purposes. The overall results of the study may be published, or the data files may be shared with other researchers, but your identity will not be revealed in any way. The online services we are using for this study may temporarily store your data, but this data will be downloaded and then promptly deleted from those services.Your data will not be permanently associated with your name, IP address, or any other identifiable information (e.g., your information will only be connected to your payment, not to any of your responses), though they may be temporarily stored together before we download and separate them. Even so, no guarantee of internet survey security can be given because, although unlikely, transmissions can be intercepted and IP addresses can be identified. The anonymous data may be shared publicly (for example, in conjunction with a resulting academic publication).</p><p style='text-decoration: underline;'>Participation and Withdrawal:</p><p>Your participation in this study is completely voluntary. You may stop responding to the stimuli or stop answering questions if you so choose and without penalty by exiting the full screen mode, closing this tab of your browser or redirecting it to a different website.</p><p style='text-decoration: underline;'>Contact Info of the Researcher: </p><p>If you have questions about this study, or if you would like to talk to the research team, please contact David Melcher (david.melcher@nyu.edu, md5050@nyu.edu) at the Perception and Active Cognition Laboratory, New York University Abu Dhabi, Computational Research Building, Saadiyat Island, Abu Dhabi, UAE.This research has been reviewed by the New York University Abu Dhabi Institutional Review Board (NYUAD IRB). To contact about your rights in this research, for questions, suggestions, or complaints that are not addressed by the researchers, please email IRBnyuad@nyu.edu, or call the NYUAD IRB at +971 2 628 4313. </p></div>","0","","","","","","","","","","","","","","","","","","","","","","","","","","","","",""
"fullscreen","2","8899","0.0-2.0","5da74e9437d4210016492810","637ca5e1af997cace1140107","637cab11fcce50cbf46eeeef","","","","true","","","","","","","","","","","","","","","","","","","","","","","","","","","",""
"html-keyboard-response","3","15685","0.0-3.0","5da74e9437d4210016492810","637ca5e1af997cace1140107","637cab11fcce50cbf46eeeef","6781.5999999940395","<p>Welcome !</p><p>READ CAREFULLY THE FOLLOWING INDICATIONS:</p><p>From this moment you have ~40 minutes to complete the experiment.</p><p>During the experiment you will be prompted to take several breaks. Each break should not last longer than 2-3 minutes.</p><p>Make sure that your computer is plugged in and it's not running on battery power, even if the battery is already fully charged.</p><p>Turn off your phone and music, make sure that you are in a quiet room and that you will not be distracted for the next hour.</p><p>Failure to comply with the instructions and indications provided during the experiment will most likely result in the rejection of your data.<p>Press the spacebar to start.</p>","","","32","","","","","","","","","","","","","","","","","","","","","","","","","","",""
"survey-html-form","4","28749","0.0-4.0","5da74e9437d4210016492810","637ca5e1af997cace1140107","637cab11fcce50cbf46eeeef","13058.800000011921","","","","","{""age"":""52"",""sex"":""M""}","true","","","","","","","","","","","","","","","","","","","","","","","","",""
"instructions","5","48480","0.0-5.0","5da74e9437d4210016492810","637ca5e1af997cace1140107","637cab11fcce50cbf46eeeef","19728.79999998212","","","","","","","[{""page_index"":0,""viewing_time"":4496.0999999940395},{""page_index"":1,""viewing_time"":11737.90000000596},{""page_index"":2,""viewing_time"":3494}]","","","","","","","","","","","","","","","","","","","","","","","",""
"psychophysics","6","52252","0.0-6.0-0.0","5da74e9437d4210016492810","637ca5e1af997cace1140107","637cab11fcce50cbf46eeeef","2738.4000000059605","","","","39","","","","key","16.755106666666656","650","290","true","1","180","30","0","-1","","","","","","","","","","","","","",""
"psychophysics","7","53970","0.0-6.0-0.1","5da74e9437d4210016492810","637ca5e1af997cace1140107","637cab11fcce50cbf46eeeef","707.5999999940395","","","","37","","","","key","16.840495049504945","650","290","true","-1","180","30","0","-1","-1","","","","","","","","","","","","",""
"psychophysics","8","55858","0.0-6.0-0.2","5da74e9437d4210016492810","637ca5e1af997cace1140107","637cab11fcce50cbf46eeeef","884","","","","39","","","","key","16.675642857142844","650","290","true","1","150","30","0","-1","-1","","","","","","","","","","","","",""
"psychophysics","9","57033","0.0-6.0-0.3","5da74e9437d4210016492810","637ca5e1af997cace1140107","637cab11fcce50cbf46eeeef","171","","","","39","","","","key","16.6756376811594","650","290","true","1","150","30","0","-1","-1","","","","","","","","","","","","",""
"psychophysics","10","60821","0.0-6.0-0.4","5da74e9437d4210016492810","637ca5e1af997cace1140107","637cab11fcce50cbf46eeeef","2785.5999999940395","","","","37","","","","key","16.675643171806133","650","290","true","-1","129","30","0","-1","-1","","","","","","","","","","","","",""
"psychophysics","11","63138","0.0-6.0-0.5","5da74e9437d4210016492810","637ca5e1af997cace1140107","637cab11fcce50cbf46eeeef","1307.5","","","","39","","","","key","16.675550724637752","650","290","true","1","129","30","0","-1","-1","","","","","","","","","","","","",""
"psychophysics","12","65951","0.0-6.0-0.6","5da74e9437d4210016492810","637ca5e1af997cace1140107","637cab11fcce50cbf46eeeef","1808.699999988079","","","","37","","","","key","16.675538922155702","650","290","true","-1","129","30","0","-1","-1","","","","","","","","","","","","",""
"psychophysics","13","67747","0.0-6.0-0.7","5da74e9437d4210016492810","637ca5e1af997cace1140107","637cab11fcce50cbf46eeeef","791.3000000119209","","","","37","","","","key","16.832981132075492","650","290","true","-1","129","30","0","-1","-1","","","","","","","","","","","","",""
"psychophysics","14","69418","0.0-6.0-0.8","5da74e9437d4210016492810","637ca5e1af997cace1140107","637cab11fcce50cbf46eeeef","667.7999999821186","","","","37","","","","key","16.675616161616293","650","290","true","1","129","24","1","1","-1","","","","","","","","","","","","",""
"psychophysics","15","70702","0.0-6.0-0.9","5da74e9437d4210016492810","637ca5e1af997cace1140107","637cab11fcce50cbf46eeeef","280.19999998807907","","","","39","","","","key","16.89786666666662","650","290","true","1","153","24","1","-1","1","","","","","","","","","","","","",""
"psychophysics","16","72048","0.0-6.0-0.10","5da74e9437d4210016492810","637ca5e1af997cace1140107","637cab11fcce50cbf46eeeef","340.5","","","","39","","","","key","16.67554999999993","650","290","true","1","153","19.2","2","-1","-1","","","","","","","","","","","","",""
"psychophysics","17","73648","0.0-6.0-0.11","5da74e9437d4210016492810","637ca5e1af997cace1140107","637cab11fcce50cbf46eeeef","592.0999999940395","","","","37","","","","key","16.85300000000001","650","290","true","-1","133.8","19.2","2","-1","-1","","","","","","","","","","","","",""
"psychophysics","18","75394","0.0-6.0-0.12","5da74e9437d4210016492810","637ca5e1af997cace1140107","637cab11fcce50cbf46eeeef","739.8000000119209","","","","39","","","","key","16.675461538461466","650","290","true","-1","133.8","15.36","3","1","-1","","","","","","","","","","","","",""
"psychophysics","19","76718","0.0-6.0-0.13","5da74e9437d4210016492810","637ca5e1af997cace1140107","637cab11fcce50cbf46eeeef","319.39999997615814","","","","39","","","","key","16.67566666666654","650","290","true","1","149.16000000000003","15.36","3","-1","1","","","","","","","","","","","","",""
"psychophysics","20","77941","0.0-6.0-0.14","5da74e9437d4210016492810","637ca5e1af997cace1140107","637cab11fcce50cbf46eeeef","214.80000001192093","","","","37","","","","key","16.67556944444449","650","290","true","-1","149.16000000000003","12.287999999999998","4","-1","-1","","","","","","","","","","","","",""
"psychophysics","21","79342","0.0-6.0-0.15","5da74e9437d4210016492810","637ca5e1af997cace1140107","637cab11fcce50cbf46eeeef","396.69999998807907","","","","37","","","","key","16.675469879518054","650","290","true","-1","136.872","12.287999999999998","4","-1","-1","","","","","","","","","","","","",""
"psychophysics","22","80682","0.0-6.0-0.16","5da74e9437d4210016492810","637ca5e1af997cace1140107","637cab11fcce50cbf46eeeef","335.80000001192093","","","","37","","","","key","16.88643037974691","650","290","true","-1","136.872","12.287999999999998","4","-1","-1","","","","","","","","","","","","",""
"psychophysics","23","82382","0.0-6.0-0.17","5da74e9437d4210016492810","637ca5e1af997cace1140107","637cab11fcce50cbf46eeeef","695.8000000119209","","","","37","","","","key","16.675613861386076","650","290","true","-1","129","12.287999999999998","4","-1","-1","","","","","","","","","","","","",""
"psychophysics","24","84103","0.0-6.0-0.18","5da74e9437d4210016492810","637ca5e1af997cace1140107","637cab11fcce50cbf46eeeef","712.5","","","","37","","","","key","16.675647058823504","650","290","true","-1","129","12.287999999999998","4","-1","-1","","","","","","","","","","","","",""
"psychophysics","25","85555","0.0-6.0-0.19","5da74e9437d4210016492810","637ca5e1af997cace1140107","637cab11fcce50cbf46eeeef","444.59999999403954","","","","39","","","","key","16.675639534883672","650","290","true","1","129","12.287999999999998","4","-1","-1","","","","","","","","","","","","",""
"psychophysics","26","87079","0.0-6.0-0.20","5da74e9437d4210016492810","637ca5e1af997cace1140107","637cab11fcce50cbf46eeeef","520.3000000119209","","","","37","","","","key","16.675688888888786","650","290","true","1","129","9.8304","5","1","-1","","","","","","","","","","","","",""
"psychophysics","27","88433","0.0-6.0-0.21","5da74e9437d4210016492810","637ca5e1af997cace1140107","637cab11fcce50cbf46eeeef","350.5","","","","37","","","","key","16.675562499999977","650","290","true","-1","138.8304","9.8304","5","-1","1","","","","","","","","","","","","",""
"psychophysics","28","89770","0.0-6.0-0.22","5da74e9437d4210016492810","637ca5e1af997cace1140107","637cab11fcce50cbf46eeeef","335.30000001192093","","","","39","","","","key","16.67551250000015","650","290","true","1","138.8304","7.864319999999999","6","-1","-1","","","","","","","","","","","","",""
"psychophysics","29","91147","0.0-6.0-0.23","5da74e9437d4210016492810","637ca5e1af997cace1140107","637cab11fcce50cbf46eeeef","372.69999998807907","","","","37","","","","key","16.67564197530863","650","290","true","-1","130.96608","7.864319999999999","6","-1","-1","","","","","","","","","","","","",""
"psychophysics","30","92319","0.0-6.0-0.24","5da74e9437d4210016492810","637ca5e1af997cace1140107","637cab11fcce50cbf46eeeef","169","","","","39","","","","key","16.675681159420122","650","290","true","1","130.96608","7.864319999999999","6","-1","-1","","","","","","","","","","","","",""
"psychophysics","31","93942","0.0-6.0-0.25","5da74e9437d4210016492810","637ca5e1af997cace1140107","637cab11fcce50cbf46eeeef","615.1000000238419","","","","37","","","","key","16.675577319587656","650","290","true","1","129","6.291456","7","1","-1","","","","","","","","","","","","",""
"psychophysics","32","95239","0.0-6.0-0.26","5da74e9437d4210016492810","637ca5e1af997cace1140107","637cab11fcce50cbf46eeeef","288.90000000596046","","","","39","","","","key","16.67553246753251","650","290","true","1","135.291456","6.291456","7","-1","1","","","","","","","","","","","","",""
"psychophysics","33","96523","0.0-6.0-0.27","5da74e9437d4210016492810","637ca5e1af997cace1140107","637cab11fcce50cbf46eeeef","277","","","","37","","","","key","16.898053333333422","650","290","true","-1","135.291456","5.033164800000001","8","-1","-1","","","","","","","","","","","","",""
"psychophysics","34","98087","0.0-6.0-0.28","5da74e9437d4210016492810","637ca5e1af997cace1140107","637cab11fcce50cbf46eeeef","562.1000000238419","","","","37","","","","key","16.675554347826065","650","290","true","1","130.2582912","4.0265318400000005","9","1","-1","","","","","","","","","","","","",""
"psychophysics","35","99819","0.0-6.0-0.29","5da74e9437d4210016492810","637ca5e1af997cace1140107","637cab11fcce50cbf46eeeef","729.7999999821186","","","","39","","","","key","16.675475728155416","650","290","true","1","134.28482304","4.0265318400000005","9","-1","1","","","","","","","","","","","","",""
"psychophysics","36","101198","0.0-6.0-0.30","5da74e9437d4210016492810","637ca5e1af997cace1140107","637cab11fcce50cbf46eeeef","374.09999999403954","","","","39","","","","key","16.67559756097567","650","290","true","1","134.28482304","3.2212254720000004","10","-1","-1","","","","","","","","","","","","",""
"psychophysics","37","102641","0.0-6.0-0.31","5da74e9437d4210016492810","637ca5e1af997cace1140107","637cab11fcce50cbf46eeeef","434","","","","37","","","","key","16.675599999999907","650","290","true","1","131.06359756799998","2.5769803776000004","11","1","-1","","","","","","","","","","","","",""
"psychophysics","38","103976","0.0-6.0-0.32","5da74e9437d4210016492810","637ca5e1af997cace1140107","637cab11fcce50cbf46eeeef","330","","","","39","","","","key","16.675662499999998","650","290","true","1","133.64057794559997","2.5769803776000004","11","-1","1","","","","","","","","","","","","",""
"psychophysics","39","105305","0.0-6.0-0.33","5da74e9437d4210016492810","637ca5e1af997cace1140107","637cab11fcce50cbf46eeeef","322.59999999403954","","","","37","","","","key","16.675628205128305","650","290","true","-1","133.64057794559997","2.0615843020800004","12","-1","-1","","","","","","","","","","","","",""
"psychophysics","40","106640","0.0-6.0-0.34","5da74e9437d4210016492810","637ca5e1af997cace1140107","637cab11fcce50cbf46eeeef","330.90000000596046","","","","37","","","","key","16.675594936708897","650","290","true","-1","131.57899364351996","2.0615843020800004","12","-1","-1","","","","","","","","","","","","",""
"psychophysics","41","108062","0.0-6.0-0.35","5da74e9437d4210016492810","637ca5e1af997cace1140107","637cab11fcce50cbf46eeeef","417.90000000596046","","","","37","","","","key","16.675623529411762","650","290","true","-1","131.57899364351996","2.0615843020800004","12","-1","-1","","","","","","","","","","","","",""
"psychophysics","42","109444","0.0-6.0-0.36","5da74e9437d4210016492810","637ca5e1af997cace1140107","637cab11fcce50cbf46eeeef","373","","","","37","","","","key","16.675790123456807","650","290","true","-1","129.51740934143996","2.0615843020800004","12","-1","-1","","","","","","","","","","","","",""
"psychophysics","43","110873","0.0-6.0-0.37","5da74e9437d4210016492810","637ca5e1af997cace1140107","637cab11fcce50cbf46eeeef","426.40000000596046","","","","39","","","","key","16.874190476190485","650","290","true","-1","129.51740934143996","1.6492674416640005","13","1","-1","","","","","","","","","","","","",""
"psychophysics","44","112179","0.0-6.0-0.38","5da74e9437d4210016492810","637ca5e1af997cace1140107","637cab11fcce50cbf46eeeef","299","","","","39","","","","key","16.89493421052631","650","290","true","1","131.16667678310395","1.6492674416640005","13","-1","1","","","","","","","","","","","","",""
"psychophysics","45","113472","0.0-6.0-0.39","5da74e9437d4210016492810","637ca5e1af997cace1140107","637cab11fcce50cbf46eeeef","291.2999999821186","","","","37","","","","key","16.6754935064934","650","290","true","-1","131.16667678310395","1.3194139533312006","14","-1","-1","","","","","","","","","","","","",""
"html-keyboard-response","46","118050","0.0-7.0","5da74e9437d4210016492810","637ca5e1af997cace1140107","637cab11fcce50cbf46eeeef","4552.0999999940395","<p>Well Done !</p><p>Prepare for a new block.</p><p>DON'T EXIT THE FULL SCREEN MODE</p><p>Press the Spacebar to start.</p>","","","32","","","","","","","","","","","","","","","true","132.08545081835516","","","","","","","","","","",""
"psychophysics","47","121503","0.0-8.0-0.0","5da74e9437d4210016492810","637ca5e1af997cace1140107","637cab11fcce50cbf46eeeef","2448.7000000178814","","","","39","","","","key","16.686815533980567","650","290","true","1","180","30","0","-1","","","","","","","","","","","","","",""
"psychophysics","48","122557","0.0-8.0-0.1","5da74e9437d4210016492810","637ca5e1af997cace1140107","637cab11fcce50cbf46eeeef","46.400000005960464","","","","37","","","","key","16.675539682539817","650","290","true","-1","180","30","0","-1","-1","","","","","","","","","","","","",""
"psychophysics","49","123622","0.0-8.0-0.2","5da74e9437d4210016492810","637ca5e1af997cace1140107","637cab11fcce50cbf46eeeef","54.900000005960464","","","","37","","","","key","16.67555555555552","650","290","true","-1","150","30","0","-1","-1","","","","","","","","","","","","",""
"psychophysics","50","126741","0.0-8.0-0.3","5da74e9437d4210016492810","637ca5e1af997cace1140107","637cab11fcce50cbf46eeeef","2110.199999988079","","","","37","","","","key","16.675586021505374","650","290","true","1","150","24","1","1","-1","","","","","","","","","","","","",""
"psychophysics","51","127843","0.0-8.0-0.4","5da74e9437d4210016492810","637ca5e1af997cace1140107","637cab11fcce50cbf46eeeef","93.19999998807907","","","","39","","","","key","16.675430769230633","650","290","true","1","174","24","1","-1","1","","","","","","","","","","","","",""
"psychophysics","52","128985","0.0-8.0-0.5","5da74e9437d4210016492810","637ca5e1af997cace1140107","637cab11fcce50cbf46eeeef","138.90000000596046","","","","39","","","","key","16.67564179104494","650","290","true","1","174","19.2","2","-1","-1","","","","","","","","","","","","",""
"psychophysics","53","130024","0.0-8.0-0.6","5da74e9437d4210016492810","637ca5e1af997cace1140107","637cab11fcce50cbf46eeeef","33.30000001192093","","","","37","","","","key","16.67543548387109","650","290","true","-1","154.8","19.2","2","-1","-1","","","","","","","","","","","","",""
"psychophysics","54","132376","0.0-8.0-0.7","5da74e9437d4210016492810","637ca5e1af997cace1140107","637cab11fcce50cbf46eeeef","1346.300000011921","","","","37","","","","key","16.795604316546815","650","290","true","1","154.8","15.36","3","1","-1","","","","","","","","","","","","",""
"psychophysics","55","133389","0.0-8.0-0.8","5da74e9437d4210016492810","637ca5e1af997cace1140107","637cab11fcce50cbf46eeeef","6.699999988079071","","","","39","","","","key","16.67571186440675","650","290","true","1","170.16000000000003","15.36","3","-1","1","","","","","","","","","","","","",""
"psychophysics","56","136027","0.0-8.0-0.9","5da74e9437d4210016492810","637ca5e1af997cace1140107","637cab11fcce50cbf46eeeef","1636.1000000238419","","","","37","","","","key","16.675569620253107","650","290","true","-1","170.16000000000003","12.287999999999998","4","-1","-1","","","","","","","","","","","","",""
"psychophysics","57","137156","0.0-8.0-0.10","5da74e9437d4210016492810","637ca5e1af997cace1140107","637cab11fcce50cbf46eeeef","126.40000000596046","","","","37","","","","key","16.931923076923255","650","290","true","-1","157.872","12.287999999999998","4","-1","-1","","","","","","","","","","","","",""
"psychophysics","58","138184","0.0-8.0-0.11","5da74e9437d4210016492810","637ca5e1af997cace1140107","637cab11fcce50cbf46eeeef","23.200000017881393","","","","37","","","","key","16.67552459016385","650","290","true","-1","157.872","12.287999999999998","4","-1","-1","","","","","","","","","","","","",""
"psychophysics","59","139228","0.0-8.0-0.12","5da74e9437d4210016492810","637ca5e1af997cace1140107","637cab11fcce50cbf46eeeef","36.60000002384186","","","","39","","","","key","16.675508196721402","650","290","true","1","145.584","12.287999999999998","4","-1","-1","","","","","","","","","","","","",""
"psychophysics","60","141358","0.0-8.0-0.13","5da74e9437d4210016492810","637ca5e1af997cace1140107","637cab11fcce50cbf46eeeef","1120.0999999940395","","","","37","","","","key","16.807849206349125","650","290","true","-1","145.584","12.287999999999998","4","-1","-1","","","","","","","","","","","","",""
"psychophysics","61","142461","0.0-8.0-0.14","5da74e9437d4210016492810","637ca5e1af997cace1140107","637cab11fcce50cbf46eeeef","98.10000002384186","","","","39","","","","key","16.67581538461516","650","290","true","1","133.296","12.287999999999998","4","-1","-1","","","","","","","","","","","","",""
"psychophysics","62","144162","0.0-8.0-0.15","5da74e9437d4210016492810","637ca5e1af997cace1140107","637cab11fcce50cbf46eeeef","697.5","","","","37","","","","key","16.675574257425815","650","290","true","1","133.296","9.8304","5","1","-1","","","","","","","","","","","","",""
"psychophysics","63","145357","0.0-8.0-0.16","5da74e9437d4210016492810","637ca5e1af997cace1140107","637cab11fcce50cbf46eeeef","189.7000000178814","","","","37","","","","key","16.675830985915447","650","290","true","-1","143.1264","9.8304","5","-1","1","","","","","","","","","","","","",""
"psychophysics","64","146538","0.0-8.0-0.17","5da74e9437d4210016492810","637ca5e1af997cace1140107","637cab11fcce50cbf46eeeef","173.5","","","","39","","","","key","16.675528571428732","650","290","true","1","143.1264","7.864319999999999","6","-1","-1","","","","","","","","","","","","",""
"psychophysics","65","147660","0.0-8.0-0.18","5da74e9437d4210016492810","637ca5e1af997cace1140107","637cab11fcce50cbf46eeeef","116.90000000596046","","","","39","","","","key","16.67551515151519","650","290","true","1","135.26208","7.864319999999999","6","-1","-1","","","","","","","","","","","","",""
"psychophysics","66","150319","0.0-8.0-0.19","5da74e9437d4210016492810","637ca5e1af997cace1140107","637cab11fcce50cbf46eeeef","1656.199999988079","","","","39","","","","key","16.67557232704401","650","290","true","-1","135.26208","6.291456","7","1","-1","","","","","","","","","","","","",""
"psychophysics","67","151417","0.0-8.0-0.20","5da74e9437d4210016492810","637ca5e1af997cace1140107","637cab11fcce50cbf46eeeef","90.7999999821186","","","","39","","","","key","16.94039682539675","650","290","true","1","141.553536","6.291456","7","-1","1","","","","","","","","","","","","",""
"psychophysics","68","154240","0.0-8.0-0.21","5da74e9437d4210016492810","637ca5e1af997cace1140107","637cab11fcce50cbf46eeeef","1821","","","","39","","","","key","16.67556804733729","650","290","true","-1","141.553536","5.033164800000001","8","1","-1","","","","","","","","","","","","",""
"psychophysics","69","155296","0.0-8.0-0.22","5da74e9437d4210016492810","637ca5e1af997cace1140107","637cab11fcce50cbf46eeeef","50.099999994039536","","","","37","","","","key","16.948819672131098","650","290","true","-1","146.58670080000002","5.033164800000001","8","-1","1","","","","","","","","","","","","",""
"psychophysics","70","158267","0.0-8.0-0.23","5da74e9437d4210016492810","637ca5e1af997cace1140107","637cab11fcce50cbf46eeeef","1963.4000000059605","","","","39","","","","key","16.67563276836158","650","290","true","1","146.58670080000002","4.0265318400000005","9","-1","-1","","","","","","","","","","","","",""
"psychophysics","71","160812","0.0-8.0-0.24","5da74e9437d4210016492810","637ca5e1af997cace1140107","637cab11fcce50cbf46eeeef","1541.7000000178814","","","","37","","","","key","16.67551315789483","650","290","true","1","142.56016896000003","3.2212254720000004","10","1","-1","","","","","","","","","","","","",""
"psychophysics","72","161904","0.0-8.0-0.25","5da74e9437d4210016492810","637ca5e1af997cace1140107","637cab11fcce50cbf46eeeef","89.80000001192093","","","","37","","","","key","16.67539062500009","650","290","true","-1","145.781394432","3.2212254720000004","10","-1","1","","","","","","","","","","","","",""
"psychophysics","73","164727","0.0-8.0-0.26","5da74e9437d4210016492810","637ca5e1af997cace1140107","637cab11fcce50cbf46eeeef","1819.800000011921","","","","37","","","","key","16.67557396449699","650","290","true","1","145.781394432","2.5769803776000004","11","1","-1","","","","","","","","","","","","",""
"psychophysics","74","165826","0.0-8.0-0.27","5da74e9437d4210016492810","637ca5e1af997cace1140107","637cab11fcce50cbf46eeeef","92.19999998807907","","","","37","","","","key","16.675553846153736","650","290","true","-1","148.3583748096","2.5769803776000004","11","-1","1","","","","","","","","","","","","",""
"psychophysics","75","168345","0.0-8.0-0.28","5da74e9437d4210016492810","637ca5e1af997cace1140107","637cab11fcce50cbf46eeeef","1507.0999999940395","","","","37","","","","key","16.787436241610795","650","290","true","-1","148.3583748096","2.0615843020800004","12","-1","-1","","","","","","","","","","","","",""
"psychophysics","76","171441","0.0-8.0-0.29","5da74e9437d4210016492810","637ca5e1af997cace1140107","637cab11fcce50cbf46eeeef","2090.300000011921","","","","37","","","","key","16.675586956521684","650","290","true","1","146.29679050752","1.6492674416640005","13","1","-1","","","","","","","","","","","","",""
"psychophysics","77","174482","0.0-8.0-0.30","5da74e9437d4210016492810","637ca5e1af997cace1140107","637cab11fcce50cbf46eeeef","2036.8999999761581","","","","39","","","","key","16.675620879120977","650","290","true","-1","147.946057949184","1.6492674416640005","13","1","1","","","","","","","","","","","","",""
"psychophysics","78","177295","0.0-8.0-0.31","5da74e9437d4210016492810","637ca5e1af997cace1140107","637cab11fcce50cbf46eeeef","1808.7000000178814","","","","39","","","","key","16.675520958083865","650","290","true","-1","149.595325390848","1.6492674416640005","13","1","1","","","","","","","","","","","","",""
"psychophysics","79","178412","0.0-8.0-0.32","5da74e9437d4210016492810","637ca5e1af997cace1140107","637cab11fcce50cbf46eeeef","114.60000002384186","","","","39","","","","key","16.675712121211813","650","290","true","1","151.24459283251198","1.6492674416640005","13","-1","1","","","","","","","","","","","","",""
"psychophysics","80","181101","0.0-8.0-0.33","5da74e9437d4210016492810","637ca5e1af997cace1140107","637cab11fcce50cbf46eeeef","1686.7999999821186","","","","39","","","","key","16.675509316770082","650","290","true","-1","151.24459283251198","1.3194139533312006","14","1","-1","","","","","","","","","","","","",""
"psychophysics","81","184186","0.0-8.0-0.34","5da74e9437d4210016492810","637ca5e1af997cace1140107","637cab11fcce50cbf46eeeef","2075.9000000059605","","","","37","","","","key","16.675635869565273","650","290","true","-1","152.5640067858432","1.3194139533312006","14","-1","1","","","","","","","","","","","","",""
"psychophysics","82","187406","0.0-8.0-0.35","5da74e9437d4210016492810","637ca5e1af997cace1140107","637cab11fcce50cbf46eeeef","2216","","","","39","","","","key","16.67553124999995","650","290","true","1","152.5640067858432","1.0555311626649604","15","-1","-1","","","","","","","","","","","","",""
"psychophysics","83","188611","0.0-8.0-0.36","5da74e9437d4210016492810","637ca5e1af997cace1140107","637cab11fcce50cbf46eeeef","196.69999998807907","","","","37","","","","key","16.675788732394363","650","290","true","-1","151.50847562317824","1.0555311626649604","15","-1","-1","","","","","","","","","","","","",""
"psychophysics","84","189691","0.0-8.0-0.37","5da74e9437d4210016492810","637ca5e1af997cace1140107","637cab11fcce50cbf46eeeef","69.5","","","","37","","","","key","16.67554687499978","650","290","true","-1","151.50847562317824","1.0555311626649604","15","-1","-1","","","","","","","","","","","","",""
"psychophysics","85","190717","0.0-8.0-0.38","5da74e9437d4210016492810","637ca5e1af997cace1140107","637cab11fcce50cbf46eeeef","22.799999982118607","","","","39","","","","key","16.675600000000365","650","290","true","1","150.4529444605133","1.0555311626649604","15","-1","-1","","","","","","","","","","","","",""
"psychophysics","86","191870","0.0-8.0-0.39","5da74e9437d4210016492810","637ca5e1af997cace1140107","637cab11fcce50cbf46eeeef","148.7000000178814","","","","39","","","","key","16.67557352941153","650","290","true","1","150.4529444605133","1.0555311626649604","15","-1","-1","","","","","","","","","","","","",""
"html-keyboard-response","87","196657","0.0-9.0","5da74e9437d4210016492810","637ca5e1af997cace1140107","637cab11fcce50cbf46eeeef","4784","<p>Well Done !</p><p>Prepare for a new block.</p><p>DON'T EXIT THE FULL SCREEN MODE</p><p>Press the Spacebar to start.</p>","","","32","","","","","","","","","","","","","","","true","149.57718344898967","","","","","","","","","","",""
"psychophysics","88","198988","0.0-10.0-0.0","5da74e9437d4210016492810","637ca5e1af997cace1140107","637cab11fcce50cbf46eeeef","1328.300000011921","","","","39","","","","key","16.69309352517983","650","290","true","1","180","30","0","-1","","","","","","","","","","","","","",""
"psychophysics","89","200251","0.0-10.0-0.1","5da74e9437d4210016492810","637ca5e1af997cace1140107","637cab11fcce50cbf46eeeef","260.90000000596046","","","","37","","","","key","16.67569333333328","650","290","true","-1","180","30","0","-1","-1","","","","","","","","","","","","",""
"psychophysics","90","201387","0.0-10.0-0.2","5da74e9437d4210016492810","637ca5e1af997cace1140107","637cab11fcce50cbf46eeeef","132.40000000596046","","","","39","","","","key","16.6755671641792","650","290","true","1","150","30","0","-1","-1","","","","","","","","","","","","",""
"psychophysics","91","202552","0.0-10.0-0.3","5da74e9437d4210016492810","637ca5e1af997cace1140107","637cab11fcce50cbf46eeeef","161.19999998807907","","","","39","","","","key","16.675521739130076","650","290","true","1","150","30","0","-1","-1","","","","","","","","","","","","",""
"psychophysics","92","204842","0.0-10.0-0.4","5da74e9437d4210016492810","637ca5e1af997cace1140107","637cab11fcce50cbf46eeeef","1283.199999988079","","","","37","","","","key","16.675566176470646","650","290","true","-1","129","30","0","-1","-1","","","","","","","","","","","","",""
"psychophysics","93","206355","0.0-10.0-0.5","5da74e9437d4210016492810","637ca5e1af997cace1140107","637cab11fcce50cbf46eeeef","509.90000000596046","","","","37","","","","key","16.675788888888846","650","290","true","1","129","24","1","1","-1","","","","","","","","","","","","",""
"psychophysics","94","207626","0.0-10.0-0.6","5da74e9437d4210016492810","637ca5e1af997cace1140107","637cab11fcce50cbf46eeeef","267.69999998807907","","","","37","","","","key","16.6755733333334","650","290","true","-1","153","24","1","-1","1","","","","","","","","","","","","",""
"psychophysics","95","208684","0.0-10.0-0.7","5da74e9437d4210016492810","637ca5e1af997cace1140107","637cab11fcce50cbf46eeeef","54","","","","37","","","","key","16.675571428571683","650","290","true","-1","153","19.2","2","-1","-1","","","","","","","","","","","","",""
"psychophysics","96","209787","0.0-10.0-0.8","5da74e9437d4210016492810","637ca5e1af997cace1140107","637cab11fcce50cbf46eeeef","101","","","","39","","","","key","16.67575384615383","650","290","true","1","133.8","19.2","2","-1","-1","","","","","","","","","","","","",""
"psychophysics","97","210802","0.0-10.0-0.9","5da74e9437d4210016492810","637ca5e1af997cace1140107","637cab11fcce50cbf46eeeef","10.700000017881393","","","","37","","","","key","16.675750000000214","650","290","true","-1","133.8","19.2","2","-1","-1","","","","","","","","","","","","",""
"psychophysics","98","212229","0.0-10.0-0.10","5da74e9437d4210016492810","637ca5e1af997cace1140107","637cab11fcce50cbf46eeeef","422.5","","","","37","","","","key","16.67555952380956","650","290","true","1","129","15.36","3","1","-1","","","","","","","","","","","","",""
"psychophysics","99","213347","0.0-10.0-0.11","5da74e9437d4210016492810","637ca5e1af997cace1140107","637cab11fcce50cbf46eeeef","114.30000001192093","","","","39","","","","key","16.675621212121438","650","290","true","1","144.36","15.36","3","-1","1","","","","","","","","","","","","",""
"psychophysics","100","216403","0.0-10.0-0.12","5da74e9437d4210016492810","637ca5e1af997cace1140107","637cab11fcce50cbf46eeeef","2051.699999988079","","","","39","","","","key","16.675582417582447","650","290","true","-1","144.36","12.287999999999998","4","1","-1","","","","","","","","","","","","",""
"psychophysics","101","217538","0.0-10.0-0.13","5da74e9437d4210016492810","637ca5e1af997cace1140107","637cab11fcce50cbf46eeeef","131.60000002384186","","","","37","","","","key","16.675552238806223","650","290","true","-1","156.64800000000002","12.287999999999998","4","-1","1","","","","","","","","","","","","",""
"psychophysics","102","218614","0.0-10.0-0.14","5da74e9437d4210016492810","637ca5e1af997cace1140107","637cab11fcce50cbf46eeeef","72","","","","37","","","","key","16.675609375000022","650","290","true","-1","156.64800000000002","9.8304","5","-1","-1","","","","","","","","","","","","",""
"psychophysics","103","221173","0.0-10.0-0.15","5da74e9437d4210016492810","637ca5e1af997cace1140107","637cab11fcce50cbf46eeeef","1552.0999999940395","","","","37","","","","key","16.785263157894644","650","290","true","1","146.81760000000003","7.864319999999999","6","1","-1","","","","","","","","","","","","",""
"psychophysics","104","222252","0.0-10.0-0.16","5da74e9437d4210016492810","637ca5e1af997cace1140107","637cab11fcce50cbf46eeeef","69.69999998807907","","","","37","","","","key","16.675873015872813","650","290","true","-1","154.68192000000002","7.864319999999999","6","-1","1","","","","","","","","","","","","",""
"psychophysics","105","224572","0.0-10.0-0.17","5da74e9437d4210016492810","637ca5e1af997cace1140107","637cab11fcce50cbf46eeeef","1315.8999999761581","","","","39","","","","key","16.675630434782562","650","290","true","-1","154.68192000000002","6.291456","7","1","-1","","","","","","","","","","","","",""
"psychophysics","106","225771","0.0-10.0-0.18","5da74e9437d4210016492810","637ca5e1af997cace1140107","637cab11fcce50cbf46eeeef","187.19999998807907","","","","39","","","","key","16.675577464788944","650","290","true","1","160.97337600000003","6.291456","7","-1","1","","","","","","","","","","","","",""
"psychophysics","107","226808","0.0-10.0-0.19","5da74e9437d4210016492810","637ca5e1af997cace1140107","637cab11fcce50cbf46eeeef","32.599999994039536","","","","37","","","","key","16.67552459016385","650","290","true","-1","160.97337600000003","5.033164800000001","8","-1","-1","","","","","","","","","","","","",""
"psychophysics","108","227853","0.0-10.0-0.20","5da74e9437d4210016492810","637ca5e1af997cace1140107","637cab11fcce50cbf46eeeef","37.5","","","","37","","","","key","16.675612903225908","650","290","true","-1","155.94021120000002","5.033164800000001","8","-1","-1","","","","","","","","","","","","",""
"psychophysics","109","228900","0.0-10.0-0.21","5da74e9437d4210016492810","637ca5e1af997cace1140107","637cab11fcce50cbf46eeeef","41.20000001788139","","","","39","","","","key","16.6755483870971","650","290","true","1","155.94021120000002","5.033164800000001","8","-1","-1","","","","","","","","","","","","",""
"psychophysics","110","230831","0.0-10.0-0.22","5da74e9437d4210016492810","637ca5e1af997cace1140107","637cab11fcce50cbf46eeeef","928.0999999940395","","","","39","","","","key","16.675426086956513","650","290","true","1","150.9070464","5.033164800000001","8","-1","-1","","","","","","","","","","","","",""
"psychophysics","111","231930","0.0-10.0-0.23","5da74e9437d4210016492810","637ca5e1af997cace1140107","637cab11fcce50cbf46eeeef","91","","","","39","","","","key","16.936125000000175","650","290","true","1","150.9070464","5.033164800000001","8","-1","-1","","","","","","","","","","","","",""
"psychophysics","112","234281","0.0-10.0-0.24","5da74e9437d4210016492810","637ca5e1af997cace1140107","637cab11fcce50cbf46eeeef","1321.9000000059605","","","","37","","","","key","16.675557142856995","650","290","true","1","145.8738816","4.0265318400000005","9","1","-1","","","","","","","","","","","","",""
"psychophysics","113","236585","0.0-10.0-0.25","5da74e9437d4210016492810","637ca5e1af997cace1140107","637cab11fcce50cbf46eeeef","1298.699999988079","","","","37","","","","key","16.67543065693441","650","290","true","-1","149.90041344","4.0265318400000005","9","-1","1","","","","","","","","","","","","",""
"psychophysics","114","237636","0.0-10.0-0.26","5da74e9437d4210016492810","637ca5e1af997cace1140107","637cab11fcce50cbf46eeeef","30","","","","37","","","","key","16.67559677419335","650","290","true","-1","149.90041344","3.2212254720000004","10","-1","-1","","","","","","","","","","","","",""
"psychophysics","115","241259","0.0-10.0-0.27","5da74e9437d4210016492810","637ca5e1af997cace1140107","637cab11fcce50cbf46eeeef","2620.899999976158","","","","39","","","","key","16.753093023255715","650","290","true","1","146.679187968","3.2212254720000004","10","-1","-1","","","","","","","","","","","","",""
"psychophysics","116","245041","0.0-10.0-0.28","5da74e9437d4210016492810","637ca5e1af997cace1140107","637cab11fcce50cbf46eeeef","2779.2000000178814","","","","39","","","","key","16.675539823008812","650","290","true","-1","146.679187968","2.5769803776000004","11","1","-1","","","","","","","","","","","","",""
"psychophysics","117","247724","0.0-10.0-0.29","5da74e9437d4210016492810","637ca5e1af997cace1140107","637cab11fcce50cbf46eeeef","1677.5999999940395","","","","39","","","","key","16.780490566037724","650","290","true","1","149.2561683456","2.5769803776000004","11","-1","1","","","","","","","","","","","","",""
"psychophysics","118","250367","0.0-10.0-0.30","5da74e9437d4210016492810","637ca5e1af997cace1140107","637cab11fcce50cbf46eeeef","1640.9000000059605","","","","39","","","","key","16.675611464968128","650","290","true","1","149.2561683456","2.0615843020800004","12","-1","-1","","","","","","","","","","","","",""
"psychophysics","119","253280","0.0-10.0-0.31","5da74e9437d4210016492810","637ca5e1af997cace1140107","637cab11fcce50cbf46eeeef","1892.2000000178814","","","","39","","","","key","16.772000000000066","650","290","true","1","147.19458404352","2.0615843020800004","12","-1","-1","","","","","","","","","","","","",""
"psychophysics","120","255722","0.0-10.0-0.32","5da74e9437d4210016492810","637ca5e1af997cace1140107","637cab11fcce50cbf46eeeef","1435.5","","","","37","","","","key","16.67548275862074","650","290","true","1","147.19458404352","1.6492674416640005","13","1","-1","","","","","","","","","","","","",""
"psychophysics","121","259259","0.0-10.0-0.33","5da74e9437d4210016492810","637ca5e1af997cace1140107","637cab11fcce50cbf46eeeef","2534.899999976158","","","","37","","","","key","16.6755355450237","650","290","true","-1","148.843851485184","1.6492674416640005","13","-1","1","","","","","","","","","","","","",""
"psychophysics","122","260350","0.0-10.0-0.34","5da74e9437d4210016492810","637ca5e1af997cace1140107","637cab11fcce50cbf46eeeef","86.60000002384186","","","","39","","","","key","16.675523076922847","650","290","true","-1","148.843851485184","1.3194139533312006","14","1","-1","","","","","","","","","","","","",""
"psychophysics","123","261575","0.0-10.0-0.35","5da74e9437d4210016492810","637ca5e1af997cace1140107","637cab11fcce50cbf46eeeef","214.69999998807907","","","","37","","","","key","16.67561111111071","650","290","true","-1","150.1632654385152","1.3194139533312006","14","-1","1","","","","","","","","","","","","",""
"psychophysics","124","262620","0.0-10.0-0.36","5da74e9437d4210016492810","637ca5e1af997cace1140107","637cab11fcce50cbf46eeeef","42.20000001788139","","","","37","","","","key","16.675532258064074","650","290","true","-1","150.1632654385152","1.0555311626649604","15","-1","-1","","","","","","","","","","","","",""
"psychophysics","125","263649","0.0-10.0-0.37","5da74e9437d4210016492810","637ca5e1af997cace1140107","637cab11fcce50cbf46eeeef","20","","","","39","","","","key","16.675573770492147","650","290","true","1","149.10773427585025","1.0555311626649604","15","-1","-1","","","","","","","","","","","","",""
"psychophysics","126","266231","0.0-10.0-0.38","5da74e9437d4210016492810","637ca5e1af997cace1140107","637cab11fcce50cbf46eeeef","1576.4000000059605","","","","39","","","","key","16.67558441558466","650","290","true","-1","149.10773427585025","1","16","1","-1","","","","","","","","","","","","",""
"psychophysics","127","267271","0.0-10.0-0.39","5da74e9437d4210016492810","637ca5e1af997cace1140107","637cab11fcce50cbf46eeeef","32.599999994039536","","","","39","","","","key","16.67568852459023","650","290","true","1","150.10773427585025","1","16","-1","1","","","","","","","","","","","","",""
"html-keyboard-response","128","271368","0.0-11.0","5da74e9437d4210016492810","637ca5e1af997cace1140107","637cab11fcce50cbf46eeeef","4096","<p>Well Done !</p><p>Prepare for a new block.</p><p>DON'T EXIT THE FULL SCREEN MODE</p><p>Press the Spacebar to start.</p>","","","32","","","","","","","","","","","","","","","true","148.82654295127932","","","","","","","","","","",""
"psychophysics","129","274130","0.0-12.0-0.0","5da74e9437d4210016492810","637ca5e1af997cace1140107","637cab11fcce50cbf46eeeef","1756","","","","39","","","","key","16.688139393939426","650","290","true","1","180","30","0","-1","","","","","","","","","","","","","",""
"psychophysics","130","276442","0.0-12.0-0.1","5da74e9437d4210016492810","637ca5e1af997cace1140107","637cab11fcce50cbf46eeeef","1307.800000011921","","","","37","","","","key","16.675644927536244","650","290","true","-1","180","30","0","-1","-1","","","","","","","","","","","","",""
"psychophysics","131","278935","0.0-12.0-0.2","5da74e9437d4210016492810","637ca5e1af997cace1140107","637cab11fcce50cbf46eeeef","1490.7999999821186","","","","39","","","","key","16.675581081080914","650","290","true","1","150","30","0","-1","-1","","","","","","","","","","","","",""
"psychophysics","132","281531","0.0-12.0-0.3","5da74e9437d4210016492810","637ca5e1af997cace1140107","637cab11fcce50cbf46eeeef","1589.2999999821186","","","","39","","","","key","16.783902597402726","650","290","true","1","150","30","0","-1","-1","","","","","","","","","","","","",""
"psychophysics","133","283318","0.0-12.0-0.4","5da74e9437d4210016492810","637ca5e1af997cace1140107","637cab11fcce50cbf46eeeef","783.5999999940395","","","","39","","","","key","16.67554716981139","650","290","true","-1","129","24","1","1","-1","","","","","","","","","","","","",""
"psychophysics","134","284331","0.0-12.0-0.5","5da74e9437d4210016492810","637ca5e1af997cace1140107","637cab11fcce50cbf46eeeef","10.599999994039536","","","","39","","","","key","16.675816666666652","650","290","true","1","153","24","1","-1","1","","","","","","","","","","","","",""
"psychophysics","135","287031","0.0-12.0-0.6","5da74e9437d4210016492810","637ca5e1af997cace1140107","637cab11fcce50cbf46eeeef","1696.5999999940395","","","","37","","","","key","16.67561490683251","650","290","true","-1","153","19.2","2","-1","-1","","","","","","","","","","","","",""
"psychophysics","136","288099","0.0-12.0-0.7","5da74e9437d4210016492810","637ca5e1af997cace1140107","637cab11fcce50cbf46eeeef","59.69999998807907","","","","39","","","","key","16.67558730158785","650","290","true","1","133.8","19.2","2","-1","-1","","","","","","","","","","","","",""
"psychophysics","137","289193","0.0-12.0-0.8","5da74e9437d4210016492810","637ca5e1af997cace1140107","637cab11fcce50cbf46eeeef","90.30000001192093","","","","39","","","","key","16.6755692307694","650","290","true","1","133.8","19.2","2","-1","-1","","","","","","","","","","","","",""
"psychophysics","138","290698","0.0-12.0-0.9","5da74e9437d4210016492810","637ca5e1af997cace1140107","637cab11fcce50cbf46eeeef","499.5","","","","37","","","","key","16.86496590909056","650","290","true","-1","129","19.2","2","-1","-1","","","","","","","","","","","","",""
"psychophysics","139","292241","0.0-12.0-0.10","5da74e9437d4210016492810","637ca5e1af997cace1140107","637cab11fcce50cbf46eeeef","539.0999999940395","","","","37","","","","key","16.67549450549484","650","290","true","1","129","15.36","3","1","-1","","","","","","","","","","","","",""
"psychophysics","140","293476","0.0-12.0-0.11","5da74e9437d4210016492810","637ca5e1af997cace1140107","637cab11fcce50cbf46eeeef","233.40000000596046","","","","37","","","","key","17.145338028169263","650","290","true","-1","144.36","15.36","3","-1","1","","","","","","","","","","","","",""
"psychophysics","141","294504","0.0-12.0-0.12","5da74e9437d4210016492810","637ca5e1af997cace1140107","637cab11fcce50cbf46eeeef","11.5","","","","37","","","","key","16.67560655737704","650","290","true","-1","144.36","12.287999999999998","4","-1","-1","","","","","","","","","","","","",""
"psychophysics","142","296188","0.0-12.0-0.13","5da74e9437d4210016492810","637ca5e1af997cace1140107","637cab11fcce50cbf46eeeef","674.7999999821186","","","","37","","","","key","16.844060606060367","650","290","true","-1","132.072","12.287999999999998","4","-1","-1","","","","","","","","","","","","",""
"psychophysics","143","298457","0.0-12.0-0.14","5da74e9437d4210016492810","637ca5e1af997cace1140107","637cab11fcce50cbf46eeeef","1267.0999999940395","","","","39","","","","key","16.675592592592714","650","290","true","-1","132.072","9.8304","5","1","-1","","","","","","","","","","","","",""
"psychophysics","144","299713","0.0-12.0-0.15","5da74e9437d4210016492810","637ca5e1af997cace1140107","637cab11fcce50cbf46eeeef","251.09999999403954","","","","39","","","","key","16.904054794520338","650","290","true","1","141.9024","9.8304","5","-1","1","","","","","","","","","","","","",""
"psychophysics","145","300848","0.0-12.0-0.16","5da74e9437d4210016492810","637ca5e1af997cace1140107","637cab11fcce50cbf46eeeef","121.80000001192093","","","","37","","","","key","16.675529411764515","650","290","true","-1","141.9024","7.864319999999999","6","-1","-1","","","","","","","","","","","","",""
"psychophysics","146","301938","0.0-12.0-0.17","5da74e9437d4210016492810","637ca5e1af997cace1140107","637cab11fcce50cbf46eeeef","83.69999998807907","","","","37","","","","key","16.675437500000044","650","290","true","-1","134.03808","7.864319999999999","6","-1","-1","","","","","","","","","","","","",""
"psychophysics","147","303374","0.0-12.0-0.18","5da74e9437d4210016492810","637ca5e1af997cace1140107","637cab11fcce50cbf46eeeef","431.69999998807907","","","","37","","","","key","16.874107142857003","650","290","true","-1","134.03808","7.864319999999999","6","-1","-1","","","","","","","","","","","","",""
"psychophysics","148","304930","0.0-12.0-0.19","5da74e9437d4210016492810","637ca5e1af997cace1140107","637cab11fcce50cbf46eeeef","547.5999999940395","","","","37","","","","key","16.675489130434986","650","290","true","-1","129","7.864319999999999","6","-1","-1","","","","","","","","","","","","",""
"psychophysics","149","306272","0.0-12.0-0.20","5da74e9437d4210016492810","637ca5e1af997cace1140107","637cab11fcce50cbf46eeeef","337.90000000596046","","","","39","","","","key","16.675774999999703","650","290","true","-1","129","6.291456","7","1","-1","","","","","","","","","","","","",""
"psychophysics","150","307625","0.0-12.0-0.21","5da74e9437d4210016492810","637ca5e1af997cace1140107","637cab11fcce50cbf46eeeef","347.2999999821186","","","","39","","","","key","16.675637500000448","650","290","true","1","135.291456","6.291456","7","-1","1","","","","","","","","","","","","",""
"psychophysics","151","308922","0.0-12.0-0.22","5da74e9437d4210016492810","637ca5e1af997cace1140107","637cab11fcce50cbf46eeeef","292","","","","37","","","","key","16.675506493506813","650","290","true","-1","135.291456","5.033164800000001","8","-1","-1","","","","","","","","","","","","",""
"psychophysics","152","311106","0.0-12.0-0.23","5da74e9437d4210016492810","637ca5e1af997cace1140107","637cab11fcce50cbf46eeeef","1180.1000000238419","","","","37","","","","key","16.80480620155044","650","290","true","1","130.2582912","4.0265318400000005","9","1","-1","","","","","","","","","","","","",""
"psychophysics","153","312339","0.0-12.0-0.24","5da74e9437d4210016492810","637ca5e1af997cace1140107","637cab11fcce50cbf46eeeef","229.2999999821186","","","","39","","","","key","16.67565753424623","650","290","true","1","134.28482304","4.0265318400000005","9","-1","1","","","","","","","","","","","","",""
"psychophysics","154","314163","0.0-12.0-0.25","5da74e9437d4210016492810","637ca5e1af997cace1140107","637cab11fcce50cbf46eeeef","820.8999999761581","","","","39","","","","key","16.67553703703743","650","290","true","1","134.28482304","3.2212254720000004","10","-1","-1","","","","","","","","","","","","",""
"psychophysics","155","315963","0.0-12.0-0.26","5da74e9437d4210016492810","637ca5e1af997cace1140107","637cab11fcce50cbf46eeeef","796.9000000059605","","","","39","","","","key","16.6754672897193","650","290","true","-1","131.06359756799998","2.5769803776000004","11","1","-1","","","","","","","","","","","","",""
"psychophysics","156","317417","0.0-12.0-0.27","5da74e9437d4210016492810","637ca5e1af997cace1140107","637cab11fcce50cbf46eeeef","450.40000000596046","","","","37","","","","key","16.6756162790698","650","290","true","-1","133.64057794559997","2.5769803776000004","11","-1","1","","","","","","","","","","","","",""
"psychophysics","157","318751","0.0-12.0-0.28","5da74e9437d4210016492810","637ca5e1af997cace1140107","637cab11fcce50cbf46eeeef","326.30000001192093","","","","39","","","","key","16.88938461538428","650","290","true","1","133.64057794559997","2.0615843020800004","12","-1","-1","","","","","","","","","","","","",""
"psychophysics","158","320312","0.0-12.0-0.29","5da74e9437d4210016492810","637ca5e1af997cace1140107","637cab11fcce50cbf46eeeef","554.6999999880791","","","","39","","","","key","16.675591397849637","650","290","true","1","131.57899364351996","2.0615843020800004","12","-1","-1","","","","","","","","","","","","",""
"psychophysics","159","321479","0.0-12.0-0.30","5da74e9437d4210016492810","637ca5e1af997cace1140107","637cab11fcce50cbf46eeeef","159.69999998807907","","","","39","","","","key","16.675661764705985","650","290","true","1","131.57899364351996","2.0615843020800004","12","-1","-1","","","","","","","","","","","","",""
"psychophysics","160","323072","0.0-12.0-0.31","5da74e9437d4210016492810","637ca5e1af997cace1140107","637cab11fcce50cbf46eeeef","585.9000000059605","","","","37","","","","key","16.67565263157931","650","290","true","1","129.51740934143996","1.6492674416640005","13","1","-1","","","","","","","","","","","","",""
"psychophysics","161","324458","0.0-12.0-0.32","5da74e9437d4210016492810","637ca5e1af997cace1140107","637cab11fcce50cbf46eeeef","381.7000000178814","","","","37","","","","key","16.88151851851913","650","290","true","-1","131.16667678310395","1.6492674416640005","13","-1","1","","","","","","","","","","","","",""
"psychophysics","162","325835","0.0-12.0-0.33","5da74e9437d4210016492810","637ca5e1af997cace1140107","637cab11fcce50cbf46eeeef","373.2999999821186","","","","37","","","","key","16.675609756097135","650","290","true","1","131.16667678310395","1.3194139533312006","14","1","-1","","","","","","","","","","","","",""
"psychophysics","163","327971","0.0-12.0-0.34","5da74e9437d4210016492810","637ca5e1af997cace1140107","637cab11fcce50cbf46eeeef","1132.7999999821186","","","","39","","","","key","16.675440944882027","650","290","true","1","132.48609073643516","1.3194139533312006","14","-1","1","","","","","","","","","","","","",""
"psychophysics","164","330385","0.0-12.0-0.35","5da74e9437d4210016492810","637ca5e1af997cace1140107","637cab11fcce50cbf46eeeef","1407.3999999761581","","","","39","","","","key","16.67557638888886","650","290","true","-1","132.48609073643516","1.0555311626649604","15","1","-1","","","","","","","","","","","","",""
"psychophysics","165","331509","0.0-12.0-0.36","5da74e9437d4210016492810","637ca5e1af997cace1140107","637cab11fcce50cbf46eeeef","118.60000002384186","","","","37","","","","key","16.675696969697267","650","290","true","-1","133.5416218991001","1.0555311626649604","15","-1","1","","","","","","","","","","","","",""
"psychophysics","166","332587","0.0-12.0-0.37","5da74e9437d4210016492810","637ca5e1af997cace1140107","637cab11fcce50cbf46eeeef","72.30000001192093","","","","37","","","","key","16.675500000000284","650","290","true","-1","133.5416218991001","1","16","-1","-1","","","","","","","","","","","","",""
"psychophysics","167","334369","0.0-12.0-0.38","5da74e9437d4210016492810","637ca5e1af997cace1140107","637cab11fcce50cbf46eeeef","778.6000000238419","","","","37","","","","key","16.675594339622755","650","290","true","1","132.5416218991001","1","17","1","-1","","","","","","","","","","","","",""
"psychophysics","168","335685","0.0-12.0-0.39","5da74e9437d4210016492810","637ca5e1af997cace1140107","637cab11fcce50cbf46eeeef","310.59999999403954","","","","39","","","","key","16.67566666666654","650","290","true","1","133.5416218991001","1","17","-1","1","","","","","","","","","","","","",""
"html-keyboard-response","169","342067","0.0-13.0","5da74e9437d4210016492810","637ca5e1af997cace1140107","637cab11fcce50cbf46eeeef","6380.0999999940395","<p>Well Done !</p><p>Prepare for a new block.</p><p>DON'T EXIT THE FULL SCREEN MODE</p><p>Press the Spacebar to start.</p>","","","32","","","","","","","","","","","","","","","true","132.38513305087724","","","","","","","","","","",""
"html-keyboard-response","170","342170","0.0-14.0","5da74e9437d4210016492810","637ca5e1af997cace1140107","637cab11fcce50cbf46eeeef","null","","","","null","","","","","","","","","","","","","","","","","140.71857756737535","true","153.4371551347507","","","","","","","",""
"instructions","171","408306","0.0-15.0","5da74e9437d4210016492810","637ca5e1af997cace1140107","637cab11fcce50cbf46eeeef","66134.5","","","","","","","[{""page_index"":0,""viewing_time"":51539.70000001788},{""page_index"":1,""viewing_time"":6077.699999988079},{""page_index"":2,""viewing_time"":8516.199999988079}]","","","","","","","","","","","","","","","","","","","","","","","",""
"psychophysics","172","411311","0.0-16.0-0.0","5da74e9437d4210016492810","637ca5e1af997cace1140107","637cab11fcce50cbf46eeeef","null","","","","null","","","","key","16.693084745762587","650","290","","","","","","","","","","","","","","","","","","","",""
"psychophysics","173","411814","0.0-16.0-1.0","5da74e9437d4210016492810","637ca5e1af997cace1140107","637cab11fcce50cbf46eeeef","null","","","","null","","","","key","16.67562068965495","650","290","","","","","","","","","","","","","153","-1","5","false","","","",""
"psychophysics","174","417433","0.0-16.0-2.0","5da74e9437d4210016492810","637ca5e1af997cace1140107","637cab11fcce50cbf46eeeef","5615.200000017881","","","","90","","","","key","16.67557142857151","650","290","","","","","","","","","","","","","","","","","","","",""
"psychophysics","175","418438","0.0-16.0-0.1","5da74e9437d4210016492810","637ca5e1af997cace1140107","637cab11fcce50cbf46eeeef","null","","","","null","","","","key","16.675457627118874","650","290","","","","","","","","","","","","","","","","","","","",""
"psychophysics","176","418943","0.0-16.0-1.1","5da74e9437d4210016492810","637ca5e1af997cace1140107","637cab11fcce50cbf46eeeef","null","","","","null","","","","key","16.675862068964715","650","290","","","","","","","","","","","","","153","-1","6","false","","","",""
"psychophysics","177","419754","0.0-16.0-2.1","5da74e9437d4210016492810","637ca5e1af997cace1140107","637cab11fcce50cbf46eeeef","805.7999999821186","","","","90","","","","key","16.675291666666453","650","290","","","","","","","","","","","","","","","","","","","",""
"psychophysics","178","420758","0.0-16.0-0.2","5da74e9437d4210016492810","637ca5e1af997cace1140107","637cab11fcce50cbf46eeeef","null","","","","null","","","","key","16.675610169492092","650","290","","","","","","","","","","","","","","","","","","","",""
"psychophysics","179","421261","0.0-16.0-1.2","5da74e9437d4210016492810","637ca5e1af997cace1140107","637cab11fcce50cbf46eeeef","null","","","","null","","","","key","16.67575862068996","650","290","","","","","","","","","","","","","153","-1","4","false","","","",""
"psychophysics","180","422057","0.0-16.0-2.2","5da74e9437d4210016492810","637ca5e1af997cace1140107","637cab11fcce50cbf46eeeef","794.2000000178814","","","","90","","","","key","16.675787234042296","650","290","","","","","","","","","","","","","","","","","","","",""
"psychophysics","181","423063","0.0-16.0-0.3","5da74e9437d4210016492810","637ca5e1af997cace1140107","637cab11fcce50cbf46eeeef","null","","","","null","","","","key","16.67545000000003","650","290","","","","","","","","","","","","","","","","","","","",""
"psychophysics","182","423566","0.0-16.0-1.3","5da74e9437d4210016492810","637ca5e1af997cace1140107","637cab11fcce50cbf46eeeef","null","","","","null","","","","key","17.2709999999996","650","290","","","","","","","","","","","","","153","1","3","false","","","",""
"psychophysics","183","429950","0.0-16.0-2.3","5da74e9437d4210016492810","637ca5e1af997cace1140107","637cab11fcce50cbf46eeeef","6380.799999982119","","","","90","","","","key","16.763591029023626","650","290","","","","","","","","","","","","","","","","","","","",""
"psychophysics","184","430958","0.0-16.0-0.4","5da74e9437d4210016492810","637ca5e1af997cace1140107","637cab11fcce50cbf46eeeef","null","","","","null","","","","key","16.675499999999495","650","290","","","","","","","","","","","","","","","","","","","",""
"psychophysics","185","431463","0.0-16.0-1.4","5da74e9437d4210016492810","637ca5e1af997cace1140107","637cab11fcce50cbf46eeeef","null","","","","null","","","","key","16.675517241378188","650","290","","","","","","","","","","","","","153","-1","3","false","","","",""
"psychophysics","186","432200","0.0-16.0-2.4","5da74e9437d4210016492810","637ca5e1af997cace1140107","637cab11fcce50cbf46eeeef","735.0999999940395","","","","90","","","","key","16.6755116279061","650","290","","","","","","","","","","","","","","","","","","","",""
"psychophysics","187","433202","0.0-16.0-0.5","5da74e9437d4210016492810","637ca5e1af997cace1140107","637cab11fcce50cbf46eeeef","null","","","","null","","","","key","16.675516666666955","650","290","","","","","","","","","","","","","","","","","","","",""
"psychophysics","188","433710","0.0-16.0-1.5","5da74e9437d4210016492810","637ca5e1af997cace1140107","637cab11fcce50cbf46eeeef","null","","","","null","","","","key","16.675517241378188","650","290","","","","","","","","","","","","","153","1","0","false","","","",""
"psychophysics","189","436144","0.0-16.0-2.5","5da74e9437d4210016492810","637ca5e1af997cace1140107","637cab11fcce50cbf46eeeef","2431.0999999940395","","","","90","","","","key","16.791388888889035","650","290","","","","","","","","","","","","","","","","","","","",""
"psychophysics","190","437150","0.0-16.0-0.6","5da74e9437d4210016492810","637ca5e1af997cace1140107","637cab11fcce50cbf46eeeef","null","","","","null","","","","key","16.675542372881665","650","290","","","","","","","","","","","","","","","","","","","",""
"psychophysics","191","437654","0.0-16.0-1.6","5da74e9437d4210016492810","637ca5e1af997cace1140107","637cab11fcce50cbf46eeeef","null","","","","null","","","","key","16.675666666667286","650","290","","","","","","","","","","","","","153","1","6","false","","","",""
"psychophysics","192","439483","0.0-16.0-2.6","5da74e9437d4210016492810","637ca5e1af997cace1140107","637cab11fcce50cbf46eeeef","1827","","","","77","","","","key","16.675588785046735","650","290","","","","","","","","","","","","","","","","","","","",""
"psychophysics","193","440489","0.0-16.0-0.7","5da74e9437d4210016492810","637ca5e1af997cace1140107","637cab11fcce50cbf46eeeef","null","","","","null","","","","key","16.67560655737704","650","290","","","","","","","","","","","","","","","","","","","",""
"psychophysics","194","440999","0.0-16.0-1.7","5da74e9437d4210016492810","637ca5e1af997cace1140107","637cab11fcce50cbf46eeeef","null","","","","null","","","","key","16.67589655172497","650","290","","","","","","","","","","","","","153","1","4","false","","","",""
"psychophysics","195","441562","0.0-16.0-2.7","5da74e9437d4210016492810","637ca5e1af997cace1140107","637cab11fcce50cbf46eeeef","560.9000000059605","","","","77","","","","key","16.675333333333995","650","290","","","","","","","","","","","","","","","","","","","",""
"psychophysics","196","442566","0.0-16.0-0.8","5da74e9437d4210016492810","637ca5e1af997cace1140107","637cab11fcce50cbf46eeeef","null","","","","null","","","","key","16.675525423729304","650","290","","","","","","","","","","","","","","","","","","","",""
"psychophysics","197","443070","0.0-16.0-1.8","5da74e9437d4210016492810","637ca5e1af997cace1140107","637cab11fcce50cbf46eeeef","null","","","","null","","","","key","16.675000000000402","650","290","","","","","","","","","","","","","153","1","5","false","","","",""
"psychophysics","198","443494","0.0-16.0-2.8","5da74e9437d4210016492810","637ca5e1af997cace1140107","637cab11fcce50cbf46eeeef","420.69999998807907","","","","77","","","","key","16.675541666668625","650","290","","","","","","","","","","","","","","","","","","","",""
"psychophysics","199","444502","0.0-16.0-0.9","5da74e9437d4210016492810","637ca5e1af997cace1140107","637cab11fcce50cbf46eeeef","null","","","","null","","","","key","16.675583333332906","650","290","","","","","","","","","","","","","","","","","","","",""
"psychophysics","200","445008","0.0-16.0-1.9","5da74e9437d4210016492810","637ca5e1af997cace1140107","637cab11fcce50cbf46eeeef","null","","","","null","","","","key","16.675433333332574","650","290","","","","","","","","","","","","","153","-1","0","false","","","",""
"psychophysics","201","446589","0.0-16.0-2.9","5da74e9437d4210016492810","637ca5e1af997cace1140107","637cab11fcce50cbf46eeeef","1578.5999999940395","","","","77","","","","key","16.675569892473526","650","290","","","","","","","","","","","","","","","","","","","",""
"psychophysics","202","447592","0.0-16.0-0.10","5da74e9437d4210016492810","637ca5e1af997cace1140107","637cab11fcce50cbf46eeeef","null","","","","null","","","","key","16.675416666667054","650","290","","","","","","","","","","","","","","","","","","","",""
"psychophysics","203","448102","0.0-16.0-1.10","5da74e9437d4210016492810","637ca5e1af997cace1140107","637cab11fcce50cbf46eeeef","null","","","","null","","","","key","16.67579310344821","650","290","","","","","","","","","","","","","153","-1","2","false","","","",""
"psychophysics","204","450370","0.0-16.0-2.10","5da74e9437d4210016492810","637ca5e1af997cace1140107","637cab11fcce50cbf46eeeef","2265.300000011921","","","","90","","","","key","16.800082089552316","650","290","","","","","","","","","","","","","","","","","","","",""
"psychophysics","205","451374","0.0-16.0-0.11","5da74e9437d4210016492810","637ca5e1af997cace1140107","637cab11fcce50cbf46eeeef","null","","","","null","","","","key","16.675372881356083","650","290","","","","","","","","","","","","","","","","","","","",""
"psychophysics","206","451886","0.0-16.0-1.11","5da74e9437d4210016492810","637ca5e1af997cace1140107","637cab11fcce50cbf46eeeef","null","","","","null","","","","key","16.675933333333038","650","290","","","","","","","","","","","","","153","1","2","false","","","",""
"psychophysics","207","455303","0.0-16.0-2.11","5da74e9437d4210016492810","637ca5e1af997cace1140107","637cab11fcce50cbf46eeeef","3414.2000000178814","","","","77","","","","key","16.67555882352919","650","290","","","","","","","","","","","","","","","","","","","",""
"psychophysics","208","456310","0.0-16.0-0.12","5da74e9437d4210016492810","637ca5e1af997cace1140107","637cab11fcce50cbf46eeeef","null","","","","null","","","","key","16.96322413793151","650","290","","","","","","","","","","","","","","","","","","","",""
"psychophysics","209","456814","0.0-16.0-1.12","5da74e9437d4210016492810","637ca5e1af997cace1140107","637cab11fcce50cbf46eeeef","null","","","","null","","","","key","16.675666666667286","650","290","","","","","","","","","","","","","153","-1","6","false","","","",""
"psychophysics","210","457823","0.0-16.0-2.12","5da74e9437d4210016492810","637ca5e1af997cace1140107","637cab11fcce50cbf46eeeef","1006.2000000178814","","","","77","","","","key","16.675457627118874","650","290","","","","","","","","","","","","","","","","","","","",""
"psychophysics","211","458830","0.0-16.0-0.13","5da74e9437d4210016492810","637ca5e1af997cace1140107","637cab11fcce50cbf46eeeef","null","","","","null","","","","key","16.675847457627118","650","290","","","","","","","","","","","","","","","","","","","",""
"psychophysics","212","459334","0.0-16.0-1.13","5da74e9437d4210016492810","637ca5e1af997cace1140107","637cab11fcce50cbf46eeeef","null","","","","null","","","","key","16.675599999999395","650","290","","","","","","","","","","","","","153","1","0","false","","","",""
"psychophysics","213","460704","0.0-16.0-2.13","5da74e9437d4210016492810","637ca5e1af997cace1140107","637cab11fcce50cbf46eeeef","1367.6000000238419","","","","77","","","","key","16.884162500000095","650","290","","","","","","","","","","","","","","","","","","","",""
"psychophysics","214","461710","0.0-16.0-0.14","5da74e9437d4210016492810","637ca5e1af997cace1140107","637cab11fcce50cbf46eeeef","null","","","","null","","","","key","16.675152542373418","650","290","","","","","","","","","","","","","","","","","","","",""
"psychophysics","215","462214","0.0-16.0-1.14","5da74e9437d4210016492810","637ca5e1af997cace1140107","637cab11fcce50cbf46eeeef","null","","","","null","","","","key","16.675931034481216","650","290","","","","","","","","","","","","","153","1","4","false","","","",""
"psychophysics","216","462659","0.0-16.0-2.14","5da74e9437d4210016492810","637ca5e1af997cace1140107","637cab11fcce50cbf46eeeef","440.40000000596046","","","","77","","","","key","16.675346153846476","650","290","","","","","","","","","","","","","","","","","","","",""
"psychophysics","217","463662","0.0-16.0-0.15","5da74e9437d4210016492810","637ca5e1af997cace1140107","637cab11fcce50cbf46eeeef","null","","","","null","","","","key","16.675491525423595","650","290","","","","","","","","","","","","","","","","","","","",""
"psychophysics","218","464168","0.0-16.0-1.15","5da74e9437d4210016492810","637ca5e1af997cace1140107","637cab11fcce50cbf46eeeef","null","","","","null","","","","key","16.675766666666217","650","290","","","","","","","","","","","","","153","-1","2","false","","","",""
"psychophysics","219","464738","0.0-16.0-2.15","5da74e9437d4210016492810","637ca5e1af997cace1140107","637cab11fcce50cbf46eeeef","567.5999999940395","","","","90","","","","key","17.1969062499993","650","290","","","","","","","","","","","","","","","","","","","",""
"psychophysics","220","465742","0.0-16.0-0.16","5da74e9437d4210016492810","637ca5e1af997cace1140107","637cab11fcce50cbf46eeeef","null","","","","null","","","","key","16.675559322034026","650","290","","","","","","","","","","","","","","","","","","","",""
"psychophysics","221","466247","0.0-16.0-1.16","5da74e9437d4210016492810","637ca5e1af997cace1140107","637cab11fcce50cbf46eeeef","null","","","","null","","","","key","16.675586206896696","650","290","","","","","","","","","","","","","153","-1","0","false","","","",""
"psychophysics","222","467806","0.0-16.0-2.16","5da74e9437d4210016492810","637ca5e1af997cace1140107","637cab11fcce50cbf46eeeef","1556.5","","","","77","","","","key","16.675580645160956","650","290","","","","","","","","","","","","","","","","","","","",""
"psychophysics","223","468814","0.0-16.0-0.17","5da74e9437d4210016492810","637ca5e1af997cace1140107","637cab11fcce50cbf46eeeef","null","","","","null","","","","key","16.963051724138243","650","290","","","","","","","","","","","","","","","","","","","",""
"psychophysics","224","469318","0.0-16.0-1.17","5da74e9437d4210016492810","637ca5e1af997cace1140107","637cab11fcce50cbf46eeeef","null","","","","null","","","","key","16.675206896551916","650","290","","","","","","","","","","","","","153","1","2","false","","","",""
"psychophysics","225","470322","0.0-16.0-2.17","5da74e9437d4210016492810","637ca5e1af997cace1140107","637cab11fcce50cbf46eeeef","1001.4000000059605","","","","90","","","","key","16.67545000000003","650","290","","","","","","","","","","","","","","","","","","","",""
"psychophysics","226","471326","0.0-16.0-0.18","5da74e9437d4210016492810","637ca5e1af997cace1140107","637cab11fcce50cbf46eeeef","null","","","","null","","","","key","16.962948275862487","650","290","","","","","","","","","","","","","","","","","","","",""
"psychophysics","227","471830","0.0-16.0-1.18","5da74e9437d4210016492810","637ca5e1af997cace1140107","637cab11fcce50cbf46eeeef","null","","","","null","","","","key","16.675310344828677","650","290","","","","","","","","","","","","","153","1","3","false","","","",""
"psychophysics","228","472746","0.0-16.0-2.18","5da74e9437d4210016492810","637ca5e1af997cace1140107","637cab11fcce50cbf46eeeef","912.2999999821186","","","","77","","","","key","16.67557407407353","650","290","","","","","","","","","","","","","","","","","","","",""
"psychophysics","229","473750","0.0-16.0-0.19","5da74e9437d4210016492810","637ca5e1af997cace1140107","637cab11fcce50cbf46eeeef","null","","","","null","","","","key","16.675610169491108","650","290","","","","","","","","","","","","","","","","","","","",""
"psychophysics","230","474262","0.0-16.0-1.19","5da74e9437d4210016492810","637ca5e1af997cace1140107","637cab11fcce50cbf46eeeef","null","","","","null","","","","key","16.67599999999899","650","290","","","","","","","","","","","","","153","-1","4","false","","","",""
"psychophysics","231","474821","0.0-16.0-2.19","5da74e9437d4210016492810","637ca5e1af997cace1140107","637cab11fcce50cbf46eeeef","556.9000000059605","","","","77","","","","key","16.675624999999854","650","290","","","","","","","","","","","","","","","","","","","",""
"psychophysics","232","475824","0.0-16.0-0.20","5da74e9437d4210016492810","637ca5e1af997cace1140107","637cab11fcce50cbf46eeeef","null","","","","null","","","","key","16.675516666666955","650","290","","","","","","","","","","","","","","","","","","","",""
"psychophysics","233","476339","0.0-16.0-1.20","5da74e9437d4210016492810","637ca5e1af997cace1140107","637cab11fcce50cbf46eeeef","null","","","","null","","","","key","16.67541379310343","650","290","","","","","","","","","","","","","153","-1","3","false","","","",""
"psychophysics","234","476760","0.0-16.0-2.20","5da74e9437d4210016492810","637ca5e1af997cace1140107","637cab11fcce50cbf46eeeef","416.60000002384186","","","","77","","","","key","16.6760400000005","650","290","","","","","","","","","","","","","","","","","","","",""
"psychophysics","235","477766","0.0-16.0-0.21","5da74e9437d4210016492810","637ca5e1af997cace1140107","637cab11fcce50cbf46eeeef","null","","","","null","","","","key","16.675576271186387","650","290","","","","","","","","","","","","","","","","","","","",""
"psychophysics","236","478270","0.0-16.0-1.21","5da74e9437d4210016492810","637ca5e1af997cace1140107","637cab11fcce50cbf46eeeef","null","","","","null","","","","key","16.675448275861683","650","290","","","","","","","","","","","","","153","1","5","false","","","",""
"psychophysics","237","478721","0.0-16.0-2.21","5da74e9437d4210016492810","637ca5e1af997cace1140107","637cab11fcce50cbf46eeeef","449","","","","77","","","","key","16.67565384615311","650","290","","","","","","","","","","","","","","","","","","","",""
"psychophysics","238","479727","0.0-16.0-0.22","5da74e9437d4210016492810","637ca5e1af997cace1140107","637cab11fcce50cbf46eeeef","null","","","","null","","","","key","16.675599999999395","650","290","","","","","","","","","","","","","","","","","","","",""
"psychophysics","239","480230","0.0-16.0-1.22","5da74e9437d4210016492810","637ca5e1af997cace1140107","637cab11fcce50cbf46eeeef","null","","","","null","","","","key","16.675862068964715","650","290","","","","","","","","","","","","","153","1","6","false","","","",""
"psychophysics","240","480636","0.0-16.0-2.22","5da74e9437d4210016492810","637ca5e1af997cace1140107","637cab11fcce50cbf46eeeef","403.40000000596046","","","","77","","","","key","16.67552173913092","650","290","","","","","","","","","","","","","","","","","","","",""
"psychophysics","241","481638","0.0-16.0-0.23","5da74e9437d4210016492810","637ca5e1af997cace1140107","637cab11fcce50cbf46eeeef","null","","","","null","","","","key","16.675779661016687","650","290","","","","","","","","","","","","","","","","","","","",""
"psychophysics","242","482166","0.0-16.0-1.23","5da74e9437d4210016492810","637ca5e1af997cace1140107","637cab11fcce50cbf46eeeef","null","","","","null","","","","key","16.675451612901767","650","290","","","","","","","","","","","","","153","-1","5","false","","","",""
"psychophysics","243","482655","0.0-16.0-2.23","5da74e9437d4210016492810","637ca5e1af997cace1140107","637cab11fcce50cbf46eeeef","486.90000000596046","","","","77","","","","key","16.675107142856827","650","290","","","","","","","","","","","","","","","","","","","",""
"html-keyboard-response","244","487193","0.0-17.0","5da74e9437d4210016492810","637ca5e1af997cace1140107","637cab11fcce50cbf46eeeef","4535.699999988079","<p>Well Done !</p><p>Training Complete. Press the spacebar to start.</p><p>DON'T EXIT THE FULL SCREEN MODE</p>","","","32","","","","","","","","","","","","","","","","","","","","","","","","","","",""
"psychophysics","245","490206","0.0-18.0-0.0","5da74e9437d4210016492810","637ca5e1af997cace1140107","637cab11fcce50cbf46eeeef","null","","","","null","","","","key","16.692333333332986","650","290","","","","","","","","","","","","","","","","","","","",""
"psychophysics","246","490710","0.0-18.0-1.0","5da74e9437d4210016492810","637ca5e1af997cace1140107","637cab11fcce50cbf46eeeef","null","","","","null","","","","key","16.675517241380195","650","290","","","","","","","","","","","","","153","-1","5","true","","","",""
"psychophysics","247","491366","0.0-18.0-2.0","5da74e9437d4210016492810","637ca5e1af997cace1140107","637cab11fcce50cbf46eeeef","653","","","","77","","","","key","16.67582051282098","650","290","","","","","","","","","","","","","","","","","","","",""
"psychophysics","248","492374","0.0-18.0-0.1","5da74e9437d4210016492810","637ca5e1af997cace1140107","637cab11fcce50cbf46eeeef","null","","","","null","","","","key","16.675542372880678","650","290","","","","","","","","","","","","","","","","","","","",""
"psychophysics","249","492902","0.0-18.0-1.1","5da74e9437d4210016492810","637ca5e1af997cace1140107","637cab11fcce50cbf46eeeef","null","","","","null","","","","key","16.675419354837597","650","290","","","","","","","","","","","","","153","1","4","true","","","",""
"psychophysics","250","493211","0.0-18.0-2.1","5da74e9437d4210016492810","637ca5e1af997cace1140107","637cab11fcce50cbf46eeeef","306.90000000596046","","","","77","","","","key","16.675941176472833","650","290","","","","","","","","","","","","","","","","","","","",""
"psychophysics","251","494215","0.0-18.0-0.2","5da74e9437d4210016492810","637ca5e1af997cace1140107","637cab11fcce50cbf46eeeef","null","","","","null","","","","key","16.67586440677948","650","290","","","","","","","","","","","","","","","","","","","",""
"psychophysics","252","494718","0.0-18.0-1.2","5da74e9437d4210016492810","637ca5e1af997cace1140107","637cab11fcce50cbf46eeeef","null","","","","null","","","","key","16.675233333332773","650","290","","","","","","","","","","","","","153","-1","4","true","","","",""
"psychophysics","253","494910","0.0-18.0-2.2","5da74e9437d4210016492810","637ca5e1af997cace1140107","637cab11fcce50cbf46eeeef","189.69999998807907","","","","77","","","","key","16.675500000000465","650","290","","","","","","","","","","","","","","","","","","","",""
"psychophysics","254","495926","0.0-18.0-0.3","5da74e9437d4210016492810","637ca5e1af997cace1140107","637cab11fcce50cbf46eeeef","null","","","","null","","","","key","16.67556666666642","650","290","","","","","","","","","","","","","","","","","","","",""
"psychophysics","255","496430","0.0-18.0-1.3","5da74e9437d4210016492810","637ca5e1af997cace1140107","637cab11fcce50cbf46eeeef","null","","","","null","","","","key","16.67541379310343","650","290","","","","","","","","","","","","","153","1","0","true","","","",""
"psychophysics","256","496956","0.0-18.0-2.3","5da74e9437d4210016492810","637ca5e1af997cace1140107","637cab11fcce50cbf46eeeef","523","","","","77","","","","key","16.675580645162206","650","290","","","","","","","","","","","","","","","","","","","",""
"psychophysics","257","497959","0.0-18.0-0.4","5da74e9437d4210016492810","637ca5e1af997cace1140107","637cab11fcce50cbf46eeeef","null","","","","null","","","","key","16.675457627118874","650","290","","","","","","","","","","","","","","","","","","","",""
"psychophysics","258","498463","0.0-18.0-1.4","5da74e9437d4210016492810","637ca5e1af997cace1140107","637cab11fcce50cbf46eeeef","null","","","","null","","","","key","16.675655172415205","650","290","","","","","","","","","","","","","153","-1","6","true","","","",""
"psychophysics","259","498828","0.0-18.0-2.4","5da74e9437d4210016492810","637ca5e1af997cace1140107","637cab11fcce50cbf46eeeef","362.90000000596046","","","","77","","","","key","16.67552380952596","650","290","","","","","","","","","","","","","","","","","","","",""
"psychophysics","260","499830","0.0-18.0-0.5","5da74e9437d4210016492810","637ca5e1af997cace1140107","637cab11fcce50cbf46eeeef","null","","","","null","","","","key","16.675406779660804","650","290","","","","","","","","","","","","","","","","","","","",""
"psychophysics","261","500334","0.0-18.0-1.5","5da74e9437d4210016492810","637ca5e1af997cace1140107","637cab11fcce50cbf46eeeef","null","","","","null","","","","key","16.675517241380195","650","290","","","","","","","","","","","","","153","1","3","true","","","",""
"psychophysics","262","500693","0.0-18.0-2.5","5da74e9437d4210016492810","637ca5e1af997cace1140107","637cab11fcce50cbf46eeeef","355.2000000178814","","","","77","","","","key","16.675809523811388","650","290","","","","","","","","","","","","","","","","","","","",""
"psychophysics","263","501702","0.0-18.0-0.6","5da74e9437d4210016492810","637ca5e1af997cace1140107","637cab11fcce50cbf46eeeef","null","","","","null","","","","key","16.675593220338747","650","290","","","","","","","","","","","","","","","","","","","",""
"psychophysics","264","502205","0.0-18.0-1.6","5da74e9437d4210016492810","637ca5e1af997cace1140107","637cab11fcce50cbf46eeeef","null","","","","null","","","","key","16.675199999999798","650","290","","","","","","","","","","","","","153","1","2","true","","","",""
"psychophysics","265","502570","0.0-18.0-2.6","5da74e9437d4210016492810","637ca5e1af997cace1140107","637cab11fcce50cbf46eeeef","362.5","","","","77","","","","key","16.676149999999325","650","290","","","","","","","","","","","","","","","","","","","",""
"psychophysics","266","503573","0.0-18.0-0.7","5da74e9437d4210016492810","637ca5e1af997cace1140107","637cab11fcce50cbf46eeeef","null","","","","null","","","","key","16.675516666666955","650","290","","","","","","","","","","","","","","","","","","","",""
"psychophysics","267","504079","0.0-18.0-1.7","5da74e9437d4210016492810","637ca5e1af997cace1140107","637cab11fcce50cbf46eeeef","null","","","","null","","","","key","16.675344827584922","650","290","","","","","","","","","","","","","153","-1","2","true","","","",""
"psychophysics","268","504389","0.0-18.0-2.7","5da74e9437d4210016492810","637ca5e1af997cace1140107","637cab11fcce50cbf46eeeef","308.2000000178814","","","","90","","","","key","16.675529411764515","650","290","","","","","","","","","","","","","","","","","","","",""
"psychophysics","269","505399","0.0-18.0-0.8","5da74e9437d4210016492810","637ca5e1af997cace1140107","637cab11fcce50cbf46eeeef","null","","","","null","","","","key","16.675500000000465","650","290","","","","","","","","","","","","","","","","","","","",""
"psychophysics","270","505902","0.0-18.0-1.8","5da74e9437d4210016492810","637ca5e1af997cace1140107","637cab11fcce50cbf46eeeef","null","","","","null","","","","key","16.676206896551243","650","290","","","","","","","","","","","","","153","-1","3","true","","","",""
"psychophysics","271","506154","0.0-18.0-2.8","5da74e9437d4210016492810","637ca5e1af997cace1140107","637cab11fcce50cbf46eeeef","248.40000000596046","","","","77","","","","key","16.674928571426012","650","290","","","","","","","","","","","","","","","","","","","",""
"psychophysics","272","507157","0.0-18.0-0.9","5da74e9437d4210016492810","637ca5e1af997cace1140107","637cab11fcce50cbf46eeeef","null","","","","null","","","","key","16.675700000000266","650","290","","","","","","","","","","","","","","","","","","","",""
"psychophysics","273","507663","0.0-18.0-1.9","5da74e9437d4210016492810","637ca5e1af997cace1140107","637cab11fcce50cbf46eeeef","null","","","","null","","","","key","16.67572413793171","650","290","","","","","","","","","","","","","153","1","6","true","","","",""
"psychophysics","274","507932","0.0-18.0-2.9","5da74e9437d4210016492810","637ca5e1af997cace1140107","637cab11fcce50cbf46eeeef","266.7999999821186","","","","77","","","","key","16.675866666665147","650","290","","","","","","","","","","","","","","","","","","","",""
"psychophysics","275","508934","0.0-18.0-0.10","5da74e9437d4210016492810","637ca5e1af997cace1140107","637cab11fcce50cbf46eeeef","null","","","","null","","","","key","16.675745762711966","650","290","","","","","","","","","","","","","","","","","","","",""
"psychophysics","276","509454","0.0-18.0-1.10","5da74e9437d4210016492810","637ca5e1af997cace1140107","637cab11fcce50cbf46eeeef","null","","","","null","","","","key","16.675500000000465","650","290","","","","","","","","","","","","","153","-1","0","true","","","",""
"psychophysics","277","509741","0.0-18.0-2.10","5da74e9437d4210016492810","637ca5e1af997cace1140107","637cab11fcce50cbf46eeeef","284.19999998807907","","","","77","","","","key","16.675687499999185","650","290","","","","","","","","","","","","","","","","","","","",""
"psychophysics","278","510743","0.0-18.0-0.11","5da74e9437d4210016492810","637ca5e1af997cace1140107","637cab11fcce50cbf46eeeef","null","","","","null","","","","key","16.675800000000162","650","290","","","","","","","","","","","","","","","","","","","",""
"psychophysics","279","511246","0.0-18.0-1.11","5da74e9437d4210016492810","637ca5e1af997cace1140107","637cab11fcce50cbf46eeeef","null","","","","null","","","","key","16.676034482757977","650","290","","","","","","","","","","","","","153","1","5","true","","","",""
"psychophysics","280","511538","0.0-18.0-2.11","5da74e9437d4210016492810","637ca5e1af997cace1140107","637cab11fcce50cbf46eeeef","289.30000001192093","","","","77","","","","key","16.675812499997846","650","290","","","","","","","","","","","","","","","","","","","",""
"psychophysics","281","512542","0.0-18.0-0.12","5da74e9437d4210016492810","637ca5e1af997cace1140107","637cab11fcce50cbf46eeeef","null","","","","null","","","","key","16.96287931034498","650","290","","","","","","","","","","","","","","","","","","","",""
"psychophysics","282","513046","0.0-18.0-1.12","5da74e9437d4210016492810","637ca5e1af997cace1140107","637cab11fcce50cbf46eeeef","null","","","","null","","","","key","16.67556666666642","650","290","","","","","","","","","","","","","153","-1","2","true","","","",""
"psychophysics","283","513463","0.0-18.0-2.12","5da74e9437d4210016492810","637ca5e1af997cace1140107","637cab11fcce50cbf46eeeef","401.40000000596046","","","","90","","","","key","16.675666666664863","650","290","","","","","","","","","","","","","","","","","","","",""
"psychophysics","284","514470","0.0-18.0-0.13","5da74e9437d4210016492810","637ca5e1af997cace1140107","637cab11fcce50cbf46eeeef","null","","","","null","","","","key","16.675508474576944","650","290","","","","","","","","","","","","","","","","","","","",""
"psychophysics","285","514974","0.0-18.0-1.13","5da74e9437d4210016492810","637ca5e1af997cace1140107","637cab11fcce50cbf46eeeef","null","","","","null","","","","key","16.675137931033408","650","290","","","","","","","","","","","","","153","-1","5","true","","","",""
"psychophysics","286","515164","0.0-18.0-2.13","5da74e9437d4210016492810","637ca5e1af997cace1140107","637cab11fcce50cbf46eeeef","185.40000000596046","","","","77","","","","key","16.675818181818943","650","290","","","","","","","","","","","","","","","","","","","",""
"psychophysics","287","516166","0.0-18.0-0.14","5da74e9437d4210016492810","637ca5e1af997cace1140107","637cab11fcce50cbf46eeeef","null","","","","null","","","","key","16.675338983050374","650","290","","","","","","","","","","","","","","","","","","","",""
"psychophysics","288","516671","0.0-18.0-1.14","5da74e9437d4210016492810","637ca5e1af997cace1140107","637cab11fcce50cbf46eeeef","null","","","","null","","","","key","16.67541379310343","650","290","","","","","","","","","","","","","153","1","2","true","","","",""
"psychophysics","289","517162","0.0-18.0-2.14","5da74e9437d4210016492810","637ca5e1af997cace1140107","637cab11fcce50cbf46eeeef","488","","","","77","","","","key","16.675321428570896","650","290","","","","","","","","","","","","","","","","","","","",""
"psychophysics","290","518164","0.0-18.0-0.15","5da74e9437d4210016492810","637ca5e1af997cace1140107","637cab11fcce50cbf46eeeef","null","","","","null","","","","key","16.675399999999595","650","290","","","","","","","","","","","","","","","","","","","",""
"psychophysics","291","518670","0.0-18.0-1.15","5da74e9437d4210016492810","637ca5e1af997cace1140107","637cab11fcce50cbf46eeeef","null","","","","null","","","","key","16.67582758620847","650","290","","","","","","","","","","","","","153","-1","0","true","","","",""
"psychophysics","292","518984","0.0-18.0-2.15","5da74e9437d4210016492810","637ca5e1af997cace1140107","637cab11fcce50cbf46eeeef","292.7999999821186","","","","77","","","","key","16.676055555555244","650","290","","","","","","","","","","","","","","","","","","","",""
"psychophysics","293","519990","0.0-18.0-0.16","5da74e9437d4210016492810","637ca5e1af997cace1140107","637cab11fcce50cbf46eeeef","null","","","","null","","","","key","16.67566101694819","650","290","","","","","","","","","","","","","","","","","","","",""
"psychophysics","294","520495","0.0-18.0-1.16","5da74e9437d4210016492810","637ca5e1af997cace1140107","637cab11fcce50cbf46eeeef","null","","","","null","","","","key","16.675172413791657","650","290","","","","","","","","","","","","","153","-1","6","true","","","",""
"psychophysics","295","520675","0.0-18.0-2.16","5da74e9437d4210016492810","637ca5e1af997cace1140107","637cab11fcce50cbf46eeeef","152","","","","77","","","","key","16.676599999994504","650","290","","","","","","","","","","","","","","","","","","","",""
"psychophysics","296","521678","0.0-18.0-0.17","5da74e9437d4210016492810","637ca5e1af997cace1140107","637cab11fcce50cbf46eeeef","null","","","","null","","","","key","16.675440677966513","650","290","","","","","","","","","","","","","","","","","","","",""
"psychophysics","297","522181","0.0-18.0-1.17","5da74e9437d4210016492810","637ca5e1af997cace1140107","637cab11fcce50cbf46eeeef","null","","","","null","","","","key","16.675517241378188","650","290","","","","","","","","","","","","","153","1","0","true","","","",""
"psychophysics","298","522617","0.0-18.0-2.17","5da74e9437d4210016492810","637ca5e1af997cace1140107","637cab11fcce50cbf46eeeef","430.69999998807907","","","","77","","","","key","16.674920000000856","650","290","","","","","","","","","","","","","","","","","","","",""
"psychophysics","299","523631","0.0-18.0-0.18","5da74e9437d4210016492810","637ca5e1af997cace1140107","637cab11fcce50cbf46eeeef","null","","","","null","","","","key","16.67538333333408","650","290","","","","","","","","","","","","","","","","","","","",""
"psychophysics","300","524134","0.0-18.0-1.18","5da74e9437d4210016492810","637ca5e1af997cace1140107","637cab11fcce50cbf46eeeef","null","","","","null","","","","key","16.675399999999595","650","290","","","","","","","","","","","","","153","1","3","true","","","",""
"psychophysics","301","524253","0.0-18.0-2.18","5da74e9437d4210016492810","637ca5e1af997cace1140107","637cab11fcce50cbf46eeeef","116.89999997615814","","","","77","","","","key","16.677166666660924","650","290","","","","","","","","","","","","","","","","","","","",""
"psychophysics","302","525262","0.0-18.0-0.19","5da74e9437d4210016492810","637ca5e1af997cace1140107","637cab11fcce50cbf46eeeef","null","","","","null","","","","key","16.67549152542458","650","290","","","","","","","","","","","","","","","","","","","",""
"psychophysics","303","525767","0.0-18.0-1.19","5da74e9437d4210016492810","637ca5e1af997cace1140107","637cab11fcce50cbf46eeeef","null","","","","null","","","","key","16.67556666666642","650","290","","","","","","","","","","","","","153","1","4","true","","","",""
"psychophysics","304","526075","0.0-18.0-2.19","5da74e9437d4210016492810","637ca5e1af997cace1140107","637cab11fcce50cbf46eeeef","305.09999999403954","","","","77","","","","key","16.675882352947475","650","290","","","","","","","","","","","","","","","","","","","",""
"psychophysics","305","527078","0.0-18.0-0.20","5da74e9437d4210016492810","637ca5e1af997cace1140107","637cab11fcce50cbf46eeeef","null","","","","null","","","","key","16.675644067796814","650","290","","","","","","","","","","","","","","","","","","","",""
"psychophysics","306","527606","0.0-18.0-1.20","5da74e9437d4210016492810","637ca5e1af997cace1140107","637cab11fcce50cbf46eeeef","null","","","","null","","","","key","16.675419354837597","650","290","","","","","","","","","","","","","153","-1","4","true","","","",""
"psychophysics","307","527733","0.0-18.0-2.20","5da74e9437d4210016492810","637ca5e1af997cace1140107","637cab11fcce50cbf46eeeef","124.40000000596046","","","","77","","","","key","16.67666666667598","650","290","","","","","","","","","","","","","","","","","","","",""
"psychophysics","308","528736","0.0-18.0-0.21","5da74e9437d4210016492810","637ca5e1af997cace1140107","637cab11fcce50cbf46eeeef","null","","","","null","","","","key","16.675516666665985","650","290","","","","","","","","","","","","","","","","","","","",""
"psychophysics","309","529238","0.0-18.0-1.21","5da74e9437d4210016492810","637ca5e1af997cace1140107","637cab11fcce50cbf46eeeef","null","","","","null","","","","key","16.675379310345182","650","290","","","","","","","","","","","","","153","1","6","true","","","",""
"psychophysics","310","529481","0.0-18.0-2.21","5da74e9437d4210016492810","637ca5e1af997cace1140107","637cab11fcce50cbf46eeeef","240.80000001192093","","","","77","","","","key","16.675538461538963","650","290","","","","","","","","","","","","","","","","","","","",""
"psychophysics","311","530486","0.0-18.0-0.22","5da74e9437d4210016492810","637ca5e1af997cace1140107","637cab11fcce50cbf46eeeef","null","","","","null","","","","key","16.67563333333237","650","290","","","","","","","","","","","","","","","","","","","",""
"psychophysics","312","530990","0.0-18.0-1.22","5da74e9437d4210016492810","637ca5e1af997cace1140107","637cab11fcce50cbf46eeeef","null","","","","null","","","","key","16.67589655172497","650","290","","","","","","","","","","","","","153","1","5","true","","","",""
"psychophysics","313","531209","0.0-18.0-2.22","5da74e9437d4210016492810","637ca5e1af997cace1140107","637cab11fcce50cbf46eeeef","216.59999999403954","","","","77","","","","key","16.676416666664107","650","290","","","","","","","","","","","","","","","","","","","",""
"psychophysics","314","532214","0.0-18.0-0.23","5da74e9437d4210016492810","637ca5e1af997cace1140107","637cab11fcce50cbf46eeeef","null","","","","null","","","","key","16.963137931033874","650","290","","","","","","","","","","","","","","","","","","","",""
"psychophysics","315","532718","0.0-18.0-1.23","5da74e9437d4210016492810","637ca5e1af997cace1140107","637cab11fcce50cbf46eeeef","null","","","","null","","","","key","16.674689655172124","650","290","","","","","","","","","","","","","153","-1","3","true","","","",""
"psychophysics","316","532821","0.0-18.0-2.23","5da74e9437d4210016492810","637ca5e1af997cace1140107","637cab11fcce50cbf46eeeef","80.40000000596046","","","","77","","","","key","16.67679999999236","650","290","","","","","","","","","","","","","","","","","","","",""
"psychophysics","317","533830","0.0-18.0-0.24","5da74e9437d4210016492810","637ca5e1af997cace1140107","637cab11fcce50cbf46eeeef","null","","","","null","","","","key","16.67546666666749","650","290","","","","","","","","","","","","","","","","","","","",""
"psychophysics","318","534334","0.0-18.0-1.24","5da74e9437d4210016492810","637ca5e1af997cace1140107","637cab11fcce50cbf46eeeef","null","","","","null","","","","key","16.67558620689469","650","290","","","","","","","","","","","","","153","1","6","true","","","",""
"psychophysics","319","534527","0.0-18.0-2.24","5da74e9437d4210016492810","637ca5e1af997cace1140107","637cab11fcce50cbf46eeeef","190.40000000596046","","","","77","","","","key","16.676399999996647","650","290","","","","","","","","","","","","","","","","","","","",""
"psychophysics","320","535534","0.0-18.0-0.25","5da74e9437d4210016492810","637ca5e1af997cace1140107","637cab11fcce50cbf46eeeef","null","","","","null","","","","key","16.67556666666642","650","290","","","","","","","","","","","","","","","","","","","",""
"psychophysics","321","536039","0.0-18.0-1.25","5da74e9437d4210016492810","637ca5e1af997cace1140107","637cab11fcce50cbf46eeeef","null","","","","null","","","","key","16.67536666666468","650","290","","","","","","","","","","","","","153","-1","4","true","","","",""
"psychophysics","322","536197","0.0-18.0-2.25","5da74e9437d4210016492810","637ca5e1af997cace1140107","637cab11fcce50cbf46eeeef","155.19999998807907","","","","77","","","","key","16.674499999993714","650","290","","","","","","","","","","","","","","","","","","","",""
"psychophysics","323","537207","0.0-18.0-0.26","5da74e9437d4210016492810","637ca5e1af997cace1140107","637cab11fcce50cbf46eeeef","null","","","","null","","","","key","16.6755500000009","650","290","","","","","","","","","","","","","","","","","","","",""
"psychophysics","324","537710","0.0-18.0-1.26","5da74e9437d4210016492810","637ca5e1af997cace1140107","637cab11fcce50cbf46eeeef","null","","","","null","","","","key","16.675862068964715","650","290","","","","","","","","","","","","","153","-1","6","true","","","",""
"psychophysics","325","537980","0.0-18.0-2.26","5da74e9437d4210016492810","637ca5e1af997cace1140107","637cab11fcce50cbf46eeeef","266.7999999821186","","","","77","","","","key","16.675600000005215","650","290","","","","","","","","","","","","","","","","","","","",""
"psychophysics","326","538982","0.0-18.0-0.27","5da74e9437d4210016492810","637ca5e1af997cace1140107","637cab11fcce50cbf46eeeef","null","","","","null","","","","key","16.9630862068975","650","290","","","","","","","","","","","","","","","","","","","",""
"psychophysics","327","539486","0.0-18.0-1.27","5da74e9437d4210016492810","637ca5e1af997cace1140107","637cab11fcce50cbf46eeeef","null","","","","null","","","","key","16.675241379312176","650","290","","","","","","","","","","","","","153","-1","2","true","","","",""
"psychophysics","328","540104","0.0-18.0-2.27","5da74e9437d4210016492810","637ca5e1af997cace1140107","637cab11fcce50cbf46eeeef","614.3000000119209","","","","90","","","","key","16.67549999999917","650","290","","","","","","","","","","","","","","","","","","","",""
"psychophysics","329","541109","0.0-18.0-0.28","5da74e9437d4210016492810","637ca5e1af997cace1140107","637cab11fcce50cbf46eeeef","null","","","","null","","","","key","16.675750000000697","650","290","","","","","","","","","","","","","","","","","","","",""
"psychophysics","330","541614","0.0-18.0-1.28","5da74e9437d4210016492810","637ca5e1af997cace1140107","637cab11fcce50cbf46eeeef","null","","","","null","","","","key","16.67589655172497","650","290","","","","","","","","","","","","","153","-1","0","true","","","",""
"psychophysics","331","541977","0.0-18.0-2.28","5da74e9437d4210016492810","637ca5e1af997cace1140107","637cab11fcce50cbf46eeeef","360","","","","90","","","","key","16.675699999998322","650","290","","","","","","","","","","","","","","","","","","","",""
"psychophysics","332","542993","0.0-18.0-0.29","5da74e9437d4210016492810","637ca5e1af997cace1140107","637cab11fcce50cbf46eeeef","null","","","","null","","","","key","16.67542622950821","650","290","","","","","","","","","","","","","","","","","","","",""
