"trial_type","trial_index","time_elapsed","internal_node_id","PROLIFIC_PID","STUDY_ID","SESSION_ID","rt","stimulus","button_pressed","success","key_press","responses","isData","view_history","response_type","avg_frame_time","center_x","center_y","isSC","stim_side","trial_luminance","step_size","nReversal","correct","prev_ans","isThreshold","SC_threshold","final_threshold","isLuminance","FF_luminance","luminance","stimSide","ISInt","isFF","question_order","isSPQ","isCAPS","isAQ"
"pavlovia","0","10","0.0-0.0","5977369c435a7500011593ee","637ca5e1af997cace1140107","637cab25353194e4f83472a8","","","","","","","","","","","","","","","","","","","","","","","","","","","","","","","",""
"html-button-response","1","25777","0.0-1.0","5977369c435a7500011593ee","637ca5e1af997cace1140107","637cab25353194e4f83472a8","25764.100000023842","<div style='background-color: white; width:60%; margin: auto; padding: 50px; text-align: justify; text-justify: inter-word; margin-bottom: 20px;'><h1 style='text-align: center;'>Consent Form</h1><p>Please read this consent form carefully before deciding whether you would like to participate in this study. You have to be 18 years old or older to participate to this study.</p><p style='text-decoration: underline;'>Participation is voluntary:</p><p>It is your choice whether or not to participate in this research. If you choose to participate, you may change your mind and leave the study at any time. Refusal to participate or stopping your participation will involve no penalty or loss of benefits to which you are otherwise entitled.</p><p style='text-decoration: underline;'>Purpose of the Study:</p><p>To understand the mechanisms underlying human perception.</p><p style='text-decoration: underline;'>What you will do in this study:</p><p>You will be presented with a series of visual images and then you will press buttons on the keyboard of your computer to respond to simple questions about the images (e.g. Were one or two images presented?). In addition, you will be asked to complete a questionnaire concerning your beliefs and everyday mental and perceptual experiences.'</p><p style='text-decoration: underline;'> Time Required:</p><p>The study will take 40 minutes to complete. </p><p style='text-decoration: underline;'>Risks:</p><p>There are no anticipated risks associated with participating in this study that are beyond those experienced in everyday life. </p><p style='text-decoration: underline;'>Benefits:</p><p>There are no benefits to you in participating in the study. However, this study may lead to a better understanding of how different kinds of visual information are used.</p><p style='text-decoration: underline;'>Compensation:</p><p>You will be paid US$6.6/hour. </p><p style='text-decoration: underline;'>Privacy and Confidentiality:</p><p>Your participation in this study will be anonymous. No personal information about your name or identity will be asked or recorded. This anonymous data will be stored for several years and may be used for a variety of research purposes. The overall results of the study may be published, or the data files may be shared with other researchers, but your identity will not be revealed in any way. The online services we are using for this study may temporarily store your data, but this data will be downloaded and then promptly deleted from those services.Your data will not be permanently associated with your name, IP address, or any other identifiable information (e.g., your information will only be connected to your payment, not to any of your responses), though they may be temporarily stored together before we download and separate them. Even so, no guarantee of internet survey security can be given because, although unlikely, transmissions can be intercepted and IP addresses can be identified. The anonymous data may be shared publicly (for example, in conjunction with a resulting academic publication).</p><p style='text-decoration: underline;'>Participation and Withdrawal:</p><p>Your participation in this study is completely voluntary. You may stop responding to the stimuli or stop answering questions if you so choose and without penalty by exiting the full screen mode, closing this tab of your browser or redirecting it to a different website.</p><p style='text-decoration: underline;'>Contact Info of the Researcher: </p><p>If you have questions about this study, or if you would like to talk to the research team, please contact David Melcher (david.melcher@nyu.edu, md5050@nyu.edu) at the Perception and Active Cognition Laboratory, New York University Abu Dhabi, Computational Research Building, Saadiyat Island, Abu Dhabi, UAE.This research has been reviewed by the New York University Abu Dhabi Institutional Review Board (NYUAD IRB). To contact about your rights in this research, for questions, suggestions, or complaints that are not addressed by the researchers, please email IRBnyuad@nyu.edu, or call the NYUAD IRB at +971 2 628 4313. </p></div>","0","","","","","","","","","","","","","","","","","","","","","","","","","","","","",""
"fullscreen","2","32237","0.0-2.0","5977369c435a7500011593ee","637ca5e1af997cace1140107","637cab25353194e4f83472a8","","","","true","","","","","","","","","","","","","","","","","","","","","","","","","","","",""
"html-keyboard-response","3","45100","0.0-3.0","5977369c435a7500011593ee","637ca5e1af997cace1140107","637cab25353194e4f83472a8","12860.799999952316","<p>Welcome !</p><p>READ CAREFULLY THE FOLLOWING INDICATIONS:</p><p>From this moment you have ~40 minutes to complete the experiment.</p><p>During the experiment you will be prompted to take several breaks. Each break should not last longer than 2-3 minutes.</p><p>Make sure that your computer is plugged in and it's not running on battery power, even if the battery is already fully charged.</p><p>Turn off your phone and music, make sure that you are in a quiet room and that you will not be distracted for the next hour.</p><p>Failure to comply with the instructions and indications provided during the experiment will most likely result in the rejection of your data.<p>Press the spacebar to start.</p>","","","32","","","","","","","","","","","","","","","","","","","","","","","","","","",""
"survey-html-form","4","52154","0.0-4.0","5977369c435a7500011593ee","637ca5e1af997cace1140107","637cab25353194e4f83472a8","7051.200000047684","","","","","{""age"":""58"",""sex"":""F""}","true","","","","","","","","","","","","","","","","","","","","","","","","",""
"instructions","5","96611","0.0-5.0","5977369c435a7500011593ee","637ca5e1af997cace1140107","637cab25353194e4f83472a8","44456","","","","","","","[{""page_index"":0,""viewing_time"":26551.299999952316},{""page_index"":1,""viewing_time"":12404.399999976158},{""page_index"":2,""viewing_time"":5499.900000095367}]","","","","","","","","","","","","","","","","","","","","","","","",""
"psychophysics","6","100348","0.0-6.0-0.0","5977369c435a7500011593ee","637ca5e1af997cace1140107","637cab25353194e4f83472a8","2722.5","","","","37","","","","key","16.652178571428585","768","357","true","1","180","30","0","1","","","","","","","","","","","","","",""
"psychophysics","7","102505","0.0-6.0-0.1","5977369c435a7500011593ee","637ca5e1af997cace1140107","637cab25353194e4f83472a8","1152.5999999046326","","","","39","","","","key","16.650666666666677","768","357","true","1","210","30","0","-1","1","","","","","","","","","","","","",""
"psychophysics","8","104042","0.0-6.0-0.2","5977369c435a7500011593ee","637ca5e1af997cace1140107","637cab25353194e4f83472a8","525.3999999761581","","","","39","","","","key","16.649923076923038","768","357","true","1","210","24","1","-1","-1","","","","","","","","","","","","",""
"psychophysics","9","105909","0.0-6.0-0.3","5977369c435a7500011593ee","637ca5e1af997cace1140107","637cab25353194e4f83472a8","860","","","","39","","","","key","16.65036036036038","768","357","true","1","186","24","1","-1","-1","","","","","","","","","","","","",""
"psychophysics","10","107363","0.0-6.0-0.4","5977369c435a7500011593ee","637ca5e1af997cace1140107","637cab25353194e4f83472a8","449.3000000715256","","","","37","","","","key","16.651511627906963","768","357","true","-1","186","24","1","-1","-1","","","","","","","","","","","","",""
"psychophysics","11","108975","0.0-6.0-0.5","5977369c435a7500011593ee","637ca5e1af997cace1140107","637cab25353194e4f83472a8","595.8000000715256","","","","37","","","","key","16.651770833333256","768","357","true","-1","162","24","1","-1","-1","","","","","","","","","","","","",""
"psychophysics","12","110417","0.0-6.0-0.6","5977369c435a7500011593ee","637ca5e1af997cace1140107","637cab25353194e4f83472a8","419.60000002384186","","","","39","","","","key","16.653186046511617","768","357","true","1","162","24","1","-1","-1","","","","","","","","","","","","",""
"psychophysics","13","111814","0.0-6.0-0.7","5977369c435a7500011593ee","637ca5e1af997cace1140107","637cab25353194e4f83472a8","387.89999997615814","","","","39","","","","key","16.651999999999934","768","357","true","1","138","24","1","-1","-1","","","","","","","","","","","","",""
"psychophysics","14","113255","0.0-6.0-0.8","5977369c435a7500011593ee","637ca5e1af997cace1140107","637cab25353194e4f83472a8","430.09999990463257","","","","37","","","","key","16.649800000000088","768","357","true","-1","138","24","1","-1","-1","","","","","","","","","","","","",""
"psychophysics","15","115148","0.0-6.0-0.9","5977369c435a7500011593ee","637ca5e1af997cace1140107","637cab25353194e4f83472a8","887.8000000715256","","","","37","","","","key","16.651743362831834","768","357","true","-1","129","24","1","-1","-1","","","","","","","","","","","","",""
"psychophysics","16","116652","0.0-6.0-0.10","5977369c435a7500011593ee","637ca5e1af997cace1140107","637cab25353194e4f83472a8","493.39999997615814","","","","37","","","","key","16.653727272727338","768","357","true","1","129","19.2","2","1","-1","","","","","","","","","","","","",""
"psychophysics","17","117858","0.0-6.0-0.11","5977369c435a7500011593ee","637ca5e1af997cace1140107","637cab25353194e4f83472a8","196.19999992847443","","","","39","","","","key","16.652849315068636","768","357","true","1","148.2","19.2","2","-1","1","","","","","","","","","","","","",""
"psychophysics","18","121049","0.0-6.0-0.12","5977369c435a7500011593ee","637ca5e1af997cace1140107","637cab25353194e4f83472a8","2179.399999976158","","","","37","","","","key","16.650336842105254","768","357","true","-1","148.2","15.36","3","-1","-1","","","","","","","","","","","","",""
"psychophysics","19","123356","0.0-6.0-0.13","5977369c435a7500011593ee","637ca5e1af997cace1140107","637cab25353194e4f83472a8","1289.8999999761581","","","","39","","","","key","16.651739130434798","768","357","true","-1","132.83999999999997","12.287999999999998","4","1","-1","","","","","","","","","","","","",""
"psychophysics","20","124688","0.0-6.0-0.14","5977369c435a7500011593ee","637ca5e1af997cace1140107","637cab25353194e4f83472a8","324.2999999523163","","","","39","","","","key","16.650367088607606","768","357","true","1","145.128","12.287999999999998","4","-1","1","","","","","","","","","","","","",""
"psychophysics","21","125755","0.0-6.0-0.15","5977369c435a7500011593ee","637ca5e1af997cace1140107","637cab25353194e4f83472a8","58.299999952316284","","","","39","","","","key","16.65211111111109","768","357","true","1","145.128","9.8304","5","-1","-1","","","","","","","","","","","","",""
"psychophysics","22","130718","0.0-6.0-0.16","5977369c435a7500011593ee","637ca5e1af997cace1140107","637cab25353194e4f83472a8","3955.7000000476837","","","","37","","","","key","16.65032323232326","768","357","true","-1","135.2976","9.8304","5","-1","-1","","","","","","","","","","","","",""
"psychophysics","23","134431","0.0-6.0-0.17","5977369c435a7500011593ee","637ca5e1af997cace1140107","637cab25353194e4f83472a8","2706.7999999523163","","","","37","","","","key","16.652878378378436","768","357","true","-1","135.2976","9.8304","5","-1","-1","","","","","","","","","","","","",""
"psychophysics","24","135958","0.0-6.0-0.18","5977369c435a7500011593ee","637ca5e1af997cace1140107","637cab25353194e4f83472a8","519.1999999284744","","","","37","","","","key","16.650098901098737","768","357","true","-1","129","9.8304","5","-1","-1","","","","","","","","","","","","",""
"psychophysics","25","137756","0.0-6.0-0.19","5977369c435a7500011593ee","637ca5e1af997cace1140107","637cab25353194e4f83472a8","788.3999999761581","","","","37","","","","key","16.651037383177503","768","357","true","-1","129","9.8304","5","-1","-1","","","","","","","","","","","","",""
"psychophysics","26","139591","0.0-6.0-0.20","5977369c435a7500011593ee","637ca5e1af997cace1140107","637cab25353194e4f83472a8","824.2999999523163","","","","37","","","","key","16.652238532109934","768","357","true","1","129","7.864319999999999","6","1","-1","","","","","","","","","","","","",""
"psychophysics","27","141639","0.0-6.0-0.21","5977369c435a7500011593ee","637ca5e1af997cace1140107","637cab25353194e4f83472a8","1040.2999999523163","","","","39","","","","key","16.65097540983602","768","357","true","-1","136.86432","7.864319999999999","6","1","1","","","","","","","","","","","","",""
"psychophysics","28","143311","0.0-6.0-0.22","5977369c435a7500011593ee","637ca5e1af997cace1140107","637cab25353194e4f83472a8","664","","","","39","","","","key","16.650282828282798","768","357","true","1","144.72863999999998","7.864319999999999","6","-1","1","","","","","","","","","","","","",""
"psychophysics","29","144785","0.0-6.0-0.23","5977369c435a7500011593ee","637ca5e1af997cace1140107","637cab25353194e4f83472a8","469.10000002384186","","","","37","","","","key","16.653602272727188","768","357","true","-1","144.72863999999998","6.291456","7","-1","-1","","","","","","","","","","","","",""
"psychophysics","30","146267","0.0-6.0-0.24","5977369c435a7500011593ee","637ca5e1af997cace1140107","637cab25353194e4f83472a8","472.7000000476837","","","","37","","","","key","16.653863636363727","768","357","true","-1","138.43718399999997","6.291456","7","-1","-1","","","","","","","","","","","","",""
"psychophysics","31","148120","0.0-6.0-0.25","5977369c435a7500011593ee","637ca5e1af997cace1140107","637cab25353194e4f83472a8","843.7000000476837","","","","39","","","","key","16.65131818181835","768","357","true","1","138.43718399999997","6.291456","7","-1","-1","","","","","","","","","","","","",""
"psychophysics","32","150495","0.0-6.0-0.26","5977369c435a7500011593ee","637ca5e1af997cace1140107","637cab25353194e4f83472a8","1370.8999999761581","","","","37","","","","key","16.651626760563502","768","357","true","-1","132.14572799999996","6.291456","7","-1","-1","","","","","","","","","","","","",""
"psychophysics","33","153310","0.0-6.0-0.27","5977369c435a7500011593ee","637ca5e1af997cace1140107","637cab25353194e4f83472a8","1804.2999999523163","","","","37","","","","key","16.650422619047667","768","357","true","1","132.14572799999996","5.033164800000001","8","1","-1","","","","","","","","","","","","",""
"psychophysics","34","155161","0.0-6.0-0.28","5977369c435a7500011593ee","637ca5e1af997cace1140107","637cab25353194e4f83472a8","841.2000000476837","","","","37","","","","key","16.652309090908965","768","357","true","-1","137.17889279999997","5.033164800000001","8","-1","1","","","","","","","","","","","","",""
"psychophysics","35","156766","0.0-6.0-0.29","5977369c435a7500011593ee","637ca5e1af997cace1140107","637cab25353194e4f83472a8","599.6000000238419","","","","37","","","","key","16.649631578947332","768","357","true","-1","137.17889279999997","4.0265318400000005","9","-1","-1","","","","","","","","","","","","",""
"psychophysics","36","159673","0.0-6.0-0.30","5977369c435a7500011593ee","637ca5e1af997cace1140107","637cab25353194e4f83472a8","1897.5","","","","39","","","","key","16.651649425287452","768","357","true","-1","133.15236095999998","3.2212254720000004","10","1","-1","","","","","","","","","","","","",""
"psychophysics","37","161652","0.0-6.0-0.31","5977369c435a7500011593ee","637ca5e1af997cace1140107","637cab25353194e4f83472a8","972.6000000238419","","","","37","","","","key","16.65190677966092","768","357","true","-1","136.37358643199997","3.2212254720000004","10","-1","1","","","","","","","","","","","","",""
"psychophysics","38","163100","0.0-6.0-0.32","5977369c435a7500011593ee","637ca5e1af997cace1140107","637cab25353194e4f83472a8","438.1999999284744","","","","39","","","","key","16.65372093023257","768","357","true","1","136.37358643199997","2.5769803776000004","11","-1","-1","","","","","","","","","","","","",""
"psychophysics","39","165120","0.0-6.0-0.33","5977369c435a7500011593ee","637ca5e1af997cace1140107","637cab25353194e4f83472a8","1009.5","","","","39","","","","key","16.65058333333339","768","357","true","1","133.79660605439997","2.5769803776000004","11","-1","-1","","","","","","","","","","","","",""
"psychophysics","40","166795","0.0-6.0-0.34","5977369c435a7500011593ee","637ca5e1af997cace1140107","637cab25353194e4f83472a8","669.5","","","","39","","","","key","16.650629999999946","768","357","true","1","133.79660605439997","2.5769803776000004","11","-1","-1","","","","","","","","","","","","",""
"psychophysics","41","169677","0.0-6.0-0.35","5977369c435a7500011593ee","637ca5e1af997cace1140107","637cab25353194e4f83472a8","1870.6000000238419","","","","39","","","","key","16.651302325581256","768","357","true","-1","131.21962567679998","2.0615843020800004","12","1","-1","","","","","","","","","","","","",""
"psychophysics","42","172074","0.0-6.0-0.36","5977369c435a7500011593ee","637ca5e1af997cace1140107","637cab25353194e4f83472a8","1386.7000000476837","","","","39","","","","key","16.65036363636369","768","357","true","1","133.28120997887999","2.0615843020800004","12","-1","1","","","","","","","","","","","","",""
"psychophysics","43","175222","0.0-6.0-0.37","5977369c435a7500011593ee","637ca5e1af997cace1140107","637cab25353194e4f83472a8","2136.6999999284744","","","","39","","","","key","16.647909574468088","768","357","true","-1","133.28120997887999","1.6492674416640005","13","1","-1","","","","","","","","","","","","",""
"psychophysics","44","176887","0.0-6.0-0.38","5977369c435a7500011593ee","637ca5e1af997cace1140107","637cab25353194e4f83472a8","656.6000000238419","","","","39","","","","key","16.650202020201974","768","357","true","1","134.93047742054398","1.6492674416640005","13","-1","1","","","","","","","","","","","","",""
"psychophysics","45","179259","0.0-6.0-0.39","5977369c435a7500011593ee","637ca5e1af997cace1140107","637cab25353194e4f83472a8","1366.6000000238419","","","","39","","","","key","16.65111347517731","768","357","true","1","134.93047742054398","1.3194139533312006","14","-1","-1","","","","","","","","","","","","",""
"html-keyboard-response","46","185708","0.0-7.0","5977369c435a7500011593ee","637ca5e1af997cace1140107","637cab25353194e4f83472a8","6444.399999976158","<p>Well Done !</p><p>Prepare for a new block.</p><p>DON'T EXIT THE FULL SCREEN MODE</p><p>Press the Spacebar to start.</p>","","","32","","","","","","","","","","","","","","","true","134.54814480056316","","","","","","","","","","",""
"psychophysics","47","189973","0.0-8.0-0.0","5977369c435a7500011593ee","637ca5e1af997cace1140107","637cab25353194e4f83472a8","3254.5","","","","39","","","","key","16.646320312499938","768","357","true","1","180","30","0","-1","","","","","","","","","","","","","",""
"psychophysics","48","191076","0.0-8.0-0.1","5977369c435a7500011593ee","637ca5e1af997cace1140107","637cab25353194e4f83472a8","95.10000002384186","","","","37","","","","key","16.65186153846175","768","357","true","-1","180","30","0","-1","-1","","","","","","","","","","","","",""
"psychophysics","49","192558","0.0-8.0-0.2","5977369c435a7500011593ee","637ca5e1af997cace1140107","637cab25353194e4f83472a8","474.2999999523163","","","","39","","","","key","16.652386363636403","768","357","true","1","150","30","0","-1","-1","","","","","","","","","","","","",""
"psychophysics","50","194039","0.0-8.0-0.3","5977369c435a7500011593ee","637ca5e1af997cace1140107","637cab25353194e4f83472a8","474","","","","37","","","","key","16.647318181818264","768","357","true","-1","150","30","0","-1","-1","","","","","","","","","","","","",""
"psychophysics","51","196183","0.0-8.0-0.4","5977369c435a7500011593ee","637ca5e1af997cace1140107","637cab25353194e4f83472a8","1137.5999999046326","","","","37","","","","key","16.650734374999956","768","357","true","1","129","24","1","1","-1","","","","","","","","","","","","",""
"psychophysics","52","197762","0.0-8.0-0.5","5977369c435a7500011593ee","637ca5e1af997cace1140107","637cab25353194e4f83472a8","570.2999999523163","","","","39","","","","key","16.65048387096769","768","357","true","1","153","24","1","-1","1","","","","","","","","","","","","",""
"psychophysics","53","199401","0.0-8.0-0.6","5977369c435a7500011593ee","637ca5e1af997cace1140107","637cab25353194e4f83472a8","627.5999999046326","","","","37","","","","key","16.651163265305957","768","357","true","-1","153","19.2","2","-1","-1","","","","","","","","","","","","",""
"psychophysics","54","201005","0.0-8.0-0.7","5977369c435a7500011593ee","637ca5e1af997cace1140107","637cab25353194e4f83472a8","600.8999999761581","","","","37","","","","key","16.650652631579003","768","357","true","-1","133.8","19.2","2","-1","-1","","","","","","","","","","","","",""
"psychophysics","55","202543","0.0-8.0-0.8","5977369c435a7500011593ee","637ca5e1af997cace1140107","637cab25353194e4f83472a8","533.2000000476837","","","","39","","","","key","16.649858695652295","768","357","true","1","133.8","19.2","2","-1","-1","","","","","","","","","","","","",""
"psychophysics","56","204576","0.0-8.0-0.9","5977369c435a7500011593ee","637ca5e1af997cace1140107","637cab25353194e4f83472a8","1026.6000000238419","","","","39","","","","key","16.650785123966905","768","357","true","1","129","19.2","2","-1","-1","","","","","","","","","","","","",""
"psychophysics","57","207067","0.0-8.0-0.10","5977369c435a7500011593ee","637ca5e1af997cace1140107","637cab25353194e4f83472a8","1485.6000000238419","","","","37","","","","key","16.65237162162147","768","357","true","-1","129","19.2","2","-1","-1","","","","","","","","","","","","",""
"psychophysics","58","209120","0.0-8.0-0.11","5977369c435a7500011593ee","637ca5e1af997cace1140107","637cab25353194e4f83472a8","1047.7999999523163","","","","37","","","","key","16.650804878048774","768","357","true","1","129","15.36","3","1","-1","","","","","","","","","","","","",""
"psychophysics","59","210898","0.0-8.0-0.12","5977369c435a7500011593ee","637ca5e1af997cace1140107","637cab25353194e4f83472a8","772.2000000476837","","","","37","","","","key","16.653314285714266","768","357","true","-1","144.36","15.36","3","-1","1","","","","","","","","","","","","",""
"psychophysics","60","212507","0.0-8.0-0.13","5977369c435a7500011593ee","637ca5e1af997cace1140107","637cab25353194e4f83472a8","597.3999999761581","","","","37","","","","key","16.655124999999924","768","357","true","-1","144.36","12.287999999999998","4","-1","-1","","","","","","","","","","","","",""
"psychophysics","61","215596","0.0-8.0-0.14","5977369c435a7500011593ee","637ca5e1af997cace1140107","637cab25353194e4f83472a8","2082.8000000715256","","","","37","","","","key","16.648437837837893","768","357","true","1","132.072","9.8304","5","1","-1","","","","","","","","","","","","",""
"psychophysics","62","217163","0.0-8.0-0.15","5977369c435a7500011593ee","637ca5e1af997cace1140107","637cab25353194e4f83472a8","564.5","","","","37","","","","key","16.651215053763384","768","357","true","-1","141.9024","9.8304","5","-1","1","","","","","","","","","","","","",""
"psychophysics","63","218649","0.0-8.0-0.16","5977369c435a7500011593ee","637ca5e1af997cace1140107","637cab25353194e4f83472a8","475.7999999523163","","","","37","","","","key","16.650840909090963","768","357","true","-1","141.9024","7.864319999999999","6","-1","-1","","","","","","","","","","","","",""
"psychophysics","64","220224","0.0-8.0-0.17","5977369c435a7500011593ee","637ca5e1af997cace1140107","637cab25353194e4f83472a8","569.5","","","","39","","","","key","16.651978494623872","768","357","true","1","134.03808","7.864319999999999","6","-1","-1","","","","","","","","","","","","",""
"psychophysics","65","221877","0.0-8.0-0.18","5977369c435a7500011593ee","637ca5e1af997cace1140107","637cab25353194e4f83472a8","647.4000000953674","","","","37","","","","key","16.651262626262685","768","357","true","-1","134.03808","7.864319999999999","6","-1","-1","","","","","","","","","","","","",""
"psychophysics","66","224079","0.0-8.0-0.19","5977369c435a7500011593ee","637ca5e1af997cace1140107","637cab25353194e4f83472a8","1192.7999999523163","","","","37","","","","key","16.653221374045692","768","357","true","-1","129","7.864319999999999","6","-1","-1","","","","","","","","","","","","",""
"psychophysics","67","226393","0.0-8.0-0.20","5977369c435a7500011593ee","637ca5e1af997cace1140107","637cab25353194e4f83472a8","1306.5999999046326","","","","39","","","","key","16.650572463767976","768","357","true","-1","129","6.291456","7","1","-1","","","","","","","","","","","","",""
"psychophysics","68","227959","0.0-8.0-0.21","5977369c435a7500011593ee","637ca5e1af997cace1140107","637cab25353194e4f83472a8","561.5","","","","39","","","","key","16.653419354838828","768","357","true","1","135.291456","6.291456","7","-1","1","","","","","","","","","","","","",""
"psychophysics","69","229425","0.0-8.0-0.22","5977369c435a7500011593ee","637ca5e1af997cace1140107","637cab25353194e4f83472a8","459","","","","37","","","","key","16.651609195402326","768","357","true","-1","135.291456","5.033164800000001","8","-1","-1","","","","","","","","","","","","",""
"psychophysics","70","231336","0.0-8.0-0.23","5977369c435a7500011593ee","637ca5e1af997cace1140107","637cab25353194e4f83472a8","906","","","","37","","","","key","16.651991228070344","768","357","true","1","130.2582912","4.0265318400000005","9","1","-1","","","","","","","","","","","","",""
"psychophysics","71","232872","0.0-8.0-0.24","5977369c435a7500011593ee","637ca5e1af997cace1140107","637cab25353194e4f83472a8","529.8000000715256","","","","39","","","","key","16.65213186813168","768","357","true","1","134.28482304","4.0265318400000005","9","-1","1","","","","","","","","","","","","",""
"psychophysics","72","234535","0.0-8.0-0.25","5977369c435a7500011593ee","637ca5e1af997cace1140107","637cab25353194e4f83472a8","656.6000000238419","","","","37","","","","key","16.65063636363637","768","357","true","-1","134.28482304","3.2212254720000004","10","-1","-1","","","","","","","","","","","","",""
"psychophysics","73","236470","0.0-8.0-0.26","5977369c435a7500011593ee","637ca5e1af997cace1140107","637cab25353194e4f83472a8","927.8000000715256","","","","39","","","","key","16.65186956521736","768","357","true","-1","131.06359756799998","2.5769803776000004","11","1","-1","","","","","","","","","","","","",""
"psychophysics","74","238172","0.0-8.0-0.27","5977369c435a7500011593ee","637ca5e1af997cace1140107","637cab25353194e4f83472a8","696.9000000953674","","","","39","","","","key","16.650851485148557","768","357","true","1","133.64057794559997","2.5769803776000004","11","-1","1","","","","","","","","","","","","",""
"psychophysics","75","240597","0.0-8.0-0.28","5977369c435a7500011593ee","637ca5e1af997cace1140107","637cab25353194e4f83472a8","1421.4000000953674","","","","39","","","","key","16.65217241379312","768","357","true","-1","133.64057794559997","2.0615843020800004","12","1","-1","","","","","","","","","","","","",""
"psychophysics","76","242245","0.0-8.0-0.29","5977369c435a7500011593ee","637ca5e1af997cace1140107","637cab25353194e4f83472a8","639.1000000238419","","","","39","","","","key","16.650326530612134","768","357","true","1","135.70216224767998","2.0615843020800004","12","-1","1","","","","","","","","","","","","",""
"psychophysics","77","243848","0.0-8.0-0.30","5977369c435a7500011593ee","637ca5e1af997cace1140107","637cab25353194e4f83472a8","595.1999999284744","","","","37","","","","key","16.65227368421038","768","357","true","-1","135.70216224767998","1.6492674416640005","13","-1","-1","","","","","","","","","","","","",""
"psychophysics","78","245668","0.0-8.0-0.31","5977369c435a7500011593ee","637ca5e1af997cace1140107","637cab25353194e4f83472a8","815.3000000715256","","","","37","","","","key","16.65376851851842","768","357","true","-1","134.05289480601598","1.6492674416640005","13","-1","-1","","","","","","","","","","","","",""
"psychophysics","79","248063","0.0-8.0-0.32","5977369c435a7500011593ee","637ca5e1af997cace1140107","637cab25353194e4f83472a8","1391.9000000953674","","","","39","","","","key","16.654034965034977","768","357","true","-1","134.05289480601598","1.3194139533312006","14","1","-1","","","","","","","","","","","","",""
"psychophysics","80","250085","0.0-8.0-0.33","5977369c435a7500011593ee","637ca5e1af997cace1140107","637cab25353194e4f83472a8","1016.5999999046326","","","","39","","","","key","16.65175206611565","768","357","true","1","135.3723087593472","1.3194139533312006","14","-1","1","","","","","","","","","","","","",""
"psychophysics","81","251781","0.0-8.0-0.34","5977369c435a7500011593ee","637ca5e1af997cace1140107","637cab25353194e4f83472a8","687.7999999523163","","","","39","","","","key","16.64843564356434","768","357","true","1","135.3723087593472","1.0555311626649604","15","-1","-1","","","","","","","","","","","","",""
"psychophysics","82","253597","0.0-8.0-0.35","5977369c435a7500011593ee","637ca5e1af997cace1140107","637cab25353194e4f83472a8","807.2000000476837","","","","39","","","","key","16.65068518518496","768","357","true","1","134.31677759668224","1.0555311626649604","15","-1","-1","","","","","","","","","","","","",""
"psychophysics","83","255179","0.0-8.0-0.36","5977369c435a7500011593ee","637ca5e1af997cace1140107","637cab25353194e4f83472a8","573.2000000476837","","","","37","","","","key","16.6487872340426","768","357","true","-1","134.31677759668224","1.0555311626649604","15","-1","-1","","","","","","","","","","","","",""
"psychophysics","84","256853","0.0-8.0-0.37","5977369c435a7500011593ee","637ca5e1af997cace1140107","637cab25353194e4f83472a8","663.9000000953674","","","","37","","","","key","16.654080808080963","768","357","true","1","133.2612464340173","1","16","1","-1","","","","","","","","","","","","",""
"psychophysics","85","258315","0.0-8.0-0.38","5977369c435a7500011593ee","637ca5e1af997cace1140107","637cab25353194e4f83472a8","459.7999999523163","","","","39","","","","key","16.652632183908157","768","357","true","1","134.2612464340173","1","16","-1","1","","","","","","","","","","","","",""
"psychophysics","86","259797","0.0-8.0-0.39","5977369c435a7500011593ee","637ca5e1af997cace1140107","637cab25353194e4f83472a8","475.7000000476837","","","","39","","","","key","16.650420454545714","768","357","true","1","134.2612464340173","1","17","-1","-1","","","","","","","","","","","","",""
"html-keyboard-response","87","272893","0.0-9.0","5977369c435a7500011593ee","637ca5e1af997cace1140107","637cab25353194e4f83472a8","13093.599999904633","<p>Well Done !</p><p>Prepare for a new block.</p><p>DON'T EXIT THE FULL SCREEN MODE</p><p>Press the Spacebar to start.</p>","","","32","","","","","","","","","","","","","","","true","134.22010684138016","","","","","","","","","","",""
"psychophysics","88","274004","0.0-10.0-0.0","5977369c435a7500011593ee","637ca5e1af997cace1140107","637cab25353194e4f83472a8","102.89999997615814","","","","39","","","","key","16.617727272727556","768","357","true","1","180","30","0","-1","","","","","","","","","","","","","",""
"psychophysics","89","275344","0.0-10.0-0.1","5977369c435a7500011593ee","637ca5e1af997cace1140107","637cab25353194e4f83472a8","334.2000000476837","","","","37","","","","key","16.654287499999917","768","357","true","-1","180","30","0","-1","-1","","","","","","","","","","","","",""
"psychophysics","90","276847","0.0-10.0-0.2","5977369c435a7500011593ee","637ca5e1af997cace1140107","637cab25353194e4f83472a8","497.59999990463257","","","","37","","","","key","16.652808988763784","768","357","true","-1","150","30","0","-1","-1","","","","","","","","","","","","",""
"psychophysics","91","278343","0.0-10.0-0.3","5977369c435a7500011593ee","637ca5e1af997cace1140107","637cab25353194e4f83472a8","489.1999999284744","","","","37","","","","key","16.65080898876362","768","357","true","-1","150","30","0","-1","-1","","","","","","","","","","","","",""
"psychophysics","92","280431","0.0-10.0-0.4","5977369c435a7500011593ee","637ca5e1af997cace1140107","637cab25353194e4f83472a8","1082.1999999284744","","","","39","","","","key","16.649887096773806","768","357","true","-1","129","24","1","1","-1","","","","","","","","","","","","",""
"psychophysics","93","281967","0.0-10.0-0.5","5977369c435a7500011593ee","637ca5e1af997cace1140107","637cab25353194e4f83472a8","531.2000000476837","","","","37","","","","key","16.652824175824247","768","357","true","-1","153","24","1","-1","1","","","","","","","","","","","","",""
"psychophysics","94","283450","0.0-10.0-0.6","5977369c435a7500011593ee","637ca5e1af997cace1140107","637cab25353194e4f83472a8","476.3000000715256","","","","39","","","","key","16.65096590909062","768","357","true","1","153","19.2","2","-1","-1","","","","","","","","","","","","",""
"psychophysics","95","284943","0.0-10.0-0.7","5977369c435a7500011593ee","637ca5e1af997cace1140107","637cab25353194e4f83472a8","482.7000000476837","","","","39","","","","key","16.652415730337104","768","357","true","1","133.8","19.2","2","-1","-1","","","","","","","","","","","","",""
"psychophysics","96","286476","0.0-10.0-0.8","5977369c435a7500011593ee","637ca5e1af997cace1140107","637cab25353194e4f83472a8","529.8999999761581","","","","39","","","","key","16.652857142857503","768","357","true","1","133.8","19.2","2","-1","-1","","","","","","","","","","","","",""
"psychophysics","97","288451","0.0-10.0-0.9","5977369c435a7500011593ee","637ca5e1af997cace1140107","637cab25353194e4f83472a8","964.2999999523163","","","","39","","","","key","16.652796610169236","768","357","true","1","129","19.2","2","-1","-1","","","","","","","","","","","","",""
"psychophysics","98","290340","0.0-10.0-0.10","5977369c435a7500011593ee","637ca5e1af997cace1140107","637cab25353194e4f83472a8","880.1999999284744","","","","39","","","","key","16.65073214285699","768","357","true","-1","129","15.36","3","1","-1","","","","","","","","","","","","",""
"psychophysics","99","292179","0.0-10.0-0.11","5977369c435a7500011593ee","637ca5e1af997cace1140107","637cab25353194e4f83472a8","824.2000000476837","","","","39","","","","key","16.653318181818097","768","357","true","1","144.36","15.36","3","-1","1","","","","","","","","","","","","",""
"psychophysics","100","293828","0.0-10.0-0.12","5977369c435a7500011593ee","637ca5e1af997cace1140107","637cab25353194e4f83472a8","638.7999999523163","","","","39","","","","key","16.65110204081652","768","357","true","1","144.36","12.287999999999998","4","-1","-1","","","","","","","","","","","","",""
"psychophysics","101","296333","0.0-10.0-0.13","5977369c435a7500011593ee","637ca5e1af997cace1140107","637cab25353194e4f83472a8","1495.1000000238419","","","","39","","","","key","16.64981879194653","768","357","true","1","132.072","12.287999999999998","4","-1","-1","","","","","","","","","","","","",""
"psychophysics","102","297922","0.0-10.0-0.14","5977369c435a7500011593ee","637ca5e1af997cace1140107","637cab25353194e4f83472a8","584.0999999046326","","","","39","","","","key","16.65596842105243","768","357","true","1","132.072","12.287999999999998","4","-1","-1","","","","","","","","","","","","",""
"psychophysics","103","299470","0.0-10.0-0.15","5977369c435a7500011593ee","637ca5e1af997cace1140107","637cab25353194e4f83472a8","536.9000000953674","","","","39","","","","key","16.64840217391358","768","357","true","-1","129","9.8304","5","1","-1","","","","","","","","","","","","",""
"psychophysics","104","301020","0.0-10.0-0.16","5977369c435a7500011593ee","637ca5e1af997cace1140107","637cab25353194e4f83472a8","537.8000000715256","","","","37","","","","key","16.65152173913046","768","357","true","-1","138.8304","9.8304","5","-1","1","","","","","","","","","","","","",""
"psychophysics","105","302571","0.0-10.0-0.17","5977369c435a7500011593ee","637ca5e1af997cace1140107","637cab25353194e4f83472a8","540","","","","39","","","","key","16.64709782608691","768","357","true","1","138.8304","7.864319999999999","6","-1","-1","","","","","","","","","","","","",""
"psychophysics","106","304605","0.0-10.0-0.18","5977369c435a7500011593ee","637ca5e1af997cace1140107","637cab25353194e4f83472a8","1025.8999999761581","","","","37","","","","key","16.65460330578508","768","357","true","1","130.96608","6.291456","7","1","-1","","","","","","","","","","","","",""
"psychophysics","107","306287","0.0-10.0-0.19","5977369c435a7500011593ee","637ca5e1af997cace1140107","637cab25353194e4f83472a8","676.6000000238419","","","","37","","","","key","16.651080000000075","768","357","true","-1","137.25753600000002","6.291456","7","-1","1","","","","","","","","","","","","",""
"psychophysics","108","307779","0.0-10.0-0.20","5977369c435a7500011593ee","637ca5e1af997cace1140107","637cab25353194e4f83472a8","486","","","","39","","","","key","16.650831460674148","768","357","true","1","137.25753600000002","5.033164800000001","8","-1","-1","","","","","","","","","","","","",""
"psychophysics","109","309362","0.0-10.0-0.21","5977369c435a7500011593ee","637ca5e1af997cace1140107","637cab25353194e4f83472a8","570.6000000238419","","","","39","","","","key","16.65018085106412","768","357","true","-1","132.2243712","4.0265318400000005","9","1","-1","","","","","","","","","","","","",""
"psychophysics","110","310880","0.0-10.0-0.22","5977369c435a7500011593ee","637ca5e1af997cace1140107","637cab25353194e4f83472a8","509.5","","","","37","","","","key","16.65079999999984","768","357","true","-1","136.25090304","4.0265318400000005","9","-1","1","","","","","","","","","","","","",""
"psychophysics","111","312469","0.0-10.0-0.23","5977369c435a7500011593ee","637ca5e1af997cace1140107","637cab25353194e4f83472a8","580.7000000476837","","","","37","","","","key","16.652499999999602","768","357","true","-1","136.25090304","3.2212254720000004","10","-1","-1","","","","","","","","","","","","",""
"psychophysics","112","314179","0.0-10.0-0.24","5977369c435a7500011593ee","637ca5e1af997cace1140107","637cab25353194e4f83472a8","696.2999999523163","","","","39","","","","key","16.65277450980434","768","357","true","1","133.029677568","3.2212254720000004","10","-1","-1","","","","","","","","","","","","",""
"psychophysics","113","315906","0.0-10.0-0.25","5977369c435a7500011593ee","637ca5e1af997cace1140107","637cab25353194e4f83472a8","720.2999999523163","","","","39","","","","key","16.651504854368753","768","357","true","1","133.029677568","3.2212254720000004","10","-1","-1","","","","","","","","","","","","",""
"psychophysics","114","317471","0.0-10.0-0.26","5977369c435a7500011593ee","637ca5e1af997cace1140107","637cab25353194e4f83472a8","561.1000000238419","","","","39","","","","key","16.650903225806292","768","357","true","-1","129.808452096","2.5769803776000004","11","1","-1","","","","","","","","","","","","",""
"psychophysics","115","319754","0.0-10.0-0.27","5977369c435a7500011593ee","637ca5e1af997cace1140107","637cab25353194e4f83472a8","1272.3999999761581","","","","39","","","","key","16.651213235294136","768","357","true","1","132.3854324736","2.5769803776000004","11","-1","1","","","","","","","","","","","","",""
"psychophysics","116","322253","0.0-10.0-0.28","5977369c435a7500011593ee","637ca5e1af997cace1140107","637cab25353194e4f83472a8","1489.8000000715256","","","","37","","","","key","16.651758389261506","768","357","true","1","132.3854324736","2.0615843020800004","12","1","-1","","","","","","","","","","","","",""
"psychophysics","117","323790","0.0-10.0-0.29","5977369c435a7500011593ee","637ca5e1af997cace1140107","637cab25353194e4f83472a8","528.8000000715256","","","","39","","","","key","16.64976923076876","768","357","true","1","134.44701677568","2.0615843020800004","12","-1","1","","","","","","","","","","","","",""
"psychophysics","118","325359","0.0-10.0-0.30","5977369c435a7500011593ee","637ca5e1af997cace1140107","637cab25353194e4f83472a8","564.3000000715256","","","","39","","","","key","16.650774193548358","768","357","true","-1","134.44701677568","1.6492674416640005","13","1","-1","","","","","","","","","","","","",""
"psychophysics","119","326835","0.0-10.0-0.31","5977369c435a7500011593ee","637ca5e1af997cace1140107","637cab25353194e4f83472a8","461.60000002384186","","","","37","","","","key","16.6539659090909","768","357","true","-1","136.096284217344","1.6492674416640005","13","-1","1","","","","","","","","","","","","",""
"psychophysics","120","328316","0.0-10.0-0.32","5977369c435a7500011593ee","637ca5e1af997cace1140107","637cab25353194e4f83472a8","475.5","","","","39","","","","key","16.65226136363609","768","357","true","1","136.096284217344","1.3194139533312006","14","-1","-1","","","","","","","","","","","","",""
"psychophysics","121","329795","0.0-10.0-0.33","5977369c435a7500011593ee","637ca5e1af997cace1140107","637cab25353194e4f83472a8","473.2000000476837","","","","37","","","","key","16.648465909090934","768","357","true","-1","134.77687026401279","1.3194139533312006","14","-1","-1","","","","","","","","","","","","",""
"psychophysics","122","331234","0.0-10.0-0.34","5977369c435a7500011593ee","637ca5e1af997cace1140107","637cab25353194e4f83472a8","430.10000002384186","","","","37","","","","key","16.658305882353005","768","357","true","-1","134.77687026401279","1.3194139533312006","14","-1","-1","","","","","","","","","","","","",""
"psychophysics","123","333131","0.0-10.0-0.35","5977369c435a7500011593ee","637ca5e1af997cace1140107","637cab25353194e4f83472a8","893.2000000476837","","","","39","","","","key","16.652867256637467","768","357","true","1","133.45745631068158","1.3194139533312006","14","-1","-1","","","","","","","","","","","","",""
"psychophysics","124","335258","0.0-10.0-0.36","5977369c435a7500011593ee","637ca5e1af997cace1140107","637cab25353194e4f83472a8","1123.8999999761581","","","","39","","","","key","16.651614173228385","768","357","true","-1","133.45745631068158","1.0555311626649604","15","1","-1","","","","","","","","","","","","",""
"psychophysics","125","337386","0.0-10.0-0.37","5977369c435a7500011593ee","637ca5e1af997cace1140107","637cab25353194e4f83472a8","1120.1999999284744","","","","37","","","","key","16.65088976377953","768","357","true","-1","134.51298747334653","1.0555311626649604","15","-1","1","","","","","","","","","","","","",""
"psychophysics","126","338871","0.0-10.0-0.38","5977369c435a7500011593ee","637ca5e1af997cace1140107","637cab25353194e4f83472a8","473.7999999523163","","","","39","","","","key","16.652454545454187","768","357","true","1","134.51298747334653","1","16","-1","-1","","","","","","","","","","","","",""
"psychophysics","127","340626","0.0-10.0-0.39","5977369c435a7500011593ee","637ca5e1af997cace1140107","637cab25353194e4f83472a8","746.6999999284744","","","","39","","","","key","16.65038461538419","768","357","true","-1","133.51298747334653","1","17","1","-1","","","","","","","","","","","","",""
"html-keyboard-response","128","347769","0.0-11.0","5977369c435a7500011593ee","637ca5e1af997cace1140107","637cab25353194e4f83472a8","7139.899999976158","<p>Well Done !</p><p>Prepare for a new block.</p><p>DON'T EXIT THE FULL SCREEN MODE</p><p>Press the Spacebar to start.</p>","","","32","","","","","","","","","","","","","","","true","133.8468808111118","","","","","","","","","","",""
"psychophysics","129","350107","0.0-12.0-0.0","5977369c435a7500011593ee","637ca5e1af997cace1140107","637cab25353194e4f83472a8","1318.7999999523163","","","","39","","","","key","16.760935714285836","768","357","true","1","180","30","0","-1","","","","","","","","","","","","","",""
"psychophysics","130","351445","0.0-12.0-0.1","5977369c435a7500011593ee","637ca5e1af997cace1140107","637cab25353194e4f83472a8","326.89999997615814","","","","39","","","","key","16.649253164556562","768","357","true","1","180","30","0","-1","-1","","","","","","","","","","","","",""
"psychophysics","131","353450","0.0-12.0-0.2","5977369c435a7500011593ee","637ca5e1af997cace1140107","637cab25353194e4f83472a8","999.1000000238419","","","","39","","","","key","16.650000000000293","768","357","true","1","150","30","0","-1","-1","","","","","","","","","","","","",""
"psychophysics","132","355038","0.0-12.0-0.3","5977369c435a7500011593ee","637ca5e1af997cace1140107","637cab25353194e4f83472a8","576.8999999761581","","","","39","","","","key","16.64935789473698","768","357","true","1","150","30","0","-1","-1","","","","","","","","","","","","",""
"psychophysics","133","356916","0.0-12.0-0.4","5977369c435a7500011593ee","637ca5e1af997cace1140107","637cab25353194e4f83472a8","870.3999999761581","","","","39","","","","key","16.65075000000018","768","357","true","-1","129","24","1","1","-1","","","","","","","","","","","","",""
"psychophysics","134","358438","0.0-12.0-0.5","5977369c435a7500011593ee","637ca5e1af997cace1140107","637cab25353194e4f83472a8","510.1999999284744","","","","37","","","","key","16.651088888888868","768","357","true","-1","153","24","1","-1","1","","","","","","","","","","","","",""
"psychophysics","135","359825","0.0-12.0-0.6","5977369c435a7500011593ee","637ca5e1af997cace1140107","637cab25353194e4f83472a8","381.39999997615814","","","","39","","","","key","16.65153658536629","768","357","true","1","153","19.2","2","-1","-1","","","","","","","","","","","","",""
"psychophysics","136","361232","0.0-12.0-0.7","5977369c435a7500011593ee","637ca5e1af997cace1140107","637cab25353194e4f83472a8","404","","","","39","","","","key","16.65467857142808","768","357","true","1","133.8","19.2","2","-1","-1","","","","","","","","","","","","",""
"psychophysics","137","362864","0.0-12.0-0.8","5977369c435a7500011593ee","637ca5e1af997cace1140107","637cab25353194e4f83472a8","623","","","","37","","","","key","16.65293814433011","768","357","true","-1","133.8","19.2","2","-1","-1","","","","","","","","","","","","",""
"psychophysics","138","364544","0.0-12.0-0.9","5977369c435a7500011593ee","637ca5e1af997cace1140107","637cab25353194e4f83472a8","671.2999999523163","","","","39","","","","key","16.649199999999837","768","357","true","1","129","19.2","2","-1","-1","","","","","","","","","","","","",""
"psychophysics","139","366108","0.0-12.0-0.10","5977369c435a7500011593ee","637ca5e1af997cace1140107","637cab25353194e4f83472a8","552.8999999761581","","","","39","","","","key","16.65134408602163","768","357","true","-1","129","15.36","3","1","-1","","","","","","","","","","","","",""
"psychophysics","140","367562","0.0-12.0-0.11","5977369c435a7500011593ee","637ca5e1af997cace1140107","637cab25353194e4f83472a8","442.39999997615814","","","","37","","","","key","16.64913953488373","768","357","true","-1","144.36","15.36","3","-1","1","","","","","","","","","","","","",""
"psychophysics","141","368978","0.0-12.0-0.12","5977369c435a7500011593ee","637ca5e1af997cace1140107","637cab25353194e4f83472a8","408.5","","","","39","","","","key","16.654750000000128","768","357","true","1","144.36","12.287999999999998","4","-1","-1","","","","","","","","","","","","",""
"psychophysics","142","370541","0.0-12.0-0.13","5977369c435a7500011593ee","637ca5e1af997cace1140107","637cab25353194e4f83472a8","559.5","","","","39","","","","key","16.649677419354663","768","357","true","-1","132.072","9.8304","5","1","-1","","","","","","","","","","","","",""
"psychophysics","143","372021","0.0-12.0-0.14","5977369c435a7500011593ee","637ca5e1af997cace1140107","637cab25353194e4f83472a8","471.6999999284744","","","","37","","","","key","16.649772727272648","768","357","true","-1","141.9024","9.8304","5","-1","1","","","","","","","","","","","","",""
"psychophysics","144","373426","0.0-12.0-0.15","5977369c435a7500011593ee","637ca5e1af997cace1140107","637cab25353194e4f83472a8","394.59999990463257","","","","37","","","","key","16.650036144578767","768","357","true","-1","141.9024","7.864319999999999","6","-1","-1","","","","","","","","","","","","",""
"psychophysics","145","374845","0.0-12.0-0.16","5977369c435a7500011593ee","637ca5e1af997cace1140107","637cab25353194e4f83472a8","414.5","","","","39","","","","key","16.651833333332824","768","357","true","1","134.03808","7.864319999999999","6","-1","-1","","","","","","","","","","","","",""
"psychophysics","146","376270","0.0-12.0-0.17","5977369c435a7500011593ee","637ca5e1af997cace1140107","637cab25353194e4f83472a8","409.60000002384186","","","","37","","","","key","16.64788235294126","768","357","true","-1","134.03808","7.864319999999999","6","-1","-1","","","","","","","","","","","","",""
"psychophysics","147","378318","0.0-12.0-0.18","5977369c435a7500011593ee","637ca5e1af997cace1140107","637cab25353194e4f83472a8","1040.2000000476837","","","","39","","","","key","16.654499999999896","768","357","true","1","129","7.864319999999999","6","-1","-1","","","","","","","","","","","","",""
"psychophysics","148","379769","0.0-12.0-0.19","5977369c435a7500011593ee","637ca5e1af997cace1140107","637cab25353194e4f83472a8","443.5","","","","39","","","","key","16.647709302325342","768","357","true","-1","129","6.291456","7","1","-1","","","","","","","","","","","","",""
"psychophysics","149","381177","0.0-12.0-0.20","5977369c435a7500011593ee","637ca5e1af997cace1140107","637cab25353194e4f83472a8","402.7000000476837","","","","39","","","","key","16.653607142857037","768","357","true","1","135.291456","6.291456","7","-1","1","","","","","","","","","","","","",""
"psychophysics","150","382650","0.0-12.0-0.21","5977369c435a7500011593ee","637ca5e1af997cace1140107","637cab25353194e4f83472a8","461.5","","","","37","","","","key","16.64850574712692","768","357","true","-1","135.291456","5.033164800000001","8","-1","-1","","","","","","","","","","","","",""
"psychophysics","151","384723","0.0-12.0-0.22","5977369c435a7500011593ee","637ca5e1af997cace1140107","637cab25353194e4f83472a8","1067.6000000238419","","","","39","","","","key","16.65065322580631","768","357","true","1","130.2582912","5.033164800000001","8","-1","-1","","","","","","","","","","","","",""
"psychophysics","152","386442","0.0-12.0-0.23","5977369c435a7500011593ee","637ca5e1af997cace1140107","637cab25353194e4f83472a8","710.0999999046326","","","","39","","","","key","16.651205882353036","768","357","true","1","130.2582912","5.033164800000001","8","-1","-1","","","","","","","","","","","","",""
"psychophysics","153","388122","0.0-12.0-0.24","5977369c435a7500011593ee","637ca5e1af997cace1140107","637cab25353194e4f83472a8","671.2999999523163","","","","39","","","","key","16.65152000000002","768","357","true","1","129","5.033164800000001","8","-1","-1","","","","","","","","","","","","",""
"psychophysics","154","389712","0.0-12.0-0.25","5977369c435a7500011593ee","637ca5e1af997cace1140107","637cab25353194e4f83472a8","579.0999999046326","","","","39","","","","key","16.651170212766182","768","357","true","-1","129","4.0265318400000005","9","1","-1","","","","","","","","","","","","",""
"psychophysics","155","391218","0.0-12.0-0.26","5977369c435a7500011593ee","637ca5e1af997cace1140107","637cab25353194e4f83472a8","504.10000002384186","","","","39","","","","key","16.651222222222067","768","357","true","-1","133.02653184","4.0265318400000005","9","1","1","","","","","","","","","","","","",""
"psychophysics","156","392588","0.0-12.0-0.27","5977369c435a7500011593ee","637ca5e1af997cace1140107","637cab25353194e4f83472a8","358","","","","37","","","","key","16.65234567901266","768","357","true","-1","137.05306367999998","4.0265318400000005","9","-1","1","","","","","","","","","","","","",""
"psychophysics","157","393925","0.0-12.0-0.28","5977369c435a7500011593ee","637ca5e1af997cace1140107","637cab25353194e4f83472a8","330.2999999523163","","","","37","","","","key","16.648569620253454","768","357","true","-1","137.05306367999998","3.2212254720000004","10","-1","-1","","","","","","","","","","","","",""
"psychophysics","158","395504","0.0-12.0-0.29","5977369c435a7500011593ee","637ca5e1af997cace1140107","637cab25353194e4f83472a8","576","","","","37","","","","key","16.65513829787217","768","357","true","-1","133.83183820799997","3.2212254720000004","10","-1","-1","","","","","","","","","","","","",""
"psychophysics","159","397000","0.0-12.0-0.30","5977369c435a7500011593ee","637ca5e1af997cace1140107","637cab25353194e4f83472a8","491.2999999523163","","","","37","","","","key","16.65380898876419","768","357","true","-1","133.83183820799997","3.2212254720000004","10","-1","-1","","","","","","","","","","","","",""
"psychophysics","160","398427","0.0-12.0-0.31","5977369c435a7500011593ee","637ca5e1af997cace1140107","637cab25353194e4f83472a8","419.1999999284744","","","","37","","","","key","16.648223529411617","768","357","true","1","130.61061273599995","2.5769803776000004","11","1","-1","","","","","","","","","","","","",""
"psychophysics","161","399916","0.0-12.0-0.32","5977369c435a7500011593ee","637ca5e1af997cace1140107","637cab25353194e4f83472a8","476.5","","","","39","","","","key","16.65413636363585","768","357","true","1","133.18759311359995","2.5769803776000004","11","-1","1","","","","","","","","","","","","",""
"psychophysics","162","401378","0.0-12.0-0.33","5977369c435a7500011593ee","637ca5e1af997cace1140107","637cab25353194e4f83472a8","456.6999999284744","","","","39","","","","key","16.65129885057472","768","357","true","-1","133.18759311359995","2.0615843020800004","12","1","-1","","","","","","","","","","","","",""
"psychophysics","163","402853","0.0-12.0-0.34","5977369c435a7500011593ee","637ca5e1af997cace1140107","637cab25353194e4f83472a8","466.59999990463257","","","","39","","","","key","16.648102272727225","768","357","true","1","135.24917741567995","2.0615843020800004","12","-1","1","","","","","","","","","","","","",""
"psychophysics","164","404290","0.0-12.0-0.35","5977369c435a7500011593ee","637ca5e1af997cace1140107","637cab25353194e4f83472a8","421.5","","","","37","","","","key","16.657776470588495","768","357","true","-1","135.24917741567995","1.6492674416640005","13","-1","-1","","","","","","","","","","","","",""
"psychophysics","165","405677","0.0-12.0-0.36","5977369c435a7500011593ee","637ca5e1af997cace1140107","637cab25353194e4f83472a8","376.89999997615814","","","","39","","","","key","16.654097560975593","768","357","true","1","133.59990997401596","1.6492674416640005","13","-1","-1","","","","","","","","","","","","",""
"psychophysics","166","407470","0.0-12.0-0.37","5977369c435a7500011593ee","637ca5e1af997cace1140107","637cab25353194e4f83472a8","786.7999999523163","","","","37","","","","key","16.651224299065255","768","357","true","1","133.59990997401596","1.3194139533312006","14","1","-1","","","","","","","","","","","","",""
"psychophysics","167","408921","0.0-12.0-0.38","5977369c435a7500011593ee","637ca5e1af997cace1140107","637cab25353194e4f83472a8","440.10000002384186","","","","39","","","","key","16.651244186046316","768","357","true","1","134.91932392734716","1.3194139533312006","14","-1","1","","","","","","","","","","","","",""
"psychophysics","168","410345","0.0-12.0-0.39","5977369c435a7500011593ee","637ca5e1af997cace1140107","637cab25353194e4f83472a8","415.60000002384186","","","","37","","","","key","16.65170238095189","768","357","true","-1","134.91932392734716","1.0555311626649604","15","-1","-1","","","","","","","","","","","","",""
"html-keyboard-response","169","417006","0.0-13.0","5977369c435a7500011593ee","637ca5e1af997cace1140107","637cab25353194e4f83472a8","6656.899999976158","<p>Well Done !</p><p>Prepare for a new block.</p><p>DON'T EXIT THE FULL SCREEN MODE</p><p>Press the Spacebar to start.</p>","","","32","","","","","","","","","","","","","","","true","133.8879304808857","","","","","","","","","","",""
"html-keyboard-response","170","417122","0.0-14.0","5977369c435a7500011593ee","637ca5e1af997cace1140107","637cab25353194e4f83472a8","null","","","","null","","","","","","","","","","","","","","","","","134.1257657334852","true","140.2515314669704","","","","","","","",""
"instructions","171","451667","0.0-15.0","5977369c435a7500011593ee","637ca5e1af997cace1140107","637cab25353194e4f83472a8","34542.5","","","","","","","[{""page_index"":0,""viewing_time"":23854.600000023842},{""page_index"":1,""viewing_time"":2439.899999976158},{""page_index"":2,""viewing_time"":8247.5}]","","","","","","","","","","","","","","","","","","","","","","","",""
"psychophysics","172","454691","0.0-16.0-0.0","5977369c435a7500011593ee","637ca5e1af997cace1140107","637cab25353194e4f83472a8","null","","","","null","","","","key","16.652271186440622","768","357","","","","","","","","","","","","","","","","","","","",""
"psychophysics","173","455204","0.0-16.0-1.0","5977369c435a7500011593ee","637ca5e1af997cace1140107","637cab25353194e4f83472a8","null","","","","null","","","","key","16.650448275862487","768","357","","","","","","","","","","","","","140","1","5","false","","","",""
"psychophysics","174","456223","0.0-16.0-2.0","5977369c435a7500011593ee","637ca5e1af997cace1140107","637cab25353194e4f83472a8","1010.1000000238419","","","","90","","","","key","16.649377049179748","768","357","","","","","","","","","","","","","","","","","","","",""
"psychophysics","175","457230","0.0-16.0-0.1","5977369c435a7500011593ee","637ca5e1af997cace1140107","637cab25353194e4f83472a8","null","","","","null","","","","key","16.65032203389841","768","357","","","","","","","","","","","","","","","","","","","",""
"psychophysics","176","457736","0.0-16.0-1.1","5977369c435a7500011593ee","637ca5e1af997cace1140107","637cab25353194e4f83472a8","null","","","","null","","","","key","16.651448275861814","768","357","","","","","","","","","","","","","140","1","0","false","","","",""
"psychophysics","177","458219","0.0-16.0-2.1","5977369c435a7500011593ee","637ca5e1af997cace1140107","637cab25353194e4f83472a8","475.39999997615814","","","","90","","","","key","16.64614285714301","768","357","","","","","","","","","","","","","","","","","","","",""
"psychophysics","178","459230","0.0-16.0-0.2","5977369c435a7500011593ee","637ca5e1af997cace1140107","637cab25353194e4f83472a8","null","","","","null","","","","key","16.653800000000047","768","357","","","","","","","","","","","","","","","","","","","",""
"psychophysics","179","459737","0.0-16.0-1.2","5977369c435a7500011593ee","637ca5e1af997cace1140107","637cab25353194e4f83472a8","null","","","","null","","","","key","16.65689999999983","768","357","","","","","","","","","","","","","140","-1","2","false","","","",""
"psychophysics","180","459917","0.0-16.0-2.2","5977369c435a7500011593ee","637ca5e1af997cace1140107","637cab25353194e4f83472a8","176.39999997615814","","","","90","","","","key","16.631333333330176","768","357","","","","","","","","","","","","","","","","","","","",""
"psychophysics","181","460925","0.0-16.0-0.3","5977369c435a7500011593ee","637ca5e1af997cace1140107","637cab25353194e4f83472a8","null","","","","null","","","","key","16.646033333333133","768","357","","","","","","","","","","","","","","","","","","","",""
"psychophysics","182","461429","0.0-16.0-1.3","5977369c435a7500011593ee","637ca5e1af997cace1140107","637cab25353194e4f83472a8","null","","","","null","","","","key","16.648000000000547","768","357","","","","","","","","","","","","","140","1","2","false","","","",""
"psychophysics","183","461862","0.0-16.0-2.3","5977369c435a7500011593ee","637ca5e1af997cace1140107","637cab25353194e4f83472a8","420.89999997615814","","","","90","","","","key","16.657080000001006","768","357","","","","","","","","","","","","","","","","","","","",""
"psychophysics","184","462867","0.0-16.0-0.4","5977369c435a7500011593ee","637ca5e1af997cace1140107","637cab25353194e4f83472a8","null","","","","null","","","","key","16.655950000000303","768","357","","","","","","","","","","","","","","","","","","","",""
"psychophysics","185","463372","0.0-16.0-1.4","5977369c435a7500011593ee","637ca5e1af997cace1140107","637cab25353194e4f83472a8","null","","","","null","","","","key","16.651068965517034","768","357","","","","","","","","","","","","","140","-1","5","false","","","",""
"psychophysics","186","463594","0.0-16.0-2.4","5977369c435a7500011593ee","637ca5e1af997cace1140107","637cab25353194e4f83472a8","218.29999995231628","","","","77","","","","key","16.65533333333345","768","357","","","","","","","","","","","","","","","","","","","",""
"psychophysics","187","464598","0.0-16.0-0.5","5977369c435a7500011593ee","637ca5e1af997cace1140107","637cab25353194e4f83472a8","null","","","","null","","","","key","16.651283333333172","768","357","","","","","","","","","","","","","","","","","","","",""
"psychophysics","188","465110","0.0-16.0-1.5","5977369c435a7500011593ee","637ca5e1af997cace1140107","637cab25353194e4f83472a8","null","","","","null","","","","key","16.647034482757466","768","357","","","","","","","","","","","","","140","-1","3","false","","","",""
"psychophysics","189","465277","0.0-16.0-2.5","5977369c435a7500011593ee","637ca5e1af997cace1140107","637cab25353194e4f83472a8","159.19999992847443","","","","77","","","","key","16.658999999998034","768","357","","","","","","","","","","","","","","","","","","","",""
"psychophysics","190","466281","0.0-16.0-0.6","5977369c435a7500011593ee","637ca5e1af997cace1140107","637cab25353194e4f83472a8","null","","","","null","","","","key","16.654899999999905","768","357","","","","","","","","","","","","","","","","","","","",""
"psychophysics","191","466790","0.0-16.0-1.6","5977369c435a7500011593ee","637ca5e1af997cace1140107","637cab25353194e4f83472a8","null","","","","null","","","","key","16.645310344826832","768","357","","","","","","","","","","","","","140","-1","6","false","","","",""
"psychophysics","192","466944","0.0-16.0-2.6","5977369c435a7500011593ee","637ca5e1af997cace1140107","637cab25353194e4f83472a8","149.89999997615814","","","","77","","","","key","16.640999999996794","768","357","","","","","","","","","","","","","","","","","","","",""
"psychophysics","193","467946","0.0-16.0-0.7","5977369c435a7500011593ee","637ca5e1af997cace1140107","637cab25353194e4f83472a8","null","","","","null","","","","key","16.655762711864448","768","357","","","","","","","","","","","","","","","","","","","",""
"psychophysics","194","468454","0.0-16.0-1.7","5977369c435a7500011593ee","637ca5e1af997cace1140107","637cab25353194e4f83472a8","null","","","","null","","","","key","16.652448275863144","768","357","","","","","","","","","","","","","140","-1","0","false","","","",""
"psychophysics","195","468778","0.0-16.0-2.7","5977369c435a7500011593ee","637ca5e1af997cace1140107","637cab25353194e4f83472a8","319.5","","","","77","","","","key","16.6519444444469","768","357","","","","","","","","","","","","","","","","","","","",""
"psychophysics","196","469790","0.0-16.0-0.8","5977369c435a7500011593ee","637ca5e1af997cace1140107","637cab25353194e4f83472a8","null","","","","null","","","","key","16.64486666666732","768","357","","","","","","","","","","","","","","","","","","","",""
"psychophysics","197","470301","0.0-16.0-1.8","5977369c435a7500011593ee","637ca5e1af997cace1140107","637cab25353194e4f83472a8","null","","","","null","","","","key","16.647966666667102","768","357","","","","","","","","","","","","","140","1","4","false","","","",""
"psychophysics","198","470452","0.0-16.0-2.8","5977369c435a7500011593ee","637ca5e1af997cace1140107","637cab25353194e4f83472a8","147.69999992847443","","","","77","","","","key","16.64999999999418","768","357","","","","","","","","","","","","","","","","","","","",""
"psychophysics","199","471455","0.0-16.0-0.9","5977369c435a7500011593ee","637ca5e1af997cace1140107","637cab25353194e4f83472a8","null","","","","null","","","","key","16.651644067796365","768","357","","","","","","","","","","","","","","","","","","","",""
"psychophysics","200","471969","0.0-16.0-1.9","5977369c435a7500011593ee","637ca5e1af997cace1140107","637cab25353194e4f83472a8","null","","","","null","","","","key","16.64243333333288","768","357","","","","","","","","","","","","","140","-1","4","false","","","",""
"psychophysics","201","472064","0.0-16.0-2.9","5977369c435a7500011593ee","637ca5e1af997cace1140107","637cab25353194e4f83472a8","89.89999997615814","","","","77","","","","key","16.63300000000745","768","357","","","","","","","","","","","","","","","","","","","",""
"psychophysics","202","473071","0.0-16.0-0.10","5977369c435a7500011593ee","637ca5e1af997cace1140107","637cab25353194e4f83472a8","null","","","","null","","","","key","16.655745762712087","768","357","","","","","","","","","","","","","","","","","","","",""
"psychophysics","203","473587","0.0-16.0-1.10","5977369c435a7500011593ee","637ca5e1af997cace1140107","637cab25353194e4f83472a8","null","","","","null","","","","key","16.64826666666777","768","357","","","","","","","","","","","","","140","1","6","false","","","",""
"psychophysics","204","473625","0.0-16.0-2.10","5977369c435a7500011593ee","637ca5e1af997cace1140107","637cab25353194e4f83472a8","30.5","","","","77","","","","key","16.567500000004657","768","357","","","","","","","","","","","","","","","","","","","",""
"psychophysics","205","474636","0.0-16.0-0.11","5977369c435a7500011593ee","637ca5e1af997cace1140107","637cab25353194e4f83472a8","null","","","","null","","","","key","16.64803389830503","768","357","","","","","","","","","","","","","","","","","","","",""
"psychophysics","206","475151","0.0-16.0-1.11","5977369c435a7500011593ee","637ca5e1af997cace1140107","637cab25353194e4f83472a8","null","","","","null","","","","key","16.65099999999899","768","357","","","","","","","","","","","","","140","1","3","false","","","",""
"psychophysics","207","475166","0.0-16.0-2.11","5977369c435a7500011593ee","637ca5e1af997cace1140107","637cab25353194e4f83472a8","10","","","","77","","","","key","NaN","768","357","","","","","","","","","","","","","","","","","","","",""
"psychophysics","208","476168","0.0-16.0-0.12","5977369c435a7500011593ee","637ca5e1af997cace1140107","637cab25353194e4f83472a8","null","","","","null","","","","key","16.65503333333278","768","357","","","","","","","","","","","","","","","","","","","",""
"psychophysics","209","476679","0.0-16.0-1.12","5977369c435a7500011593ee","637ca5e1af997cace1140107","637cab25353194e4f83472a8","null","","","","null","","","","key","16.650999999998522","768","357","","","","","","","","","","","","","140","-1","5","false","","","",""
"psychophysics","210","477137","0.0-16.0-2.12","5977369c435a7500011593ee","637ca5e1af997cace1140107","637cab25353194e4f83472a8","456.2999999523163","","","","77","","","","key","16.648370370370145","768","357","","","","","","","","","","","","","","","","","","","",""
"psychophysics","211","478149","0.0-16.0-0.13","5977369c435a7500011593ee","637ca5e1af997cace1140107","637cab25353194e4f83472a8","null","","","","null","","","","key","16.65218644067882","768","357","","","","","","","","","","","","","","","","","","","",""
"psychophysics","212","478656","0.0-16.0-1.13","5977369c435a7500011593ee","637ca5e1af997cace1140107","637cab25353194e4f83472a8","null","","","","null","","","","key","16.651299999999658","768","357","","","","","","","","","","","","","140","1","4","false","","","",""
"psychophysics","213","479025","0.0-16.0-2.13","5977369c435a7500011593ee","637ca5e1af997cace1140107","637cab25353194e4f83472a8","366","","","","77","","","","key","16.657285714286402","768","357","","","","","","","","","","","","","","","","","","","",""
"psychophysics","214","480030","0.0-16.0-0.14","5977369c435a7500011593ee","637ca5e1af997cace1140107","637cab25353194e4f83472a8","null","","","","null","","","","key","16.650237288135617","768","357","","","","","","","","","","","","","","","","","","","",""
"psychophysics","215","480541","0.0-16.0-1.14","5977369c435a7500011593ee","637ca5e1af997cace1140107","637cab25353194e4f83472a8","null","","","","null","","","","key","16.646000000000154","768","357","","","","","","","","","","","","","140","1","3","false","","","",""
"psychophysics","216","480941","0.0-16.0-2.14","5977369c435a7500011593ee","637ca5e1af997cace1140107","637cab25353194e4f83472a8","398.5","","","","90","","","","key","16.64691304347893","768","357","","","","","","","","","","","","","","","","","","","",""
"psychophysics","217","481945","0.0-16.0-0.15","5977369c435a7500011593ee","637ca5e1af997cace1140107","637cab25353194e4f83472a8","null","","","","null","","","","key","16.651711864406796","768","357","","","","","","","","","","","","","","","","","","","",""
"psychophysics","218","482459","0.0-16.0-1.15","5977369c435a7500011593ee","637ca5e1af997cace1140107","637cab25353194e4f83472a8","null","","","","null","","","","key","16.648300000000745","768","357","","","","","","","","","","","","","140","1","0","false","","","",""
"psychophysics","219","482973","0.0-16.0-2.15","5977369c435a7500011593ee","637ca5e1af997cace1140107","637cab25353194e4f83472a8","509.10000002384186","","","","90","","","","key","16.65560000000017","768","357","","","","","","","","","","","","","","","","","","","",""
"psychophysics","220","483977","0.0-16.0-0.16","5977369c435a7500011593ee","637ca5e1af997cace1140107","637cab25353194e4f83472a8","null","","","","null","","","","key","16.654796610170013","768","357","","","","","","","","","","","","","","","","","","","",""
"psychophysics","221","484493","0.0-16.0-1.16","5977369c435a7500011593ee","637ca5e1af997cace1140107","637cab25353194e4f83472a8","null","","","","null","","","","key","16.64366666666659","768","357","","","","","","","","","","","","","140","-1","2","false","","","",""
"psychophysics","222","484701","0.0-16.0-2.16","5977369c435a7500011593ee","637ca5e1af997cace1140107","637cab25353194e4f83472a8","203.80000007152557","","","","90","","","","key","16.67508333333535","768","357","","","","","","","","","","","","","","","","","","","",""
"psychophysics","223","485709","0.0-16.0-0.17","5977369c435a7500011593ee","637ca5e1af997cace1140107","637cab25353194e4f83472a8","null","","","","null","","","","key","16.651745762712505","768","357","","","","","","","","","","","","","","","","","","","",""
"psychophysics","224","486222","0.0-16.0-1.17","5977369c435a7500011593ee","637ca5e1af997cace1140107","637cab25353194e4f83472a8","null","","","","null","","","","key","16.653533333334295","768","357","","","","","","","","","","","","","140","-1","3","false","","","",""
"psychophysics","225","486300","0.0-16.0-2.17","5977369c435a7500011593ee","637ca5e1af997cace1140107","637cab25353194e4f83472a8","74.79999995231628","","","","90","","","","key","16.7127499999915","768","357","","","","","","","","","","","","","","","","","","","",""
"psychophysics","226","487307","0.0-16.0-0.18","5977369c435a7500011593ee","637ca5e1af997cace1140107","637cab25353194e4f83472a8","null","","","","null","","","","key","16.65133898305091","768","357","","","","","","","","","","","","","","","","","","","",""
"psychophysics","227","487824","0.0-16.0-1.18","5977369c435a7500011593ee","637ca5e1af997cace1140107","637cab25353194e4f83472a8","null","","","","null","","","","key","16.652633333334233","768","357","","","","","","","","","","","","","140","1","6","false","","","",""
"psychophysics","228","487910","0.0-16.0-2.18","5977369c435a7500011593ee","637ca5e1af997cace1140107","637cab25353194e4f83472a8","77.69999992847443","","","","77","","","","key","16.624199999996925","768","357","","","","","","","","","","","","","","","","","","","",""
"psychophysics","229","488920","0.0-16.0-0.19","5977369c435a7500011593ee","637ca5e1af997cace1140107","637cab25353194e4f83472a8","null","","","","null","","","","key","16.649474576271487","768","357","","","","","","","","","","","","","","","","","","","",""
"psychophysics","230","489424","0.0-16.0-1.19","5977369c435a7500011593ee","637ca5e1af997cace1140107","637cab25353194e4f83472a8","null","","","","null","","","","key","16.663666666667755","768","357","","","","","","","","","","","","","140","-1","0","false","","","",""
"psychophysics","231","489609","0.0-16.0-2.19","5977369c435a7500011593ee","637ca5e1af997cace1140107","637cab25353194e4f83472a8","180.19999992847443","","","","77","","","","key","16.652700000000188","768","357","","","","","","","","","","","","","","","","","","","",""
"psychophysics","232","490621","0.0-16.0-0.20","5977369c435a7500011593ee","637ca5e1af997cace1140107","637cab25353194e4f83472a8","null","","","","null","","","","key","16.6504067796612","768","357","","","","","","","","","","","","","","","","","","","",""
"psychophysics","233","491137","0.0-16.0-1.20","5977369c435a7500011593ee","637ca5e1af997cace1140107","637cab25353194e4f83472a8","null","","","","null","","","","key","16.653533333332355","768","357","","","","","","","","","","","","","140","-1","4","false","","","",""
"psychophysics","234","491253","0.0-16.0-2.20","5977369c435a7500011593ee","637ca5e1af997cace1140107","637cab25353194e4f83472a8","109.5","","","","77","","","","key","16.664833333333565","768","357","","","","","","","","","","","","","","","","","","","",""
"psychophysics","235","492270","0.0-16.0-0.21","5977369c435a7500011593ee","637ca5e1af997cace1140107","637cab25353194e4f83472a8","null","","","","null","","","","key","16.6518333333331","768","357","","","","","","","","","","","","","","","","","","","",""
"psychophysics","236","492785","0.0-16.0-1.21","5977369c435a7500011593ee","637ca5e1af997cace1140107","637cab25353194e4f83472a8","null","","","","null","","","","key","16.64703333333406","768","357","","","","","","","","","","","","","140","1","5","false","","","",""
"psychophysics","237","492891","0.0-16.0-2.21","5977369c435a7500011593ee","637ca5e1af997cace1140107","637cab25353194e4f83472a8","98.39999997615814","","","","77","","","","key","16.65983333332891","768","357","","","","","","","","","","","","","","","","","","","",""
"psychophysics","238","493901","0.0-16.0-0.22","5977369c435a7500011593ee","637ca5e1af997cace1140107","637cab25353194e4f83472a8","null","","","","null","","","","key","16.650000000000592","768","357","","","","","","","","","","","","","","","","","","","",""
"psychophysics","239","494403","0.0-16.0-1.22","5977369c435a7500011593ee","637ca5e1af997cace1140107","637cab25353194e4f83472a8","null","","","","null","","","","key","16.654933333332885","768","357","","","","","","","","","","","","","140","-1","6","false","","","",""
"psychophysics","240","494466","0.0-16.0-2.22","5977369c435a7500011593ee","637ca5e1af997cace1140107","637cab25353194e4f83472a8","58.5","","","","77","","","","key","16.685499999992317","768","357","","","","","","","","","","","","","","","","","","","",""
"psychophysics","241","495480","0.0-16.0-0.23","5977369c435a7500011593ee","637ca5e1af997cace1140107","637cab25353194e4f83472a8","null","","","","null","","","","key","16.65351666666684","768","357","","","","","","","","","","","","","","","","","","","",""
"psychophysics","242","495984","0.0-16.0-1.23","5977369c435a7500011593ee","637ca5e1af997cace1140107","637cab25353194e4f83472a8","null","","","","null","","","","key","16.653433333333428","768","357","","","","","","","","","","","","","140","1","2","false","","","",""
"psychophysics","243","496178","0.0-16.0-2.23","5977369c435a7500011593ee","637ca5e1af997cace1140107","637cab25353194e4f83472a8","188.70000004768372","","","","77","","","","key","16.65469999999623","768","357","","","","","","","","","","","","","","","","","","","",""
"html-keyboard-response","244","502587","0.0-17.0","5977369c435a7500011593ee","637ca5e1af997cace1140107","637cab25353194e4f83472a8","6406.800000071526","<p>Well Done !</p><p>Training Complete. Press the spacebar to start.</p><p>DON'T EXIT THE FULL SCREEN MODE</p>","","","32","","","","","","","","","","","","","","","","","","","","","","","","","","",""
"psychophysics","245","505591","0.0-18.0-0.0","5977369c435a7500011593ee","637ca5e1af997cace1140107","637cab25353194e4f83472a8","null","","","","null","","","","key","16.641433333332923","768","357","","","","","","","","","","","","","","","","","","","",""
"psychophysics","246","506101","0.0-18.0-1.0","5977369c435a7500011593ee","637ca5e1af997cace1140107","637cab25353194e4f83472a8","null","","","","null","","","","key","16.64706896551772","768","357","","","","","","","","","","","","","140","-1","4","true","","","",""
"psychophysics","247","507135","0.0-18.0-2.0","5977369c435a7500011593ee","637ca5e1af997cace1140107","637cab25353194e4f83472a8","1032.5","","","","77","","","","key","16.656344262295264","768","357","","","","","","","","","","","","","","","","","","","",""
"psychophysics","248","508139","0.0-18.0-0.1","5977369c435a7500011593ee","637ca5e1af997cace1140107","637cab25353194e4f83472a8","null","","","","null","","","","key","16.654649999999673","768","357","","","","","","","","","","","","","","","","","","","",""
"psychophysics","249","508645","0.0-18.0-1.1","5977369c435a7500011593ee","637ca5e1af997cace1140107","637cab25353194e4f83472a8","null","","","","null","","","","key","16.651999999999855","768","357","","","","","","","","","","","","","140","1","0","true","","","",""
"psychophysics","250","509032","0.0-18.0-2.1","5977369c435a7500011593ee","637ca5e1af997cace1140107","637cab25353194e4f83472a8","384.6999999284744","","","","77","","","","key","16.662954545452852","768","357","","","","","","","","","","","","","","","","","","","",""
"psychophysics","251","510037","0.0-18.0-0.2","5977369c435a7500011593ee","637ca5e1af997cace1140107","637cab25353194e4f83472a8","null","","","","null","","","","key","16.653049999999347","768","357","","","","","","","","","","","","","","","","","","","",""
"psychophysics","252","510548","0.0-18.0-1.2","5977369c435a7500011593ee","637ca5e1af997cace1140107","637cab25353194e4f83472a8","null","","","","null","","","","key","16.65093103448202","768","357","","","","","","","","","","","","","140","1","3","true","","","",""
"psychophysics","253","510900","0.0-18.0-2.2","5977369c435a7500011593ee","637ca5e1af997cace1140107","637cab25353194e4f83472a8","348.40000009536743","","","","90","","","","key","16.663549999997485","768","357","","","","","","","","","","","","","","","","","","","",""
"psychophysics","254","511902","0.0-18.0-0.3","5977369c435a7500011593ee","637ca5e1af997cace1140107","637cab25353194e4f83472a8","null","","","","null","","","","key","16.656683333333543","768","357","","","","","","","","","","","","","","","","","","","",""
"psychophysics","255","512413","0.0-18.0-1.3","5977369c435a7500011593ee","637ca5e1af997cace1140107","637cab25353194e4f83472a8","null","","","","null","","","","key","16.653965517242263","768","357","","","","","","","","","","","","","140","1","5","true","","","",""
"psychophysics","256","513019","0.0-18.0-2.3","5977369c435a7500011593ee","637ca5e1af997cace1140107","637cab25353194e4f83472a8","602.2999999523163","","","","77","","","","key","16.654055555556422","768","357","","","","","","","","","","","","","","","","","","","",""
"psychophysics","257","514029","0.0-18.0-0.4","5977369c435a7500011593ee","637ca5e1af997cace1140107","637cab25353194e4f83472a8","null","","","","null","","","","key","16.651067796610178","768","357","","","","","","","","","","","","","","","","","","","",""
"psychophysics","258","514533","0.0-18.0-1.4","5977369c435a7500011593ee","637ca5e1af997cace1140107","637cab25353194e4f83472a8","null","","","","null","","","","key","16.655266666666527","768","357","","","","","","","","","","","","","140","1","4","true","","","",""
"psychophysics","259","515022","0.0-18.0-2.4","5977369c435a7500011593ee","637ca5e1af997cace1140107","637cab25353194e4f83472a8","478.2000000476837","","","","77","","","","key","16.65924999999905","768","357","","","","","","","","","","","","","","","","","","","",""
"psychophysics","260","516030","0.0-18.0-0.5","5977369c435a7500011593ee","637ca5e1af997cace1140107","637cab25353194e4f83472a8","null","","","","null","","","","key","16.65376271186515","768","357","","","","","","","","","","","","","","","","","","","",""
"psychophysics","261","516534","0.0-18.0-1.5","5977369c435a7500011593ee","637ca5e1af997cace1140107","637cab25353194e4f83472a8","null","","","","null","","","","key","16.656766666665984","768","357","","","","","","","","","","","","","140","1","6","true","","","",""
"psychophysics","262","516898","0.0-18.0-2.5","5977369c435a7500011593ee","637ca5e1af997cace1140107","637cab25353194e4f83472a8","359.8000000715256","","","","77","","","","key","16.635904761904385","768","357","","","","","","","","","","","","","","","","","","","",""
"psychophysics","263","517909","0.0-18.0-0.6","5977369c435a7500011593ee","637ca5e1af997cace1140107","637cab25353194e4f83472a8","null","","","","null","","","","key","16.652338983051052","768","357","","","","","","","","","","","","","","","","","","","",""
"psychophysics","264","518412","0.0-18.0-1.6","5977369c435a7500011593ee","637ca5e1af997cace1140107","637cab25353194e4f83472a8","null","","","","null","","","","key","16.66031034482675","768","357","","","","","","","","","","","","","140","-1","3","true","","","",""
"psychophysics","265","519191","0.0-18.0-2.6","5977369c435a7500011593ee","637ca5e1af997cace1140107","637cab25353194e4f83472a8","773.8000000715256","","","","77","","","","key","16.64171739130372","768","357","","","","","","","","","","","","","","","","","","","",""
"psychophysics","266","520195","0.0-18.0-0.7","5977369c435a7500011593ee","637ca5e1af997cace1140107","637cab25353194e4f83472a8","null","","","","null","","","","key","16.65696666666578","768","357","","","","","","","","","","","","","","","","","","","",""
"psychophysics","267","520701","0.0-18.0-1.7","5977369c435a7500011593ee","637ca5e1af997cace1140107","637cab25353194e4f83472a8","null","","","","null","","","","key","16.658206896551338","768","357","","","","","","","","","","","","","140","-1","5","true","","","",""
"psychophysics","268","521019","0.0-18.0-2.7","5977369c435a7500011593ee","637ca5e1af997cace1140107","637cab25353194e4f83472a8","315.5","","","","77","","","","key","16.651666666668866","768","357","","","","","","","","","","","","","","","","","","","",""
"psychophysics","269","522025","0.0-18.0-0.8","5977369c435a7500011593ee","637ca5e1af997cace1140107","637cab25353194e4f83472a8","null","","","","null","","","","key","16.648796610170148","768","357","","","","","","","","","","","","","","","","","","","",""
"psychophysics","270","522533","0.0-18.0-1.8","5977369c435a7500011593ee","637ca5e1af997cace1140107","637cab25353194e4f83472a8","null","","","","null","","","","key","16.645066666669056","768","357","","","","","","","","","","","","","140","1","2","true","","","",""
"psychophysics","271","522820","0.0-18.0-2.8","5977369c435a7500011593ee","637ca5e1af997cace1140107","637cab25353194e4f83472a8","285.7000000476837","","","","90","","","","key","16.680124999998952","768","357","","","","","","","","","","","","","","","","","","","",""
"psychophysics","272","523823","0.0-18.0-0.9","5977369c435a7500011593ee","637ca5e1af997cace1140107","637cab25353194e4f83472a8","null","","","","null","","","","key","16.64963333333338","768","357","","","","","","","","","","","","","","","","","","","",""
"psychophysics","273","524325","0.0-18.0-1.9","5977369c435a7500011593ee","637ca5e1af997cace1140107","637cab25353194e4f83472a8","null","","","","null","","","","key","16.652793103447667","768","357","","","","","","","","","","","","","140","-1","0","true","","","",""
"psychophysics","274","524534","0.0-18.0-2.9","5977369c435a7500011593ee","637ca5e1af997cace1140107","637cab25353194e4f83472a8","206.10000002384186","","","","77","","","","key","16.659727272736333","768","357","","","","","","","","","","","","","","","","","","","",""
"psychophysics","275","525538","0.0-18.0-0.10","5977369c435a7500011593ee","637ca5e1af997cace1140107","637cab25353194e4f83472a8","null","","","","null","","","","key","16.65542372881427","768","357","","","","","","","","","","","","","","","","","","","",""
"psychophysics","276","526045","0.0-18.0-1.10","5977369c435a7500011593ee","637ca5e1af997cace1140107","637cab25353194e4f83472a8","null","","","","null","","","","key","16.65513333333268","768","357","","","","","","","","","","","","","140","-1","2","true","","","",""
"psychophysics","277","526296","0.0-18.0-2.10","5977369c435a7500011593ee","637ca5e1af997cace1140107","637cab25353194e4f83472a8","247.19999992847443","","","","90","","","","key","16.64735714285468","768","357","","","","","","","","","","","","","","","","","","","",""
"psychophysics","278","527301","0.0-18.0-0.11","5977369c435a7500011593ee","637ca5e1af997cace1140107","637cab25353194e4f83472a8","null","","","","null","","","","key","16.654779661016665","768","357","","","","","","","","","","","","","","","","","","","",""
"psychophysics","279","527806","0.0-18.0-1.11","5977369c435a7500011593ee","637ca5e1af997cace1140107","637cab25353194e4f83472a8","null","","","","null","","","","key","16.651433333331564","768","357","","","","","","","","","","","","","140","-1","6","true","","","",""
"psychophysics","280","528306","0.0-18.0-2.11","5977369c435a7500011593ee","637ca5e1af997cace1140107","637cab25353194e4f83472a8","494.89999997615814","","","","90","","","","key","16.654862068966835","768","357","","","","","","","","","","","","","","","","","","","",""
"psychophysics","281","529318","0.0-18.0-0.12","5977369c435a7500011593ee","637ca5e1af997cace1140107","637cab25353194e4f83472a8","null","","","","null","","","","key","16.650610169490516","768","357","","","","","","","","","","","","","","","","","","","",""
"psychophysics","282","529829","0.0-18.0-1.12","5977369c435a7500011593ee","637ca5e1af997cace1140107","637cab25353194e4f83472a8","null","","","","null","","","","key","16.64890000000208","768","357","","","","","","","","","","","","","140","1","0","true","","","",""
"psychophysics","283","530164","0.0-18.0-2.12","5977369c435a7500011593ee","637ca5e1af997cace1140107","637cab25353194e4f83472a8","331.89999997615814","","","","90","","","","key","16.66094736842512","768","357","","","","","","","","","","","","","","","","","","","",""
"psychophysics","284","531169","0.0-18.0-0.13","5977369c435a7500011593ee","637ca5e1af997cace1140107","637cab25353194e4f83472a8","null","","","","null","","","","key","16.654833333332014","768","357","","","","","","","","","","","","","","","","","","","",""
"psychophysics","285","531677","0.0-18.0-1.13","5977369c435a7500011593ee","637ca5e1af997cace1140107","637cab25353194e4f83472a8","null","","","","null","","","","key","16.651103448275283","768","357","","","","","","","","","","","","","140","-1","5","true","","","",""
"psychophysics","286","531888","0.0-18.0-2.13","5977369c435a7500011593ee","637ca5e1af997cace1140107","637cab25353194e4f83472a8","207.10000002384186","","","","77","","","","key","16.694416666665347","768","357","","","","","","","","","","","","","","","","","","","",""
"psychophysics","287","532894","0.0-18.0-0.14","5977369c435a7500011593ee","637ca5e1af997cace1140107","637cab25353194e4f83472a8","null","","","","null","","","","key","16.648661016950275","768","357","","","","","","","","","","","","","","","","","","","",""
"psychophysics","288","533398","0.0-18.0-1.14","5977369c435a7500011593ee","637ca5e1af997cace1140107","637cab25353194e4f83472a8","null","","","","null","","","","key","16.656206896548674","768","357","","","","","","","","","","","","","140","-1","4","true","","","",""
"psychophysics","289","533672","0.0-18.0-2.14","5977369c435a7500011593ee","637ca5e1af997cace1140107","637cab25353194e4f83472a8","266.10000002384186","","","","77","","","","key","16.640999999995984","768","357","","","","","","","","","","","","","","","","","","","",""
"psychophysics","290","534677","0.0-18.0-0.15","5977369c435a7500011593ee","637ca5e1af997cace1140107","637cab25353194e4f83472a8","null","","","","null","","","","key","16.654084745762965","768","357","","","","","","","","","","","","","","","","","","","",""
"psychophysics","291","535181","0.0-18.0-1.15","5977369c435a7500011593ee","637ca5e1af997cace1140107","637cab25353194e4f83472a8","null","","","","null","","","","key","16.653366666667473","768","357","","","","","","","","","","","","","140","1","3","true","","","",""
"psychophysics","292","535420","0.0-18.0-2.15","5977369c435a7500011593ee","637ca5e1af997cace1140107","637cab25353194e4f83472a8","233.89999997615814","","","","90","","","","key","16.70592307692501","768","357","","","","","","","","","","","","","","","","","","","",""
"psychophysics","293","536429","0.0-18.0-0.16","5977369c435a7500011593ee","637ca5e1af997cace1140107","637cab25353194e4f83472a8","null","","","","null","","","","key","16.647338983050343","768","357","","","","","","","","","","","","","","","","","","","",""
"psychophysics","294","536945","0.0-18.0-1.16","5977369c435a7500011593ee","637ca5e1af997cace1140107","637cab25353194e4f83472a8","null","","","","null","","","","key","16.639733333334636","768","357","","","","","","","","","","","","","140","1","2","true","","","",""
"psychophysics","295","537155","0.0-18.0-2.16","5977369c435a7500011593ee","637ca5e1af997cace1140107","637cab25353194e4f83472a8","201.60000002384186","","","","90","","","","key","16.64808333333349","768","357","","","","","","","","","","","","","","","","","","","",""
"psychophysics","296","538160","0.0-18.0-0.17","5977369c435a7500011593ee","637ca5e1af997cace1140107","637cab25353194e4f83472a8","null","","","","null","","","","key","16.655881355932944","768","357","","","","","","","","","","","","","","","","","","","",""
"psychophysics","297","538674","0.0-18.0-1.17","5977369c435a7500011593ee","637ca5e1af997cace1140107","637cab25353194e4f83472a8","null","","","","null","","","","key","16.6540666666658","768","357","","","","","","","","","","","","","140","1","6","true","","","",""
"psychophysics","298","538916","0.0-18.0-2.17","5977369c435a7500011593ee","637ca5e1af997cace1140107","637cab25353194e4f83472a8","234.20000004768372","","","","77","","","","key","16.666857142857875","768","357","","","","","","","","","","","","","","","","","","","",""
"psychophysics","299","539926","0.0-18.0-0.18","5977369c435a7500011593ee","637ca5e1af997cace1140107","637cab25353194e4f83472a8","null","","","","null","","","","key","16.655135593219203","768","357","","","","","","","","","","","","","","","","","","","",""
"psychophysics","300","540441","0.0-18.0-1.18","5977369c435a7500011593ee","637ca5e1af997cace1140107","637cab25353194e4f83472a8","null","","","","null","","","","key","16.64809999999901","768","357","","","","","","","","","","","","","140","-1","6","true","","","",""
"psychophysics","301","540989","0.0-18.0-2.18","5977369c435a7500011593ee","637ca5e1af997cace1140107","637cab25353194e4f83472a8","540.7000000476837","","","","90","","","","key","16.64728124999965","768","357","","","","","","","","","","","","","","","","","","","",""
"psychophysics","302","541998","0.0-18.0-0.19","5977369c435a7500011593ee","637ca5e1af997cace1140107","637cab25353194e4f83472a8","null","","","","null","","","","key","16.652416666666976","768","357","","","","","","","","","","","","","","","","","","","",""
"psychophysics","303","542507","0.0-18.0-1.19","5977369c435a7500011593ee","637ca5e1af997cace1140107","637cab25353194e4f83472a8","null","","","","null","","","","key","16.6461379310349","768","357","","","","","","","","","","","","","140","1","4","true","","","",""
"psychophysics","304","542866","0.0-18.0-2.19","5977369c435a7500011593ee","637ca5e1af997cace1140107","637cab25353194e4f83472a8","351.7000000476837","","","","77","","","","key","16.638904761905515","768","357","","","","","","","","","","","","","","","","","","","",""
"psychophysics","305","543871","0.0-18.0-0.20","5977369c435a7500011593ee","637ca5e1af997cace1140107","637cab25353194e4f83472a8","null","","","","null","","","","key","16.648949152543366","768","357","","","","","","","","","","","","","","","","","","","",""
"psychophysics","306","544388","0.0-18.0-1.20","5977369c435a7500011593ee","637ca5e1af997cace1140107","637cab25353194e4f83472a8","null","","","","null","","","","key","16.64990000000301","768","357","","","","","","","","","","","","","140","-1","3","true","","","",""
"psychophysics","307","544627","0.0-18.0-2.20","5977369c435a7500011593ee","637ca5e1af997cace1140107","637cab25353194e4f83472a8","230.20000004768372","","","","77","","","","key","16.641285714285914","768","357","","","","","","","","","","","","","","","","","","","",""
"psychophysics","308","545636","0.0-18.0-0.21","5977369c435a7500011593ee","637ca5e1af997cace1140107","637cab25353194e4f83472a8","null","","","","null","","","","key","16.651050847457817","768","357","","","","","","","","","","","","","","","","","","","",""
"psychophysics","309","546153","0.0-18.0-1.21","5977369c435a7500011593ee","637ca5e1af997cace1140107","637cab25353194e4f83472a8","null","","","","null","","","","key","16.646200000001894","768","357","","","","","","","","","","","","","140","-1","0","true","","","",""
"psychophysics","310","546652","0.0-18.0-2.21","5977369c435a7500011593ee","637ca5e1af997cace1140107","637cab25353194e4f83472a8","490.10000002384186","","","","90","","","","key","16.647137931034226","768","357","","","","","","","","","","","","","","","","","","","",""
"psychophysics","311","547668","0.0-18.0-0.22","5977369c435a7500011593ee","637ca5e1af997cace1140107","637cab25353194e4f83472a8","null","","","","null","","","","key","16.653833333333022","768","357","","","","","","","","","","","","","","","","","","","",""
"psychophysics","312","548185","0.0-18.0-1.22","5977369c435a7500011593ee","637ca5e1af997cace1140107","637cab25353194e4f83472a8","null","","","","null","","","","key","16.6536666666662","768","357","","","","","","","","","","","","","140","-1","2","true","","","",""
"psychophysics","313","548558","0.0-18.0-2.22","5977369c435a7500011593ee","637ca5e1af997cace1140107","637cab25353194e4f83472a8","365.6999999284744","","","","90","","","","key","16.647318181819916","768","357","","","","","","","","","","","","","","","","","","","",""
"psychophysics","314","549567","0.0-18.0-0.23","5977369c435a7500011593ee","637ca5e1af997cace1140107","637cab25353194e4f83472a8","null","","","","null","","","","key","16.64949152542286","768","357","","","","","","","","","","","","","","","","","","","",""
"psychophysics","315","550082","0.0-18.0-1.23","5977369c435a7500011593ee","637ca5e1af997cace1140107","637cab25353194e4f83472a8","null","","","","null","","","","key","16.64616666666698","768","357","","","","","","","","","","","","","140","1","5","true","","","",""
"psychophysics","316","550171","0.0-18.0-2.23","5977369c435a7500011593ee","637ca5e1af997cace1140107","637cab25353194e4f83472a8","79.89999997615814","","","","77","","","","key","16.693800000008196","768","357","","","","","","","","","","","","","","","","","","","",""
"psychophysics","317","551181","0.0-18.0-0.24","5977369c435a7500011593ee","637ca5e1af997cace1140107","637cab25353194e4f83472a8","null","","","","null","","","","key","16.65115254237198","768","357","","","","","","","","","","","","","","","","","","","",""
"psychophysics","318","551698","0.0-18.0-1.24","5977369c435a7500011593ee","637ca5e1af997cace1140107","637cab25353194e4f83472a8","null","","","","null","","","","key","16.661000000002485","768","357","","","","","","","","","","","","","140","-1","6","true","","","",""
"psychophysics","319","552057","0.0-18.0-2.24","5977369c435a7500011593ee","637ca5e1af997cace1140107","637cab25353194e4f83472a8","351.89999997615814","","","","77","","","","key","16.659095238095947","768","357","","","","","","","","","","","","","","","","","","","",""
"psychophysics","320","553063","0.0-18.0-0.25","5977369c435a7500011593ee","637ca5e1af997cace1140107","637cab25353194e4f83472a8","null","","","","null","","","","key","16.650847457627513","768","357","","","","","","","","","","","","","","","","","","","",""
"psychophysics","321","553579","0.0-18.0-1.25","5977369c435a7500011593ee","637ca5e1af997cace1140107","637cab25353194e4f83472a8","null","","","","null","","","","key","16.648599999999472","768","357","","","","","","","","","","","","","140","1","5","true","","","",""
"psychophysics","322","553752","0.0-18.0-2.25","5977369c435a7500011593ee","637ca5e1af997cace1140107","637cab25353194e4f83472a8","164.69999992847443","","","","77","","","","key","16.629899999999907","768","357","","","","","","","","","","","","","","","","","","","",""
"psychophysics","323","554761","0.0-18.0-0.26","5977369c435a7500011593ee","637ca5e1af997cace1140107","637cab25353194e4f83472a8","null","","","","null","","","","key","16.65183050847431","768","357","","","","","","","","","","","","","","","","","","","",""
"psychophysics","324","555278","0.0-18.0-1.26","5977369c435a7500011593ee","637ca5e1af997cace1140107","637cab25353194e4f83472a8","null","","","","null","","","","key","16.647566666667505","768","357","","","","","","","","","","","","","140","-1","5","true","","","",""
"psychophysics","325","555376","0.0-18.0-2.26","5977369c435a7500011593ee","637ca5e1af997cace1140107","637cab25353194e4f83472a8","89.69999992847443","","","","77","","","","key","16.692800000007264","768","357","","","","","","","","","","","","","","","","","","","",""
"psychophysics","326","556380","0.0-18.0-0.27","5977369c435a7500011593ee","637ca5e1af997cace1140107","637cab25353194e4f83472a8","null","","","","null","","","","key","16.654099999998774","768","357","","","","","","","","","","","","","","","","","","","",""
"psychophysics","327","556885","0.0-18.0-1.27","5977369c435a7500011593ee","637ca5e1af997cace1140107","637cab25353194e4f83472a8","null","","","","null","","","","key","16.64451724137902","768","357","","","","","","","","","","","","","140","1","0","true","","","",""
"psychophysics","328","557236","0.0-18.0-2.27","5977369c435a7500011593ee","637ca5e1af997cace1140107","637cab25353194e4f83472a8","347.40000009536743","","","","90","","","","key","16.655999999999768","768","357","","","","","","","","","","","","","","","","","","","",""
"psychophysics","329","558242","0.0-18.0-0.28","5977369c435a7500011593ee","637ca5e1af997cace1140107","637cab25353194e4f83472a8","null","","","","null","","","","key","16.6534915254254","768","357","","","","","","","","","","","","","","","","","","","",""
"psychophysics","330","558757","0.0-18.0-1.28","5977369c435a7500011593ee","637ca5e1af997cace1140107","637cab25353194e4f83472a8","null","","","","null","","","","key","16.650699999998324","768","357","","","","","","","","","","","","","140","-1","2","true","","","",""
"psychophysics","331","558951","0.0-18.0-2.28","5977369c435a7500011593ee","637ca5e1af997cace1140107","637cab25353194e4f83472a8","185.19999992847443","","","","90","","","","key","16.63945454545319","768","357","","","","","","","","","","","","","","","","","","","",""
"psychophysics","332","559957","0.0-18.0-0.29","5977369c435a7500011593ee","637ca5e1af997cace1140107","637cab25353194e4f83472a8","null","","","","null","","","","key","16.653508474576775","768","357","","","","","","","","","","","","","","","","","","","",""
