"trial_type","trial_index","time_elapsed","internal_node_id","PROLIFIC_PID","STUDY_ID","SESSION_ID","rt","stimulus","button_pressed","success","key_press","responses","isData","view_history","response_type","avg_frame_time","center_x","center_y","isSC","stim_side","trial_luminance","step_size","nReversal","correct","prev_ans","isThreshold","SC_threshold","final_threshold","isLuminance","FF_luminance","luminance","stimSide","ISInt","isFF","question_order","isSPQ","isCAPS","isAQ"
"pavlovia","0","19","0.0-0.0","60895dd42aa4dab10a53566c","637ca5e1af997cace1140107","637caa1371500781fecc0094","","","","","","","","","","","","","","","","","","","","","","","","","","","","","","","",""
"html-button-response","1","36760","0.0-1.0","60895dd42aa4dab10a53566c","637ca5e1af997cace1140107","637caa1371500781fecc0094","36740.09999990463","<div style='background-color: white; width:60%; margin: auto; padding: 50px; text-align: justify; text-justify: inter-word; margin-bottom: 20px;'><h1 style='text-align: center;'>Consent Form</h1><p>Please read this consent form carefully before deciding whether you would like to participate in this study. You have to be 18 years old or older to participate to this study.</p><p style='text-decoration: underline;'>Participation is voluntary:</p><p>It is your choice whether or not to participate in this research. If you choose to participate, you may change your mind and leave the study at any time. Refusal to participate or stopping your participation will involve no penalty or loss of benefits to which you are otherwise entitled.</p><p style='text-decoration: underline;'>Purpose of the Study:</p><p>To understand the mechanisms underlying human perception.</p><p style='text-decoration: underline;'>What you will do in this study:</p><p>You will be presented with a series of visual images and then you will press buttons on the keyboard of your computer to respond to simple questions about the images (e.g. Were one or two images presented?). In addition, you will be asked to complete a questionnaire concerning your beliefs and everyday mental and perceptual experiences.'</p><p style='text-decoration: underline;'> Time Required:</p><p>The study will take 40 minutes to complete. </p><p style='text-decoration: underline;'>Risks:</p><p>There are no anticipated risks associated with participating in this study that are beyond those experienced in everyday life. </p><p style='text-decoration: underline;'>Benefits:</p><p>There are no benefits to you in participating in the study. However, this study may lead to a better understanding of how different kinds of visual information are used.</p><p style='text-decoration: underline;'>Compensation:</p><p>You will be paid US$6.6/hour. </p><p style='text-decoration: underline;'>Privacy and Confidentiality:</p><p>Your participation in this study will be anonymous. No personal information about your name or identity will be asked or recorded. This anonymous data will be stored for several years and may be used for a variety of research purposes. The overall results of the study may be published, or the data files may be shared with other researchers, but your identity will not be revealed in any way. The online services we are using for this study may temporarily store your data, but this data will be downloaded and then promptly deleted from those services.Your data will not be permanently associated with your name, IP address, or any other identifiable information (e.g., your information will only be connected to your payment, not to any of your responses), though they may be temporarily stored together before we download and separate them. Even so, no guarantee of internet survey security can be given because, although unlikely, transmissions can be intercepted and IP addresses can be identified. The anonymous data may be shared publicly (for example, in conjunction with a resulting academic publication).</p><p style='text-decoration: underline;'>Participation and Withdrawal:</p><p>Your participation in this study is completely voluntary. You may stop responding to the stimuli or stop answering questions if you so choose and without penalty by exiting the full screen mode, closing this tab of your browser or redirecting it to a different website.</p><p style='text-decoration: underline;'>Contact Info of the Researcher: </p><p>If you have questions about this study, or if you would like to talk to the research team, please contact David Melcher (david.melcher@nyu.edu, md5050@nyu.edu) at the Perception and Active Cognition Laboratory, New York University Abu Dhabi, Computational Research Building, Saadiyat Island, Abu Dhabi, UAE.This research has been reviewed by the New York University Abu Dhabi Institutional Review Board (NYUAD IRB). To contact about your rights in this research, for questions, suggestions, or complaints that are not addressed by the researchers, please email IRBnyuad@nyu.edu, or call the NYUAD IRB at +971 2 628 4313. </p></div>","0","","","","","","","","","","","","","","","","","","","","","","","","","","","","",""
"fullscreen","2","39570","0.0-2.0","60895dd42aa4dab10a53566c","637ca5e1af997cace1140107","637caa1371500781fecc0094","","","","true","","","","","","","","","","","","","","","","","","","","","","","","","","","",""
"html-keyboard-response","3","59632","0.0-3.0","60895dd42aa4dab10a53566c","637ca5e1af997cace1140107","637caa1371500781fecc0094","20060.899999976158","<p>Welcome !</p><p>READ CAREFULLY THE FOLLOWING INDICATIONS:</p><p>From this moment you have ~40 minutes to complete the experiment.</p><p>During the experiment you will be prompted to take several breaks. Each break should not last longer than 2-3 minutes.</p><p>Make sure that your computer is plugged in and it's not running on battery power, even if the battery is already fully charged.</p><p>Turn off your phone and music, make sure that you are in a quiet room and that you will not be distracted for the next hour.</p><p>Failure to comply with the instructions and indications provided during the experiment will most likely result in the rejection of your data.<p>Press the spacebar to start.</p>","","","32","","","","","","","","","","","","","","","","","","","","","","","","","","",""
"survey-html-form","4","71633","0.0-4.0","60895dd42aa4dab10a53566c","637ca5e1af997cace1140107","637caa1371500781fecc0094","11998.700000047684","","","","","{""age"":""58"",""sex"":""m""}","true","","","","","","","","","","","","","","","","","","","","","","","","",""
"instructions","5","144558","0.0-5.0","60895dd42aa4dab10a53566c","637ca5e1af997cace1140107","637caa1371500781fecc0094","72925","","","","","","","[{""page_index"":0,""viewing_time"":23125.199999928474},{""page_index"":1,""viewing_time"":45143.39999997616},{""page_index"":2,""viewing_time"":4655.900000095367}]","","","","","","","","","","","","","","","","","","","","","","","",""
"psychophysics","6","147214","0.0-6.0-0.0","60895dd42aa4dab10a53566c","637ca5e1af997cace1140107","637caa1371500781fecc0094","1646.3000000715256","","","","39","","","","key","16.665368750000017","683","312.5","true","1","180","30","0","-1","","","","","","","","","","","","","",""
"psychophysics","7","152718","0.0-6.0-0.1","60895dd42aa4dab10a53566c","637ca5e1af997cace1140107","637caa1371500781fecc0094","4495.399999976158","","","","39","","","","key","16.665252279635222","683","312.5","true","1","180","30","0","-1","-1","","","","","","","","","","","","",""
"psychophysics","8","153902","0.0-6.0-0.2","60895dd42aa4dab10a53566c","637ca5e1af997cace1140107","637caa1371500781fecc0094","179.10000002384186","","","","39","","","","key","16.666057142857294","683","312.5","true","1","150","30","0","-1","-1","","","","","","","","","","","","",""
"psychophysics","9","154958","0.0-6.0-0.3","60895dd42aa4dab10a53566c","637ca5e1af997cace1140107","637caa1371500781fecc0094","48.300000071525574","","","","37","","","","key","16.66556451612926","683","312.5","true","-1","150","30","0","-1","-1","","","","","","","","","","","","",""
"psychophysics","10","156446","0.0-6.0-0.4","60895dd42aa4dab10a53566c","637ca5e1af997cace1140107","637caa1371500781fecc0094","485.1999999284744","","","","37","","","","key","16.665382022472045","683","312.5","true","-1","129","30","0","-1","-1","","","","","","","","","","","","",""
"psychophysics","11","157934","0.0-6.0-0.5","60895dd42aa4dab10a53566c","637ca5e1af997cace1140107","637caa1371500781fecc0094","484.89999997615814","","","","37","","","","key","16.664545454545244","683","312.5","true","1","129","24","1","1","-1","","","","","","","","","","","","",""
"psychophysics","12","158990","0.0-6.0-0.6","60895dd42aa4dab10a53566c","637ca5e1af997cace1140107","637caa1371500781fecc0094","47.200000047683716","","","","37","","","","key","16.664000000000083","683","312.5","true","-1","153","24","1","-1","1","","","","","","","","","","","","",""
"psychophysics","13","162670","0.0-6.0-0.7","60895dd42aa4dab10a53566c","637ca5e1af997cace1140107","637caa1371500781fecc0094","2677.2999999523163","","","","39","","","","key","16.665309090909034","683","312.5","true","1","153","19.2","2","-1","-1","","","","","","","","","","","","",""
"psychophysics","14","164574","0.0-6.0-0.8","60895dd42aa4dab10a53566c","637ca5e1af997cace1140107","637caa1371500781fecc0094","902.1000000238419","","","","37","","","","key","16.665274336283247","683","312.5","true","-1","133.8","19.2","2","-1","-1","","","","","","","","","","","","",""
"psychophysics","15","166174","0.0-6.0-0.9","60895dd42aa4dab10a53566c","637ca5e1af997cace1140107","637caa1371500781fecc0094","585.3999999761581","","","","37","","","","key","16.66586315789456","683","312.5","true","-1","133.8","19.2","2","-1","-1","","","","","","","","","","","","",""
"psychophysics","16","167822","0.0-6.0-0.10","60895dd42aa4dab10a53566c","637ca5e1af997cace1140107","637caa1371500781fecc0094","630.1000000238419","","","","37","","","","key","16.665877551020642","683","312.5","true","1","129","15.36","3","1","-1","","","","","","","","","","","","",""
"psychophysics","17","168894","0.0-6.0-0.11","60895dd42aa4dab10a53566c","637ca5e1af997cace1140107","637caa1371500781fecc0094","69.19999992847443","","","","37","","","","key","16.66537500000004","683","312.5","true","-1","144.36","15.36","3","-1","1","","","","","","","","","","","","",""
"psychophysics","18","171166","0.0-6.0-0.12","60895dd42aa4dab10a53566c","637ca5e1af997cace1140107","637caa1371500781fecc0094","1260.5999999046326","","","","37","","","","key","16.6655111111112","683","312.5","true","1","144.36","12.287999999999998","4","1","-1","","","","","","","","","","","","",""
"psychophysics","19","172222","0.0-6.0-0.13","60895dd42aa4dab10a53566c","637ca5e1af997cace1140107","637caa1371500781fecc0094","50","","","","39","","","","key","16.66529032258052","683","312.5","true","1","156.64800000000002","12.287999999999998","4","-1","1","","","","","","","","","","","","",""
"psychophysics","20","173328","0.0-6.0-0.14","60895dd42aa4dab10a53566c","637ca5e1af997cace1140107","637caa1371500781fecc0094","102.89999997615814","","","","37","","","","key","16.666439393939623","683","312.5","true","-1","156.64800000000002","9.8304","5","-1","-1","","","","","","","","","","","","",""
"psychophysics","21","174478","0.0-6.0-0.15","60895dd42aa4dab10a53566c","637ca5e1af997cace1140107","637caa1371500781fecc0094","140","","","","37","","","","key","16.66641176470576","683","312.5","true","-1","146.81760000000003","9.8304","5","-1","-1","","","","","","","","","","","","",""
"psychophysics","22","177630","0.0-6.0-0.16","60895dd42aa4dab10a53566c","637ca5e1af997cace1140107","637caa1371500781fecc0094","2144.5","","","","39","","","","key","16.664771276595662","683","312.5","true","-1","146.81760000000003","7.864319999999999","6","1","-1","","","","","","","","","","","","",""
"psychophysics","23","180430","0.0-6.0-0.17","60895dd42aa4dab10a53566c","637ca5e1af997cace1140107","637caa1371500781fecc0094","1797.6000000238419","","","","39","","","","key","16.665365269461134","683","312.5","true","1","154.68192000000002","7.864319999999999","6","-1","1","","","","","","","","","","","","",""
"psychophysics","24","182654","0.0-6.0-0.18","60895dd42aa4dab10a53566c","637ca5e1af997cace1140107","637caa1371500781fecc0094","1219.5","","","","37","","","","key","16.66564393939387","683","312.5","true","1","154.68192000000002","6.291456","7","1","-1","","","","","","","","","","","","",""
"psychophysics","25","184814","0.0-6.0-0.19","60895dd42aa4dab10a53566c","637ca5e1af997cace1140107","637caa1371500781fecc0094","1156.6000000238419","","","","37","","","","key","16.66542635658912","683","312.5","true","-1","160.97337600000003","6.291456","7","-1","1","","","","","","","","","","","","",""
"psychophysics","26","186992","0.0-6.0-0.20","60895dd42aa4dab10a53566c","637ca5e1af997cace1140107","637caa1371500781fecc0094","1172.5","","","","39","","","","key","16.665338461538283","683","312.5","true","1","160.97337600000003","5.033164800000001","8","-1","-1","","","","","","","","","","","","",""
"psychophysics","27","189294","0.0-6.0-0.21","60895dd42aa4dab10a53566c","637ca5e1af997cace1140107","637caa1371500781fecc0094","1295.7000000476837","","","","37","","","","key","16.6657737226276","683","312.5","true","1","155.94021120000002","4.0265318400000005","9","1","-1","","","","","","","","","","","","",""
"psychophysics","28","191534","0.0-6.0-0.22","60895dd42aa4dab10a53566c","637ca5e1af997cace1140107","637caa1371500781fecc0094","1226.3999999761581","","","","37","","","","key","16.66499248120314","683","312.5","true","-1","159.96674304","4.0265318400000005","9","-1","1","","","","","","","","","","","","",""
"psychophysics","29","193759","0.0-6.0-0.23","60895dd42aa4dab10a53566c","637ca5e1af997cace1140107","637caa1371500781fecc0094","1218.7999999523163","","","","39","","","","key","16.664526315789566","683","312.5","true","-1","159.96674304","3.2212254720000004","10","1","-1","","","","","","","","","","","","",""
"psychophysics","30","196110","0.0-6.0-0.24","60895dd42aa4dab10a53566c","637ca5e1af997cace1140107","637caa1371500781fecc0094","1346.3999999761581","","","","39","","","","key","16.66571428571437","683","312.5","true","-1","163.187968512","3.2212254720000004","10","1","1","","","","","","","","","","","","",""
"psychophysics","31","198334","0.0-6.0-0.25","60895dd42aa4dab10a53566c","637ca5e1af997cace1140107","637caa1371500781fecc0094","1216.1000000238419","","","","39","","","","key","16.665606060606176","683","312.5","true","-1","166.409193984","3.2212254720000004","10","1","1","","","","","","","","","","","","",""
"psychophysics","32","199359","0.0-6.0-0.26","60895dd42aa4dab10a53566c","637ca5e1af997cace1140107","637caa1371500781fecc0094","19.5","","","","39","","","","key","16.665098360656152","683","312.5","true","1","169.63041945600003","3.2212254720000004","10","-1","1","","","","","","","","","","","","",""
"psychophysics","33","201694","0.0-6.0-0.27","60895dd42aa4dab10a53566c","637ca5e1af997cace1140107","637caa1371500781fecc0094","1327.7000000476837","","","","39","","","","key","16.665431654676436","683","312.5","true","-1","169.63041945600003","2.5769803776000004","11","1","-1","","","","","","","","","","","","",""
"psychophysics","34","204270","0.0-6.0-0.28","60895dd42aa4dab10a53566c","637ca5e1af997cace1140107","637caa1371500781fecc0094","1565.5","","","","37","","","","key","16.665535947712545","683","312.5","true","1","172.20739983360002","2.5769803776000004","11","1","1","","","","","","","","","","","","",""
"psychophysics","35","205326","0.0-6.0-0.29","60895dd42aa4dab10a53566c","637ca5e1af997cace1140107","637caa1371500781fecc0094","53.299999952316284","","","","37","","","","key","16.66620634920666","683","312.5","true","-1","174.78438021120002","2.5769803776000004","11","-1","1","","","","","","","","","","","","",""
"psychophysics","36","207454","0.0-6.0-0.30","60895dd42aa4dab10a53566c","637ca5e1af997cace1140107","637caa1371500781fecc0094","1114.6000000238419","","","","39","","","","key","16.665976190476194","683","312.5","true","-1","174.78438021120002","2.0615843020800004","12","1","-1","","","","","","","","","","","","",""
"psychophysics","37","211118","0.0-6.0-0.31","60895dd42aa4dab10a53566c","637ca5e1af997cace1140107","637caa1371500781fecc0094","2661.3000000715256","","","","39","","","","key","16.66544748858451","683","312.5","true","1","176.84596451328002","2.0615843020800004","12","-1","1","","","","","","","","","","","","",""
"psychophysics","38","213277","0.0-6.0-0.32","60895dd42aa4dab10a53566c","637ca5e1af997cace1140107","637caa1371500781fecc0094","1158.1000000238419","","","","37","","","","key","16.666286821705434","683","312.5","true","1","176.84596451328002","1.6492674416640005","13","1","-1","","","","","","","","","","","","",""
"psychophysics","39","215358","0.0-6.0-0.33","60895dd42aa4dab10a53566c","637ca5e1af997cace1140107","637caa1371500781fecc0094","1073.7000000476837","","","","39","","","","key","16.6648629032258","683","312.5","true","1","178.49523195494402","1.6492674416640005","13","-1","1","","","","","","","","","","","","",""
"psychophysics","40","217341","0.0-6.0-0.34","60895dd42aa4dab10a53566c","637ca5e1af997cace1140107","637caa1371500781fecc0094","969.8999999761581","","","","37","","","","key","16.664949152542434","683","312.5","true","-1","178.49523195494402","1.3194139533312006","14","-1","-1","","","","","","","","","","","","",""
"psychophysics","41","219294","0.0-6.0-0.35","60895dd42aa4dab10a53566c","637ca5e1af997cace1140107","637caa1371500781fecc0094","939.1999999284744","","","","39","","","","key","16.66484482758598","683","312.5","true","1","177.1758180016128","1.3194139533312006","14","-1","-1","","","","","","","","","","","","",""
"psychophysics","42","221197","0.0-6.0-0.36","60895dd42aa4dab10a53566c","637ca5e1af997cace1140107","637caa1371500781fecc0094","901.5999999046326","","","","37","","","","key","16.66559292035398","683","312.5","true","1","177.1758180016128","1.0555311626649604","15","1","-1","","","","","","","","","","","","",""
"psychophysics","43","222255","0.0-6.0-0.37","60895dd42aa4dab10a53566c","637ca5e1af997cace1140107","637caa1371500781fecc0094","51","","","","37","","","","key","16.665403225806525","683","312.5","true","-1","178.23134916427776","1.0555311626649604","15","-1","1","","","","","","","","","","","","",""
"psychophysics","44","224077","0.0-6.0-0.38","60895dd42aa4dab10a53566c","637ca5e1af997cace1140107","637caa1371500781fecc0094","815.8000000715256","","","","37","","","","key","16.665238532110077","683","312.5","true","-1","178.23134916427776","1","16","-1","-1","","","","","","","","","","","","",""
"psychophysics","45","226029","0.0-6.0-0.39","60895dd42aa4dab10a53566c","637ca5e1af997cace1140107","637caa1371500781fecc0094","942.2999999523163","","","","39","","","","key","16.665284482758455","683","312.5","true","1","177.23134916427776","1","16","-1","-1","","","","","","","","","","","","",""
"html-keyboard-response","46","235502","0.0-7.0","60895dd42aa4dab10a53566c","637ca5e1af997cace1140107","637caa1371500781fecc0094","9471.199999928474","<p>Well Done !</p><p>Prepare for a new block.</p><p>DON'T EXIT THE FULL SCREEN MODE</p><p>Press the Spacebar to start.</p>","","","32","","","","","","","","","","","","","","","true","175.0782846389671","","","","","","","","","","",""
"psychophysics","47","237455","0.0-8.0-0.0","60895dd42aa4dab10a53566c","637ca5e1af997cace1140107","637caa1371500781fecc0094","941.2999999523163","","","","37","","","","key","16.95318103448291","683","312.5","true","-1","180","30","0","-1","","","","","","","","","","","","","",""
"psychophysics","48","239229","0.0-8.0-0.1","60895dd42aa4dab10a53566c","637ca5e1af997cace1140107","637caa1371500781fecc0094","764.3999999761581","","","","39","","","","key","16.665923809524006","683","312.5","true","1","180","30","0","-1","-1","","","","","","","","","","","","",""
"psychophysics","49","241965","0.0-8.0-0.2","60895dd42aa4dab10a53566c","637ca5e1af997cace1140107","637caa1371500781fecc0094","1730.1000000238419","","","","37","","","","key","16.664907975460153","683","312.5","true","1","150","24","1","1","-1","","","","","","","","","","","","",""
"psychophysics","50","243005","0.0-8.0-0.3","60895dd42aa4dab10a53566c","637ca5e1af997cace1140107","637caa1371500781fecc0094","37.59999990463257","","","","39","","","","key","16.66588709677425","683","312.5","true","1","174","24","1","-1","1","","","","","","","","","","","","",""
"psychophysics","51","244957","0.0-8.0-0.4","60895dd42aa4dab10a53566c","637ca5e1af997cace1140107","637caa1371500781fecc0094","943.1000000238419","","","","39","","","","key","16.665405172413838","683","312.5","true","-1","174","19.2","2","1","-1","","","","","","","","","","","","",""
"psychophysics","52","247133","0.0-8.0-0.5","60895dd42aa4dab10a53566c","637ca5e1af997cace1140107","637caa1371500781fecc0094","1165","","","","37","","","","key","16.66541085271332","683","312.5","true","-1","193.2","19.2","2","-1","1","","","","","","","","","","","","",""
"psychophysics","53","249054","0.0-8.0-0.6","60895dd42aa4dab10a53566c","637ca5e1af997cace1140107","637caa1371500781fecc0094","908.8999999761581","","","","39","","","","key","16.66559130434787","683","312.5","true","1","193.2","15.36","3","-1","-1","","","","","","","","","","","","",""
"psychophysics","54","251021","0.0-8.0-0.7","60895dd42aa4dab10a53566c","637ca5e1af997cace1140107","637caa1371500781fecc0094","960.1000000238419","","","","37","","","","key","16.665606837606745","683","312.5","true","-1","177.83999999999997","15.36","3","-1","-1","","","","","","","","","","","","",""
"psychophysics","55","253005","0.0-8.0-0.8","60895dd42aa4dab10a53566c","637ca5e1af997cace1140107","637caa1371500781fecc0094","982","","","","39","","","","key","16.66419491525424","683","312.5","true","1","177.83999999999997","15.36","3","-1","-1","","","","","","","","","","","","",""
"psychophysics","56","255148","0.0-8.0-0.9","60895dd42aa4dab10a53566c","637ca5e1af997cace1140107","637caa1371500781fecc0094","1131.6999999284744","","","","37","","","","key","16.66514173228345","683","312.5","true","-1","162.47999999999996","15.36","3","-1","-1","","","","","","","","","","","","",""
"psychophysics","57","257486","0.0-8.0-0.10","60895dd42aa4dab10a53566c","637ca5e1af997cace1140107","637caa1371500781fecc0094","1336","","","","39","","","","key","16.6653571428571","683","312.5","true","1","162.47999999999996","15.36","3","-1","-1","","","","","","","","","","","","",""
"psychophysics","58","259437","0.0-8.0-0.11","60895dd42aa4dab10a53566c","637ca5e1af997cace1140107","637caa1371500781fecc0094","948.3999999761581","","","","37","","","","key","16.66524999999995","683","312.5","true","-1","147.11999999999995","15.36","3","-1","-1","","","","","","","","","","","","",""
"psychophysics","59","260444","0.0-8.0-0.12","60895dd42aa4dab10a53566c","637ca5e1af997cace1140107","637caa1371500781fecc0094","6.100000023841858","","","","37","","","","key","16.664254237287995","683","312.5","true","-1","147.11999999999995","15.36","3","-1","-1","","","","","","","","","","","","",""
"psychophysics","60","261676","0.0-8.0-0.13","60895dd42aa4dab10a53566c","637ca5e1af997cace1140107","637caa1371500781fecc0094","226.89999997615814","","","","39","","","","key","16.66682191780762","683","312.5","true","-1","131.75999999999993","12.287999999999998","4","1","-1","","","","","","","","","","","","",""
"psychophysics","61","262718","0.0-8.0-0.14","60895dd42aa4dab10a53566c","637ca5e1af997cace1140107","637caa1371500781fecc0094","34.799999952316284","","","","37","","","","key","16.664935483871357","683","312.5","true","-1","144.04799999999994","12.287999999999998","4","-1","1","","","","","","","","","","","","",""
"psychophysics","62","264908","0.0-8.0-0.15","60895dd42aa4dab10a53566c","637ca5e1af997cace1140107","637caa1371500781fecc0094","1175.7999999523163","","","","37","","","","key","16.665399999999835","683","312.5","true","-1","144.04799999999994","9.8304","5","-1","-1","","","","","","","","","","","","",""
"psychophysics","63","266108","0.0-8.0-0.16","60895dd42aa4dab10a53566c","637ca5e1af997cace1140107","637caa1371500781fecc0094","192.79999995231628","","","","39","","","","key","16.664929577465085","683","312.5","true","1","134.21759999999995","9.8304","5","-1","-1","","","","","","","","","","","","",""
"psychophysics","64","267469","0.0-8.0-0.17","60895dd42aa4dab10a53566c","637ca5e1af997cace1140107","637caa1371500781fecc0094","353.59999990463257","","","","37","","","","key","16.66739506172778","683","312.5","true","1","134.21759999999995","7.864319999999999","6","1","-1","","","","","","","","","","","","",""
"psychophysics","65","268492","0.0-8.0-0.18","60895dd42aa4dab10a53566c","637ca5e1af997cace1140107","637caa1371500781fecc0094","21.199999928474426","","","","39","","","","key","16.6650833333338","683","312.5","true","1","142.08191999999994","7.864319999999999","6","-1","1","","","","","","","","","","","","",""
"psychophysics","66","271036","0.0-8.0-0.19","60895dd42aa4dab10a53566c","637ca5e1af997cace1140107","637caa1371500781fecc0094","1541","","","","39","","","","key","16.665598684210348","683","312.5","true","-1","142.08191999999994","6.291456","7","1","-1","","","","","","","","","","","","",""
"psychophysics","67","273534","0.0-8.0-0.20","60895dd42aa4dab10a53566c","637ca5e1af997cace1140107","637caa1371500781fecc0094","1486","","","","39","","","","key","16.664912751677754","683","312.5","true","-1","148.37337599999995","6.291456","7","1","1","","","","","","","","","","","","",""
"psychophysics","68","274556","0.0-8.0-0.21","60895dd42aa4dab10a53566c","637ca5e1af997cace1140107","637caa1371500781fecc0094","20","","","","39","","","","key","16.665016666666876","683","312.5","true","1","154.66483199999996","6.291456","7","-1","1","","","","","","","","","","","","",""
"psychophysics","69","276812","0.0-8.0-0.22","60895dd42aa4dab10a53566c","637ca5e1af997cace1140107","637caa1371500781fecc0094","1247.4000000953674","","","","37","","","","key","16.66484328358236","683","312.5","true","-1","154.66483199999996","5.033164800000001","8","-1","-1","","","","","","","","","","","","",""
"psychophysics","70","279452","0.0-8.0-0.23","60895dd42aa4dab10a53566c","637ca5e1af997cace1140107","637caa1371500781fecc0094","1638.1000000238419","","","","39","","","","key","16.66547468354442","683","312.5","true","1","149.63166719999995","5.033164800000001","8","-1","-1","","","","","","","","","","","","",""
"psychophysics","71","281020","0.0-8.0-0.24","60895dd42aa4dab10a53566c","637ca5e1af997cace1140107","637caa1371500781fecc0094","555.6000000238419","","","","37","","","","key","16.665075268816725","683","312.5","true","1","149.63166719999995","4.0265318400000005","9","1","-1","","","","","","","","","","","","",""
"psychophysics","72","283134","0.0-8.0-0.25","60895dd42aa4dab10a53566c","637ca5e1af997cace1140107","637caa1371500781fecc0094","1102.3999999761581","","","","39","","","","key","16.664928571428707","683","312.5","true","1","153.65819903999994","4.0265318400000005","9","-1","1","","","","","","","","","","","","",""
"psychophysics","73","285934","0.0-8.0-0.26","60895dd42aa4dab10a53566c","637ca5e1af997cace1140107","637caa1371500781fecc0094","1789.1999999284744","","","","37","","","","key","16.665455089820323","683","312.5","true","-1","153.65819903999994","3.2212254720000004","10","-1","-1","","","","","","","","","","","","",""
"psychophysics","74","287980","0.0-8.0-0.27","60895dd42aa4dab10a53566c","637ca5e1af997cace1140107","637caa1371500781fecc0094","1033.8999999761581","","","","39","","","","key","16.66551239669423","683","312.5","true","-1","150.43697356799993","2.5769803776000004","11","1","-1","","","","","","","","","","","","",""
"psychophysics","75","290812","0.0-8.0-0.28","60895dd42aa4dab10a53566c","637ca5e1af997cace1140107","637caa1371500781fecc0094","1827.7000000476837","","","","39","","","","key","16.665213017751665","683","312.5","true","1","153.01395394559992","2.5769803776000004","11","-1","1","","","","","","","","","","","","",""
"psychophysics","76","292892","0.0-8.0-0.29","60895dd42aa4dab10a53566c","637ca5e1af997cace1140107","637caa1371500781fecc0094","1078.3999999761581","","","","37","","","","key","16.66558064516134","683","312.5","true","1","153.01395394559992","2.0615843020800004","12","1","-1","","","","","","","","","","","","",""
"psychophysics","77","295052","0.0-8.0-0.30","60895dd42aa4dab10a53566c","637ca5e1af997cace1140107","637caa1371500781fecc0094","1155.1000000238419","","","","37","","","","key","16.66531007751947","683","312.5","true","-1","155.07553824767993","2.0615843020800004","12","-1","1","","","","","","","","","","","","",""
"psychophysics","78","297117","0.0-8.0-0.31","60895dd42aa4dab10a53566c","637ca5e1af997cace1140107","637caa1371500781fecc0094","1056.3999999761581","","","","39","","","","key","16.66442276422754","683","312.5","true","1","155.07553824767993","1.6492674416640005","13","-1","-1","","","","","","","","","","","","",""
"psychophysics","79","299692","0.0-8.0-0.32","60895dd42aa4dab10a53566c","637ca5e1af997cace1140107","637caa1371500781fecc0094","1564.7999999523163","","","","37","","","","key","16.665751633986837","683","312.5","true","1","153.42627080601594","1.3194139533312006","14","1","-1","","","","","","","","","","","","",""
"psychophysics","80","301982","0.0-8.0-0.33","60895dd42aa4dab10a53566c","637ca5e1af997cace1140107","637caa1371500781fecc0094","1284.7999999523163","","","","39","","","","key","16.665350364963437","683","312.5","true","1","154.74568475934714","1.3194139533312006","14","-1","1","","","","","","","","","","","","",""
"psychophysics","81","304333","0.0-8.0-0.34","60895dd42aa4dab10a53566c","637ca5e1af997cace1140107","637caa1371500781fecc0094","1344.5","","","","37","","","","key","16.66538571428599","683","312.5","true","-1","154.74568475934714","1.0555311626649604","15","-1","-1","","","","","","","","","","","","",""
"psychophysics","82","306476","0.0-8.0-0.35","60895dd42aa4dab10a53566c","637ca5e1af997cace1140107","637caa1371500781fecc0094","1140.6999999284744","","","","39","","","","key","16.666228346456958","683","312.5","true","1","153.6901535966822","1.0555311626649604","15","-1","-1","","","","","","","","","","","","",""
"psychophysics","83","308284","0.0-8.0-0.36","60895dd42aa4dab10a53566c","637ca5e1af997cace1140107","637caa1371500781fecc0094","805","","","","37","","","","key","16.66552777777758","683","312.5","true","-1","153.6901535966822","1.0555311626649604","15","-1","-1","","","","","","","","","","","","",""
"psychophysics","84","310413","0.0-8.0-0.37","60895dd42aa4dab10a53566c","637ca5e1af997cace1140107","637caa1371500781fecc0094","1116.7000000476837","","","","37","","","","key","16.66510317460329","683","312.5","true","-1","152.63462243401725","1.0555311626649604","15","-1","-1","","","","","","","","","","","","",""
"psychophysics","85","312700","0.0-8.0-0.38","60895dd42aa4dab10a53566c","637ca5e1af997cace1140107","637caa1371500781fecc0094","1271.0999999046326","","","","39","","","","key","16.665218978102256","683","312.5","true","1","152.63462243401725","1.0555311626649604","15","-1","-1","","","","","","","","","","","","",""
"psychophysics","86","314844","0.0-8.0-0.39","60895dd42aa4dab10a53566c","637ca5e1af997cace1140107","637caa1371500781fecc0094","1139.5999999046326","","","","37","","","","key","16.66507086614156","683","312.5","true","-1","151.5790912713523","1.0555311626649604","15","-1","-1","","","","","","","","","","","","",""
"html-keyboard-response","87","326956","0.0-9.0","60895dd42aa4dab10a53566c","637ca5e1af997cace1140107","637caa1371500781fecc0094","12110","<p>Well Done !</p><p>Prepare for a new block.</p><p>DON'T EXIT THE FULL SCREEN MODE</p><p>Press the Spacebar to start.</p>","","","32","","","","","","","","","","","","","","","true","153.40524264613472","","","","","","","","","","",""
"psychophysics","88","329164","0.0-10.0-0.0","60895dd42aa4dab10a53566c","637ca5e1af997cace1140107","637caa1371500781fecc0094","1206.5","","","","37","","","","key","16.666270676691738","683","312.5","true","-1","180","30","0","-1","","","","","","","","","","","","","",""
"psychophysics","89","331308","0.0-10.0-0.1","60895dd42aa4dab10a53566c","637ca5e1af997cace1140107","637caa1371500781fecc0094","1141.5","","","","39","","","","key","16.6647007874017","683","312.5","true","1","180","30","0","-1","-1","","","","","","","","","","","","",""
"psychophysics","90","333246","0.0-10.0-0.2","60895dd42aa4dab10a53566c","637ca5e1af997cace1140107","637caa1371500781fecc0094","936.1000000238419","","","","37","","","","key","16.664853448275544","683","312.5","true","-1","150","30","0","-1","-1","","","","","","","","","","","","",""
"psychophysics","91","335708","0.0-10.0-0.3","60895dd42aa4dab10a53566c","637ca5e1af997cace1140107","637caa1371500781fecc0094","1460.2000000476837","","","","37","","","","key","16.665698630136855","683","312.5","true","-1","150","30","0","-1","-1","","","","","","","","","","","","",""
"psychophysics","92","337708","0.0-10.0-0.4","60895dd42aa4dab10a53566c","637ca5e1af997cace1140107","637caa1371500781fecc0094","998.6000000238419","","","","37","","","","key","16.665243697478907","683","312.5","true","-1","129","30","0","-1","-1","","","","","","","","","","","","",""
"psychophysics","93","339452","0.0-10.0-0.5","60895dd42aa4dab10a53566c","637ca5e1af997cace1140107","637caa1371500781fecc0094","741.6000000238419","","","","37","","","","key","16.66551923076902","683","312.5","true","1","129","24","1","1","-1","","","","","","","","","","","","",""
"psychophysics","94","342380","0.0-10.0-0.6","60895dd42aa4dab10a53566c","637ca5e1af997cace1140107","637caa1371500781fecc0094","1925.5","","","","39","","","","key","16.665697142856995","683","312.5","true","1","153","24","1","-1","1","","","","","","","","","","","","",""
"psychophysics","95","344972","0.0-10.0-0.7","60895dd42aa4dab10a53566c","637ca5e1af997cace1140107","637caa1371500781fecc0094","1590","","","","39","","","","key","16.665837662337594","683","312.5","true","1","153","19.2","2","-1","-1","","","","","","","","","","","","",""
"psychophysics","96","346956","0.0-10.0-0.8","60895dd42aa4dab10a53566c","637ca5e1af997cace1140107","637caa1371500781fecc0094","982.3999999761581","","","","39","","","","key","16.66581355932196","683","312.5","true","-1","133.8","15.36","3","1","-1","","","","","","","","","","","","",""
"psychophysics","97","347980","0.0-10.0-0.9","60895dd42aa4dab10a53566c","637ca5e1af997cace1140107","637caa1371500781fecc0094","22.600000023841858","","","","39","","","","key","16.66555737704993","683","312.5","true","1","149.16000000000003","15.36","3","-1","1","","","","","","","","","","","","",""
"psychophysics","98","349004","0.0-10.0-0.10","60895dd42aa4dab10a53566c","637ca5e1af997cace1140107","637caa1371500781fecc0094","22.399999976158142","","","","37","","","","key","16.66608333333376","683","312.5","true","-1","149.16000000000003","12.287999999999998","4","-1","-1","","","","","","","","","","","","",""
"psychophysics","99","350012","0.0-10.0-0.11","60895dd42aa4dab10a53566c","637ca5e1af997cace1140107","637caa1371500781fecc0094","7.600000023841858","","","","37","","","","key","16.665316666666573","683","312.5","true","-1","136.872","12.287999999999998","4","-1","-1","","","","","","","","","","","","",""
"psychophysics","100","352172","0.0-10.0-0.12","60895dd42aa4dab10a53566c","637ca5e1af997cace1140107","637caa1371500781fecc0094","1156.8999999761581","","","","37","","","","key","16.66535156250029","683","312.5","true","1","136.872","9.8304","5","1","-1","","","","","","","","","","","","",""
"psychophysics","101","353228","0.0-10.0-0.13","60895dd42aa4dab10a53566c","637ca5e1af997cace1140107","637caa1371500781fecc0094","54.60000002384186","","","","39","","","","key","16.66560317460348","683","312.5","true","1","146.7024","9.8304","5","-1","1","","","","","","","","","","","","",""
"psychophysics","102","354331","0.0-10.0-0.14","60895dd42aa4dab10a53566c","637ca5e1af997cace1140107","637caa1371500781fecc0094","101.79999995231628","","","","39","","","","key","16.665015384615756","683","312.5","true","1","146.7024","7.864319999999999","6","-1","-1","","","","","","","","","","","","",""
"psychophysics","103","355483","0.0-10.0-0.15","60895dd42aa4dab10a53566c","637ca5e1af997cace1140107","637caa1371500781fecc0094","151","","","","37","","","","key","16.664661764706526","683","312.5","true","-1","138.83808000000002","7.864319999999999","6","-1","-1","","","","","","","","","","","","",""
"psychophysics","104","356524","0.0-10.0-0.16","60895dd42aa4dab10a53566c","637ca5e1af997cace1140107","637caa1371500781fecc0094","38.89999997615814","","","","37","","","","key","16.666147540983758","683","312.5","true","-1","138.83808000000002","7.864319999999999","6","-1","-1","","","","","","","","","","","","",""
"psychophysics","105","359323","0.0-10.0-0.17","60895dd42aa4dab10a53566c","637ca5e1af997cace1140107","637caa1371500781fecc0094","1797.1000000238419","","","","39","","","","key","16.666125748502747","683","312.5","true","-1","130.97376000000003","6.291456","7","1","-1","","","","","","","","","","","","",""
"psychophysics","106","360812","0.0-10.0-0.18","60895dd42aa4dab10a53566c","637ca5e1af997cace1140107","637caa1371500781fecc0094","485.7999999523163","","","","39","","","","key","16.66579775280892","683","312.5","true","1","137.26521600000004","6.291456","7","-1","1","","","","","","","","","","","","",""
"psychophysics","107","361883","0.0-10.0-0.19","60895dd42aa4dab10a53566c","637ca5e1af997cace1140107","637caa1371500781fecc0094","70.09999990463257","","","","39","","","","key","16.664920634920858","683","312.5","true","1","137.26521600000004","5.033164800000001","8","-1","-1","","","","","","","","","","","","",""
"psychophysics","108","363355","0.0-10.0-0.20","60895dd42aa4dab10a53566c","637ca5e1af997cace1140107","637caa1371500781fecc0094","470.7999999523163","","","","37","","","","key","16.66685057471268","683","312.5","true","1","132.23205120000003","4.0265318400000005","9","1","-1","","","","","","","","","","","","",""
"psychophysics","109","364971","0.0-10.0-0.21","60895dd42aa4dab10a53566c","637ca5e1af997cace1140107","637caa1371500781fecc0094","614.2000000476837","","","","37","","","","key","16.665166666666966","683","312.5","true","1","136.25858304000002","4.0265318400000005","9","1","1","","","","","","","","","","","","",""
"psychophysics","110","366299","0.0-10.0-0.22","60895dd42aa4dab10a53566c","637ca5e1af997cace1140107","637caa1371500781fecc0094","326.3000000715256","","","","39","","","","key","16.66544303797477","683","312.5","true","1","140.28511488","4.0265318400000005","9","-1","1","","","","","","","","","","","","",""
"psychophysics","111","367339","0.0-10.0-0.23","60895dd42aa4dab10a53566c","637ca5e1af997cace1140107","637caa1371500781fecc0094","39.09999990463257","","","","39","","","","key","16.665295081966953","683","312.5","true","1","140.28511488","3.2212254720000004","10","-1","-1","","","","","","","","","","","","",""
"psychophysics","112","369099","0.0-10.0-0.24","60895dd42aa4dab10a53566c","637ca5e1af997cace1140107","637caa1371500781fecc0094","758.2000000476837","","","","39","","","","key","16.665647619047448","683","312.5","true","1","137.06388940800002","3.2212254720000004","10","-1","-1","","","","","","","","","","","","",""
"psychophysics","113","370411","0.0-10.0-0.25","60895dd42aa4dab10a53566c","637ca5e1af997cace1140107","637caa1371500781fecc0094","309.89999997615814","","","","39","","","","key","16.665230769231222","683","312.5","true","1","137.06388940800002","3.2212254720000004","10","-1","-1","","","","","","","","","","","","",""
"psychophysics","114","372844","0.0-10.0-0.26","60895dd42aa4dab10a53566c","637ca5e1af997cace1140107","637caa1371500781fecc0094","1430.8999999761581","","","","37","","","","key","16.66534482758645","683","312.5","true","1","133.842663936","2.5769803776000004","11","1","-1","","","","","","","","","","","","",""
"psychophysics","115","374763","0.0-10.0-0.27","60895dd42aa4dab10a53566c","637ca5e1af997cace1140107","637caa1371500781fecc0094","917","","","","37","","","","key","16.665929824561125","683","312.5","true","-1","136.4196443136","2.5769803776000004","11","-1","1","","","","","","","","","","","","",""
"psychophysics","116","376363","0.0-10.0-0.28","60895dd42aa4dab10a53566c","637ca5e1af997cace1140107","637caa1371500781fecc0094","599","","","","39","","","","key","16.66587368421085","683","312.5","true","-1","136.4196443136","2.0615843020800004","12","1","-1","","","","","","","","","","","","",""
"psychophysics","117","377851","0.0-10.0-0.29","60895dd42aa4dab10a53566c","637ca5e1af997cace1140107","637caa1371500781fecc0094","486.10000002384186","","","","37","","","","key","16.6658750000001","683","312.5","true","-1","138.48122861568","2.0615843020800004","12","-1","1","","","","","","","","","","","","",""
"psychophysics","118","379292","0.0-10.0-0.30","60895dd42aa4dab10a53566c","637ca5e1af997cace1140107","637caa1371500781fecc0094","437.89999997615814","","","","39","","","","key","16.66616279069743","683","312.5","true","1","138.48122861568","1.6492674416640005","13","-1","-1","","","","","","","","","","","","",""
"psychophysics","119","381467","0.0-10.0-0.31","60895dd42aa4dab10a53566c","637ca5e1af997cace1140107","637caa1371500781fecc0094","1173.5999999046326","","","","37","","","","key","16.66596124030996","683","312.5","true","-1","136.83196117401602","1.6492674416640005","13","-1","-1","","","","","","","","","","","","",""
"psychophysics","120","383131","0.0-10.0-0.32","60895dd42aa4dab10a53566c","637ca5e1af997cace1140107","637caa1371500781fecc0094","662.3000000715256","","","","37","","","","key","16.66575757575732","683","312.5","true","-1","136.83196117401602","1.6492674416640005","13","-1","-1","","","","","","","","","","","","",""
"psychophysics","121","384860","0.0-10.0-0.33","60895dd42aa4dab10a53566c","637ca5e1af997cace1140107","637caa1371500781fecc0094","727.3999999761581","","","","39","","","","key","16.66580582524252","683","312.5","true","-1","135.18269373235202","1.3194139533312006","14","1","-1","","","","","","","","","","","","",""
"psychophysics","122","386443","0.0-10.0-0.34","60895dd42aa4dab10a53566c","637ca5e1af997cace1140107","637caa1371500781fecc0094","581.9000000953674","","","","39","","","","key","16.665638297872416","683","312.5","true","1","136.50210768568323","1.3194139533312006","14","-1","1","","","","","","","","","","","","",""
"psychophysics","123","387995","0.0-10.0-0.35","60895dd42aa4dab10a53566c","637ca5e1af997cace1140107","637caa1371500781fecc0094","550.5","","","","39","","","","key","16.66571739130418","683","312.5","true","-1","136.50210768568323","1.0555311626649604","15","1","-1","","","","","","","","","","","","",""
"psychophysics","124","390411","0.0-10.0-0.36","60895dd42aa4dab10a53566c","637ca5e1af997cace1140107","637caa1371500781fecc0094","1414.7999999523163","","","","39","","","","key","16.66526388888896","683","312.5","true","-1","137.55763884834818","1.0555311626649604","15","1","1","","","","","","","","","","","","",""
"psychophysics","125","391915","0.0-10.0-0.37","60895dd42aa4dab10a53566c","637ca5e1af997cace1140107","637caa1371500781fecc0094","502.10000002384186","","","","37","","","","key","16.66570786516878","683","312.5","true","-1","138.61317001101312","1.0555311626649604","15","-1","1","","","","","","","","","","","","",""
"psychophysics","126","393293","0.0-10.0-0.38","60895dd42aa4dab10a53566c","637ca5e1af997cace1140107","637caa1371500781fecc0094","376.60000002384186","","","","37","","","","key","16.666841463414418","683","312.5","true","-1","138.61317001101312","1","16","-1","-1","","","","","","","","","","","","",""
"psychophysics","127","394491","0.0-10.0-0.39","60895dd42aa4dab10a53566c","637ca5e1af997cace1140107","637caa1371500781fecc0094","195.60000002384186","","","","39","","","","key","16.666577464788595","683","312.5","true","1","137.61317001101312","1","16","-1","-1","","","","","","","","","","","","",""
"html-keyboard-response","128","398091","0.0-11.0","60895dd42aa4dab10a53566c","637ca5e1af997cace1140107","637caa1371500781fecc0094","3598.399999976158","<p>Well Done !</p><p>Prepare for a new block.</p><p>DON'T EXIT THE FULL SCREEN MODE</p><p>Press the Spacebar to start.</p>","","","32","","","","","","","","","","","","","","","true","136.99708530237987","","","","","","","","","","",""
"psychophysics","129","399147","0.0-12.0-0.0","60895dd42aa4dab10a53566c","637ca5e1af997cace1140107","637caa1371500781fecc0094","54.09999990463257","","","","39","","","","key","16.666222222222363","683","312.5","true","1","180","30","0","-1","","","","","","","","","","","","","",""
"psychophysics","130","402125","0.0-12.0-0.1","60895dd42aa4dab10a53566c","637ca5e1af997cace1140107","637caa1371500781fecc0094","1975.5","","","","37","","","","key","16.66524157303371","683","312.5","true","-1","180","30","0","-1","-1","","","","","","","","","","","","",""
"psychophysics","131","404763","0.0-12.0-0.2","60895dd42aa4dab10a53566c","637ca5e1af997cace1140107","637caa1371500781fecc0094","1635.2999999523163","","","","37","","","","key","16.66522292993632","683","312.5","true","-1","150","30","0","-1","-1","","","","","","","","","","","","",""
"psychophysics","132","406075","0.0-12.0-0.3","60895dd42aa4dab10a53566c","637ca5e1af997cace1140107","637caa1371500781fecc0094","309.89999997615814","","","","39","","","","key","16.665217948717792","683","312.5","true","1","150","30","0","-1","-1","","","","","","","","","","","","",""
"psychophysics","133","408059","0.0-12.0-0.4","60895dd42aa4dab10a53566c","637ca5e1af997cace1140107","637caa1371500781fecc0094","981.5999999046326","","","","39","","","","key","16.66513559322013","683","312.5","true","1","129","30","0","-1","-1","","","","","","","","","","","","",""
"psychophysics","134","410715","0.0-12.0-0.5","60895dd42aa4dab10a53566c","637ca5e1af997cace1140107","637caa1371500781fecc0094","1653.6999999284744","","","","37","","","","key","16.665405063291267","683","312.5","true","1","129","24","1","1","-1","","","","","","","","","","","","",""
"psychophysics","135","412027","0.0-12.0-0.6","60895dd42aa4dab10a53566c","637ca5e1af997cace1140107","637caa1371500781fecc0094","310.2000000476837","","","","37","","","","key","16.665474358974443","683","312.5","true","-1","153","24","1","-1","1","","","","","","","","","","","","",""
"psychophysics","136","413227","0.0-12.0-0.7","60895dd42aa4dab10a53566c","637ca5e1af997cace1140107","637caa1371500781fecc0094","199.20000004768372","","","","39","","","","key","16.665422535211203","683","312.5","true","1","153","19.2","2","-1","-1","","","","","","","","","","","","",""
"psychophysics","137","414924","0.0-12.0-0.8","60895dd42aa4dab10a53566c","637ca5e1af997cace1140107","637caa1371500781fecc0094","694.7999999523163","","","","37","","","","key","16.665148514851992","683","312.5","true","1","133.8","15.36","3","1","-1","","","","","","","","","","","","",""
"psychophysics","138","416011","0.0-12.0-0.9","60895dd42aa4dab10a53566c","637ca5e1af997cace1140107","637caa1371500781fecc0094","85.60000002384186","","","","37","","","","key","16.664843749999818","683","312.5","true","-1","149.16000000000003","15.36","3","-1","1","","","","","","","","","","","","",""
"psychophysics","139","417291","0.0-12.0-0.10","60895dd42aa4dab10a53566c","637ca5e1af997cace1140107","637caa1371500781fecc0094","277.2999999523163","","","","39","","","","key","16.66513157894798","683","312.5","true","1","149.16000000000003","12.287999999999998","4","-1","-1","","","","","","","","","","","","",""
"psychophysics","140","418379","0.0-12.0-0.11","60895dd42aa4dab10a53566c","637ca5e1af997cace1140107","637caa1371500781fecc0094","85.90000009536743","","","","37","","","","key","16.664953125000466","683","312.5","true","-1","136.872","12.287999999999998","4","-1","-1","","","","","","","","","","","","",""
"psychophysics","141","419851","0.0-12.0-0.12","60895dd42aa4dab10a53566c","637ca5e1af997cace1140107","637caa1371500781fecc0094","469.7000000476837","","","","37","","","","key","16.66511494252863","683","312.5","true","-1","136.872","12.287999999999998","4","-1","-1","","","","","","","","","","","","",""
"psychophysics","142","421947","0.0-12.0-0.13","60895dd42aa4dab10a53566c","637ca5e1af997cace1140107","637caa1371500781fecc0094","1094.1999999284744","","","","39","","","","key","16.664944000000133","683","312.5","true","1","129","12.287999999999998","4","-1","-1","","","","","","","","","","","","",""
"psychophysics","143","423851","0.0-12.0-0.14","60895dd42aa4dab10a53566c","637ca5e1af997cace1140107","637caa1371500781fecc0094","902.7999999523163","","","","39","","","","key","16.66538938053109","683","312.5","true","-1","129","9.8304","5","1","-1","","","","","","","","","","","","",""
"psychophysics","144","425323","0.0-12.0-0.15","60895dd42aa4dab10a53566c","637ca5e1af997cace1140107","637caa1371500781fecc0094","470.89999997615814","","","","39","","","","key","16.66495454545458","683","312.5","true","1","138.8304","9.8304","5","-1","1","","","","","","","","","","","","",""
"psychophysics","145","426635","0.0-12.0-0.16","60895dd42aa4dab10a53566c","637ca5e1af997cace1140107","637caa1371500781fecc0094","310.60000002384186","","","","37","","","","key","16.667311688312086","683","312.5","true","-1","138.8304","7.864319999999999","6","-1","-1","","","","","","","","","","","","",""
"psychophysics","146","428459","0.0-12.0-0.17","60895dd42aa4dab10a53566c","637ca5e1af997cace1140107","637caa1371500781fecc0094","822.3999999761581","","","","39","","","","key","16.665779816513826","683","312.5","true","1","130.96608","7.864319999999999","6","-1","-1","","","","","","","","","","","","",""
"psychophysics","147","430235","0.0-12.0-0.18","60895dd42aa4dab10a53566c","637ca5e1af997cace1140107","637caa1371500781fecc0094","774.5999999046326","","","","37","","","","key","16.66608571428584","683","312.5","true","-1","130.96608","7.864319999999999","6","-1","-1","","","","","","","","","","","","",""
"psychophysics","148","431979","0.0-12.0-0.19","60895dd42aa4dab10a53566c","637ca5e1af997cace1140107","637caa1371500781fecc0094","742.0999999046326","","","","37","","","","key","16.66638461538465","683","312.5","true","1","129","6.291456","7","1","-1","","","","","","","","","","","","",""
"psychophysics","149","433451","0.0-12.0-0.20","60895dd42aa4dab10a53566c","637ca5e1af997cace1140107","637caa1371500781fecc0094","470.6999999284744","","","","39","","","","key","16.664482758620665","683","312.5","true","1","135.291456","6.291456","7","-1","1","","","","","","","","","","","","",""
"psychophysics","150","435099","0.0-12.0-0.21","60895dd42aa4dab10a53566c","637ca5e1af997cace1140107","637caa1371500781fecc0094","646.9000000953674","","","","37","","","","key","16.66526530612241","683","312.5","true","-1","135.291456","5.033164800000001","8","-1","-1","","","","","","","","","","","","",""
"psychophysics","151","437003","0.0-12.0-0.22","60895dd42aa4dab10a53566c","637ca5e1af997cace1140107","637caa1371500781fecc0094","901.8000000715256","","","","39","","","","key","16.665912280701665","683","312.5","true","1","130.2582912","5.033164800000001","8","-1","-1","","","","","","","","","","","","",""
"psychophysics","152","438588","0.0-12.0-0.23","60895dd42aa4dab10a53566c","637ca5e1af997cace1140107","637caa1371500781fecc0094","581.5","","","","37","","","","key","16.66529787234043","683","312.5","true","-1","130.2582912","5.033164800000001","8","-1","-1","","","","","","","","","","","","",""
"psychophysics","153","440171","0.0-12.0-0.24","60895dd42aa4dab10a53566c","637ca5e1af997cace1140107","637caa1371500781fecc0094","580.6000000238419","","","","39","","","","key","16.6652553191494","683","312.5","true","-1","129","4.0265318400000005","9","1","-1","","","","","","","","","","","","",""
"psychophysics","154","441739","0.0-12.0-0.25","60895dd42aa4dab10a53566c","637ca5e1af997cace1140107","637caa1371500781fecc0094","566.2000000476837","","","","37","","","","key","16.66552688172012","683","312.5","true","1","133.02653184","4.0265318400000005","9","1","1","","","","","","","","","","","","",""
"psychophysics","155","443290","0.0-12.0-0.26","60895dd42aa4dab10a53566c","637ca5e1af997cace1140107","637caa1371500781fecc0094","549.3000000715256","","","","39","","","","key","16.665673913043143","683","312.5","true","1","137.05306367999998","4.0265318400000005","9","-1","1","","","","","","","","","","","","",""
"psychophysics","156","444653","0.0-12.0-0.27","60895dd42aa4dab10a53566c","637ca5e1af997cace1140107","637caa1371500781fecc0094","360","","","","37","","","","key","16.665837499999906","683","312.5","true","-1","137.05306367999998","3.2212254720000004","10","-1","-1","","","","","","","","","","","","",""
"psychophysics","157","446283","0.0-12.0-0.28","60895dd42aa4dab10a53566c","637ca5e1af997cace1140107","637caa1371500781fecc0094","629","","","","37","","","","key","16.66527835051493","683","312.5","true","1","133.83183820799997","2.5769803776000004","11","1","-1","","","","","","","","","","","","",""
"psychophysics","158","447755","0.0-12.0-0.29","60895dd42aa4dab10a53566c","637ca5e1af997cace1140107","637caa1371500781fecc0094","469.89999997615814","","","","39","","","","key","16.66546590909076","683","312.5","true","-1","136.40881858559996","2.5769803776000004","11","1","1","","","","","","","","","","","","",""
"psychophysics","159","449323","0.0-12.0-0.30","60895dd42aa4dab10a53566c","637ca5e1af997cace1140107","637caa1371500781fecc0094","566.4000000953674","","","","37","","","","key","16.66539784946281","683","312.5","true","-1","138.98579896319995","2.5769803776000004","11","-1","1","","","","","","","","","","","","",""
"psychophysics","160","450603","0.0-12.0-0.31","60895dd42aa4dab10a53566c","637ca5e1af997cace1140107","637caa1371500781fecc0094","279.60000002384186","","","","39","","","","key","16.665421052632155","683","312.5","true","1","138.98579896319995","2.0615843020800004","12","-1","-1","","","","","","","","","","","","",""
"psychophysics","161","452522","0.0-12.0-0.32","60895dd42aa4dab10a53566c","637ca5e1af997cace1140107","637caa1371500781fecc0094","917.1000000238419","","","","37","","","","key","16.665517543859703","683","312.5","true","-1","136.92421466111995","2.0615843020800004","12","-1","-1","","","","","","","","","","","","",""
"psychophysics","162","453994","0.0-12.0-0.33","60895dd42aa4dab10a53566c","637ca5e1af997cace1140107","637caa1371500781fecc0094","470.5","","","","39","","","","key","16.665022988505957","683","312.5","true","-1","136.92421466111995","1.6492674416640005","13","1","-1","","","","","","","","","","","","",""
"psychophysics","163","455258","0.0-12.0-0.34","60895dd42aa4dab10a53566c","637ca5e1af997cace1140107","637caa1371500781fecc0094","263.10000002384186","","","","39","","","","key","16.66560000000056","683","312.5","true","1","138.57348210278394","1.6492674416640005","13","-1","1","","","","","","","","","","","","",""
"psychophysics","164","456427","0.0-12.0-0.35","60895dd42aa4dab10a53566c","637ca5e1af997cace1140107","637caa1371500781fecc0094","166.90000009536743","","","","37","","","","key","16.664681159420464","683","312.5","true","-1","138.57348210278394","1.3194139533312006","14","-1","-1","","","","","","","","","","","","",""
"psychophysics","165","457594","0.0-12.0-0.36","60895dd42aa4dab10a53566c","637ca5e1af997cace1140107","637caa1371500781fecc0094","166.20000004768372","","","","37","","","","key","16.665101449275255","683","312.5","true","-1","137.25406814945273","1.3194139533312006","14","-1","-1","","","","","","","","","","","","",""
"psychophysics","166","459019","0.0-12.0-0.37","60895dd42aa4dab10a53566c","637ca5e1af997cace1140107","637caa1371500781fecc0094","423.60000002384186","","","","39","","","","key","16.66636470588239","683","312.5","true","1","137.25406814945273","1.3194139533312006","14","-1","-1","","","","","","","","","","","","",""
"psychophysics","167","460490","0.0-12.0-0.38","60895dd42aa4dab10a53566c","637ca5e1af997cace1140107","637caa1371500781fecc0094","469.10000002384186","","","","39","","","","key","16.666298850574638","683","312.5","true","1","135.93465419612153","1.3194139533312006","14","-1","-1","","","","","","","","","","","","",""
"psychophysics","168","461898","0.0-12.0-0.39","60895dd42aa4dab10a53566c","637ca5e1af997cace1140107","637caa1371500781fecc0094","405.7999999523163","","","","37","","","","key","16.66609638554243","683","312.5","true","-1","135.93465419612153","1.3194139533312006","14","-1","-1","","","","","","","","","","","","",""
"html-keyboard-response","169","467995","0.0-13.0","60895dd42aa4dab10a53566c","637ca5e1af997cace1140107","637caa1371500781fecc0094","6094","<p>Well Done !</p><p>Prepare for a new block.</p><p>DON'T EXIT THE FULL SCREEN MODE</p><p>Press the Spacebar to start.</p>","","","32","","","","","","","","","","","","","","","true","136.84785014259708","","","","","","","","","","",""
"html-keyboard-response","170","468098","0.0-14.0","60895dd42aa4dab10a53566c","637ca5e1af997cace1140107","637caa1371500781fecc0094","null","","","","null","","","","","","","","","","","","","","","","","150.58211568251969","true","173.16423136503937","","","","","","","",""
"instructions","171","513411","0.0-15.0","60895dd42aa4dab10a53566c","637ca5e1af997cace1140107","637caa1371500781fecc0094","45311.39999997616","","","","","","","[{""page_index"":0,""viewing_time"":35007.199999928474},{""page_index"":1,""viewing_time"":4424},{""page_index"":2,""viewing_time"":5879.700000047684}]","","","","","","","","","","","","","","","","","","","","","","","",""
"psychophysics","172","516424","0.0-16.0-0.0","60895dd42aa4dab10a53566c","637ca5e1af997cace1140107","637caa1371500781fecc0094","null","","","","null","","","","key","16.667333333332984","683","312.5","","","","","","","","","","","","","","","","","","","",""
"psychophysics","173","516926","0.0-16.0-1.0","60895dd42aa4dab10a53566c","637ca5e1af997cace1140107","637caa1371500781fecc0094","null","","","","null","","","","key","16.66396551724154","683","312.5","","","","","","","","","","","","","173","1","6","false","","","",""
"psychophysics","174","518315","0.0-16.0-2.0","60895dd42aa4dab10a53566c","637ca5e1af997cace1140107","637caa1371500781fecc0094","1388","","","","77","","","","key","16.869426829268356","683","312.5","","","","","","","","","","","","","","","","","","","",""
"psychophysics","175","519328","0.0-16.0-0.1","60895dd42aa4dab10a53566c","637ca5e1af997cace1140107","637caa1371500781fecc0094","null","","","","null","","","","key","16.66557627118595","683","312.5","","","","","","","","","","","","","","","","","","","",""
"psychophysics","176","519845","0.0-16.0-1.1","60895dd42aa4dab10a53566c","637ca5e1af997cace1140107","637caa1371500781fecc0094","null","","","","null","","","","key","16.665333333334033","683","312.5","","","","","","","","","","","","","173","1","3","false","","","",""
"psychophysics","177","520538","0.0-16.0-2.1","60895dd42aa4dab10a53566c","637ca5e1af997cace1140107","637caa1371500781fecc0094","690.1000000238419","","","","90","","","","key","16.666170731707897","683","312.5","","","","","","","","","","","","","","","","","","","",""
"psychophysics","178","521544","0.0-16.0-0.2","60895dd42aa4dab10a53566c","637ca5e1af997cace1140107","637caa1371500781fecc0094","null","","","","null","","","","key","16.666457627119566","683","312.5","","","","","","","","","","","","","","","","","","","",""
"psychophysics","179","522061","0.0-16.0-1.2","60895dd42aa4dab10a53566c","637ca5e1af997cace1140107","637caa1371500781fecc0094","null","","","","null","","","","key","16.66783333333442","683","312.5","","","","","","","","","","","","","173","-1","5","false","","","",""
"psychophysics","180","522315","0.0-16.0-2.2","60895dd42aa4dab10a53566c","637ca5e1af997cace1140107","637caa1371500781fecc0094","249.70000004768372","","","","77","","","","key","16.658933333330786","683","312.5","","","","","","","","","","","","","","","","","","","",""
"psychophysics","181","523321","0.0-16.0-0.3","60895dd42aa4dab10a53566c","637ca5e1af997cace1140107","637caa1371500781fecc0094","null","","","","null","","","","key","16.665745762711534","683","312.5","","","","","","","","","","","","","","","","","","","",""
"psychophysics","182","523828","0.0-16.0-1.3","60895dd42aa4dab10a53566c","637ca5e1af997cace1140107","637caa1371500781fecc0094","null","","","","null","","","","key","16.66548275862066","683","312.5","","","","","","","","","","","","","173","-1","3","false","","","",""
"psychophysics","183","523948","0.0-16.0-2.3","60895dd42aa4dab10a53566c","637ca5e1af997cace1140107","637caa1371500781fecc0094","117.10000002384186","","","","77","","","","key","16.658571428569434","683","312.5","","","","","","","","","","","","","","","","","","","",""
"psychophysics","184","524955","0.0-16.0-0.4","60895dd42aa4dab10a53566c","637ca5e1af997cace1140107","637caa1371500781fecc0094","null","","","","null","","","","key","16.665389830508996","683","312.5","","","","","","","","","","","","","","","","","","","",""
"psychophysics","185","525458","0.0-16.0-1.4","60895dd42aa4dab10a53566c","637ca5e1af997cace1140107","637caa1371500781fecc0094","null","","","","null","","","","key","16.663758620688018","683","312.5","","","","","","","","","","","","","173","1","2","false","","","",""
"psychophysics","186","525658","0.0-16.0-2.4","60895dd42aa4dab10a53566c","637ca5e1af997cace1140107","637caa1371500781fecc0094","199.10000002384186","","","","90","","","","key","16.6582727272762","683","312.5","","","","","","","","","","","","","","","","","","","",""
"psychophysics","187","526661","0.0-16.0-0.5","60895dd42aa4dab10a53566c","637ca5e1af997cace1140107","637caa1371500781fecc0094","null","","","","null","","","","key","16.666745762711674","683","312.5","","","","","","","","","","","","","","","","","","","",""
"psychophysics","188","527178","0.0-16.0-1.5","60895dd42aa4dab10a53566c","637ca5e1af997cace1140107","637caa1371500781fecc0094","null","","","","null","","","","key","16.663733333329827","683","312.5","","","","","","","","","","","","","173","-1","6","false","","","",""
"psychophysics","189","527258","0.0-16.0-2.5","60895dd42aa4dab10a53566c","637ca5e1af997cace1140107","637caa1371500781fecc0094","76.89999997615814","","","","77","","","","key","16.646999999997206","683","312.5","","","","","","","","","","","","","","","","","","","",""
"psychophysics","190","528261","0.0-16.0-0.6","60895dd42aa4dab10a53566c","637ca5e1af997cace1140107","637caa1371500781fecc0094","null","","","","null","","","","key","16.665915254237113","683","312.5","","","","","","","","","","","","","","","","","","","",""
"psychophysics","191","528766","0.0-16.0-1.6","60895dd42aa4dab10a53566c","637ca5e1af997cace1140107","637caa1371500781fecc0094","null","","","","null","","","","key","16.665166666665268","683","312.5","","","","","","","","","","","","","173","-1","2","false","","","",""
"psychophysics","192","528906","0.0-16.0-2.6","60895dd42aa4dab10a53566c","637ca5e1af997cace1140107","637caa1371500781fecc0094","138.79999995231628","","","","90","","","","key","16.6655714285693","683","312.5","","","","","","","","","","","","","","","","","","","",""
"psychophysics","193","529911","0.0-16.0-0.7","60895dd42aa4dab10a53566c","637ca5e1af997cace1140107","637caa1371500781fecc0094","null","","","","null","","","","key","16.66650847457665","683","312.5","","","","","","","","","","","","","","","","","","","",""
"psychophysics","194","530416","0.0-16.0-1.7","60895dd42aa4dab10a53566c","637ca5e1af997cace1140107","637caa1371500781fecc0094","null","","","","null","","","","key","16.666233333332155","683","312.5","","","","","","","","","","","","","173","-1","0","false","","","",""
"psychophysics","195","530842","0.0-16.0-2.7","60895dd42aa4dab10a53566c","637ca5e1af997cace1140107","637caa1371500781fecc0094","425.10000002384186","","","","90","","","","key","16.6635833333324","683","312.5","","","","","","","","","","","","","","","","","","","",""
"psychophysics","196","531844","0.0-16.0-0.8","60895dd42aa4dab10a53566c","637ca5e1af997cace1140107","637caa1371500781fecc0094","null","","","","null","","","","key","16.66615254237214","683","312.5","","","","","","","","","","","","","","","","","","","",""
"psychophysics","197","532348","0.0-16.0-1.8","60895dd42aa4dab10a53566c","637ca5e1af997cace1140107","637caa1371500781fecc0094","null","","","","null","","","","key","16.666599999996834","683","312.5","","","","","","","","","","","","","173","-1","4","false","","","",""
"psychophysics","198","532442","0.0-16.0-2.8","60895dd42aa4dab10a53566c","637ca5e1af997cace1140107","637caa1371500781fecc0094","92.5","","","","77","","","","key","16.668250000016997","683","312.5","","","","","","","","","","","","","","","","","","","",""
"psychophysics","199","533444","0.0-16.0-0.9","60895dd42aa4dab10a53566c","637ca5e1af997cace1140107","637caa1371500781fecc0094","null","","","","null","","","","key","16.665728813560158","683","312.5","","","","","","","","","","","","","","","","","","","",""
"psychophysics","200","533955","0.0-16.0-1.9","60895dd42aa4dab10a53566c","637ca5e1af997cace1140107","637caa1371500781fecc0094","null","","","","null","","","","key","16.665266666670018","683","312.5","","","","","","","","","","","","","173","1","0","false","","","",""
"psychophysics","201","534154","0.0-16.0-2.9","60895dd42aa4dab10a53566c","637ca5e1af997cace1140107","637caa1371500781fecc0094","196.60000002384186","","","","90","","","","key","16.67118181818461","683","312.5","","","","","","","","","","","","","","","","","","","",""
"psychophysics","202","535160","0.0-16.0-0.10","60895dd42aa4dab10a53566c","637ca5e1af997cace1140107","637caa1371500781fecc0094","null","","","","null","","","","key","16.66513559321865","683","312.5","","","","","","","","","","","","","","","","","","","",""
"psychophysics","203","535670","0.0-16.0-1.10","60895dd42aa4dab10a53566c","637ca5e1af997cace1140107","637caa1371500781fecc0094","null","","","","null","","","","key","16.66543333333296","683","312.5","","","","","","","","","","","","","173","1","5","false","","","",""
"psychophysics","204","535834","0.0-16.0-2.10","60895dd42aa4dab10a53566c","637ca5e1af997cace1140107","637caa1371500781fecc0094","162.5","","","","77","","","","key","16.674111111115458","683","312.5","","","","","","","","","","","","","","","","","","","",""
"psychophysics","205","536840","0.0-16.0-0.11","60895dd42aa4dab10a53566c","637ca5e1af997cace1140107","637caa1371500781fecc0094","null","","","","null","","","","key","16.66620338983021","683","312.5","","","","","","","","","","","","","","","","","","","",""
"psychophysics","206","537344","0.0-16.0-1.11","60895dd42aa4dab10a53566c","637ca5e1af997cace1140107","637caa1371500781fecc0094","null","","","","null","","","","key","16.663379310345245","683","312.5","","","","","","","","","","","","","173","1","4","false","","","",""
"psychophysics","207","540714","0.0-16.0-2.11","60895dd42aa4dab10a53566c","637ca5e1af997cace1140107","637caa1371500781fecc0094","3367.3000000715256","","","","90","","","","key","16.665257425742492","683","312.5","","","","","","","","","","","","","","","","","","","",""
"psychophysics","208","541718","0.0-16.0-0.12","60895dd42aa4dab10a53566c","637ca5e1af997cace1140107","637caa1371500781fecc0094","null","","","","null","","","","key","16.66593220339046","683","312.5","","","","","","","","","","","","","","","","","","","",""
"psychophysics","209","542227","0.0-16.0-1.12","60895dd42aa4dab10a53566c","637ca5e1af997cace1140107","637caa1371500781fecc0094","null","","","","null","","","","key","16.664482758621332","683","312.5","","","","","","","","","","","","","173","1","6","false","","","",""
"psychophysics","210","542458","0.0-16.0-2.12","60895dd42aa4dab10a53566c","637ca5e1af997cace1140107","637caa1371500781fecc0094","226.10000002384186","","","","77","","","","key","16.664923076920857","683","312.5","","","","","","","","","","","","","","","","","","","",""
"psychophysics","211","543460","0.0-16.0-0.13","60895dd42aa4dab10a53566c","637ca5e1af997cace1140107","637caa1371500781fecc0094","null","","","","null","","","","key","16.667559322032886","683","312.5","","","","","","","","","","","","","","","","","","","",""
"psychophysics","212","543976","0.0-16.0-1.13","60895dd42aa4dab10a53566c","637ca5e1af997cace1140107","637caa1371500781fecc0094","null","","","","null","","","","key","16.66066666666884","683","312.5","","","","","","","","","","","","","173","1","3","false","","","",""
"psychophysics","213","544202","0.0-16.0-2.13","60895dd42aa4dab10a53566c","637ca5e1af997cace1140107","637caa1371500781fecc0094","221.69999992847443","","","","77","","","","key","16.667615384615672","683","312.5","","","","","","","","","","","","","","","","","","","",""
"psychophysics","214","545209","0.0-16.0-0.14","60895dd42aa4dab10a53566c","637ca5e1af997cace1140107","637caa1371500781fecc0094","null","","","","null","","","","key","16.664949152543667","683","312.5","","","","","","","","","","","","","","","","","","","",""
"psychophysics","215","545726","0.0-16.0-1.14","60895dd42aa4dab10a53566c","637ca5e1af997cace1140107","637caa1371500781fecc0094","null","","","","null","","","","key","16.665133333334232","683","312.5","","","","","","","","","","","","","173","-1","2","false","","","",""
"psychophysics","216","545980","0.0-16.0-2.14","60895dd42aa4dab10a53566c","637ca5e1af997cace1140107","637caa1371500781fecc0094","249.70000004768372","","","","90","","","","key","16.664000000005277","683","312.5","","","","","","","","","","","","","","","","","","","",""
"psychophysics","217","546984","0.0-16.0-0.15","60895dd42aa4dab10a53566c","637ca5e1af997cace1140107","637caa1371500781fecc0094","null","","","","null","","","","key","16.666135593220766","683","312.5","","","","","","","","","","","","","","","","","","","",""
"psychophysics","218","547488","0.0-16.0-1.15","60895dd42aa4dab10a53566c","637ca5e1af997cace1140107","637caa1371500781fecc0094","null","","","","null","","","","key","16.6640689655183","683","312.5","","","","","","","","","","","","","173","-1","5","false","","","",""
"psychophysics","219","547642","0.0-16.0-2.15","60895dd42aa4dab10a53566c","637ca5e1af997cace1140107","637caa1371500781fecc0094","151.10000002384186","","","","77","","","","key","16.68475000000035","683","312.5","","","","","","","","","","","","","","","","","","","",""
"psychophysics","220","548655","0.0-16.0-0.16","60895dd42aa4dab10a53566c","637ca5e1af997cace1140107","637caa1371500781fecc0094","null","","","","null","","","","key","16.666416666666432","683","312.5","","","","","","","","","","","","","","","","","","","",""
"psychophysics","221","549159","0.0-16.0-1.16","60895dd42aa4dab10a53566c","637ca5e1af997cace1140107","637caa1371500781fecc0094","null","","","","null","","","","key","16.665310344827393","683","312.5","","","","","","","","","","","","","173","1","0","false","","","",""
"psychophysics","222","549386","0.0-16.0-2.16","60895dd42aa4dab10a53566c","637ca5e1af997cace1140107","637caa1371500781fecc0094","223.5","","","","90","","","","key","16.664076923079286","683","312.5","","","","","","","","","","","","","","","","","","","",""
"psychophysics","223","550392","0.0-16.0-0.17","60895dd42aa4dab10a53566c","637ca5e1af997cace1140107","637caa1371500781fecc0094","null","","","","null","","","","key","16.666762711865022","683","312.5","","","","","","","","","","","","","","","","","","","",""
"psychophysics","224","550899","0.0-16.0-1.17","60895dd42aa4dab10a53566c","637ca5e1af997cace1140107","637caa1371500781fecc0094","null","","","","null","","","","key","16.665300000001057","683","312.5","","","","","","","","","","","","","173","-1","0","false","","","",""
"psychophysics","225","551179","0.0-16.0-2.17","60895dd42aa4dab10a53566c","637ca5e1af997cace1140107","637caa1371500781fecc0094","278.6999999284744","","","","90","","","","key","16.66662499999802","683","312.5","","","","","","","","","","","","","","","","","","","",""
"psychophysics","226","552182","0.0-16.0-0.18","60895dd42aa4dab10a53566c","637ca5e1af997cace1140107","637caa1371500781fecc0094","null","","","","null","","","","key","16.665610169490673","683","312.5","","","","","","","","","","","","","","","","","","","",""
"psychophysics","227","552692","0.0-16.0-1.18","60895dd42aa4dab10a53566c","637ca5e1af997cace1140107","637caa1371500781fecc0094","null","","","","null","","","","key","16.661965517238876","683","312.5","","","","","","","","","","","","","173","1","2","false","","","",""
"psychophysics","228","552828","0.0-16.0-2.18","60895dd42aa4dab10a53566c","637ca5e1af997cace1140107","637caa1371500781fecc0094","129.29999995231628","","","","77","","","","key","16.651500000007218","683","312.5","","","","","","","","","","","","","","","","","","","",""
"psychophysics","229","553835","0.0-16.0-0.19","60895dd42aa4dab10a53566c","637ca5e1af997cace1140107","637caa1371500781fecc0094","null","","","","null","","","","key","16.664932203390318","683","312.5","","","","","","","","","","","","","","","","","","","",""
"psychophysics","230","554342","0.0-16.0-1.19","60895dd42aa4dab10a53566c","637ca5e1af997cace1140107","637caa1371500781fecc0094","null","","","","null","","","","key","16.667482758623322","683","312.5","","","","","","","","","","","","","173","-1","3","false","","","",""
"psychophysics","231","554571","0.0-16.0-2.19","60895dd42aa4dab10a53566c","637ca5e1af997cace1140107","637caa1371500781fecc0094","224.60000002384186","","","","77","","","","key","16.666923076926302","683","312.5","","","","","","","","","","","","","","","","","","","",""
"psychophysics","232","555575","0.0-16.0-0.20","60895dd42aa4dab10a53566c","637ca5e1af997cace1140107","637caa1371500781fecc0094","null","","","","null","","","","key","16.664254237287995","683","312.5","","","","","","","","","","","","","","","","","","","",""
"psychophysics","233","556091","0.0-16.0-1.20","60895dd42aa4dab10a53566c","637ca5e1af997cace1140107","637caa1371500781fecc0094","null","","","","null","","","","key","16.66559999999978","683","312.5","","","","","","","","","","","","","173","1","5","false","","","",""
"psychophysics","234","556218","0.0-16.0-2.20","60895dd42aa4dab10a53566c","637ca5e1af997cace1140107","637caa1371500781fecc0094","126.10000002384186","","","","90","","","","key","16.672428571419523","683","312.5","","","","","","","","","","","","","","","","","","","",""
"psychophysics","235","557225","0.0-16.0-0.21","60895dd42aa4dab10a53566c","637ca5e1af997cace1140107","637caa1371500781fecc0094","null","","","","null","","","","key","16.665288135592856","683","312.5","","","","","","","","","","","","","","","","","","","",""
"psychophysics","236","557731","0.0-16.0-1.21","60895dd42aa4dab10a53566c","637ca5e1af997cace1140107","637caa1371500781fecc0094","null","","","","null","","","","key","16.667199999998168","683","312.5","","","","","","","","","","","","","173","-1","4","false","","","",""
"psychophysics","237","558043","0.0-16.0-2.21","60895dd42aa4dab10a53566c","637ca5e1af997cace1140107","637caa1371500781fecc0094","310.89999997615814","","","","77","","","","key","16.661444444448634","683","312.5","","","","","","","","","","","","","","","","","","","",""
"psychophysics","238","559049","0.0-16.0-0.22","60895dd42aa4dab10a53566c","637ca5e1af997cace1140107","637caa1371500781fecc0094","null","","","","null","","","","key","16.66567796610209","683","312.5","","","","","","","","","","","","","","","","","","","",""
"psychophysics","239","559557","0.0-16.0-1.22","60895dd42aa4dab10a53566c","637ca5e1af997cace1140107","637caa1371500781fecc0094","null","","","","null","","","","key","16.66482758620786","683","312.5","","","","","","","","","","","","","173","1","4","false","","","",""
"psychophysics","240","559834","0.0-16.0-2.22","60895dd42aa4dab10a53566c","637ca5e1af997cace1140107","637caa1371500781fecc0094","276.10000002384186","","","","77","","","","key","16.667750000000524","683","312.5","","","","","","","","","","","","","","","","","","","",""
"psychophysics","241","560835","0.0-16.0-0.23","60895dd42aa4dab10a53566c","637ca5e1af997cace1140107","637caa1371500781fecc0094","null","","","","null","","","","key","16.665271186441483","683","312.5","","","","","","","","","","","","","","","","","","","",""
"psychophysics","242","561342","0.0-16.0-1.23","60895dd42aa4dab10a53566c","637ca5e1af997cace1140107","637caa1371500781fecc0094","null","","","","null","","","","key","16.667206896549285","683","312.5","","","","","","","","","","","","","173","-1","6","false","","","",""
"psychophysics","243","561514","0.0-16.0-2.23","60895dd42aa4dab10a53566c","637ca5e1af997cace1140107","637caa1371500781fecc0094","169.20000004768372","","","","77","","","","key","16.661699999996927","683","312.5","","","","","","","","","","","","","","","","","","","",""
"html-keyboard-response","244","564106","0.0-17.0","60895dd42aa4dab10a53566c","637ca5e1af997cace1140107","637caa1371500781fecc0094","2591.2999999523163","<p>Well Done !</p><p>Training Complete. Press the spacebar to start.</p><p>DON'T EXIT THE FULL SCREEN MODE</p>","","","32","","","","","","","","","","","","","","","","","","","","","","","","","","",""
"psychophysics","245","567121","0.0-18.0-0.0","60895dd42aa4dab10a53566c","637ca5e1af997cace1140107","637caa1371500781fecc0094","null","","","","null","","","","key","16.66739999999991","683","312.5","","","","","","","","","","","","","","","","","","","",""
"psychophysics","246","567625","0.0-18.0-1.0","60895dd42aa4dab10a53566c","637ca5e1af997cace1140107","637caa1371500781fecc0094","null","","","","null","","","","key","16.668275862065112","683","312.5","","","","","","","","","","","","","173","1","2","true","","","",""
"psychophysics","247","567722","0.0-18.0-2.0","60895dd42aa4dab10a53566c","637ca5e1af997cace1140107","637caa1371500781fecc0094","94.89999997615814","","","","90","","","","key","16.680400000000372","683","312.5","","","","","","","","","","","","","","","","","","","",""
"psychophysics","248","568725","0.0-18.0-0.1","60895dd42aa4dab10a53566c","637ca5e1af997cace1140107","637caa1371500781fecc0094","null","","","","null","","","","key","16.666864406779187","683","312.5","","","","","","","","","","","","","","","","","","","",""
"psychophysics","249","569226","0.0-18.0-1.1","60895dd42aa4dab10a53566c","637ca5e1af997cace1140107","637caa1371500781fecc0094","null","","","","null","","","","key","16.66406666666347","683","312.5","","","","","","","","","","","","","173","-1","2","true","","","",""
"psychophysics","250","569275","0.0-18.0-2.1","60895dd42aa4dab10a53566c","637ca5e1af997cace1140107","637caa1371500781fecc0094","45.799999952316284","","","","90","","","","key","16.654999999911524","683","312.5","","","","","","","","","","","","","","","","","","","",""
"psychophysics","251","570276","0.0-18.0-0.2","60895dd42aa4dab10a53566c","637ca5e1af997cace1140107","637caa1371500781fecc0094","null","","","","null","","","","key","16.66626666666513","683","312.5","","","","","","","","","","","","","","","","","","","",""
"psychophysics","252","570779","0.0-18.0-1.2","60895dd42aa4dab10a53566c","637ca5e1af997cace1140107","637caa1371500781fecc0094","null","","","","null","","","","key","16.664413793104828","683","312.5","","","","","","","","","","","","","173","1","5","true","","","",""
"psychophysics","253","571259","0.0-18.0-2.2","60895dd42aa4dab10a53566c","637ca5e1af997cace1140107","637caa1371500781fecc0094","478.2999999523163","","","","77","","","","key","16.66307142857113","683","312.5","","","","","","","","","","","","","","","","","","","",""
"psychophysics","254","572262","0.0-18.0-0.3","60895dd42aa4dab10a53566c","637ca5e1af997cace1140107","637caa1371500781fecc0094","null","","","","null","","","","key","16.66588135593239","683","312.5","","","","","","","","","","","","","","","","","","","",""
"psychophysics","255","572764","0.0-18.0-1.3","60895dd42aa4dab10a53566c","637ca5e1af997cace1140107","637caa1371500781fecc0094","null","","","","null","","","","key","16.66337931034123","683","312.5","","","","","","","","","","","","","173","1","3","true","","","",""
"psychophysics","256","573338","0.0-18.0-2.3","60895dd42aa4dab10a53566c","637ca5e1af997cace1140107","637caa1371500781fecc0094","572.7999999523163","","","","90","","","","key","16.664878787878536","683","312.5","","","","","","","","","","","","","","","","","","","",""
"psychophysics","257","574339","0.0-18.0-0.4","60895dd42aa4dab10a53566c","637ca5e1af997cace1140107","637caa1371500781fecc0094","null","","","","null","","","","key","16.667305084746488","683","312.5","","","","","","","","","","","","","","","","","","","",""
"psychophysics","258","574839","0.0-18.0-1.4","60895dd42aa4dab10a53566c","637ca5e1af997cace1140107","637caa1371500781fecc0094","null","","","","null","","","","key","16.669103448275187","683","312.5","","","","","","","","","","","","","173","1","6","true","","","",""
"psychophysics","259","575061","0.0-18.0-2.4","60895dd42aa4dab10a53566c","637ca5e1af997cace1140107","637caa1371500781fecc0094","208.5","","","","77","","","","key","16.676083333334343","683","312.5","","","","","","","","","","","","","","","","","","","",""
"psychophysics","260","576063","0.0-18.0-0.5","60895dd42aa4dab10a53566c","637ca5e1af997cace1140107","637caa1371500781fecc0094","null","","","","null","","","","key","16.666650000001148","683","312.5","","","","","","","","","","","","","","","","","","","",""
"psychophysics","261","576565","0.0-18.0-1.5","60895dd42aa4dab10a53566c","637ca5e1af997cace1140107","637caa1371500781fecc0094","null","","","","null","","","","key","16.666275862070474","683","312.5","","","","","","","","","","","","","173","1","4","true","","","",""
"psychophysics","262","576860","0.0-18.0-2.5","60895dd42aa4dab10a53566c","637ca5e1af997cace1140107","637caa1371500781fecc0094","291.60000002384186","","","","77","","","","key","16.66882352941149","683","312.5","","","","","","","","","","","","","","","","","","","",""
"psychophysics","263","577862","0.0-18.0-0.6","60895dd42aa4dab10a53566c","637ca5e1af997cace1140107","637caa1371500781fecc0094","null","","","","null","","","","key","16.665694915253464","683","312.5","","","","","","","","","","","","","","","","","","","",""
"psychophysics","264","578363","0.0-18.0-1.6","60895dd42aa4dab10a53566c","637ca5e1af997cace1140107","637caa1371500781fecc0094","null","","","","null","","","","key","16.66686206896677","683","312.5","","","","","","","","","","","","","173","-1","0","true","","","",""
"psychophysics","265","578986","0.0-18.0-2.6","60895dd42aa4dab10a53566c","637ca5e1af997cace1140107","637caa1371500781fecc0094","621.6000000238419","","","","90","","","","key","16.665222222221523","683","312.5","","","","","","","","","","","","","","","","","","","",""
"psychophysics","266","579987","0.0-18.0-0.7","60895dd42aa4dab10a53566c","637ca5e1af997cace1140107","637caa1371500781fecc0094","null","","","","null","","","","key","16.665067796609208","683","312.5","","","","","","","","","","","","","","","","","","","",""
"psychophysics","267","580488","0.0-18.0-1.7","60895dd42aa4dab10a53566c","637ca5e1af997cace1140107","637caa1371500781fecc0094","null","","","","null","","","","key","16.665241379310892","683","312.5","","","","","","","","","","","","","173","1","0","true","","","",""
"psychophysics","268","580602","0.0-18.0-2.7","60895dd42aa4dab10a53566c","637ca5e1af997cace1140107","637caa1371500781fecc0094","109.90000009536743","","","","90","","","","key","16.67233333333085","683","312.5","","","","","","","","","","","","","","","","","","","",""
"psychophysics","269","581603","0.0-18.0-0.8","60895dd42aa4dab10a53566c","637ca5e1af997cace1140107","637caa1371500781fecc0094","null","","","","null","","","","key","16.665084745762552","683","312.5","","","","","","","","","","","","","","","","","","","",""
"psychophysics","270","582104","0.0-18.0-1.8","60895dd42aa4dab10a53566c","637ca5e1af997cace1140107","637caa1371500781fecc0094","null","","","","null","","","","key","16.66968965517148","683","312.5","","","","","","","","","","","","","173","-1","5","true","","","",""
"psychophysics","271","582266","0.0-18.0-2.8","60895dd42aa4dab10a53566c","637ca5e1af997cace1140107","637caa1371500781fecc0094","160.10000002384186","","","","77","","","","key","16.67066666666263","683","312.5","","","","","","","","","","","","","","","","","","","",""
"psychophysics","272","583267","0.0-18.0-0.9","60895dd42aa4dab10a53566c","637ca5e1af997cace1140107","637caa1371500781fecc0094","null","","","","null","","","","key","16.66664406779751","683","312.5","","","","","","","","","","","","","","","","","","","",""
"psychophysics","273","583768","0.0-18.0-1.9","60895dd42aa4dab10a53566c","637ca5e1af997cace1140107","637caa1371500781fecc0094","null","","","","null","","","","key","16.66665517241726","683","312.5","","","","","","","","","","","","","173","-1","3","true","","","",""
"psychophysics","274","584298","0.0-18.0-2.9","60895dd42aa4dab10a53566c","637ca5e1af997cace1140107","637caa1371500781fecc0094","526.9000000953674","","","","90","","","","key","16.66964516128909","683","312.5","","","","","","","","","","","","","","","","","","","",""
"psychophysics","275","585299","0.0-18.0-0.10","60895dd42aa4dab10a53566c","637ca5e1af997cace1140107","637caa1371500781fecc0094","null","","","","null","","","","key","16.665864406779047","683","312.5","","","","","","","","","","","","","","","","","","","",""
"psychophysics","276","585802","0.0-18.0-1.10","60895dd42aa4dab10a53566c","637ca5e1af997cace1140107","637caa1371500781fecc0094","null","","","","null","","","","key","16.67037931034454","683","312.5","","","","","","","","","","","","","173","-1","4","true","","","",""
"psychophysics","277","586218","0.0-18.0-2.10","60895dd42aa4dab10a53566c","637ca5e1af997cace1140107","637caa1371500781fecc0094","414.89999997615814","","","","77","","","","key","16.663250000002638","683","312.5","","","","","","","","","","","","","","","","","","","",""
"psychophysics","278","587218","0.0-18.0-0.11","60895dd42aa4dab10a53566c","637ca5e1af997cace1140107","637caa1371500781fecc0094","null","","","","null","","","","key","16.666067796609347","683","312.5","","","","","","","","","","","","","","","","","","","",""
"psychophysics","279","587720","0.0-18.0-1.11","60895dd42aa4dab10a53566c","637ca5e1af997cace1140107","637caa1371500781fecc0094","null","","","","null","","","","key","16.668206896548607","683","312.5","","","","","","","","","","","","","173","-1","6","true","","","",""
"psychophysics","280","587898","0.0-18.0-2.11","60895dd42aa4dab10a53566c","637ca5e1af997cace1140107","637caa1371500781fecc0094","176.39999997615814","","","","77","","","","key","16.66510000000708","683","312.5","","","","","","","","","","","","","","","","","","","",""
"psychophysics","281","588899","0.0-18.0-0.12","60895dd42aa4dab10a53566c","637ca5e1af997cace1140107","637caa1371500781fecc0094","null","","","","null","","","","key","16.66584745762767","683","312.5","","","","","","","","","","","","","","","","","","","",""
"psychophysics","282","589401","0.0-18.0-1.12","60895dd42aa4dab10a53566c","637ca5e1af997cace1140107","637caa1371500781fecc0094","null","","","","null","","","","key","16.665448275864414","683","312.5","","","","","","","","","","","","","173","-1","0","true","","","",""
"psychophysics","283","589594","0.0-18.0-2.12","60895dd42aa4dab10a53566c","637ca5e1af997cace1140107","637caa1371500781fecc0094","191.5","","","","90","","","","key","16.664727272730406","683","312.5","","","","","","","","","","","","","","","","","","","",""
"psychophysics","284","590596","0.0-18.0-0.13","60895dd42aa4dab10a53566c","637ca5e1af997cace1140107","637caa1371500781fecc0094","null","","","","null","","","","key","16.665610169490673","683","312.5","","","","","","","","","","","","","","","","","","","",""
"psychophysics","285","591097","0.0-18.0-1.13","60895dd42aa4dab10a53566c","637ca5e1af997cace1140107","637caa1371500781fecc0094","null","","","","null","","","","key","16.665172413794387","683","312.5","","","","","","","","","","","","","173","-1","6","true","","","",""
"psychophysics","286","591291","0.0-18.0-2.13","60895dd42aa4dab10a53566c","637ca5e1af997cace1140107","637caa1371500781fecc0094","191.29999995231628","","","","77","","","","key","16.67018181819003","683","312.5","","","","","","","","","","","","","","","","","","","",""
"psychophysics","287","592294","0.0-18.0-0.14","60895dd42aa4dab10a53566c","637ca5e1af997cace1140107","637caa1371500781fecc0094","null","","","","null","","","","key","16.664949152543667","683","312.5","","","","","","","","","","","","","","","","","","","",""
"psychophysics","288","592796","0.0-18.0-1.14","60895dd42aa4dab10a53566c","637ca5e1af997cace1140107","637caa1371500781fecc0094","null","","","","null","","","","key","16.66713793103278","683","312.5","","","","","","","","","","","","","173","1","5","true","","","",""
"psychophysics","289","593130","0.0-18.0-2.14","60895dd42aa4dab10a53566c","637ca5e1af997cace1140107","637caa1371500781fecc0094","332.39999997615814","","","","77","","","","key","16.669157894738753","683","312.5","","","","","","","","","","","","","","","","","","","",""
"psychophysics","290","594131","0.0-18.0-0.15","60895dd42aa4dab10a53566c","637ca5e1af997cace1140107","637caa1371500781fecc0094","null","","","","null","","","","key","16.6653559322023","683","312.5","","","","","","","","","","","","","","","","","","","",""
"psychophysics","291","594632","0.0-18.0-1.15","60895dd42aa4dab10a53566c","637ca5e1af997cace1140107","637caa1371500781fecc0094","null","","","","null","","","","key","16.665241379310892","683","312.5","","","","","","","","","","","","","173","-1","3","true","","","",""
"psychophysics","292","595322","0.0-18.0-2.15","60895dd42aa4dab10a53566c","637ca5e1af997cace1140107","637caa1371500781fecc0094","686.2000000476837","","","","77","","","","key","16.66739999999991","683","312.5","","","","","","","","","","","","","","","","","","","",""
"psychophysics","293","596324","0.0-18.0-0.16","60895dd42aa4dab10a53566c","637ca5e1af997cace1140107","637caa1371500781fecc0094","null","","","","null","","","","key","16.665850000000017","683","312.5","","","","","","","","","","","","","","","","","","","",""
"psychophysics","294","596826","0.0-18.0-1.16","60895dd42aa4dab10a53566c","637ca5e1af997cace1140107","637caa1371500781fecc0094","null","","","","null","","","","key","16.66468965517084","683","312.5","","","","","","","","","","","","","173","-1","4","true","","","",""
"psychophysics","295","596970","0.0-18.0-2.16","60895dd42aa4dab10a53566c","637ca5e1af997cace1140107","637caa1371500781fecc0094","142.89999997615814","","","","77","","","","key","16.671142857139266","683","312.5","","","","","","","","","","","","","","","","","","","",""
"psychophysics","296","597973","0.0-18.0-0.17","60895dd42aa4dab10a53566c","637ca5e1af997cace1140107","637caa1371500781fecc0094","null","","","","null","","","","key","16.66645000000135","683","312.5","","","","","","","","","","","","","","","","","","","",""
"psychophysics","297","598476","0.0-18.0-1.17","60895dd42aa4dab10a53566c","637ca5e1af997cace1140107","637caa1371500781fecc0094","null","","","","null","","","","key","16.666000000000448","683","312.5","","","","","","","","","","","","","173","1","6","true","","","",""
"psychophysics","298","598635","0.0-18.0-2.17","60895dd42aa4dab10a53566c","637ca5e1af997cace1140107","637caa1371500781fecc0094","157.89999997615814","","","","77","","","","key","16.662624999997206","683","312.5","","","","","","","","","","","","","","","","","","","",""
"psychophysics","299","599637","0.0-18.0-0.18","60895dd42aa4dab10a53566c","637ca5e1af997cace1140107","637caa1371500781fecc0094","null","","","","null","","","","key","16.666949152541978","683","312.5","","","","","","","","","","","","","","","","","","","",""
"psychophysics","300","600139","0.0-18.0-1.18","60895dd42aa4dab10a53566c","637ca5e1af997cace1140107","637caa1371500781fecc0094","null","","","","null","","","","key","16.669793103448242","683","312.5","","","","","","","","","","","","","173","1","2","true","","","",""
"psychophysics","301","600314","0.0-18.0-2.18","60895dd42aa4dab10a53566c","637ca5e1af997cace1140107","637caa1371500781fecc0094","172.60000002384186","","","","90","","","","key","16.66599999999162","683","312.5","","","","","","","","","","","","","","","","","","","",""
"psychophysics","302","601315","0.0-18.0-0.19","60895dd42aa4dab10a53566c","637ca5e1af997cace1140107","637caa1371500781fecc0094","null","","","","null","","","","key","16.6653559322023","683","312.5","","","","","","","","","","","","","","","","","","","",""
"psychophysics","303","601817","0.0-18.0-1.19","60895dd42aa4dab10a53566c","637ca5e1af997cace1140107","637caa1371500781fecc0094","null","","","","null","","","","key","16.66941379310146","683","312.5","","","","","","","","","","","","","173","1","3","true","","","",""
"psychophysics","304","602234","0.0-18.0-2.19","60895dd42aa4dab10a53566c","637ca5e1af997cace1140107","637caa1371500781fecc0094","415.60000002384186","","","","77","","","","key","16.667666666665657","683","312.5","","","","","","","","","","","","","","","","","","","",""
"psychophysics","305","603235","0.0-18.0-0.20","60895dd42aa4dab10a53566c","637ca5e1af997cace1140107","637caa1371500781fecc0094","null","","","","null","","","","key","16.667508474576792","683","312.5","","","","","","","","","","","","","","","","","","","",""
"psychophysics","306","603736","0.0-18.0-1.20","60895dd42aa4dab10a53566c","637ca5e1af997cace1140107","637caa1371500781fecc0094","null","","","","null","","","","key","16.6673448275863","683","312.5","","","","","","","","","","","","","173","-1","5","true","","","",""
"psychophysics","307","603914","0.0-18.0-2.20","60895dd42aa4dab10a53566c","637ca5e1af997cace1140107","637caa1371500781fecc0094","173.10000002384186","","","","77","","","","key","16.672199999995065","683","312.5","","","","","","","","","","","","","","","","","","","",""
"psychophysics","308","604915","0.0-18.0-0.21","60895dd42aa4dab10a53566c","637ca5e1af997cace1140107","637caa1371500781fecc0094","null","","","","null","","","","key","16.665288135592856","683","312.5","","","","","","","","","","","","","","","","","","","",""
"psychophysics","309","605416","0.0-18.0-1.21","60895dd42aa4dab10a53566c","637ca5e1af997cace1140107","637caa1371500781fecc0094","null","","","","null","","","","key","16.665965517240192","683","312.5","","","","","","","","","","","","","173","1","0","true","","","",""
"psychophysics","310","605609","0.0-18.0-2.21","60895dd42aa4dab10a53566c","637ca5e1af997cace1140107","637caa1371500781fecc0094","191","","","","90","","","","key","16.674454545454036","683","312.5","","","","","","","","","","","","","","","","","","","",""
"psychophysics","311","606610","0.0-18.0-0.22","60895dd42aa4dab10a53566c","637ca5e1af997cace1140107","637caa1371500781fecc0094","null","","","","null","","","","key","16.665966101695183","683","312.5","","","","","","","","","","","","","","","","","","","",""
"psychophysics","312","607112","0.0-18.0-1.22","60895dd42aa4dab10a53566c","637ca5e1af997cace1140107","637caa1371500781fecc0094","null","","","","null","","","","key","16.66703448275602","683","312.5","","","","","","","","","","","","","173","1","4","true","","","",""
"psychophysics","313","607274","0.0-18.0-2.22","60895dd42aa4dab10a53566c","637ca5e1af997cace1140107","637caa1371500781fecc0094","160.10000002384186","","","","90","","","","key","16.665777777774363","683","312.5","","","","","","","","","","","","","","","","","","","",""
"psychophysics","314","608275","0.0-18.0-0.23","60895dd42aa4dab10a53566c","637ca5e1af997cace1140107","637caa1371500781fecc0094","null","","","","null","","","","key","16.6651016949159","683","312.5","","","","","","","","","","","","","","","","","","","",""
"psychophysics","315","608776","0.0-18.0-1.23","60895dd42aa4dab10a53566c","637ca5e1af997cace1140107","637caa1371500781fecc0094","null","","","","null","","","","key","16.665827586207186","683","312.5","","","","","","","","","","","","","173","-1","2","true","","","",""
"psychophysics","316","608890","0.0-18.0-2.23","60895dd42aa4dab10a53566c","637ca5e1af997cace1140107","637caa1371500781fecc0094","112.89999997615814","","","","90","","","","key","16.67483333333318","683","312.5","","","","","","","","","","","","","","","","","","","",""
"psychophysics","317","609893","0.0-18.0-0.24","60895dd42aa4dab10a53566c","637ca5e1af997cace1140107","637caa1371500781fecc0094","null","","","","null","","","","key","16.66667796610223","683","312.5","","","","","","","","","","","","","","","","","","","",""
"psychophysics","318","610394","0.0-18.0-1.24","60895dd42aa4dab10a53566c","637ca5e1af997cace1140107","637caa1371500781fecc0094","null","","","","null","","","","key","16.6672068965533","683","312.5","","","","","","","","","","","","","173","1","4","true","","","",""
"psychophysics","319","610507","0.0-18.0-2.24","60895dd42aa4dab10a53566c","637ca5e1af997cace1140107","637caa1371500781fecc0094","111.90000009536743","","","","90","","","","key","16.65983333333861","683","312.5","","","","","","","","","","","","","","","","","","","",""
"psychophysics","320","611509","0.0-18.0-0.25","60895dd42aa4dab10a53566c","637ca5e1af997cace1140107","637caa1371500781fecc0094","null","","","","null","","","","key","16.666118644067417","683","312.5","","","","","","","","","","","","","","","","","","","",""
"psychophysics","321","612010","0.0-18.0-1.25","60895dd42aa4dab10a53566c","637ca5e1af997cace1140107","637caa1371500781fecc0094","null","","","","null","","","","key","16.665344827583638","683","312.5","","","","","","","","","","","","","173","-1","4","true","","","",""
"psychophysics","322","612201","0.0-18.0-2.25","60895dd42aa4dab10a53566c","637ca5e1af997cace1140107","637caa1371500781fecc0094","190.79999995231628","","","","77","","","","key","16.663799999991898","683","312.5","","","","","","","","","","","","","","","","","","","",""
"psychophysics","323","613203","0.0-18.0-0.26","60895dd42aa4dab10a53566c","637ca5e1af997cace1140107","637caa1371500781fecc0094","null","","","","null","","","","key","16.666423728811885","683","312.5","","","","","","","","","","","","","","","","","","","",""
"psychophysics","324","613706","0.0-18.0-1.26","60895dd42aa4dab10a53566c","637ca5e1af997cace1140107","637caa1371500781fecc0094","null","","","","null","","","","key","16.66763333333268","683","312.5","","","","","","","","","","","","","173","-1","5","true","","","",""
"psychophysics","325","613755","0.0-18.0-2.26","60895dd42aa4dab10a53566c","637ca5e1af997cace1140107","637caa1371500781fecc0094","45.699999928474426","","","","77","","","","key","16.639999999897555","683","312.5","","","","","","","","","","","","","","","","","","","",""
"psychophysics","326","614756","0.0-18.0-0.27","60895dd42aa4dab10a53566c","637ca5e1af997cace1140107","637caa1371500781fecc0094","null","","","","null","","","","key","16.666866666666465","683","312.5","","","","","","","","","","","","","","","","","","","",""
"psychophysics","327","615258","0.0-18.0-1.27","60895dd42aa4dab10a53566c","637ca5e1af997cace1140107","637caa1371500781fecc0094","null","","","","null","","","","key","16.669034482758686","683","312.5","","","","","","","","","","","","","173","1","0","true","","","",""
"psychophysics","328","615513","0.0-18.0-2.27","60895dd42aa4dab10a53566c","637ca5e1af997cace1140107","637caa1371500781fecc0094","254.19999992847443","","","","90","","","","key","16.665285714286647","683","312.5","","","","","","","","","","","","","","","","","","","",""
