"trial_type","trial_index","time_elapsed","internal_node_id","PROLIFIC_PID","STUDY_ID","SESSION_ID","rt","stimulus","button_pressed","success","key_press","responses","isData","view_history","response_type","avg_frame_time","center_x","center_y","isSC","stim_side","trial_luminance","step_size","nReversal","correct","prev_ans","isThreshold","SC_threshold","final_threshold","isLuminance","FF_luminance","luminance","stimSide","ISInt","isFF","question_order","isSPQ","isCAPS","isAQ"
"pavlovia","0","4","0.0-0.0","60719da557d8241609b26e83","636d03e66a32c7f65a0397df","636d0818cfd6760a5395bfa8","","","","","","","","","","","","","","","","","","","","","","","","","","","","","","","",""
"html-button-response","1","16982","0.0-1.0","60719da557d8241609b26e83","636d03e66a32c7f65a0397df","636d0818cfd6760a5395bfa8","16975.800000190735","<div style='background-color: white; width:60%; margin: auto; padding: 50px; text-align: justify; text-justify: inter-word; margin-bottom: 20px;'><h1 style='text-align: center;'>Consent Form</h1><p>Please read this consent form carefully before deciding whether you would like to participate in this study. You have to be 18 years old or older to participate to this study.</p><p style='text-decoration: underline;'>Participation is voluntary:</p><p>It is your choice whether or not to participate in this research. If you choose to participate, you may change your mind and leave the study at any time. Refusal to participate or stopping your participation will involve no penalty or loss of benefits to which you are otherwise entitled.</p><p style='text-decoration: underline;'>Purpose of the Study:</p><p>To understand the mechanisms underlying human perception.</p><p style='text-decoration: underline;'>What you will do in this study:</p><p>You will be presented with a series of visual images and then you will press buttons on the keyboard of your computer to respond to simple questions about the images (e.g. Were one or two images presented?). In addition, you will be asked to complete a questionnaire concerning your beliefs and everyday mental and perceptual experiences.'</p><p style='text-decoration: underline;'> Time Required:</p><p>The study will take 40 minutes to complete. </p><p style='text-decoration: underline;'>Risks:</p><p>There are no anticipated risks associated with participating in this study that are beyond those experienced in everyday life. </p><p style='text-decoration: underline;'>Benefits:</p><p>There are no benefits to you in participating in the study. However, this study may lead to a better understanding of how different kinds of visual information are used.</p><p style='text-decoration: underline;'>Compensation:</p><p>You will be paid US$6.6/hour. </p><p style='text-decoration: underline;'>Privacy and Confidentiality:</p><p>Your participation in this study will be anonymous. No personal information about your name or identity will be asked or recorded. This anonymous data will be stored for several years and may be used for a variety of research purposes. The overall results of the study may be published, or the data files may be shared with other researchers, but your identity will not be revealed in any way. The online services we are using for this study may temporarily store your data, but this data will be downloaded and then promptly deleted from those services.Your data will not be permanently associated with your name, IP address, or any other identifiable information (e.g., your information will only be connected to your payment, not to any of your responses), though they may be temporarily stored together before we download and separate them. Even so, no guarantee of internet survey security can be given because, although unlikely, transmissions can be intercepted and IP addresses can be identified. The anonymous data may be shared publicly (for example, in conjunction with a resulting academic publication).</p><p style='text-decoration: underline;'>Participation and Withdrawal:</p><p>Your participation in this study is completely voluntary. You may stop responding to the stimuli or stop answering questions if you so choose and without penalty by exiting the full screen mode, closing this tab of your browser or redirecting it to a different website.</p><p style='text-decoration: underline;'>Contact Info of the Researcher: </p><p>If you have questions about this study, or if you would like to talk to the research team, please contact David Melcher (david.melcher@nyu.edu, md5050@nyu.edu) at the Perception and Active Cognition Laboratory, New York University Abu Dhabi, Computational Research Building, Saadiyat Island, Abu Dhabi, UAE.This research has been reviewed by the New York University Abu Dhabi Institutional Review Board (NYUAD IRB). To contact about your rights in this research, for questions, suggestions, or complaints that are not addressed by the researchers, please email IRBnyuad@nyu.edu, or call the NYUAD IRB at +971 2 628 4313. </p></div>","0","","","","","","","","","","","","","","","","","","","","","","","","","","","","",""
"fullscreen","2","19844","0.0-2.0","60719da557d8241609b26e83","636d03e66a32c7f65a0397df","636d0818cfd6760a5395bfa8","","","","true","","","","","","","","","","","","","","","","","","","","","","","","","","","",""
"html-keyboard-response","3","28242","0.0-3.0","60719da557d8241609b26e83","636d03e66a32c7f65a0397df","636d0818cfd6760a5395bfa8","8397","<p>Welcome !</p><p>READ CAREFULLY THE FOLLOWING INDICATIONS:</p><p>From this moment you have ~40 minutes to complete the experiment.</p><p>During the experiment you will be prompted to take several breaks. Each break should not last longer than 2-3 minutes.</p><p>Make sure that your computer is plugged in and it's not running on battery power, even if the battery is already fully charged.</p><p>Turn off your phone and music, make sure that you are in a quiet room and that you will not be distracted for the next hour.</p><p>Failure to comply with the instructions and indications provided during the experiment will most likely result in the rejection of your data.<p>Press the spacebar to start.</p>","","","32","","","","","","","","","","","","","","","","","","","","","","","","","","",""
"survey-html-form","4","36902","0.0-4.0","60719da557d8241609b26e83","636d03e66a32c7f65a0397df","636d0818cfd6760a5395bfa8","8657.099999904633","","","","","{""age"":""37"",""sex"":""M""}","true","","","","","","","","","","","","","","","","","","","","","","","","",""
"instructions","5","48835","0.0-5.0","60719da557d8241609b26e83","636d03e66a32c7f65a0397df","636d0818cfd6760a5395bfa8","11931.299999713898","","","","","","","[{""page_index"":0,""viewing_time"":6377.599999904633},{""page_index"":1,""viewing_time"":2689},{""page_index"":2,""viewing_time"":2863.9000000953674}]","","","","","","","","","","","","","","","","","","","","","","","",""
"psychophysics","6","50571","0.0-6.0-0.0","60719da557d8241609b26e83","636d03e66a32c7f65a0397df","636d0818cfd6760a5395bfa8","731","","","","37","","","","key","16.653317307692305","768","377","true","-1","180","30","0","-1","","","","","","","","","","","","","",""
"psychophysics","7","53865","0.0-6.0-0.1","60719da557d8241609b26e83","636d03e66a32c7f65a0397df","636d0818cfd6760a5395bfa8","2290.699999809265","","","","39","","","","key","16.652949238578685","768","377","true","1","180","30","0","-1","-1","","","","","","","","","","","","",""
"psychophysics","8","55290","0.0-6.0-0.2","60719da557d8241609b26e83","636d03e66a32c7f65a0397df","636d0818cfd6760a5395bfa8","420.90000009536743","","","","39","","","","key","16.653083333333296","768","377","true","1","150","30","0","-1","-1","","","","","","","","","","","","",""
"psychophysics","9","56762","0.0-6.0-0.3","60719da557d8241609b26e83","636d03e66a32c7f65a0397df","636d0818cfd6760a5395bfa8","467.80000019073486","","","","39","","","","key","16.649977272727316","768","377","true","1","150","30","0","-1","-1","","","","","","","","","","","","",""
"psychophysics","10","58360","0.0-6.0-0.4","60719da557d8241609b26e83","636d03e66a32c7f65a0397df","636d0818cfd6760a5395bfa8","594.8000001907349","","","","37","","","","key","16.65191578947369","768","377","true","1","129","24","1","1","-1","","","","","","","","","","","","",""
"psychophysics","11","59839","0.0-6.0-0.5","60719da557d8241609b26e83","636d03e66a32c7f65a0397df","636d0818cfd6760a5395bfa8","476.09999990463257","","","","37","","","","key","16.652287356321796","768","377","true","-1","153","24","1","-1","1","","","","","","","","","","","","",""
"psychophysics","12","61012","0.0-6.0-0.6","60719da557d8241609b26e83","636d03e66a32c7f65a0397df","636d0818cfd6760a5395bfa8","167.7000002861023","","","","39","","","","key","16.653985714285643","768","377","true","1","153","19.2","2","-1","-1","","","","","","","","","","","","",""
"psychophysics","13","63207","0.0-6.0-0.7","60719da557d8241609b26e83","636d03e66a32c7f65a0397df","636d0818cfd6760a5395bfa8","1190.5","","","","37","","","","key","16.652038167938887","768","377","true","-1","133.8","19.2","2","-1","-1","","","","","","","","","","","","",""
"psychophysics","14","65118","0.0-6.0-0.8","60719da557d8241609b26e83","636d03e66a32c7f65a0397df","636d0818cfd6760a5395bfa8","907.8000001907349","","","","39","","","","key","16.652274336283142","768","377","true","1","133.8","19.2","2","-1","-1","","","","","","","","","","","","",""
"psychophysics","15","66957","0.0-6.0-0.9","60719da557d8241609b26e83","636d03e66a32c7f65a0397df","636d0818cfd6760a5395bfa8","834.8000001907349","","","","37","","","","key","16.655672727272826","768","377","true","-1","129","19.2","2","-1","-1","","","","","","","","","","","","",""
"psychophysics","16","68489","0.0-6.0-0.10","60719da557d8241609b26e83","636d03e66a32c7f65a0397df","636d0818cfd6760a5395bfa8","522.4000000953674","","","","39","","","","key","16.651175824175798","768","377","true","1","129","19.2","2","-1","-1","","","","","","","","","","","","",""
"psychophysics","17","70196","0.0-6.0-0.11","60719da557d8241609b26e83","636d03e66a32c7f65a0397df","636d0818cfd6760a5395bfa8","704.4000000953674","","","","37","","","","key","16.65163366336636","768","377","true","-1","129","19.2","2","-1","-1","","","","","","","","","","","","",""
"psychophysics","18","72550","0.0-6.0-0.12","60719da557d8241609b26e83","636d03e66a32c7f65a0397df","636d0818cfd6760a5395bfa8","1350.5","","","","37","","","","key","16.65289361702131","768","377","true","-1","129","19.2","2","-1","-1","","","","","","","","","","","","",""
"psychophysics","19","74300","0.0-6.0-0.13","60719da557d8241609b26e83","636d03e66a32c7f65a0397df","636d0818cfd6760a5395bfa8","745.9000000953674","","","","39","","","","key","16.652076923076983","768","377","true","1","129","19.2","2","-1","-1","","","","","","","","","","","","",""
"psychophysics","20","75986","0.0-6.0-0.14","60719da557d8241609b26e83","636d03e66a32c7f65a0397df","636d0818cfd6760a5395bfa8","681.4000000953674","","","","37","","","","key","16.652480000000068","768","377","true","1","129","15.36","3","1","-1","","","","","","","","","","","","",""
"psychophysics","21","77492","0.0-6.0-0.15","60719da557d8241609b26e83","636d03e66a32c7f65a0397df","636d0818cfd6760a5395bfa8","503.59999990463257","","","","37","","","","key","16.652820224719047","768","377","true","-1","144.36","15.36","3","-1","1","","","","","","","","","","","","",""
"psychophysics","22","78584","0.0-6.0-0.16","60719da557d8241609b26e83","636d03e66a32c7f65a0397df","636d0818cfd6760a5395bfa8","88.7000002861023","","","","37","","","","key","16.6526307692308","768","377","true","-1","144.36","12.287999999999998","4","-1","-1","","","","","","","","","","","","",""
"psychophysics","23","80659","0.0-6.0-0.17","60719da557d8241609b26e83","636d03e66a32c7f65a0397df","636d0818cfd6760a5395bfa8","1072.4000000953674","","","","39","","","","key","16.651879032258055","768","377","true","-1","132.072","9.8304","5","1","-1","","","","","","","","","","","","",""
"psychophysics","24","81810","0.0-6.0-0.18","60719da557d8241609b26e83","636d03e66a32c7f65a0397df","636d0818cfd6760a5395bfa8","146.90000009536743","","","","39","","","","key","16.653132352941185","768","377","true","1","141.9024","9.8304","5","-1","1","","","","","","","","","","","","",""
"psychophysics","25","82836","0.0-6.0-0.19","60719da557d8241609b26e83","636d03e66a32c7f65a0397df","636d0818cfd6760a5395bfa8","23.200000286102295","","","","39","","","","key","16.652833333333305","768","377","true","1","141.9024","7.864319999999999","6","-1","-1","","","","","","","","","","","","",""
"psychophysics","26","83907","0.0-6.0-0.20","60719da557d8241609b26e83","636d03e66a32c7f65a0397df","636d0818cfd6760a5395bfa8","66.59999990463257","","","","37","","","","key","16.653968750000104","768","377","true","-1","134.03808","7.864319999999999","6","-1","-1","","","","","","","","","","","","",""
"psychophysics","27","85108","0.0-6.0-0.21","60719da557d8241609b26e83","636d03e66a32c7f65a0397df","636d0818cfd6760a5395bfa8","198.2999997138977","","","","39","","","","key","16.65130985915496","768","377","true","1","134.03808","7.864319999999999","6","-1","-1","","","","","","","","","","","","",""
"psychophysics","28","86570","0.0-6.0-0.22","60719da557d8241609b26e83","636d03e66a32c7f65a0397df","636d0818cfd6760a5395bfa8","460.1000003814697","","","","37","","","","key","16.65290804597701","768","377","true","-1","129","7.864319999999999","6","-1","-1","","","","","","","","","","","","",""
"psychophysics","29","87851","0.0-6.0-0.23","60719da557d8241609b26e83","636d03e66a32c7f65a0397df","636d0818cfd6760a5395bfa8","276.7000002861023","","","","39","","","","key","16.65294666666654","768","377","true","-1","129","6.291456","7","1","-1","","","","","","","","","","","","",""
"psychophysics","30","88962","0.0-6.0-0.24","60719da557d8241609b26e83","636d03e66a32c7f65a0397df","636d0818cfd6760a5395bfa8","108.19999980926514","","","","39","","","","key","16.64228787878793","768","377","true","1","135.291456","6.291456","7","-1","1","","","","","","","","","","","","",""
"psychophysics","31","89987","0.0-6.0-0.25","60719da557d8241609b26e83","636d03e66a32c7f65a0397df","636d0818cfd6760a5395bfa8","20.90000009536743","","","","37","","","","key","16.654131147541015","768","377","true","-1","135.291456","5.033164800000001","8","-1","-1","","","","","","","","","","","","",""
"psychophysics","32","91627","0.0-6.0-0.26","60719da557d8241609b26e83","636d03e66a32c7f65a0397df","636d0818cfd6760a5395bfa8","637.6999998092651","","","","37","","","","key","16.651237113402043","768","377","true","-1","130.2582912","5.033164800000001","8","-1","-1","","","","","","","","","","","","",""
"psychophysics","33","94267","0.0-6.0-0.27","60719da557d8241609b26e83","636d03e66a32c7f65a0397df","636d0818cfd6760a5395bfa8","1635.3000001907349","","","","39","","","","key","16.65220253164554","768","377","true","1","130.2582912","5.033164800000001","8","-1","-1","","","","","","","","","","","","",""
"psychophysics","34","95758","0.0-6.0-0.28","60719da557d8241609b26e83","636d03e66a32c7f65a0397df","636d0818cfd6760a5395bfa8","487","","","","37","","","","key","16.65036363636368","768","377","true","1","129","4.0265318400000005","9","1","-1","","","","","","","","","","","","",""
"psychophysics","35","97251","0.0-6.0-0.29","60719da557d8241609b26e83","636d03e66a32c7f65a0397df","636d0818cfd6760a5395bfa8","487.80000019073486","","","","37","","","","key","16.653426966292123","768","377","true","-1","133.02653184","4.0265318400000005","9","-1","1","","","","","","","","","","","","",""
"psychophysics","36","98619","0.0-6.0-0.30","60719da557d8241609b26e83","636d03e66a32c7f65a0397df","636d0818cfd6760a5395bfa8","365.5","","","","37","","","","key","16.652197530864303","768","377","true","1","133.02653184","3.2212254720000004","10","1","-1","","","","","","","","","","","","",""
"psychophysics","37","99695","0.0-6.0-0.31","60719da557d8241609b26e83","636d03e66a32c7f65a0397df","636d0818cfd6760a5395bfa8","71.80000019073486","","","","39","","","","key","16.65254687499987","768","377","true","1","136.24775731199998","3.2212254720000004","10","-1","1","","","","","","","","","","","","",""
"psychophysics","38","100797","0.0-6.0-0.32","60719da557d8241609b26e83","636d03e66a32c7f65a0397df","636d0818cfd6760a5395bfa8","97.80000019073486","","","","37","","","","key","16.651400000000006","768","377","true","-1","136.24775731199998","2.5769803776000004","11","-1","-1","","","","","","","","","","","","",""
"psychophysics","39","101824","0.0-6.0-0.33","60719da557d8241609b26e83","636d03e66a32c7f65a0397df","636d0818cfd6760a5395bfa8","25.09999990463257","","","","39","","","","key","16.65327868852445","768","377","true","1","133.67077693439998","2.5769803776000004","11","-1","-1","","","","","","","","","","","","",""
"psychophysics","40","103631","0.0-6.0-0.34","60719da557d8241609b26e83","636d03e66a32c7f65a0397df","636d0818cfd6760a5395bfa8","803.4000000953674","","","","39","","","","key","16.651841121495355","768","377","true","1","133.67077693439998","2.5769803776000004","11","-1","-1","","","","","","","","","","","","",""
"psychophysics","41","105643","0.0-6.0-0.35","60719da557d8241609b26e83","636d03e66a32c7f65a0397df","636d0818cfd6760a5395bfa8","1009.2000002861023","","","","37","","","","key","16.651916666666633","768","377","true","-1","131.0937965568","2.5769803776000004","11","-1","-1","","","","","","","","","","","","",""
"psychophysics","42","107504","0.0-6.0-0.36","60719da557d8241609b26e83","636d03e66a32c7f65a0397df","636d0818cfd6760a5395bfa8","858.0999999046326","","","","37","","","","key","16.652243243243287","768","377","true","-1","131.0937965568","2.5769803776000004","11","-1","-1","","","","","","","","","","","","",""
"psychophysics","43","108818","0.0-6.0-0.37","60719da557d8241609b26e83","636d03e66a32c7f65a0397df","636d0818cfd6760a5395bfa8","311.19999980926514","","","","37","","","","key","16.65241025641015","768","377","true","-1","129","2.5769803776000004","11","-1","-1","","","","","","","","","","","","",""
"psychophysics","44","110591","0.0-6.0-0.38","60719da557d8241609b26e83","636d03e66a32c7f65a0397df","636d0818cfd6760a5395bfa8","769.6999998092651","","","","37","","","","key","16.651180952380916","768","377","true","-1","129","2.5769803776000004","11","-1","-1","","","","","","","","","","","","",""
"psychophysics","45","113490","0.0-6.0-0.39","60719da557d8241609b26e83","636d03e66a32c7f65a0397df","636d0818cfd6760a5395bfa8","1897.0999999046326","","","","39","","","","key","16.652809248554924","768","377","true","1","129","2.5769803776000004","11","-1","-1","","","","","","","","","","","","",""
"html-keyboard-response","46","114919","0.0-7.0","60719da557d8241609b26e83","636d03e66a32c7f65a0397df","636d0818cfd6760a5395bfa8","1426.6999998092651","<p>Well Done !</p><p>Prepare for a new block.</p><p>DON'T EXIT THE FULL SCREEN MODE</p><p>Press the Spacebar to start.</p>","","","32","","","","","","","","","","","","","","","true","131.99238424576","","","","","","","","","","",""
"psychophysics","47","116635","0.0-8.0-0.0","60719da557d8241609b26e83","636d03e66a32c7f65a0397df","636d0818cfd6760a5395bfa8","711.7000002861023","","","","39","","","","key","16.65100970873776","768","377","true","-1","180","30","0","1","","","","","","","","","","","","","",""
"psychophysics","48","117698","0.0-8.0-0.1","60719da557d8241609b26e83","636d03e66a32c7f65a0397df","636d0818cfd6760a5395bfa8","58.69999980926514","","","","37","","","","key","16.65271428571427","768","377","true","-1","210","30","0","-1","1","","","","","","","","","","","","",""
"psychophysics","49","118710","0.0-8.0-0.2","60719da557d8241609b26e83","636d03e66a32c7f65a0397df","636d0818cfd6760a5395bfa8","9","","","","39","","","","key","16.652649999999994","768","377","true","1","210","24","1","-1","-1","","","","","","","","","","","","",""
"psychophysics","50","119763","0.0-8.0-0.3","60719da557d8241609b26e83","636d03e66a32c7f65a0397df","636d0818cfd6760a5395bfa8","49.299999713897705","","","","39","","","","key","16.650258064515995","768","377","true","1","186","24","1","-1","-1","","","","","","","","","","","","",""
"psychophysics","51","120792","0.0-8.0-0.4","60719da557d8241609b26e83","636d03e66a32c7f65a0397df","636d0818cfd6760a5395bfa8","26.800000190734863","","","","37","","","","key","16.651016393442614","768","377","true","-1","186","24","1","-1","-1","","","","","","","","","","","","",""
"psychophysics","52","121959","0.0-8.0-0.5","60719da557d8241609b26e83","636d03e66a32c7f65a0397df","636d0818cfd6760a5395bfa8","164.40000009536743","","","","37","","","","key","16.652057971014468","768","377","true","-1","162","24","1","-1","-1","","","","","","","","","","","","",""
"psychophysics","53","123207","0.0-8.0-0.6","60719da557d8241609b26e83","636d03e66a32c7f65a0397df","636d0818cfd6760a5395bfa8","244.30000019073486","","","","37","","","","key","16.652662162162244","768","377","true","-1","162","24","1","-1","-1","","","","","","","","","","","","",""
"psychophysics","54","124299","0.0-8.0-0.7","60719da557d8241609b26e83","636d03e66a32c7f65a0397df","636d0818cfd6760a5395bfa8","89.69999980926514","","","","39","","","","key","16.650640624999824","768","377","true","1","138","24","1","-1","-1","","","","","","","","","","","","",""
"psychophysics","55","125485","0.0-8.0-0.8","60719da557d8241609b26e83","636d03e66a32c7f65a0397df","636d0818cfd6760a5395bfa8","179.90000009536743","","","","37","","","","key","16.653299999999998","768","377","true","-1","138","24","1","-1","-1","","","","","","","","","","","","",""
"psychophysics","56","126920","0.0-8.0-0.9","60719da557d8241609b26e83","636d03e66a32c7f65a0397df","636d0818cfd6760a5395bfa8","431.5","","","","37","","","","key","16.65343023255805","768","377","true","1","129","19.2","2","1","-1","","","","","","","","","","","","",""
"psychophysics","57","128112","0.0-8.0-0.10","60719da557d8241609b26e83","636d03e66a32c7f65a0397df","636d0818cfd6760a5395bfa8","188.19999980926514","","","","37","","","","key","16.652671428571505","768","377","true","-1","148.2","19.2","2","-1","1","","","","","","","","","","","","",""
"psychophysics","58","129388","0.0-8.0-0.11","60719da557d8241609b26e83","636d03e66a32c7f65a0397df","636d0818cfd6760a5395bfa8","270.40000009536743","","","","37","","","","key","16.652315789473697","768","377","true","-1","148.2","15.36","3","-1","-1","","","","","","","","","","","","",""
"psychophysics","59","130783","0.0-8.0-0.12","60719da557d8241609b26e83","636d03e66a32c7f65a0397df","636d0818cfd6760a5395bfa8","390.90000009536743","","","","39","","","","key","16.653120481927743","768","377","true","1","132.83999999999997","15.36","3","-1","-1","","","","","","","","","","","","",""
"psychophysics","60","132019","0.0-8.0-0.13","60719da557d8241609b26e83","636d03e66a32c7f65a0397df","636d0818cfd6760a5395bfa8","233.09999990463257","","","","39","","","","key","16.65265753424658","768","377","true","1","132.83999999999997","15.36","3","-1","-1","","","","","","","","","","","","",""
"psychophysics","61","133470","0.0-8.0-0.14","60719da557d8241609b26e83","636d03e66a32c7f65a0397df","636d0818cfd6760a5395bfa8","448.30000019073486","","","","37","","","","key","16.65091860465107","768","377","true","-1","129","15.36","3","-1","-1","","","","","","","","","","","","",""
"psychophysics","62","134699","0.0-8.0-0.15","60719da557d8241609b26e83","636d03e66a32c7f65a0397df","636d0818cfd6760a5395bfa8","225.80000019073486","","","","39","","","","key","16.65194520547951","768","377","true","-1","129","12.287999999999998","4","1","-1","","","","","","","","","","","","",""
"psychophysics","63","135864","0.0-8.0-0.16","60719da557d8241609b26e83","636d03e66a32c7f65a0397df","636d0818cfd6760a5395bfa8","162.5","","","","37","","","","key","16.650724637681076","768","377","true","-1","141.288","12.287999999999998","4","-1","1","","","","","","","","","","","","",""
"psychophysics","64","136954","0.0-8.0-0.17","60719da557d8241609b26e83","636d03e66a32c7f65a0397df","636d0818cfd6760a5395bfa8","88.30000019073486","","","","37","","","","key","16.652656249999836","768","377","true","-1","141.288","9.8304","5","-1","-1","","","","","","","","","","","","",""
"psychophysics","65","138401","0.0-8.0-0.18","60719da557d8241609b26e83","636d03e66a32c7f65a0397df","636d0818cfd6760a5395bfa8","440.2999997138977","","","","39","","","","key","16.653034883720846","768","377","true","-1","131.4576","7.864319999999999","6","1","-1","","","","","","","","","","","","",""
"psychophysics","66","139456","0.0-8.0-0.19","60719da557d8241609b26e83","636d03e66a32c7f65a0397df","636d0818cfd6760a5395bfa8","51.60000038146973","","","","39","","","","key","16.653145161290247","768","377","true","1","139.32192","7.864319999999999","6","-1","1","","","","","","","","","","","","",""
"psychophysics","67","142783","0.0-8.0-0.20","60719da557d8241609b26e83","636d03e66a32c7f65a0397df","636d0818cfd6760a5395bfa8","2322","","","","39","","","","key","16.65230653266336","768","377","true","-1","139.32192","6.291456","7","1","-1","","","","","","","","","","","","",""
"psychophysics","68","146096","0.0-8.0-0.21","60719da557d8241609b26e83","636d03e66a32c7f65a0397df","636d0818cfd6760a5395bfa8","2306.2000002861023","","","","39","","","","key","16.65252525252531","768","377","true","1","145.61337600000002","6.291456","7","-1","1","","","","","","","","","","","","",""
"psychophysics","69","147358","0.0-8.0-0.22","60719da557d8241609b26e83","636d03e66a32c7f65a0397df","636d0818cfd6760a5395bfa8","252.7000002861023","","","","37","","","","key","16.653173333333495","768","377","true","-1","145.61337600000002","5.033164800000001","8","-1","-1","","","","","","","","","","","","",""
"psychophysics","70","148371","0.0-8.0-0.23","60719da557d8241609b26e83","636d03e66a32c7f65a0397df","636d0818cfd6760a5395bfa8","10.200000286102295","","","","39","","","","key","16.652183333333234","768","377","true","1","140.5802112","5.033164800000001","8","-1","-1","","","","","","","","","","","","",""
"psychophysics","71","149933","0.0-8.0-0.24","60719da557d8241609b26e83","636d03e66a32c7f65a0397df","636d0818cfd6760a5395bfa8","559","","","","39","","","","key","16.652301075268706","768","377","true","1","140.5802112","5.033164800000001","8","-1","-1","","","","","","","","","","","","",""
"psychophysics","72","151215","0.0-8.0-0.25","60719da557d8241609b26e83","636d03e66a32c7f65a0397df","636d0818cfd6760a5395bfa8","278.09999990463257","","","","37","","","","key","16.652486842105358","768","377","true","-1","135.5470464","5.033164800000001","8","-1","-1","","","","","","","","","","","","",""
"psychophysics","73","152478","0.0-8.0-0.26","60719da557d8241609b26e83","636d03e66a32c7f65a0397df","636d0818cfd6760a5395bfa8","259.7000002861023","","","","39","","","","key","16.652513513513416","768","377","true","1","135.5470464","5.033164800000001","8","-1","-1","","","","","","","","","","","","",""
"psychophysics","74","154370","0.0-8.0-0.27","60719da557d8241609b26e83","636d03e66a32c7f65a0397df","636d0818cfd6760a5395bfa8","886.6999998092651","","","","39","","","","key","16.65299115044248","768","377","true","-1","130.5138816","4.0265318400000005","9","1","-1","","","","","","","","","","","","",""
"psychophysics","75","155403","0.0-8.0-0.28","60719da557d8241609b26e83","636d03e66a32c7f65a0397df","636d0818cfd6760a5395bfa8","30","","","","37","","","","key","16.65370491803309","768","377","true","-1","134.54041343999998","4.0265318400000005","9","-1","1","","","","","","","","","","","","",""
"psychophysics","76","156574","0.0-8.0-0.29","60719da557d8241609b26e83","636d03e66a32c7f65a0397df","636d0818cfd6760a5395bfa8","169.09999990463257","","","","39","","","","key","16.652173913043477","768","377","true","1","134.54041343999998","3.2212254720000004","10","-1","-1","","","","","","","","","","","","",""
"psychophysics","77","158304","0.0-8.0-0.30","60719da557d8241609b26e83","636d03e66a32c7f65a0397df","636d0818cfd6760a5395bfa8","724.3999996185303","","","","39","","","","key","16.653320388349385","768","377","true","1","131.319187968","3.2212254720000004","10","-1","-1","","","","","","","","","","","","",""
"psychophysics","78","159974","0.0-8.0-0.31","60719da557d8241609b26e83","636d03e66a32c7f65a0397df","636d0818cfd6760a5395bfa8","663.5","","","","37","","","","key","16.651970000000148","768","377","true","1","131.319187968","2.5769803776000004","11","1","-1","","","","","","","","","","","","",""
"psychophysics","79","161225","0.0-8.0-0.32","60719da557d8241609b26e83","636d03e66a32c7f65a0397df","636d0818cfd6760a5395bfa8","248.69999980926514","","","","37","","","","key","16.652027027027028","768","377","true","-1","133.8961683456","2.5769803776000004","11","-1","1","","","","","","","","","","","","",""
"psychophysics","80","162332","0.0-8.0-0.33","60719da557d8241609b26e83","636d03e66a32c7f65a0397df","636d0818cfd6760a5395bfa8","105.2000002861023","","","","39","","","","key","16.652261538461495","768","377","true","1","133.8961683456","2.0615843020800004","12","-1","-1","","","","","","","","","","","","",""
"psychophysics","81","163841","0.0-8.0-0.34","60719da557d8241609b26e83","636d03e66a32c7f65a0397df","636d0818cfd6760a5395bfa8","504.90000009536743","","","","39","","","","key","16.65234444444456","768","377","true","1","131.83458404351998","2.0615843020800004","12","-1","-1","","","","","","","","","","","","",""
"psychophysics","82","165283","0.0-8.0-0.35","60719da557d8241609b26e83","636d03e66a32c7f65a0397df","636d0818cfd6760a5395bfa8","437.40000009536743","","","","37","","","","key","16.652399999999975","768","377","true","1","131.83458404351998","1.6492674416640005","13","1","-1","","","","","","","","","","","","",""
"psychophysics","83","166661","0.0-8.0-0.36","60719da557d8241609b26e83","636d03e66a32c7f65a0397df","636d0818cfd6760a5395bfa8","373.59999990463257","","","","39","","","","key","16.65109756097578","768","377","true","1","133.48385148518398","1.6492674416640005","13","-1","1","","","","","","","","","","","","",""
"psychophysics","84","168075","0.0-8.0-0.37","60719da557d8241609b26e83","636d03e66a32c7f65a0397df","636d0818cfd6760a5395bfa8","409.09999990463257","","","","39","","","","key","16.653250000000256","768","377","true","1","133.48385148518398","1.3194139533312006","14","-1","-1","","","","","","","","","","","","",""
"psychophysics","85","169366","0.0-8.0-0.38","60719da557d8241609b26e83","636d03e66a32c7f65a0397df","636d0818cfd6760a5395bfa8","288.19999980926514","","","","39","","","","key","16.653051948051992","768","377","true","1","132.16443753185277","1.3194139533312006","14","-1","-1","","","","","","","","","","","","",""
"psychophysics","86","171206","0.0-8.0-0.39","60719da557d8241609b26e83","636d03e66a32c7f65a0397df","636d0818cfd6760a5395bfa8","837.1000003814697","","","","39","","","","key","16.65161467889893","768","377","true","-1","132.16443753185277","1.0555311626649604","15","1","-1","","","","","","","","","","","","",""
"html-keyboard-response","87","172563","0.0-9.0","60719da557d8241609b26e83","636d03e66a32c7f65a0397df","636d0818cfd6760a5395bfa8","1354.1000003814697","<p>Well Done !</p><p>Prepare for a new block.</p><p>DON'T EXIT THE FULL SCREEN MODE</p><p>Press the Spacebar to start.</p>","","","32","","","","","","","","","","","","","","","true","133.07235066855424","","","","","","","","","","",""
"psychophysics","88","173745","0.0-10.0-0.0","60719da557d8241609b26e83","636d03e66a32c7f65a0397df","636d0818cfd6760a5395bfa8","178.19999980926514","","","","37","","","","key","16.65339436619723","768","377","true","-1","180","30","0","-1","","","","","","","","","","","","","",""
"psychophysics","89","177041","0.0-10.0-0.1","60719da557d8241609b26e83","636d03e66a32c7f65a0397df","636d0818cfd6760a5395bfa8","2291.5999999046326","","","","37","","","","key","16.651771573604087","768","377","true","-1","180","30","0","-1","-1","","","","","","","","","","","","",""
"psychophysics","90","178463","0.0-10.0-0.2","60719da557d8241609b26e83","636d03e66a32c7f65a0397df","636d0818cfd6760a5395bfa8","416.19999980926514","","","","37","","","","key","16.653904761904588","768","377","true","-1","150","30","0","-1","-1","","","","","","","","","","","","",""
"psychophysics","91","179594","0.0-10.0-0.3","60719da557d8241609b26e83","636d03e66a32c7f65a0397df","636d0818cfd6760a5395bfa8","130.30000019073486","","","","39","","","","key","16.652179104477558","768","377","true","1","150","30","0","-1","-1","","","","","","","","","","","","",""
"psychophysics","92","181625","0.0-10.0-0.4","60719da557d8241609b26e83","636d03e66a32c7f65a0397df","636d0818cfd6760a5395bfa8","1028.8000001907349","","","","37","","","","key","16.652140495867886","768","377","true","1","129","24","1","1","-1","","","","","","","","","","","","",""
"psychophysics","93","183209","0.0-10.0-0.5","60719da557d8241609b26e83","636d03e66a32c7f65a0397df","636d0818cfd6760a5395bfa8","580.3000001907349","","","","37","","","","key","16.65343617021287","768","377","true","-1","153","24","1","-1","1","","","","","","","","","","","","",""
"psychophysics","94","184950","0.0-10.0-0.6","60719da557d8241609b26e83","636d03e66a32c7f65a0397df","636d0818cfd6760a5395bfa8","738.0999999046326","","","","37","","","","key","16.652048076923304","768","377","true","-1","153","19.2","2","-1","-1","","","","","","","","","","","","",""
"psychophysics","95","186392","0.0-10.0-0.7","60719da557d8241609b26e83","636d03e66a32c7f65a0397df","636d0818cfd6760a5395bfa8","438.5","","","","39","","","","key","16.652117647059082","768","377","true","1","133.8","19.2","2","-1","-1","","","","","","","","","","","","",""
"psychophysics","96","188054","0.0-10.0-0.8","60719da557d8241609b26e83","636d03e66a32c7f65a0397df","636d0818cfd6760a5395bfa8","658.8999996185303","","","","37","","","","key","16.653434343434366","768","377","true","-1","133.8","19.2","2","-1","-1","","","","","","","","","","","","",""
"psychophysics","97","189936","0.0-10.0-0.9","60719da557d8241609b26e83","636d03e66a32c7f65a0397df","636d0818cfd6760a5395bfa8","879.4000000953674","","","","39","","","","key","16.652026785714302","768","377","true","1","129","19.2","2","-1","-1","","","","","","","","","","","","",""
"psychophysics","98","191724","0.0-10.0-0.10","60719da557d8241609b26e83","636d03e66a32c7f65a0397df","636d0818cfd6760a5395bfa8","786.1000003814697","","","","37","","","","key","16.65270754716986","768","377","true","1","129","15.36","3","1","-1","","","","","","","","","","","","",""
"psychophysics","99","193264","0.0-10.0-0.11","60719da557d8241609b26e83","636d03e66a32c7f65a0397df","636d0818cfd6760a5395bfa8","536.2999997138977","","","","37","","","","key","16.652891304348053","768","377","true","-1","144.36","15.36","3","-1","1","","","","","","","","","","","","",""
"psychophysics","100","194798","0.0-10.0-0.12","60719da557d8241609b26e83","636d03e66a32c7f65a0397df","636d0818cfd6760a5395bfa8","531","","","","39","","","","key","16.651428571428557","768","377","true","1","144.36","12.287999999999998","4","-1","-1","","","","","","","","","","","","",""
"psychophysics","101","196493","0.0-10.0-0.13","60719da557d8241609b26e83","636d03e66a32c7f65a0397df","636d0818cfd6760a5395bfa8","692.5","","","","39","","","","key","16.652415841584162","768","377","true","1","132.072","12.287999999999998","4","-1","-1","","","","","","","","","","","","",""
"psychophysics","102","198116","0.0-10.0-0.14","60719da557d8241609b26e83","636d03e66a32c7f65a0397df","636d0818cfd6760a5395bfa8","620.1000003814697","","","","39","","","","key","16.653333333333347","768","377","true","1","132.072","12.287999999999998","4","-1","-1","","","","","","","","","","","","",""
"psychophysics","103","199981","0.0-10.0-0.15","60719da557d8241609b26e83","636d03e66a32c7f65a0397df","636d0818cfd6760a5395bfa8","861","","","","39","","","","key","16.653261261261154","768","377","true","-1","129","9.8304","5","1","-1","","","","","","","","","","","","",""
"psychophysics","104","201668","0.0-10.0-0.16","60719da557d8241609b26e83","636d03e66a32c7f65a0397df","636d0818cfd6760a5395bfa8","682.5","","","","39","","","","key","16.652770000000018","768","377","true","1","138.8304","9.8304","5","-1","1","","","","","","","","","","","","",""
"psychophysics","105","203375","0.0-10.0-0.17","60719da557d8241609b26e83","636d03e66a32c7f65a0397df","636d0818cfd6760a5395bfa8","703.5","","","","39","","","","key","16.652058823529504","768","377","true","1","138.8304","7.864319999999999","6","-1","-1","","","","","","","","","","","","",""
"psychophysics","106","205216","0.0-10.0-0.18","60719da557d8241609b26e83","636d03e66a32c7f65a0397df","636d0818cfd6760a5395bfa8","838.6999998092651","","","","37","","","","key","16.652572727272688","768","377","true","1","130.96608","6.291456","7","1","-1","","","","","","","","","","","","",""
"psychophysics","107","206716","0.0-10.0-0.19","60719da557d8241609b26e83","636d03e66a32c7f65a0397df","636d0818cfd6760a5395bfa8","495.59999990463257","","","","37","","","","key","16.6518764044943","768","377","true","-1","137.25753600000002","6.291456","7","-1","1","","","","","","","","","","","","",""
"psychophysics","108","207920","0.0-10.0-0.20","60719da557d8241609b26e83","636d03e66a32c7f65a0397df","636d0818cfd6760a5395bfa8","192.40000009536743","","","","39","","","","key","16.65288732394381","768","377","true","1","137.25753600000002","5.033164800000001","8","-1","-1","","","","","","","","","","","","",""
"psychophysics","109","210166","0.0-10.0-0.21","60719da557d8241609b26e83","636d03e66a32c7f65a0397df","636d0818cfd6760a5395bfa8","1243.7000002861023","","","","37","","","","key","16.65195522388055","768","377","true","-1","132.2243712","5.033164800000001","8","-1","-1","","","","","","","","","","","","",""
"psychophysics","110","211694","0.0-10.0-0.22","60719da557d8241609b26e83","636d03e66a32c7f65a0397df","636d0818cfd6760a5395bfa8","526.0999999046326","","","","37","","","","key","16.65154945054942","768","377","true","-1","132.2243712","5.033164800000001","8","-1","-1","","","","","","","","","","","","",""
"psychophysics","111","213302","0.0-10.0-0.23","60719da557d8241609b26e83","636d03e66a32c7f65a0397df","636d0818cfd6760a5395bfa8","604","","","","39","","","","key","16.650957894736692","768","377","true","1","129","5.033164800000001","8","-1","-1","","","","","","","","","","","","",""
"psychophysics","112","214910","0.0-10.0-0.24","60719da557d8241609b26e83","636d03e66a32c7f65a0397df","636d0818cfd6760a5395bfa8","605.4000000953674","","","","37","","","","key","16.64835416666665","768","377","true","-1","129","5.033164800000001","8","-1","-1","","","","","","","","","","","","",""
"psychophysics","113","216501","0.0-10.0-0.25","60719da557d8241609b26e83","636d03e66a32c7f65a0397df","636d0818cfd6760a5395bfa8","586.9000000953674","","","","37","","","","key","16.653234042552985","768","377","true","1","129","4.0265318400000005","9","1","-1","","","","","","","","","","","","",""
"psychophysics","114","217987","0.0-10.0-0.26","60719da557d8241609b26e83","636d03e66a32c7f65a0397df","636d0818cfd6760a5395bfa8","482.40000009536743","","","","39","","","","key","16.653545454545316","768","377","true","1","133.02653184","4.0265318400000005","9","-1","1","","","","","","","","","","","","",""
"psychophysics","115","219854","0.0-10.0-0.27","60719da557d8241609b26e83","636d03e66a32c7f65a0397df","636d0818cfd6760a5395bfa8","864.5","","","","37","","","","key","16.647214285714135","768","377","true","1","133.02653184","3.2212254720000004","10","1","-1","","","","","","","","","","","","",""
"psychophysics","116","221141","0.0-10.0-0.28","60719da557d8241609b26e83","636d03e66a32c7f65a0397df","636d0818cfd6760a5395bfa8","283.8999996185303","","","","39","","","","key","16.651249999999937","768","377","true","1","136.24775731199998","3.2212254720000004","10","-1","1","","","","","","","","","","","","",""
"psychophysics","117","222552","0.0-10.0-0.29","60719da557d8241609b26e83","636d03e66a32c7f65a0397df","636d0818cfd6760a5395bfa8","408.09999990463257","","","","37","","","","key","16.654904761904966","768","377","true","-1","136.24775731199998","2.5769803776000004","11","-1","-1","","","","","","","","","","","","",""
"psychophysics","118","223809","0.0-10.0-0.30","60719da557d8241609b26e83","636d03e66a32c7f65a0397df","636d0818cfd6760a5395bfa8","253.39999961853027","","","","37","","","","key","16.653270270270326","768","377","true","-1","133.67077693439998","2.5769803776000004","11","-1","-1","","","","","","","","","","","","",""
"psychophysics","119","225039","0.0-10.0-0.31","60719da557d8241609b26e83","636d03e66a32c7f65a0397df","636d0818cfd6760a5395bfa8","227.90000009536743","","","","37","","","","key","16.652958904109553","768","377","true","-1","133.67077693439998","2.5769803776000004","11","-1","-1","","","","","","","","","","","","",""
"psychophysics","120","226814","0.0-10.0-0.32","60719da557d8241609b26e83","636d03e66a32c7f65a0397df","636d0818cfd6760a5395bfa8","771.5999999046326","","","","37","","","","key","16.65120754716973","768","377","true","-1","131.0937965568","2.5769803776000004","11","-1","-1","","","","","","","","","","","","",""
"psychophysics","121","235498","0.0-10.0-0.33","60719da557d8241609b26e83","636d03e66a32c7f65a0397df","636d0818cfd6760a5395bfa8","7682.799999713898","","","","39","","","","key","16.652438461538484","768","377","true","-1","131.0937965568","2.0615843020800004","12","1","-1","","","","","","","","","","","","",""
"psychophysics","122","236677","0.0-10.0-0.34","60719da557d8241609b26e83","636d03e66a32c7f65a0397df","636d0818cfd6760a5395bfa8","174.2999997138977","","","","39","","","","key","16.653671428571606","768","377","true","1","133.15538085888","2.0615843020800004","12","-1","1","","","","","","","","","","","","",""
"psychophysics","123","237812","0.0-10.0-0.35","60719da557d8241609b26e83","636d03e66a32c7f65a0397df","636d0818cfd6760a5395bfa8","132.69999980926514","","","","39","","","","key","16.652597014925185","768","377","true","1","133.15538085888","1.6492674416640005","13","-1","-1","","","","","","","","","","","","",""
"psychophysics","124","242441","0.0-10.0-0.36","60719da557d8241609b26e83","636d03e66a32c7f65a0397df","636d0818cfd6760a5395bfa8","3621","","","","37","","","","key","16.652393501805015","768","377","true","1","131.506113417216","1.3194139533312006","14","1","-1","","","","","","","","","","","","",""
"psychophysics","125","244115","0.0-10.0-0.37","60719da557d8241609b26e83","636d03e66a32c7f65a0397df","636d0818cfd6760a5395bfa8","669.4000000953674","","","","39","","","","key","16.651898989898996","768","377","true","-1","132.8255273705472","1.3194139533312006","14","1","1","","","","","","","","","","","","",""
"psychophysics","126","247186","0.0-10.0-0.38","60719da557d8241609b26e83","636d03e66a32c7f65a0397df","636d0818cfd6760a5395bfa8","2068.9000000953674","","","","39","","","","key","16.649711956521692","768","377","true","-1","134.1449413238784","1.3194139533312006","14","1","1","","","","","","","","","","","","",""
"psychophysics","127","248271","0.0-10.0-0.39","60719da557d8241609b26e83","636d03e66a32c7f65a0397df","636d0818cfd6760a5395bfa8","81.5","","","","37","","","","key","16.653718749999825","768","377","true","-1","135.46435527720962","1.3194139533312006","14","-1","1","","","","","","","","","","","","",""
"html-keyboard-response","128","262904","0.0-11.0","60719da557d8241609b26e83","636d03e66a32c7f65a0397df","636d0818cfd6760a5395bfa8","14631.299999713898","<p>Well Done !</p><p>Prepare for a new block.</p><p>DON'T EXIT THE FULL SCREEN MODE</p><p>Press the Spacebar to start.</p>","","","32","","","","","","","","","","","","","","","true","133.15529495953407","","","","","","","","","","",""
"psychophysics","129","266630","0.0-12.0-0.0","60719da557d8241609b26e83","636d03e66a32c7f65a0397df","636d0818cfd6760a5395bfa8","2721.199999809265","","","","39","","","","key","16.652553571428662","768","377","true","1","180","30","0","-1","","","","","","","","","","","","","",""
"psychophysics","130","268195","0.0-12.0-0.1","60719da557d8241609b26e83","636d03e66a32c7f65a0397df","636d0818cfd6760a5395bfa8","560.6999998092651","","","","39","","","","key","16.652698924731194","768","377","true","1","180","30","0","-1","-1","","","","","","","","","","","","",""
"psychophysics","131","269758","0.0-12.0-0.2","60719da557d8241609b26e83","636d03e66a32c7f65a0397df","636d0818cfd6760a5395bfa8","560.8000001907349","","","","37","","","","key","16.65234782608699","768","377","true","-1","150","30","0","-1","-1","","","","","","","","","","","","",""
"psychophysics","132","271224","0.0-12.0-0.3","60719da557d8241609b26e83","636d03e66a32c7f65a0397df","636d0818cfd6760a5395bfa8","462.09999990463257","","","","37","","","","key","16.651908045976512","768","377","true","-1","150","30","0","-1","-1","","","","","","","","","","","","",""
"psychophysics","133","272790","0.0-12.0-0.4","60719da557d8241609b26e83","636d03e66a32c7f65a0397df","636d0818cfd6760a5395bfa8","562.5","","","","39","","","","key","16.652741935484045","768","377","true","1","129","30","0","-1","-1","","","","","","","","","","","","",""
"psychophysics","134","274391","0.0-12.0-0.5","60719da557d8241609b26e83","636d03e66a32c7f65a0397df","636d0818cfd6760a5395bfa8","598","","","","37","","","","key","16.649708333333667","768","377","true","-1","129","30","0","-1","-1","","","","","","","","","","","","",""
"psychophysics","135","276131","0.0-12.0-0.6","60719da557d8241609b26e83","636d03e66a32c7f65a0397df","636d0818cfd6760a5395bfa8","736.7999997138977","","","","37","","","","key","16.652368932038442","768","377","true","-1","129","30","0","-1","-1","","","","","","","","","","","","",""
"psychophysics","136","277638","0.0-12.0-0.7","60719da557d8241609b26e83","636d03e66a32c7f65a0397df","636d0818cfd6760a5395bfa8","503.90000009536743","","","","39","","","","key","16.651800000000126","768","377","true","-1","129","24","1","1","-1","","","","","","","","","","","","",""
"psychophysics","137","279162","0.0-12.0-0.8","60719da557d8241609b26e83","636d03e66a32c7f65a0397df","636d0818cfd6760a5395bfa8","520.8000001907349","","","","39","","","","key","16.652177777777737","768","377","true","1","153","24","1","-1","1","","","","","","","","","","","","",""
"psychophysics","138","280544","0.0-12.0-0.9","60719da557d8241609b26e83","636d03e66a32c7f65a0397df","636d0818cfd6760a5395bfa8","379.30000019073486","","","","39","","","","key","16.65314634146294","768","377","true","1","153","19.2","2","-1","-1","","","","","","","","","","","","",""
"psychophysics","139","282653","0.0-12.0-0.10","60719da557d8241609b26e83","636d03e66a32c7f65a0397df","636d0818cfd6760a5395bfa8","1107","","","","37","","","","key","16.652246031746184","768","377","true","1","133.8","15.36","3","1","-1","","","","","","","","","","","","",""
"psychophysics","140","284172","0.0-12.0-0.11","60719da557d8241609b26e83","636d03e66a32c7f65a0397df","636d0818cfd6760a5395bfa8","516","","","","37","","","","key","16.653644444444218","768","377","true","-1","149.16000000000003","15.36","3","-1","1","","","","","","","","","","","","",""
"psychophysics","141","285506","0.0-12.0-0.12","60719da557d8241609b26e83","636d03e66a32c7f65a0397df","636d0818cfd6760a5395bfa8","331.30000019073486","","","","37","","","","key","16.651822784810204","768","377","true","-1","149.16000000000003","12.287999999999998","4","-1","-1","","","","","","","","","","","","",""
"psychophysics","142","286827","0.0-12.0-0.13","60719da557d8241609b26e83","636d03e66a32c7f65a0397df","636d0818cfd6760a5395bfa8","317.5","","","","39","","","","key","16.652468354430173","768","377","true","1","136.872","12.287999999999998","4","-1","-1","","","","","","","","","","","","",""
"psychophysics","143","288162","0.0-12.0-0.14","60719da557d8241609b26e83","636d03e66a32c7f65a0397df","636d0818cfd6760a5395bfa8","333.30000019073486","","","","37","","","","key","16.6535822784814","768","377","true","-1","136.872","12.287999999999998","4","-1","-1","","","","","","","","","","","","",""
"psychophysics","144","289811","0.0-12.0-0.15","60719da557d8241609b26e83","636d03e66a32c7f65a0397df","636d0818cfd6760a5395bfa8","646.5","","","","39","","","","key","16.653081632652842","768","377","true","1","129","12.287999999999998","4","-1","-1","","","","","","","","","","","","",""
"psychophysics","145","292664","0.0-12.0-0.16","60719da557d8241609b26e83","636d03e66a32c7f65a0397df","636d0818cfd6760a5395bfa8","1850.7000002861023","","","","37","","","","key","16.652617647058864","768","377","true","-1","129","12.287999999999998","4","-1","-1","","","","","","","","","","","","",""
"psychophysics","146","294175","0.0-12.0-0.17","60719da557d8241609b26e83","636d03e66a32c7f65a0397df","636d0818cfd6760a5395bfa8","505.40000009536743","","","","39","","","","key","16.65300000000021","768","377","true","1","129","12.287999999999998","4","-1","-1","","","","","","","","","","","","",""
"psychophysics","147","297087","0.0-12.0-0.18","60719da557d8241609b26e83","636d03e66a32c7f65a0397df","636d0818cfd6760a5395bfa8","1909.8000001907349","","","","37","","","","key","16.652402298850806","768","377","true","-1","129","12.287999999999998","4","-1","-1","","","","","","","","","","","","",""
"psychophysics","148","298647","0.0-12.0-0.19","60719da557d8241609b26e83","636d03e66a32c7f65a0397df","636d0818cfd6760a5395bfa8","556.1999998092651","","","","39","","","","key","16.652521739130506","768","377","true","-1","129","9.8304","5","1","-1","","","","","","","","","","","","",""
"psychophysics","149","300134","0.0-12.0-0.20","60719da557d8241609b26e83","636d03e66a32c7f65a0397df","636d0818cfd6760a5395bfa8","481.69999980926514","","","","39","","","","key","16.652606741572978","768","377","true","1","138.8304","9.8304","5","-1","1","","","","","","","","","","","","",""
"psychophysics","150","301684","0.0-12.0-0.21","60719da557d8241609b26e83","636d03e66a32c7f65a0397df","636d0818cfd6760a5395bfa8","546.7000002861023","","","","37","","","","key","16.65357608695669","768","377","true","-1","138.8304","7.864319999999999","6","-1","-1","","","","","","","","","","","","",""
"psychophysics","151","303650","0.0-12.0-0.22","60719da557d8241609b26e83","636d03e66a32c7f65a0397df","636d0818cfd6760a5395bfa8","963.6000003814697","","","","37","","","","key","16.650863247863356","768","377","true","-1","130.96608","7.864319999999999","6","-1","-1","","","","","","","","","","","","",""
"psychophysics","152","305053","0.0-12.0-0.23","60719da557d8241609b26e83","636d03e66a32c7f65a0397df","636d0818cfd6760a5395bfa8","400.69999980926514","","","","39","","","","key","16.65157831325238","768","377","true","1","130.96608","7.864319999999999","6","-1","-1","","","","","","","","","","","","",""
"psychophysics","153","306391","0.0-12.0-0.24","60719da557d8241609b26e83","636d03e66a32c7f65a0397df","636d0818cfd6760a5395bfa8","334.90000009536743","","","","39","","","","key","16.651683544303893","768","377","true","1","129","7.864319999999999","6","-1","-1","","","","","","","","","","","","",""
"psychophysics","154","310965","0.0-12.0-0.25","60719da557d8241609b26e83","636d03e66a32c7f65a0397df","636d0818cfd6760a5395bfa8","3568.800000190735","","","","37","","","","key","16.652321167883333","768","377","true","1","129","6.291456","7","1","-1","","","","","","","","","","","","",""
"psychophysics","155","312502","0.0-12.0-0.26","60719da557d8241609b26e83","636d03e66a32c7f65a0397df","636d0818cfd6760a5395bfa8","533.2999997138977","","","","37","","","","key","16.652164835164292","768","377","true","-1","135.291456","6.291456","7","-1","1","","","","","","","","","","","","",""
"psychophysics","156","313658","0.0-12.0-0.27","60719da557d8241609b26e83","636d03e66a32c7f65a0397df","636d0818cfd6760a5395bfa8","150.2999997138977","","","","39","","","","key","16.652188405796945","768","377","true","1","135.291456","5.033164800000001","8","-1","-1","","","","","","","","","","","","",""
"psychophysics","157","315403","0.0-12.0-0.28","60719da557d8241609b26e83","636d03e66a32c7f65a0397df","636d0818cfd6760a5395bfa8","743.1999998092651","","","","39","","","","key","16.65543269230805","768","377","true","1","130.2582912","5.033164800000001","8","-1","-1","","","","","","","","","","","","",""
"psychophysics","158","317467","0.0-12.0-0.29","60719da557d8241609b26e83","636d03e66a32c7f65a0397df","636d0818cfd6760a5395bfa8","1057.7999997138977","","","","37","","","","key","16.65222131147538","768","377","true","-1","130.2582912","5.033164800000001","8","-1","-1","","","","","","","","","","","","",""
"psychophysics","159","320060","0.0-12.0-0.30","60719da557d8241609b26e83","636d03e66a32c7f65a0397df","636d0818cfd6760a5395bfa8","1589.5999999046326","","","","37","","","","key","16.652077419354747","768","377","true","-1","129","5.033164800000001","8","-1","-1","","","","","","","","","","","","",""
"psychophysics","160","322444","0.0-12.0-0.31","60719da557d8241609b26e83","636d03e66a32c7f65a0397df","636d0818cfd6760a5395bfa8","1381","","","","39","","","","key","16.652373239436535","768","377","true","-1","129","4.0265318400000005","9","1","-1","","","","","","","","","","","","",""
"psychophysics","161","324431","0.0-12.0-0.32","60719da557d8241609b26e83","636d03e66a32c7f65a0397df","636d0818cfd6760a5395bfa8","982.7000002861023","","","","39","","","","key","16.649621848739436","768","377","true","1","133.02653184","4.0265318400000005","9","-1","1","","","","","","","","","","","","",""
"psychophysics","162","326096","0.0-12.0-0.33","60719da557d8241609b26e83","636d03e66a32c7f65a0397df","636d0818cfd6760a5395bfa8","663.3000001907349","","","","39","","","","key","16.651020202020213","768","377","true","1","133.02653184","3.2212254720000004","10","-1","-1","","","","","","","","","","","","",""
"psychophysics","163","329234","0.0-12.0-0.34","60719da557d8241609b26e83","636d03e66a32c7f65a0397df","636d0818cfd6760a5395bfa8","2134.8999996185303","","","","37","","","","key","16.65183957219267","768","377","true","1","129.805306368","2.5769803776000004","11","1","-1","","","","","","","","","","","","",""
"psychophysics","164","332370","0.0-12.0-0.35","60719da557d8241609b26e83","636d03e66a32c7f65a0397df","636d0818cfd6760a5395bfa8","2135.300000190735","","","","39","","","","key","16.65237765957445","768","377","true","1","132.3822867456","2.5769803776000004","11","-1","1","","","","","","","","","","","","",""
"psychophysics","165","333996","0.0-12.0-0.36","60719da557d8241609b26e83","636d03e66a32c7f65a0397df","636d0818cfd6760a5395bfa8","623.1999998092651","","","","39","","","","key","16.654166666666544","768","377","true","-1","132.3822867456","2.0615843020800004","12","1","-1","","","","","","","","","","","","",""
"psychophysics","166","335428","0.0-12.0-0.37","60719da557d8241609b26e83","636d03e66a32c7f65a0397df","636d0818cfd6760a5395bfa8","430.1000003814697","","","","37","","","","key","16.652364705882363","768","377","true","-1","134.44387104768","2.0615843020800004","12","-1","1","","","","","","","","","","","","",""
"psychophysics","167","337253","0.0-12.0-0.38","60719da557d8241609b26e83","636d03e66a32c7f65a0397df","636d0818cfd6760a5395bfa8","820.8000001907349","","","","37","","","","key","16.653266055045922","768","377","true","1","134.44387104768","1.6492674416640005","13","1","-1","","","","","","","","","","","","",""
"psychophysics","168","339843","0.0-12.0-0.39","60719da557d8241609b26e83","636d03e66a32c7f65a0397df","636d0818cfd6760a5395bfa8","1587.3999996185303","","","","37","","","","key","16.651512987012886","768","377","true","-1","136.093138489344","1.6492674416640005","13","-1","1","","","","","","","","","","","","",""
"html-keyboard-response","169","343650","0.0-13.0","60719da557d8241609b26e83","636d03e66a32c7f65a0397df","636d0818cfd6760a5395bfa8","3805.1000003814697","<p>Well Done !</p><p>Prepare for a new block.</p><p>DON'T EXIT THE FULL SCREEN MODE</p><p>Press the Spacebar to start.</p>","","","32","","","","","","","","","","","","","","","true","132.2468879015936","","","","","","","","","","",""
"html-keyboard-response","170","343754","0.0-14.0","60719da557d8241609b26e83","636d03e66a32c7f65a0397df","636d0818cfd6760a5395bfa8","null","","","","null","","","","","","","","","","","","","","","","","132.6167294438605","true","137.23345888772099","","","","","","","",""
"instructions","171","386353","0.0-15.0","60719da557d8241609b26e83","636d03e66a32c7f65a0397df","636d0818cfd6760a5395bfa8","42597","","","","","","","[{""page_index"":0,""viewing_time"":16077},{""page_index"":1,""viewing_time"":2294.9000000953674},{""page_index"":2,""viewing_time"":24224.099999904633}]","","","","","","","","","","","","","","","","","","","","","","","",""
"psychophysics","172","389358","0.0-16.0-0.0","60719da557d8241609b26e83","636d03e66a32c7f65a0397df","636d0818cfd6760a5395bfa8","null","","","","null","","","","key","16.654533333333287","768","377","","","","","","","","","","","","","","","","","","","",""
"psychophysics","173","389868","0.0-16.0-1.0","60719da557d8241609b26e83","636d03e66a32c7f65a0397df","636d0818cfd6760a5395bfa8","null","","","","null","","","","key","16.64706896551772","768","377","","","","","","","","","","","","","137","-1","6","false","","","",""
"psychophysics","174","398914","0.0-16.0-2.0","60719da557d8241609b26e83","636d03e66a32c7f65a0397df","636d0818cfd6760a5395bfa8","9041.10000038147","","","","90","","","","key","16.6523241252302","768","377","","","","","","","","","","","","","","","","","","","",""
"psychophysics","175","399927","0.0-16.0-0.1","60719da557d8241609b26e83","636d03e66a32c7f65a0397df","636d0818cfd6760a5395bfa8","null","","","","null","","","","key","16.65059322033914","768","377","","","","","","","","","","","","","","","","","","","",""
"psychophysics","176","400432","0.0-16.0-1.1","60719da557d8241609b26e83","636d03e66a32c7f65a0397df","636d0818cfd6760a5395bfa8","null","","","","null","","","","key","16.650700000000263","768","377","","","","","","","","","","","","","137","1","0","false","","","",""
"psychophysics","177","403711","0.0-16.0-2.1","60719da557d8241609b26e83","636d03e66a32c7f65a0397df","636d0818cfd6760a5395bfa8","3277.5","","","","90","","","","key","16.652729591836724","768","377","","","","","","","","","","","","","","","","","","","",""
"psychophysics","178","404714","0.0-16.0-0.2","60719da557d8241609b26e83","636d03e66a32c7f65a0397df","636d0818cfd6760a5395bfa8","null","","","","null","","","","key","16.653305084745487","768","377","","","","","","","","","","","","","","","","","","","",""
"psychophysics","179","405218","0.0-16.0-1.2","60719da557d8241609b26e83","636d03e66a32c7f65a0397df","636d0818cfd6760a5395bfa8","null","","","","null","","","","key","16.653103448275942","768","377","","","","","","","","","","","","","137","-1","4","false","","","",""
"psychophysics","180","405696","0.0-16.0-2.2","60719da557d8241609b26e83","636d03e66a32c7f65a0397df","636d0818cfd6760a5395bfa8","476.09999990463257","","","","77","","","","key","16.65171428571505","768","377","","","","","","","","","","","","","","","","","","","",""
"psychophysics","181","406698","0.0-16.0-0.3","60719da557d8241609b26e83","636d03e66a32c7f65a0397df","636d0818cfd6760a5395bfa8","null","","","","null","","","","key","16.65372881355944","768","377","","","","","","","","","","","","","","","","","","","",""
"psychophysics","182","407201","0.0-16.0-1.3","60719da557d8241609b26e83","636d03e66a32c7f65a0397df","636d0818cfd6760a5395bfa8","null","","","","null","","","","key","16.64858620689684","768","377","","","","","","","","","","","","","137","1","5","false","","","",""
"psychophysics","183","407513","0.0-16.0-2.3","60719da557d8241609b26e83","636d03e66a32c7f65a0397df","636d0818cfd6760a5395bfa8","310.5","","","","77","","","","key","16.657666666666046","768","377","","","","","","","","","","","","","","","","","","","",""
"psychophysics","184","408515","0.0-16.0-0.4","60719da557d8241609b26e83","636d03e66a32c7f65a0397df","636d0818cfd6760a5395bfa8","null","","","","null","","","","key","16.652423728813844","768","377","","","","","","","","","","","","","","","","","","","",""
"psychophysics","185","409018","0.0-16.0-1.4","60719da557d8241609b26e83","636d03e66a32c7f65a0397df","636d0818cfd6760a5395bfa8","null","","","","null","","","","key","16.649482758621414","768","377","","","","","","","","","","","","","137","-1","0","false","","","",""
"psychophysics","186","409195","0.0-16.0-2.4","60719da557d8241609b26e83","636d03e66a32c7f65a0397df","636d0818cfd6760a5395bfa8","169.60000038146973","","","","90","","","","key","16.65480000000098","768","377","","","","","","","","","","","","","","","","","","","",""
"psychophysics","187","410197","0.0-16.0-0.5","60719da557d8241609b26e83","636d03e66a32c7f65a0397df","636d0818cfd6760a5395bfa8","null","","","","null","","","","key","16.654203389830478","768","377","","","","","","","","","","","","","","","","","","","",""
"psychophysics","188","410699","0.0-16.0-1.5","60719da557d8241609b26e83","636d03e66a32c7f65a0397df","636d0818cfd6760a5395bfa8","null","","","","null","","","","key","16.652758620689415","768","377","","","","","","","","","","","","","137","1","3","false","","","",""
"psychophysics","189","410999","0.0-16.0-2.5","60719da557d8241609b26e83","636d03e66a32c7f65a0397df","636d0818cfd6760a5395bfa8","293.19999980926514","","","","77","","","","key","16.653823529411216","768","377","","","","","","","","","","","","","","","","","","","",""
"psychophysics","190","412003","0.0-16.0-0.6","60719da557d8241609b26e83","636d03e66a32c7f65a0397df","636d0818cfd6760a5395bfa8","null","","","","null","","","","key","16.654649999999673","768","377","","","","","","","","","","","","","","","","","","","",""
"psychophysics","191","412507","0.0-16.0-1.6","60719da557d8241609b26e83","636d03e66a32c7f65a0397df","636d0818cfd6760a5395bfa8","null","","","","null","","","","key","16.65427586206853","768","377","","","","","","","","","","","","","137","-1","5","false","","","",""
"psychophysics","192","412915","0.0-16.0-2.6","60719da557d8241609b26e83","636d03e66a32c7f65a0397df","636d0818cfd6760a5395bfa8","404.7000002861023","","","","77","","","","key","16.65434782608645","768","377","","","","","","","","","","","","","","","","","","","",""
"psychophysics","193","413919","0.0-16.0-0.7","60719da557d8241609b26e83","636d03e66a32c7f65a0397df","636d0818cfd6760a5395bfa8","null","","","","null","","","","key","16.65091666666655","768","377","","","","","","","","","","","","","","","","","","","",""
"psychophysics","194","414421","0.0-16.0-1.7","60719da557d8241609b26e83","636d03e66a32c7f65a0397df","636d0818cfd6760a5395bfa8","null","","","","null","","","","key","16.65551724137963","768","377","","","","","","","","","","","","","137","1","4","false","","","",""
"psychophysics","195","414621","0.0-16.0-2.7","60719da557d8241609b26e83","636d03e66a32c7f65a0397df","636d0818cfd6760a5395bfa8","198.80000019073486","","","","77","","","","key","16.65636363636639","768","377","","","","","","","","","","","","","","","","","","","",""
"psychophysics","196","415624","0.0-16.0-0.8","60719da557d8241609b26e83","636d03e66a32c7f65a0397df","636d0818cfd6760a5395bfa8","null","","","","null","","","","key","16.651525423728852","768","377","","","","","","","","","","","","","","","","","","","",""
"psychophysics","197","416128","0.0-16.0-1.8","60719da557d8241609b26e83","636d03e66a32c7f65a0397df","636d0818cfd6760a5395bfa8","null","","","","null","","","","key","16.64979310344768","768","377","","","","","","","","","","","","","137","1","6","false","","","",""
"psychophysics","198","416300","0.0-16.0-2.8","60719da557d8241609b26e83","636d03e66a32c7f65a0397df","636d0818cfd6760a5395bfa8","169.90000009536743","","","","77","","","","key","16.667200000002047","768","377","","","","","","","","","","","","","","","","","","","",""
"psychophysics","199","417302","0.0-16.0-0.9","60719da557d8241609b26e83","636d03e66a32c7f65a0397df","636d0818cfd6760a5395bfa8","null","","","","null","","","","key","16.6522372881359","768","377","","","","","","","","","","","","","","","","","","","",""
"psychophysics","200","417804","0.0-16.0-1.9","60719da557d8241609b26e83","636d03e66a32c7f65a0397df","636d0818cfd6760a5395bfa8","null","","","","null","","","","key","16.65410344827527","768","377","","","","","","","","","","","","","137","-1","3","false","","","",""
"psychophysics","201","418065","0.0-16.0-2.9","60719da557d8241609b26e83","636d03e66a32c7f65a0397df","636d0818cfd6760a5395bfa8","258.80000019073486","","","","90","","","","key","16.646666666667443","768","377","","","","","","","","","","","","","","","","","","","",""
"psychophysics","202","419067","0.0-16.0-0.10","60719da557d8241609b26e83","636d03e66a32c7f65a0397df","636d0818cfd6760a5395bfa8","null","","","","null","","","","key","16.65450847457593","768","377","","","","","","","","","","","","","","","","","","","",""
"psychophysics","203","419570","0.0-16.0-1.10","60719da557d8241609b26e83","636d03e66a32c7f65a0397df","636d0818cfd6760a5395bfa8","null","","","","null","","","","key","16.64855172413859","768","377","","","","","","","","","","","","","137","1","2","false","","","",""
"psychophysics","204","419800","0.0-16.0-2.10","60719da557d8241609b26e83","636d03e66a32c7f65a0397df","636d0818cfd6760a5395bfa8","228.59999990463257","","","","90","","","","key","16.654384615383325","768","377","","","","","","","","","","","","","","","","","","","",""
"psychophysics","205","420802","0.0-16.0-0.11","60719da557d8241609b26e83","636d03e66a32c7f65a0397df","636d0818cfd6760a5395bfa8","null","","","","null","","","","key","16.65225423728826","768","377","","","","","","","","","","","","","","","","","","","",""
"psychophysics","206","421306","0.0-16.0-1.11","60719da557d8241609b26e83","636d03e66a32c7f65a0397df","636d0818cfd6760a5395bfa8","null","","","","null","","","","key","16.651724137931836","768","377","","","","","","","","","","","","","137","-1","2","false","","","",""
"psychophysics","207","421670","0.0-16.0-2.11","60719da557d8241609b26e83","636d03e66a32c7f65a0397df","636d0818cfd6760a5395bfa8","359","","","","77","","","","key","16.65138095238113","768","377","","","","","","","","","","","","","","","","","","","",""
"psychophysics","208","422673","0.0-16.0-0.12","60719da557d8241609b26e83","636d03e66a32c7f65a0397df","636d0818cfd6760a5395bfa8","null","","","","null","","","","key","16.651101694915887","768","377","","","","","","","","","","","","","","","","","","","",""
"psychophysics","209","423179","0.0-16.0-1.12","60719da557d8241609b26e83","636d03e66a32c7f65a0397df","636d0818cfd6760a5395bfa8","null","","","","null","","","","key","16.65120000000073","768","377","","","","","","","","","","","","","137","1","4","false","","","",""
"psychophysics","210","423430","0.0-16.0-2.12","60719da557d8241609b26e83","636d03e66a32c7f65a0397df","636d0818cfd6760a5395bfa8","248.7999997138977","","","","77","","","","key","16.64985714286117","768","377","","","","","","","","","","","","","","","","","","","",""
"psychophysics","211","424432","0.0-16.0-0.13","60719da557d8241609b26e83","636d03e66a32c7f65a0397df","636d0818cfd6760a5395bfa8","null","","","","null","","","","key","16.651847457627657","768","377","","","","","","","","","","","","","","","","","","","",""
"psychophysics","212","424934","0.0-16.0-1.13","60719da557d8241609b26e83","636d03e66a32c7f65a0397df","636d0818cfd6760a5395bfa8","null","","","","null","","","","key","16.654448275861796","768","377","","","","","","","","","","","","","137","1","2","false","","","",""
"psychophysics","213","425698","0.0-16.0-2.13","60719da557d8241609b26e83","636d03e66a32c7f65a0397df","636d0818cfd6760a5395bfa8","761.8000001907349","","","","77","","","","key","16.652311111110937","768","377","","","","","","","","","","","","","","","","","","","",""
"psychophysics","214","426700","0.0-16.0-0.14","60719da557d8241609b26e83","636d03e66a32c7f65a0397df","636d0818cfd6760a5395bfa8","null","","","","null","","","","key","16.652440677965217","768","377","","","","","","","","","","","","","","","","","","","",""
"psychophysics","215","427203","0.0-16.0-1.14","60719da557d8241609b26e83","636d03e66a32c7f65a0397df","636d0818cfd6760a5395bfa8","null","","","","null","","","","key","16.65420689655203","768","377","","","","","","","","","","","","","137","1","5","false","","","",""
"psychophysics","216","427573","0.0-16.0-2.14","60719da557d8241609b26e83","636d03e66a32c7f65a0397df","636d0818cfd6760a5395bfa8","363.5","","","","77","","","","key","16.652181818181734","768","377","","","","","","","","","","","","","","","","","","","",""
"psychophysics","217","428576","0.0-16.0-0.15","60719da557d8241609b26e83","636d03e66a32c7f65a0397df","636d0818cfd6760a5395bfa8","null","","","","null","","","","key","16.651779661017226","768","377","","","","","","","","","","","","","","","","","","","",""
"psychophysics","218","429079","0.0-16.0-1.15","60719da557d8241609b26e83","636d03e66a32c7f65a0397df","636d0818cfd6760a5395bfa8","null","","","","null","","","","key","16.653241379308948","768","377","","","","","","","","","","","","","137","-1","6","false","","","",""
"psychophysics","219","429947","0.0-16.0-2.15","60719da557d8241609b26e83","636d03e66a32c7f65a0397df","636d0818cfd6760a5395bfa8","866.6999998092651","","","","77","","","","key","16.65303921568614","768","377","","","","","","","","","","","","","","","","","","","",""
"psychophysics","220","430949","0.0-16.0-0.16","60719da557d8241609b26e83","636d03e66a32c7f65a0397df","636d0818cfd6760a5395bfa8","null","","","","null","","","","key","16.65296610169432","768","377","","","","","","","","","","","","","","","","","","","",""
"psychophysics","221","431455","0.0-16.0-1.16","60719da557d8241609b26e83","636d03e66a32c7f65a0397df","636d0818cfd6760a5395bfa8","null","","","","null","","","","key","16.652633333332293","768","377","","","","","","","","","","","","","137","1","3","false","","","",""
"psychophysics","222","431843","0.0-16.0-2.16","60719da557d8241609b26e83","636d03e66a32c7f65a0397df","636d0818cfd6760a5395bfa8","386.09999990463257","","","","77","","","","key","16.655090909091417","768","377","","","","","","","","","","","","","","","","","","","",""
"psychophysics","223","432845","0.0-16.0-0.17","60719da557d8241609b26e83","636d03e66a32c7f65a0397df","636d0818cfd6760a5395bfa8","null","","","","null","","","","key","16.651627118644004","768","377","","","","","","","","","","","","","","","","","","","",""
"psychophysics","224","433350","0.0-16.0-1.17","60719da557d8241609b26e83","636d03e66a32c7f65a0397df","636d0818cfd6760a5395bfa8","null","","","","null","","","","key","16.651899999999053","768","377","","","","","","","","","","","","","137","-1","2","false","","","",""
"psychophysics","225","433852","0.0-16.0-2.17","60719da557d8241609b26e83","636d03e66a32c7f65a0397df","636d0818cfd6760a5395bfa8","499.1000003814697","","","","90","","","","key","16.6494137931029","768","377","","","","","","","","","","","","","","","","","","","",""
"psychophysics","226","434855","0.0-16.0-0.18","60719da557d8241609b26e83","636d03e66a32c7f65a0397df","636d0818cfd6760a5395bfa8","null","","","","null","","","","key","16.65383050847459","768","377","","","","","","","","","","","","","","","","","","","",""
"psychophysics","227","435357","0.0-16.0-1.18","60719da557d8241609b26e83","636d03e66a32c7f65a0397df","636d0818cfd6760a5395bfa8","null","","","","null","","","","key","16.654172413793777","768","377","","","","","","","","","","","","","137","-1","0","false","","","",""
"psychophysics","228","435789","0.0-16.0-2.18","60719da557d8241609b26e83","636d03e66a32c7f65a0397df","636d0818cfd6760a5395bfa8","429.6000003814697","","","","77","","","","key","16.65476000000024","768","377","","","","","","","","","","","","","","","","","","","",""
"psychophysics","229","436790","0.0-16.0-0.19","60719da557d8241609b26e83","636d03e66a32c7f65a0397df","636d0818cfd6760a5395bfa8","null","","","","null","","","","key","16.65038983050785","768","377","","","","","","","","","","","","","","","","","","","",""
"psychophysics","230","437294","0.0-16.0-1.19","60719da557d8241609b26e83","636d03e66a32c7f65a0397df","636d0818cfd6760a5395bfa8","null","","","","null","","","","key","16.653206896552703","768","377","","","","","","","","","","","","","137","1","0","false","","","",""
"psychophysics","231","437762","0.0-16.0-2.19","60719da557d8241609b26e83","636d03e66a32c7f65a0397df","636d0818cfd6760a5395bfa8","461.40000009536743","","","","77","","","","key","16.647296296296798","768","377","","","","","","","","","","","","","","","","","","","",""
"psychophysics","232","438766","0.0-16.0-0.20","60719da557d8241609b26e83","636d03e66a32c7f65a0397df","636d0818cfd6760a5395bfa8","null","","","","null","","","","key","16.65309999999978","768","377","","","","","","","","","","","","","","","","","","","",""
"psychophysics","233","439269","0.0-16.0-1.20","60719da557d8241609b26e83","636d03e66a32c7f65a0397df","636d0818cfd6760a5395bfa8","null","","","","null","","","","key","16.65175862069009","768","377","","","","","","","","","","","","","137","-1","3","false","","","",""
"psychophysics","234","439580","0.0-16.0-2.20","60719da557d8241609b26e83","636d03e66a32c7f65a0397df","636d0818cfd6760a5395bfa8","309.40000009536743","","","","90","","","","key","16.656444444443977","768","377","","","","","","","","","","","","","","","","","","","",""
"psychophysics","235","440582","0.0-16.0-0.21","60719da557d8241609b26e83","636d03e66a32c7f65a0397df","636d0818cfd6760a5395bfa8","null","","","","null","","","","key","16.65216949152547","768","377","","","","","","","","","","","","","","","","","","","",""
"psychophysics","236","441086","0.0-16.0-1.21","60719da557d8241609b26e83","636d03e66a32c7f65a0397df","636d0818cfd6760a5395bfa8","null","","","","null","","","","key","16.6525517241379","768","377","","","","","","","","","","","","","137","1","6","false","","","",""
"psychophysics","237","441313","0.0-16.0-2.21","60719da557d8241609b26e83","636d03e66a32c7f65a0397df","636d0818cfd6760a5395bfa8","225.60000038146973","","","","77","","","","key","16.652923076924008","768","377","","","","","","","","","","","","","","","","","","","",""
"psychophysics","238","442315","0.0-16.0-0.22","60719da557d8241609b26e83","636d03e66a32c7f65a0397df","636d0818cfd6760a5395bfa8","null","","","","null","","","","key","16.651067796610178","768","377","","","","","","","","","","","","","","","","","","","",""
"psychophysics","239","442817","0.0-16.0-1.22","60719da557d8241609b26e83","636d03e66a32c7f65a0397df","636d0818cfd6760a5395bfa8","null","","","","null","","","","key","16.656172413794437","768","377","","","","","","","","","","","","","137","-1","5","false","","","",""
"psychophysics","240","443479","0.0-16.0-2.22","60719da557d8241609b26e83","636d03e66a32c7f65a0397df","636d0818cfd6760a5395bfa8","660.1999998092651","","","","77","","","","key","16.6511025641021","768","377","","","","","","","","","","","","","","","","","","","",""
"psychophysics","241","444481","0.0-16.0-0.23","60719da557d8241609b26e83","636d03e66a32c7f65a0397df","636d0818cfd6760a5395bfa8","null","","","","null","","","","key","16.65220338983019","768","377","","","","","","","","","","","","","","","","","","","",""
"psychophysics","242","444984","0.0-16.0-1.23","60719da557d8241609b26e83","636d03e66a32c7f65a0397df","636d0818cfd6760a5395bfa8","null","","","","null","","","","key","16.651724137931836","768","377","","","","","","","","","","","","","137","-1","4","false","","","",""
"psychophysics","243","445193","0.0-16.0-2.23","60719da557d8241609b26e83","636d03e66a32c7f65a0397df","636d0818cfd6760a5395bfa8","207.09999990463257","","","","77","","","","key","16.65833333333042","768","377","","","","","","","","","","","","","","","","","","","",""
"html-keyboard-response","244","455253","0.0-17.0","60719da557d8241609b26e83","636d03e66a32c7f65a0397df","636d0818cfd6760a5395bfa8","10057.599999904633","<p>Well Done !</p><p>Training Complete. Press the spacebar to start.</p><p>DON'T EXIT THE FULL SCREEN MODE</p>","","","32","","","","","","","","","","","","","","","","","","","","","","","","","","",""
"psychophysics","245","458257","0.0-18.0-0.0","60719da557d8241609b26e83","636d03e66a32c7f65a0397df","636d0818cfd6760a5395bfa8","null","","","","null","","","","key","16.65158333333384","768","377","","","","","","","","","","","","","","","","","","","",""
"psychophysics","246","458763","0.0-18.0-1.0","60719da557d8241609b26e83","636d03e66a32c7f65a0397df","636d0818cfd6760a5395bfa8","null","","","","null","","","","key","16.653866666665998","768","377","","","","","","","","","","","","","137","-1","5","true","","","",""
"psychophysics","247","459110","0.0-18.0-2.0","60719da557d8241609b26e83","636d03e66a32c7f65a0397df","636d0818cfd6760a5395bfa8","344.5","","","","77","","","","key","16.647894736841984","768","377","","","","","","","","","","","","","","","","","","","",""
"psychophysics","248","460112","0.0-18.0-0.1","60719da557d8241609b26e83","636d03e66a32c7f65a0397df","636d0818cfd6760a5395bfa8","null","","","","null","","","","key","16.649966666667023","768","377","","","","","","","","","","","","","","","","","","","",""
"psychophysics","249","460615","0.0-18.0-1.1","60719da557d8241609b26e83","636d03e66a32c7f65a0397df","636d0818cfd6760a5395bfa8","null","","","","null","","","","key","16.652758620689415","768","377","","","","","","","","","","","","","137","1","0","true","","","",""
"psychophysics","250","460953","0.0-18.0-2.1","60719da557d8241609b26e83","636d03e66a32c7f65a0397df","636d0818cfd6760a5395bfa8","336.5","","","","77","","","","key","16.642947368421837","768","377","","","","","","","","","","","","","","","","","","","",""
"psychophysics","251","461956","0.0-18.0-0.2","60719da557d8241609b26e83","636d03e66a32c7f65a0397df","636d0818cfd6760a5395bfa8","null","","","","null","","","","key","16.65198305084753","768","377","","","","","","","","","","","","","","","","","","","",""
"psychophysics","252","462460","0.0-18.0-1.2","60719da557d8241609b26e83","636d03e66a32c7f65a0397df","636d0818cfd6760a5395bfa8","null","","","","null","","","","key","16.653233333331688","768","377","","","","","","","","","","","","","137","1","3","true","","","",""
"psychophysics","253","462733","0.0-18.0-2.2","60719da557d8241609b26e83","636d03e66a32c7f65a0397df","636d0818cfd6760a5395bfa8","271.40000009536743","","","","77","","","","key","16.655000000000776","768","377","","","","","","","","","","","","","","","","","","","",""
"psychophysics","254","463735","0.0-18.0-0.3","60719da557d8241609b26e83","636d03e66a32c7f65a0397df","636d0818cfd6760a5395bfa8","null","","","","null","","","","key","16.652864406780157","768","377","","","","","","","","","","","","","","","","","","","",""
"psychophysics","255","464240","0.0-18.0-1.3","60719da557d8241609b26e83","636d03e66a32c7f65a0397df","636d0818cfd6760a5395bfa8","null","","","","null","","","","key","16.655966666666792","768","377","","","","","","","","","","","","","137","1","5","true","","","",""
"psychophysics","256","464379","0.0-18.0-2.3","60719da557d8241609b26e83","636d03e66a32c7f65a0397df","636d0818cfd6760a5395bfa8","136.5","","","","77","","","","key","16.6507142857216","768","377","","","","","","","","","","","","","","","","","","","",""
"psychophysics","257","465382","0.0-18.0-0.4","60719da557d8241609b26e83","636d03e66a32c7f65a0397df","636d0818cfd6760a5395bfa8","null","","","","null","","","","key","16.651525423728852","768","377","","","","","","","","","","","","","","","","","","","",""
"psychophysics","258","465886","0.0-18.0-1.4","60719da557d8241609b26e83","636d03e66a32c7f65a0397df","636d0818cfd6760a5395bfa8","null","","","","null","","","","key","16.656689655172222","768","377","","","","","","","","","","","","","137","-1","2","true","","","",""
"psychophysics","259","466260","0.0-18.0-2.4","60719da557d8241609b26e83","636d03e66a32c7f65a0397df","636d0818cfd6760a5395bfa8","369.5","","","","90","","","","key","16.65090909090941","768","377","","","","","","","","","","","","","","","","","","","",""
"psychophysics","260","467263","0.0-18.0-0.5","60719da557d8241609b26e83","636d03e66a32c7f65a0397df","636d0818cfd6760a5395bfa8","null","","","","null","","","","key","16.650152542372826","768","377","","","","","","","","","","","","","","","","","","","",""
"psychophysics","261","467768","0.0-18.0-1.5","60719da557d8241609b26e83","636d03e66a32c7f65a0397df","636d0818cfd6760a5395bfa8","null","","","","null","","","","key","16.655034482760097","768","377","","","","","","","","","","","","","137","-1","3","true","","","",""
"psychophysics","262","467926","0.0-18.0-2.5","60719da557d8241609b26e83","636d03e66a32c7f65a0397df","636d0818cfd6760a5395bfa8","153.40000009536743","","","","77","","","","key","16.663111111110386","768","377","","","","","","","","","","","","","","","","","","","",""
"psychophysics","263","468929","0.0-18.0-0.6","60719da557d8241609b26e83","636d03e66a32c7f65a0397df","636d0818cfd6760a5395bfa8","null","","","","null","","","","key","16.650999999999748","768","377","","","","","","","","","","","","","","","","","","","",""
"psychophysics","264","469431","0.0-18.0-1.6","60719da557d8241609b26e83","636d03e66a32c7f65a0397df","636d0818cfd6760a5395bfa8","null","","","","null","","","","key","16.65665517241397","768","377","","","","","","","","","","","","","137","-1","6","true","","","",""
"psychophysics","265","469830","0.0-18.0-2.6","60719da557d8241609b26e83","636d03e66a32c7f65a0397df","636d0818cfd6760a5395bfa8","383.19999980926514","","","","77","","","","key","16.655695652174156","768","377","","","","","","","","","","","","","","","","","","","",""
"psychophysics","266","470836","0.0-18.0-0.7","60719da557d8241609b26e83","636d03e66a32c7f65a0397df","636d0818cfd6760a5395bfa8","null","","","","null","","","","key","16.654649999999673","768","377","","","","","","","","","","","","","","","","","","","",""
"psychophysics","267","471339","0.0-18.0-1.7","60719da557d8241609b26e83","636d03e66a32c7f65a0397df","636d0818cfd6760a5395bfa8","null","","","","null","","","","key","16.645896551723126","768","377","","","","","","","","","","","","","137","-1","0","true","","","",""
"psychophysics","268","471520","0.0-18.0-2.7","60719da557d8241609b26e83","636d03e66a32c7f65a0397df","636d0818cfd6760a5395bfa8","180.19999980926514","","","","77","","","","key","16.644799999997485","768","377","","","","","","","","","","","","","","","","","","","",""
"psychophysics","269","472522","0.0-18.0-0.8","60719da557d8241609b26e83","636d03e66a32c7f65a0397df","636d0818cfd6760a5395bfa8","null","","","","null","","","","key","16.656016949151834","768","377","","","","","","","","","","","","","","","","","","","",""
"psychophysics","270","473026","0.0-18.0-1.8","60719da557d8241609b26e83","636d03e66a32c7f65a0397df","636d0818cfd6760a5395bfa8","null","","","","null","","","","key","16.652965517242936","768","377","","","","","","","","","","","","","137","1","4","true","","","",""
"psychophysics","271","473186","0.0-18.0-2.8","60719da557d8241609b26e83","636d03e66a32c7f65a0397df","636d0818cfd6760a5395bfa8","157.7999997138977","","","","77","","","","key","16.646777777777363","768","377","","","","","","","","","","","","","","","","","","","",""
"psychophysics","272","474188","0.0-18.0-0.9","60719da557d8241609b26e83","636d03e66a32c7f65a0397df","636d0818cfd6760a5395bfa8","null","","","","null","","","","key","16.65350847457579","768","377","","","","","","","","","","","","","","","","","","","",""
"psychophysics","273","474691","0.0-18.0-1.9","60719da557d8241609b26e83","636d03e66a32c7f65a0397df","636d0818cfd6760a5395bfa8","null","","","","null","","","","key","16.65213793103286","768","377","","","","","","","","","","","","","137","1","2","true","","","",""
"psychophysics","274","475123","0.0-18.0-2.9","60719da557d8241609b26e83","636d03e66a32c7f65a0397df","636d0818cfd6760a5395bfa8","430.59999990463257","","","","77","","","","key","16.652919999998993","768","377","","","","","","","","","","","","","","","","","","","",""
"psychophysics","275","476130","0.0-18.0-0.10","60719da557d8241609b26e83","636d03e66a32c7f65a0397df","636d0818cfd6760a5395bfa8","null","","","","null","","","","key","16.650133333332874","768","377","","","","","","","","","","","","","","","","","","","",""
"psychophysics","276","476636","0.0-18.0-1.10","60719da557d8241609b26e83","636d03e66a32c7f65a0397df","636d0818cfd6760a5395bfa8","null","","","","null","","","","key","16.648448275861828","768","377","","","","","","","","","","","","","137","-1","4","true","","","",""
"psychophysics","277","477085","0.0-18.0-2.10","60719da557d8241609b26e83","636d03e66a32c7f65a0397df","636d0818cfd6760a5395bfa8","449.2000002861023","","","","77","","","","key","16.651384615384114","768","377","","","","","","","","","","","","","","","","","","","",""
"psychophysics","278","478087","0.0-18.0-0.11","60719da557d8241609b26e83","636d03e66a32c7f65a0397df","636d0818cfd6760a5395bfa8","null","","","","null","","","","key","16.652406779660495","768","377","","","","","","","","","","","","","","","","","","","",""
"psychophysics","279","478589","0.0-18.0-1.11","60719da557d8241609b26e83","636d03e66a32c7f65a0397df","636d0818cfd6760a5395bfa8","null","","","","null","","","","key","16.652931034484684","768","377","","","","","","","","","","","","","137","1","6","true","","","",""
"psychophysics","280","478702","0.0-18.0-2.11","60719da557d8241609b26e83","636d03e66a32c7f65a0397df","636d0818cfd6760a5395bfa8","112.10000038146973","","","","77","","","","key","16.649333333334653","768","377","","","","","","","","","","","","","","","","","","","",""
"psychophysics","281","479704","0.0-18.0-0.12","60719da557d8241609b26e83","636d03e66a32c7f65a0397df","636d0818cfd6760a5395bfa8","null","","","","null","","","","key","16.65208474576268","768","377","","","","","","","","","","","","","","","","","","","",""
"psychophysics","282","480205","0.0-18.0-1.12","60719da557d8241609b26e83","636d03e66a32c7f65a0397df","636d0818cfd6760a5395bfa8","null","","","","null","","","","key","16.65600000000117","768","377","","","","","","","","","","","","","137","1","4","true","","","",""
"psychophysics","283","480408","0.0-18.0-2.12","60719da557d8241609b26e83","636d03e66a32c7f65a0397df","636d0818cfd6760a5395bfa8","195.69999980926514","","","","77","","","","key","16.645727272727527","768","377","","","","","","","","","","","","","","","","","","","",""
"psychophysics","284","481410","0.0-18.0-0.13","60719da557d8241609b26e83","636d03e66a32c7f65a0397df","636d0818cfd6760a5395bfa8","null","","","","null","","","","key","16.650666666666318","768","377","","","","","","","","","","","","","","","","","","","",""
"psychophysics","285","481912","0.0-18.0-1.13","60719da557d8241609b26e83","636d03e66a32c7f65a0397df","636d0818cfd6760a5395bfa8","null","","","","null","","","","key","16.655206896553363","768","377","","","","","","","","","","","","","137","1","3","true","","","",""
"psychophysics","286","482377","0.0-18.0-2.13","60719da557d8241609b26e83","636d03e66a32c7f65a0397df","636d0818cfd6760a5395bfa8","462.80000019073486","","","","77","","","","key","16.653148148148492","768","377","","","","","","","","","","","","","","","","","","","",""
"psychophysics","287","483378","0.0-18.0-0.14","60719da557d8241609b26e83","636d03e66a32c7f65a0397df","636d0818cfd6760a5395bfa8","null","","","","null","","","","key","16.651271186440482","768","377","","","","","","","","","","","","","","","","","","","",""
"psychophysics","288","483881","0.0-18.0-1.14","60719da557d8241609b26e83","636d03e66a32c7f65a0397df","636d0818cfd6760a5395bfa8","null","","","","null","","","","key","16.650965517242277","768","377","","","","","","","","","","","","","137","-1","0","true","","","",""
"psychophysics","289","484271","0.0-18.0-2.14","60719da557d8241609b26e83","636d03e66a32c7f65a0397df","636d0818cfd6760a5395bfa8","386.90000009536743","","","","90","","","","key","16.645863636365075","768","377","","","","","","","","","","","","","","","","","","","",""
"psychophysics","290","485275","0.0-18.0-0.15","60719da557d8241609b26e83","636d03e66a32c7f65a0397df","636d0818cfd6760a5395bfa8","null","","","","null","","","","key","16.65350000000035","768","377","","","","","","","","","","","","","","","","","","","",""
"psychophysics","291","485777","0.0-18.0-1.15","60719da557d8241609b26e83","636d03e66a32c7f65a0397df","636d0818cfd6760a5395bfa8","null","","","","null","","","","key","16.65175862069009","768","377","","","","","","","","","","","","","137","-1","2","true","","","",""
"psychophysics","292","486171","0.0-18.0-2.15","60719da557d8241609b26e83","636d03e66a32c7f65a0397df","636d0818cfd6760a5395bfa8","391.59999990463257","","","","90","","","","key","16.651045454546956","768","377","","","","","","","","","","","","","","","","","","","",""
"psychophysics","293","487173","0.0-18.0-0.16","60719da557d8241609b26e83","636d03e66a32c7f65a0397df","636d0818cfd6760a5395bfa8","null","","","","null","","","","key","16.653700000000146","768","377","","","","","","","","","","","","","","","","","","","",""
"psychophysics","294","487677","0.0-18.0-1.16","60719da557d8241609b26e83","636d03e66a32c7f65a0397df","636d0818cfd6760a5395bfa8","null","","","","null","","","","key","16.65303448275944","768","377","","","","","","","","","","","","","137","-1","5","true","","","",""
"psychophysics","295","487960","0.0-18.0-2.16","60719da557d8241609b26e83","636d03e66a32c7f65a0397df","636d0818cfd6760a5395bfa8","280.80000019073486","","","","77","","","","key","16.652624999998807","768","377","","","","","","","","","","","","","","","","","","","",""
"psychophysics","296","488962","0.0-18.0-0.17","60719da557d8241609b26e83","636d03e66a32c7f65a0397df","636d0818cfd6760a5395bfa8","null","","","","null","","","","key","16.65230508474633","768","377","","","","","","","","","","","","","","","","","","","",""
"psychophysics","297","489465","0.0-18.0-1.17","60719da557d8241609b26e83","636d03e66a32c7f65a0397df","636d0818cfd6760a5395bfa8","null","","","","null","","","","key","16.652413793102887","768","377","","","","","","","","","","","","","137","-1","3","true","","","",""
"psychophysics","298","490039","0.0-18.0-2.17","60719da557d8241609b26e83","636d03e66a32c7f65a0397df","636d0818cfd6760a5395bfa8","568.6000003814697","","","","77","","","","key","16.65444117647027","768","377","","","","","","","","","","","","","","","","","","","",""
"psychophysics","299","491041","0.0-18.0-0.18","60719da557d8241609b26e83","636d03e66a32c7f65a0397df","636d0818cfd6760a5395bfa8","null","","","","null","","","","key","16.650796610169444","768","377","","","","","","","","","","","","","","","","","","","",""
"psychophysics","300","491544","0.0-18.0-1.18","60719da557d8241609b26e83","636d03e66a32c7f65a0397df","636d0818cfd6760a5395bfa8","null","","","","null","","","","key","16.655655172412636","768","377","","","","","","","","","","","","","137","1","2","true","","","",""
"psychophysics","301","491753","0.0-18.0-2.18","60719da557d8241609b26e83","636d03e66a32c7f65a0397df","636d0818cfd6760a5395bfa8","207.60000038146973","","","","77","","","","key","16.639416666667483","768","377","","","","","","","","","","","","","","","","","","","",""
"psychophysics","302","492756","0.0-18.0-0.19","60719da557d8241609b26e83","636d03e66a32c7f65a0397df","636d0818cfd6760a5395bfa8","null","","","","null","","","","key","16.65201694915225","768","377","","","","","","","","","","","","","","","","","","","",""
"psychophysics","303","493259","0.0-18.0-1.19","60719da557d8241609b26e83","636d03e66a32c7f65a0397df","636d0818cfd6760a5395bfa8","null","","","","null","","","","key","16.65182758620659","768","377","","","","","","","","","","","","","137","1","6","true","","","",""
"psychophysics","304","493691","0.0-18.0-2.19","60719da557d8241609b26e83","636d03e66a32c7f65a0397df","636d0818cfd6760a5395bfa8","430.09999990463257","","","","77","","","","key","16.654639999999198","768","377","","","","","","","","","","","","","","","","","","","",""
"psychophysics","305","494694","0.0-18.0-0.20","60719da557d8241609b26e83","636d03e66a32c7f65a0397df","636d0818cfd6760a5395bfa8","null","","","","null","","","","key","16.652576271186078","768","377","","","","","","","","","","","","","","","","","","","",""
"psychophysics","306","495198","0.0-18.0-1.20","60719da557d8241609b26e83","636d03e66a32c7f65a0397df","636d0818cfd6760a5395bfa8","null","","","","null","","","","key","16.65276666666614","768","377","","","","","","","","","","","","","137","1","0","true","","","",""
"psychophysics","307","495441","0.0-18.0-2.20","60719da557d8241609b26e83","636d03e66a32c7f65a0397df","636d0818cfd6760a5395bfa8","241","","","","77","","","","key","16.65769230769589","768","377","","","","","","","","","","","","","","","","","","","",""
"psychophysics","308","496443","0.0-18.0-0.21","60719da557d8241609b26e83","636d03e66a32c7f65a0397df","636d0818cfd6760a5395bfa8","null","","","","null","","","","key","16.6537457627118","768","377","","","","","","","","","","","","","","","","","","","",""
"psychophysics","309","496946","0.0-18.0-1.21","60719da557d8241609b26e83","636d03e66a32c7f65a0397df","636d0818cfd6760a5395bfa8","null","","","","null","","","","key","16.651066666666885","768","377","","","","","","","","","","","","","137","-1","6","true","","","",""
"psychophysics","310","497572","0.0-18.0-2.21","60719da557d8241609b26e83","636d03e66a32c7f65a0397df","636d0818cfd6760a5395bfa8","624","","","","77","","","","key","16.65419444444544","768","377","","","","","","","","","","","","","","","","","","","",""
"psychophysics","311","498578","0.0-18.0-0.22","60719da557d8241609b26e83","636d03e66a32c7f65a0397df","636d0818cfd6760a5395bfa8","null","","","","null","","","","key","16.652350000000055","768","377","","","","","","","","","","","","","","","","","","","",""
"psychophysics","312","499081","0.0-18.0-1.22","60719da557d8241609b26e83","636d03e66a32c7f65a0397df","636d0818cfd6760a5395bfa8","null","","","","null","","","","key","16.655206896551356","768","377","","","","","","","","","","","","","137","1","5","true","","","",""
"psychophysics","313","499514","0.0-18.0-2.22","60719da557d8241609b26e83","636d03e66a32c7f65a0397df","636d0818cfd6760a5395bfa8","431","","","","77","","","","key","16.657040000001434","768","377","","","","","","","","","","","","","","","","","","","",""
"psychophysics","314","500517","0.0-18.0-0.23","60719da557d8241609b26e83","636d03e66a32c7f65a0397df","636d0818cfd6760a5395bfa8","null","","","","null","","","","key","16.654135593221035","768","377","","","","","","","","","","","","","","","","","","","",""
"psychophysics","315","501019","0.0-18.0-1.23","60719da557d8241609b26e83","636d03e66a32c7f65a0397df","636d0818cfd6760a5395bfa8","null","","","","null","","","","key","16.650275862069222","768","377","","","","","","","","","","","","","137","-1","4","true","","","",""
"psychophysics","316","501598","0.0-18.0-2.23","60719da557d8241609b26e83","636d03e66a32c7f65a0397df","636d0818cfd6760a5395bfa8","576.8000001907349","","","","77","","","","key","16.651352941176704","768","377","","","","","","","","","","","","","","","","","","","",""
"psychophysics","317","502600","0.0-18.0-0.24","60719da557d8241609b26e83","636d03e66a32c7f65a0397df","636d0818cfd6760a5395bfa8","null","","","","null","","","","key","16.65269491525359","768","377","","","","","","","","","","","","","","","","","","","",""
"psychophysics","318","503104","0.0-18.0-1.24","60719da557d8241609b26e83","636d03e66a32c7f65a0397df","636d0818cfd6760a5395bfa8","null","","","","null","","","","key","16.651241379310296","768","377","","","","","","","","","","","","","137","1","6","true","","","",""
"psychophysics","319","503750","0.0-18.0-2.24","60719da557d8241609b26e83","636d03e66a32c7f65a0397df","636d0818cfd6760a5395bfa8","628.3000001907349","","","","77","","","","key","16.65223684210612","768","377","","","","","","","","","","","","","","","","","","","",""
"psychophysics","320","504753","0.0-18.0-0.25","60719da557d8241609b26e83","636d03e66a32c7f65a0397df","636d0818cfd6760a5395bfa8","null","","","","null","","","","key","16.65372881355944","768","377","","","","","","","","","","","","","","","","","","","",""
"psychophysics","321","505257","0.0-18.0-1.25","60719da557d8241609b26e83","636d03e66a32c7f65a0397df","636d0818cfd6760a5395bfa8","null","","","","null","","","","key","16.654999999998836","768","377","","","","","","","","","","","","","137","-1","3","true","","","",""
"psychophysics","322","506182","0.0-18.0-2.25","60719da557d8241609b26e83","636d03e66a32c7f65a0397df","636d0818cfd6760a5395bfa8","922.9000000953674","","","","77","","","","key","16.650111111111645","768","377","","","","","","","","","","","","","","","","","","","",""
"psychophysics","323","507184","0.0-18.0-0.26","60719da557d8241609b26e83","636d03e66a32c7f65a0397df","636d0818cfd6760a5395bfa8","null","","","","null","","","","key","16.652779661017366","768","377","","","","","","","","","","","","","","","","","","","",""
"psychophysics","324","507687","0.0-18.0-1.26","60719da557d8241609b26e83","636d03e66a32c7f65a0397df","636d0818cfd6760a5395bfa8","null","","","","null","","","","key","16.650566666666418","768","377","","","","","","","","","","","","","137","1","2","true","","","",""
"psychophysics","325","508292","0.0-18.0-2.26","60719da557d8241609b26e83","636d03e66a32c7f65a0397df","636d0818cfd6760a5395bfa8","602.3000001907349","","","","77","","","","key","16.652971428571202","768","377","","","","","","","","","","","","","","","","","","","",""
"psychophysics","326","509294","0.0-18.0-0.27","60719da557d8241609b26e83","636d03e66a32c7f65a0397df","636d0818cfd6760a5395bfa8","null","","","","null","","","","key","16.65042372881356","768","377","","","","","","","","","","","","","","","","","","","",""
"psychophysics","327","509800","0.0-18.0-1.27","60719da557d8241609b26e83","636d03e66a32c7f65a0397df","636d0818cfd6760a5395bfa8","null","","","","null","","","","key","16.653633333333225","768","377","","","","","","","","","","","","","137","-1","4","true","","","",""
"psychophysics","328","510521","0.0-18.0-2.27","60719da557d8241609b26e83","636d03e66a32c7f65a0397df","636d0818cfd6760a5395bfa8","718","","","","77","","","","key","16.65028571428515","768","377","","","","","","","","","","","","","","","","","","","",""
"psychophysics","329","511523","0.0-18.0-0.28","60719da557d8241609b26e83","636d03e66a32c7f65a0397df","636d0818cfd6760a5395bfa8","null","","","","null","","","","key","16.648576271186496","768","377","","","","","","","","","","","","","","","","","","","",""
"psychophysics","330","512024","0.0-18.0-1.28","60719da557d8241609b26e83","636d03e66a32c7f65a0397df","636d0818cfd6760a5395bfa8","null","","","","null","","","","key","16.659034482759406","768","377","","","","","","","","","","","","","137","1","4","true","","","",""
"psychophysics","331","512401","0.0-18.0-2.28","60719da557d8241609b26e83","636d03e66a32c7f65a0397df","636d0818cfd6760a5395bfa8","374.69999980926514","","","","77","","","","key","16.64927272727205","768","377","","","","","","","","","","","","","","","","","","","",""
"psychophysics","332","513404","0.0-18.0-0.29","60719da557d8241609b26e83","636d03e66a32c7f65a0397df","636d0818cfd6760a5395bfa8","null","","","","null","","","","key","16.653203389830335","768","377","","","","","","","","","","","","","","","","","","","",""
"psychophysics","333","513907","0.0-18.0-1.29","60719da557d8241609b26e83","636d03e66a32c7f65a0397df","636d0818cfd6760a5395bfa8","null","","","","null","","","","key","16.65179310344834","768","377","","","","","","","","","","","","","137","1","0","true","","","",""
